time division length width area intensity CMx CMy
0 0 44.0576 12.0751 532 155.195 27.0282 501.712
1 0 45.0282 12.5255 564 146.729 26.3794 501.757
2 0 46.0092 12.2367 563 147.845 26.5293 501.183
3 0 49.0267 12.9929 637 134.546 26.3454 501.281
4 0 49.0397 13.2342 649 129.792 26.416 500.735
5 0 50.0378 13.21 661 128.268 26.1089 499.793
6 0 51.022 13.2688 677 127.319 26.4446 499.037
7 0 53.0246 13.0883 694 125.585 26.4063 499.79
8 0 53.0247 12.6922 673 127.227 26.1842 499.059
9 0 55.0282 12.8116 705 124.704 26.0879 498.793
10 0 56.0291 12.7077 712 124.187 26.9972 496.576
11 0 58.126 13.0922 761 122.012 25.4691 496.373
12 0 62.0736 13.049 810 121.3 25.5926 494.504
13 0 63.0622 13.5263 853 120.539 24.9988 493.193
14 0 66.0823 12.8779 851 122.354 24.4465 492.202
15 0 69.1543 13.7374 950 119.913 24.8011 490.579
16 0 73.1847 14.033 1027 119.311 24.6465 489.844
17 0 74.1481 14.026 1040 118.706 23.575 487.628
18 0 76.1065 14.0724 1071 119.118 24.7283 487.444
19 0 80.2033 13.6403 1094 119.165 23.8144 486.577
20 0 84.1418 13.9645 1175 117.245 24.2919 486.117
21 0 84.1126 14.7065 1237 116.454 23.8698 484.725
22 0 89.0432 13.7237 1222 114.091 25.2332 483.901
23 0 91.0519 13.8822 1264 113.218 24.485 482.702
24 0 95.0676 12.8014 1217 116.707 24.6508 481.553
25 0 98.0921 13.2936 1304 114.502 23.8512 479.488
26 0 101.093 13.2749 1342 113.278 24.2958 478.879
27 0 103.115 13.3637 1378 112.351 23.8723 477.44
28 0 106.064 13.6616 1449 112.46 23.6473 475.415
29 1 52.0288 12.1087 630 111.217 23.7635 500.84
30 0 57.0454 12.5514 716 108.637 24.6662 498.955
31 0 58.0661 13.278 771 107.054 24.1232 498.324
32 0 61.0189 13.7335 838 100.715 24.3496 497.661
33 0 61.0538 13.2179 807 99.3333 24.2131 497.152
34 0 63.0473 13.4502 848 100.243 23.0873 496.279
35 0 66.0813 13.6196 900 102.269 23.5389 495.038
36 0 68.1877 13.8148 942 103.822 22.9639 494.419
37 0 71.1258 13.7081 975 102.334 23.5231 492.201
38 0 72.1182 13.1728 950 103.722 23.2579 491.84
39 0 73.0618 13.3312 974 103.517 23.4353 489.368
40 0 76.1301 13.2405 1008 102.505 23.4831 487.554
41 0 79.1047 13.4 1060 99.5443 24.3 487.956
42 0 81.0292 13.7605 1115 98.774 24.183 486.665
43 0 82.0522 13.4914 1107 99.131 23.2656 486.719
44 0 87.0427 13.9472 1214 97.061 23.8081 484.978
45 0 89.1301 13.8674 1236 98.8074 23.3422 483.006
46 0 91.0409 13.796 1256 99.0868 23.7301 482.485
47 0 94.1021 14.0486 1322 97.2035 23.0136 480.906
48 0 97.1311 14.187 1378 98.8055 23.857 477.306
49 1 49.0536 12.0073 589 98.7861 23.1392 502.049
50 0 51.0272 12.9931 663 97.2278 23.7707 501.373
51 0 54.0732 13.2783 718 94.578 23.7813 501.001
52 0 54.0335 12.9179 698 97.2894 23.3496 501.165
53 0 55.0356 13.0098 716 96.3478 22.6271 499.7
54 0 58.0542 13.1773 765 97.5216 23.3556 497.761
55 0 61.0619 13.9039 849 96.3545 23.391 496.633
56 0 61.0508 13.5461 827 99.4571 22.7437 495.68
57 0 65.0774 13.8604 902 98.714 22.7239 492.9
58 0 67.0174 14.0859 944 98.9258 23.1017 492.877
59 0 69.0952 13.9083 961 100.362 22.2071 491.826
60 0 71.0942 13.7001 974 101.708 22.732 490.592
61 0 73.1273 14.3175 1047 101.628 23.1012 489.96
62 0 76.0681 14.3424 1091 101.764 22.8909 488.469
63 0 78.1491 13.8197 1080 103.419 22.7713 487.523
64 0 80.1008 13.3831 1072 104.993 23.2854 486.753
65 0 84.088 14.0091 1178 103.388 22.9669 485.959
66 0 85.0874 13.9034 1183 102.568 22.5351 485.13
67 0 88.0485 14.015 1234 102.543 22.2585 483.523
68 0 90.0543 13.7806 1241 103.092 22.8268 481.073
69 0 94.0877 14.242 1340 98.5097 23.4381 481.139
70 0 95.0547 13.8341 1315 99.0875 24.0091 479.307
71 1 49.0264 11.708 574 94.4268 23.5976 503.855
72 0 52.0306 11.8584 617 93.0502 23.5397 503.624
73 0 51.0309 12.4043 633 94.9779 23.4092 501.384
74 0 54.0229 12.1985 659 93.6055 23.4476 500.958
75 0 57.0328 11.7125 668 91.2275 23.4805 499.868
76 0 58.0831 12.8609 747 90.8019 23.166 498.791
77 0 61.04 13.0079 794 93.136 23.0932 496.972
78 0 64.0225 12.9954 832 94.3486 23.8029 495.879
79 0 67.0195 13.2797 890 96.4697 23.7438 494.331
80 0 68.0605 13.3117 906 97.5541 24.0088 493.659
81 0 69.0519 13.5985 939 98.6826 23.8914 493.285
82 0 71.031 13.4871 958 99.9374 23.976 493.23
83 0 75.1465 13.64 1025 100.631 23.3678 490.128
84 0 77.0738 13.4157 1034 101.044 24.0426 490.105
85 0 79.0496 13.6876 1082 101.113 23.8965 490.043
86 0 82.0886 13.4002 1100 102.737 23.94 487.204
87 0 85.0905 13.6443 1161 104.28 24.1507 485.715
88 0 86.1248 13.3875 1153 107.627 24.8092 485.021
89 1 42.0421 10.9652 461 106.436 24.9458 507.204
90 0 44.0163 11.7684 518 105.156 24.5637 506.276
91 0 46.0274 12.1667 560 106.134 24.3625 505.882
92 0 42.0203 11.0899 466 102.011 24.9034 506.288
93 0 44.0324 11.6732 514 101.669 24.3171 505.582
94 0 45.0164 11.4403 515 104.34 24.0641 504.495
95 0 47.0246 11.5897 545 103.69 23.9138 504.606
96 0 47.0197 11.9737 563 105.201 24.1581 503.762
97 0 49.0061 11.9781 587 106.041 23.8807 503.422
98 0 53.0104 11.8467 628 104.688 24.3057 503.866
99 0 52.036 12.2223 636 106.278 24.3915 503.005
100 0 53.0353 11.8223 627 109.062 23.7911 502.82
101 0 57.0234 12.3107 702 107.714 24.3362 500.329
102 0 57.0476 12.4633 711 108.965 23.3797 499.608
103 0 61.0576 12.6602 773 107.978 23.9379 498.558
104 0 62.0302 12.4455 772 110.184 23.5026 497.424
105 0 64.0117 13.2163 846 108.637 23.948 496.191
106 0 66.0322 13.2208 873 110.633 22.9347 494.825
107 0 68.0487 12.9613 882 111.712 23.7018 492.773
108 0 71.0121 12.4345 883 112.008 22.9672 492.191
109 0 72.013 12.4977 900 111.806 23.48 491.329
110 0 75.1007 12.3301 926 108.562 23.1771 490.467
111 0 79.0848 13.4792 1066 103.032 22.6726 487.28
112 0 79.1937 12.4884 989 109.666 22.816 487.638
113 0 83.0964 13.5265 1124 104.994 22.6895 486.494
114 0 84.1384 12.4081 1044 108.043 22.6648 484.906
115 0 88.0441 13.1184 1155 105.007 22.3238 483.654
116 0 90.1055 12.6851 1143 105.503 22.5713 482.34
117 1 47.0062 10.5731 497 103.087 22.3763 505.113
118 0 48.0133 11.3302 544 99.989 22.8621 503.688
119 0 50.0098 11.6377 582 101.931 23.2234 502.124
120 0 46.0103 10.1064 465 97.0624 23.3312 503.125
121 0 50.0399 11.1111 556 92.9748 23.018 503.39
122 0 49.0088 10.4063 510 95.3686 23.2373 501.706
123 0 52.0713 11.2922 588 93.4065 23.119 499.893
124 0 54.05 10.4163 563 95.1723 23.5115 499.417
125 0 56.0112 10.3372 579 95.6649 23.3644 499.28
126 0 57.0214 10.5048 599 95.8314 23.4541 498.528
127 0 60.0569 10.6899 642 94.2009 23.2648 497.098
128 0 60.0403 9.94333 597 97.8224 23.928 495.67
129 0 62.0578 11.1348 691 94.0014 24.191 495.207
130 0 64.0665 10.5827 678 96.2463 24.087 495.456
131 0 65.0825 10.4944 683 96.4524 23.2255 494.145
132 0 68.038 11.0674 753 94.7822 22.842 493.096
133 0 72.0271 11.3152 815 92.4319 22.7951 491.377
134 0 73.0351 10.584 773 94.0414 22.8887 491.595
135 0 75.0377 11.1277 835 93.3796 23.412 490.018
136 0 79.0327 10.9828 868 93.2719 23.3952 488.315
137 0 80.0418 10.557 845 94.3787 23.2568 486.77
138 0 83.1136 10.8887 905 92.6033 23.3492 485.733
139 0 87.059 11.5669 1007 89.8987 23.7597 484.167
140 0 88.0296 12.2345 1077 93.9489 22.454 480.693
141 1 47.0822 9.87635 465 94.0925 22.8989 503.673
142 0 49.0421 10.542 517 89.7776 23.1992 503.867
143 0 52.0332 10.993 572 88.3881 22.6101 501.367
144 0 55.0515 11.7345 646 97.9954 22.4706 500.15
145 0 52.0206 10.0537 523 88.7342 22.3556 504.474
146 0 53.0165 9.52534 505 90.1149 23.6059 502.899
147 0 55.0396 10.2653 565 87.6779 22.5611 502.593
148 0 57.0264 10.1357 578 87.9862 22.2111 501.441
149 0 56.0228 9.49613 532 90.3383 22.5639 499.742
150 0 58.0418 9.28641 539 89.4156 22.1113 500.495
151 0 61.0517 8.95962 547 89.7459 22.5521 499.497
152 0 62.0427 10.251 636 85.5645 21.9057 498.08
153 0 66.0645 10.5503 697 84.6026 22.4146 496.621
154 0 69.082 10.4079 719 84.8943 22.2128 494.132
155 0 70.0507 10.0499 704 84.2528 22.8793 494.987
156 0 72.1191 10.7738 777 83.3951 23.3037 493.53
157 0 73.0528 10.1707 743 86.0781 23.1884 491.918
158 0 77.0498 10.4478 805 85.2112 22.559 492.725
159 0 79.07 10.8259 856 85.4404 22.7196 489.548
160 0 82.043 11.0308 905 84.5669 23.221 489.375
161 0 84.0554 10.8619 913 84.9584 22.0449 486.199
162 1 44.0642 10.8251 477 83.2201 22.0273 506.987
163 0 45.0094 11.1532 502 80.7669 22.3267 505.359
164 0 46.1016 11.4963 530 80.8245 22.1943 504.579
165 0 48.0648 11.5677 556 80.8273 22.3004 502.581
166 0 47.0213 11.0376 519 81.0328 22.7746 502.829
167 0 50.0487 12.0483 603 83.7546 22.0978 502.468
168 0 47.0137 11.8689 558 84.8297 22.2061 502.22
169 0 51.0821 11.6871 597 87.0754 22.531 501.903
170 0 53.0678 12.2108 648 87.9198 22.284 500.941
171 0 52.0772 12.059 628 90.9283 22.3376 501.121
172 0 53.1089 11.58 615 92.8504 21.9772 499.919
173 0 55.0257 11.8308 651 92.2903 22.3026 498.975
174 0 58.1293 12.455 724 91.4309 22.0456 497.744
175 0 57.134 12.1469 694 93.6268 22.3372 497.133
176 0 62.0716 12.5178 777 92.1467 22.8546 496.955
177 0 61.0499 11.8919 726 95.3444 22.5248 495.523
178 0 62.09 12.6107 783 94.8391 22.2708 494.822
179 0 66.0931 13.254 876 92.0685 22.4155 493.958
180 0 68.0849 12.5579 855 95.0152 22.5251 492.913
181 0 70.0497 13.0336 913 93.069 22.2114 493.03
182 0 73.0594 12.7704 933 93.8457 21.8435 491.631
183 0 75.0469 13.3783 1004 93.3586 22.4661 490.377
184 0 76.0365 12.9017 981 95.0255 23.3721 488.705
185 0 75.0253 12.4225 932 98.5569 21.7092 488.289
186 0 79.0179 12.5668 993 97.5811 22.4965 487.207
187 0 81.039 12.6359 1024 98.1611 21.9619 485.801
188 0 84.0858 13.5457 1139 96.345 22.1598 484.64
189 0 85.0433 13.3932 1139 97.3047 22.3099 483.793
190 0 88.0362 13.2332 1165 97.5863 22.2927 483.203
191 0 90.0619 13.091 1179 98.9907 22.631 480.052
192 0 90.0566 12.8919 1161 99.4944 22.0069 479.075
193 0 95.0609 12.9706 1233 99.8662 21.8702 477.089
194 0 97.0517 13.4052 1301 99.3851 21.8178 475.947
195 0 99.1071 13.3189 1320 100.686 21.6886 476.358
196 1 52.0634 11.1595 581 98.2616 21.043 499.026
197 0 55.0823 12.1636 670 97.2179 21.2313 499.3
198 0 57.0399 12.3072 702 96.7578 21.4615 498.095
199 0 59.0453 12.5328 740 96.2689 21.0635 496.962
200 0 58.0305 11.9592 694 87.7392 21.3833 498.47
201 0 59.0643 11.5129 680 88.5824 21.7985 497.891
202 0 60.0312 11.444 687 112.279 22.1077 496.84
203 0 64.0429 11.1956 717 110.821 21.2887 496.25
204 0 64.0348 10.7598 689 111.927 21.7097 495.196
205 0 68.1138 11.7304 799 108.889 21.4155 492.582
206 0 69.0399 11.2833 779 110.526 22.0077 493.033
207 0 72.0367 11.508 829 109.608 21.0651 492.364
208 0 73.0413 11.3908 832 109.98 21.4675 491.002
209 0 76.0617 11.8719 903 108.152 21.6512 488.975
210 0 79.0938 11.6823 924 110.149 21.9145 488.029
211 0 82.0804 11.8908 976 109.765 21.7582 486.935
212 0 83.0503 11.8603 985 111.621 21.3259 485.953
213 0 85.0618 11.6621 992 111.35 21.7571 484.88
214 0 89.0384 12.1633 1083 108.717 21.5254 484.327
215 0 92.0777 12.5329 1154 107.37 21.5589 481.082
216 0 96.0529 12.4827 1199 107.532 21.6297 481.698
217 0 99.1102 12.3499 1224 107.906 22.0956 479.919
218 1 53.0404 11.5384 612 111.84 21.8595 501.487
219 0 55.0293 12.0845 665 111.4 21.5158 499.418
220 0 58.0949 13.0476 758 110.793 21.3681 498.483
221 0 59.0263 12.469 736 102.629 21.0489 499.171
222 0 57.0286 11.9238 680 106.903 20.8721 499.246
223 0 60.0388 12.4419 747 105.462 21.3909 497.083
224 0 63.0258 12.2648 773 105.292 21.5537 496.558
225 0 63.0562 12.0369 759 108.511 20.8182 496.27
226 0 66.0299 12.1006 799 109.259 20.9287 494.319
227 0 70.0616 12.2892 861 108.171 21.3751 492.588
228 0 70.0265 11.6813 818 110.974 21.4108 493.296
229 0 73.0754 12.8634 940 108.241 21.4926 491.993
230 0 75.0387 11.9138 894 111.01 20.9206 490.961
231 0 78.0502 12.7738 997 109.06 21.1474 489.09
232 0 79.056 12.3204 974 110.941 21.9959 488.408
233 0 82.0868 12.7426 1046 112.091 21.6625 486.097
234 0 84.0539 12.0637 1014 113.58 21.2288 483.902
235 0 88.0747 12.1488 1070 110.796 21.4869 483.15
236 0 91.0747 13.1101 1194 107.966 21.3074 482.675
237 0 93.0399 12.715 1183 109.275 21.027 481.964
238 0 96.0604 12.1278 1165 110.978 20.7991 481.245
239 0 99.0208 13.169 1304 106.545 21.4041 478.991
240 1 53.0167 10.8645 576 106.375 21.5469 502.212
241 0 56.0259 11.7624 659 103.008 21.7223 501.167
242 0 58.0391 12.4571 723 101.653 20.6833 499.71
243 0 59.0566 12.5981 744 104.407 20.7204 498.281
244 0 57.0168 11.7158 668 98.485 20.4281 499.519
245 0 59.0314 11.892 702 97.3846 20.6368 500.051
246 0 62.0346 12.1867 756 95.5899 20.8532 499.003
247 0 62.0552 12.086 750 97.22 20.4987 498.656
248 0 64.0711 11.8306 758 100.352 20.5712 498.831
249 0 67.046 12.0813 810 100.158 20.6593 496.963
250 0 67.0362 12.262 822 100.962 21.3747 496.023
251 0 70.0697 12.2307 857 100.916 21.3151 494.204
252 0 72.0828 12.6105 909 101.78 21.0297 492.472
253 0 75.0502 12.7515 957 103.095 21.4462 489.749
254 0 78.099 13.1116 1024 99.6553 21.2061 488.987
255 0 81.05 13.3374 1081 99.7428 20.7863 488.657
256 0 84.0312 13.5307 1137 101.312 21.1152 485.756
257 0 86.0531 13.0268 1121 103.946 21.223 485.282
258 0 88.0742 13.6249 1200 104.678 21.12 483.328
259 0 91.1016 13.5124 1231 105.621 21.0731 481.164
260 0 93.0725 13.0866 1218 107.675 21.3966 480.368
261 0 95.0923 13.7971 1312 105.922 21.1631 479.004
262 0 98.0618 13.1754 1292 106.728 20.6811 477.022
263 0 100.084 13.2389 1325 105.805 21.5781 477.922
264 0 100.126 12.9237 1294 106.748 21.4173 475.281
265 0 105.147 13.2006 1388 103.965 21.6816 473.306
266 0 108.079 13.3514 1443 103.569 21.8746 472.348
267 0 110.133 13.1296 1446 103.725 21.26 471.09
268 0 114.209 13.0988 1496 105.483 21.107 470.761
269 0 118.153 13.0677 1544 106.164 20.9916 467.609
270 0 122.135 13.223 1615 105.04 21.1889 465.842
271 0 124.095 12.8933 1600 107.355 20.9244 464.368
272 0 129.128 12.8013 1653 106.529 21.003 462.987
273 0 132.123 12.9652 1713 105.703 21.3964 461.438
274 0 137.111 13.2447 1816 104.829 21.9389 458.116
275 0 140.099 13.2407 1855 105.543 20.9013 455.546
276 1 73.0505 10.8555 793 103.919 20.0025 491.357
277 0 77.0865 11.3509 875 103.769 20.8194 490.01
278 0 78.0939 11.0508 863 105.72 21.321 487.796
279 0 82.0631 11.8933 976 106.473 20.8852 486.447
280 0 82.0174 12.156 997 108.247 20.6861 485.821
281 0 84.0615 12.3005 1034 114.202 20.3085 482.987
282 0 85.0558 12.5329 1066 112.686 20.3508 483.373
283 0 86.1072 11.7644 1013 103.982 21.4768 485.507
284 0 89.1666 11.8094 1053 103.342 21.2412 482.932
285 0 91.146 11.9588 1090 103.532 21.1138 481.025
286 0 92.1165 11.898 1096 104.274 21.7956 479.182
287 0 96.1443 12.2004 1173 103.272 21.2924 478.761
288 0 100.17 11.4106 1143 106.19 21.6063 476.251
289 0 101.173 11.6632 1180 106.899 21.8466 474.7
290 0 103.167 11.6316 1200 108.993 21.545 473.678
291 0 107.19 11.6989 1254 108.677 20.6906 471.939
292 0 110.211 11.6413 1283 109.865 21.3125 469.491
293 0 113.2 11.7403 1329 109.683 20.7329 468.47
294 0 118.243 12.0852 1429 110.792 20.9741 466.855
295 0 119.217 11.8607 1414 111.296 20.4632 462.382
296 0 125.136 11.3157 1416 110.919 20.7055 462.218
297 1 68.0603 10.3144 702 110.17 21.3917 491.52
298 0 71.1412 11.4701 816 118.229 20.8125 491.395
299 0 72.1115 12.1201 874 118.19 20.6201 489.275
300 0 74.0851 12.2562 908 119.553 20.1652 487.971
301 0 74.0505 11.0195 816 109.407 20.1556 489.94
302 0 77.0753 10.8206 834 109.107 19.7746 487.677
303 0 79.0484 11.1577 882 108.342 20.585 487.229
304 0 82.1104 11.8377 972 107.51 20.1121 486.947
305 0 85.1272 12.0995 1030 108.235 20.432 484.104
306 0 88.0891 11.7041 1031 108.621 20.6334 483.599
307 0 90.0504 12.704 1144 107.638 20.3785 481.59
308 0 92.0989 12.1174 1116 109.91 20.3898 479.689
309 0 96.104 12.4865 1200 108.918 20.3283 479.654
310 0 98.0874 12.8151 1257 108.668 20.3262 477.525
311 0 101.117 11.8278 1196 111.405 20.102 476.744
312 0 106.065 12.926 1371 108.341 20.2786 475.783
313 0 107.104 12.4832 1337 113.516 20.6245 474.297
314 0 112.111 12.3896 1389 114.515 20.4255 472.719
315 0 115.155 12.4876 1438 117.097 20.5779 470.467
316 0 118.124 12.5631 1484 116.382 20.6233 468.662
317 1 62.0612 11.392 707 104.494 20.6634 498.487
318 0 63.0573 10.6252 670 104.091 19.7015 496.936
319 0 65.1532 11.2965 736 103.249 20.4552 496.648
320 0 66.0875 11.5453 763 101.545 20.3617 496.638
321 0 69.1113 11.4887 794 99.9257 20.0088 495.644
322 0 71.08 11.058 786 104.033 19.6972 494.364
323 0 73.1127 11.5575 845 104.363 20.0237 492.791
324 0 74.0823 11.3522 841 104.673 20.157 492.648
325 0 77.0974 11.7384 905 105.747 19.6972 492.356
326 0 81.079 11.6676 946 104.64 20.2696 490.93
327 0 82.1078 11.5458 948 105.604 19.8302 489.916
328 0 84.1146 11.3892 958 103.877 19.7589 489.419
329 0 86.1443 11.9451 1029 105.269 19.2449 487.979
330 0 90.077 12.4338 1120 105.129 19.3643 487.359
331 0 94.1264 12.1539 1144 103.885 19.049 485.373
332 0 97.1839 12.2345 1189 103.94 18.2069 481.451
333 0 99.0889 12.181 1207 109.434 18.7871 480.659
334 0 103.115 12.4327 1282 109.845 18.9048 479.371
335 0 105.09 12.0277 1264 111.501 19.4462 477.231
336 1 58.0539 10.0252 582 114.919 19.7079 501.022
337 0 58.0719 10.1082 587 115.279 19.6729 500.857
338 0 58.0161 10.5488 612 100.614 18.5964 499.848
339 0 60.127 11.2429 676 98.2426 17.5385 499.629
340 0 64.0863 11.2036 718 95.1045 17.1908 499.951
341 0 65.0515 11.2065 729 92.2867 17.6187 499.7
342 0 67.0883 11.0302 740 91.7973 17.423 496.507
343 0 68.0442 11.4043 776 88.8608 17.2281 497.191
344 0 70.1126 11.125 780 89.2397 16.7846 496.6
345 0 69.0692 11.0179 761 89.1209 16.7556 494.936
346 0 74.0425 11.4664 849 90.5984 16.9835 493.921
347 0 76.0431 11.0858 843 86.7734 16.9312 491.071
348 0 76.0648 11.1615 849 92.4605 16.3463 491.564
349 0 81.0576 11.7324 951 89.5836 16.9527 489.767
350 0 82.0525 11.3586 932 91.3466 16.882 488.991
351 0 86.0556 11.144 959 89.6257 17.2398 487.254
352 0 88.0559 11.7198 1032 90.1589 16.968 486.859
353 0 90.1367 11.9041 1073 89.671 16.7176 484.49
354 0 93.0796 11.9145 1109 89.9414 17.7412 483.055
355 0 94.209 11.8991 1121 92.8537 17.1186 482.325
356 0 99.1095 12.2793 1217 93.9006 16.8307 481.472
357 0 100.143 12.6119 1263 103.645 17.8424 480.287
358 0 103.13 12.5666 1296 103.497 17.4421 476.583
359 0 106.087 12.9611 1375 99.9862 17.792 478.173
360 0 109.152 12.9086 1409 99.9993 17.379 475.311
361 0 113.103 13.2092 1494 98.9813 18.2068 472.27
362 0 115.052 12.4553 1433 98.404 18.0523 470.297
363 0 119.094 12.8554 1531 96.6172 18.5715 472.101
364 1 61.079 9.33218 570 90.4982 17.1298 501.13
365 0 64.2344 10.0569 646 90.6981 17.2601 497.265
366 0 68.2168 11.0383 753 89.0372 17.7278 495.977
367 0 70.0764 11.1592 782 88.8683 18.6816 495.928
368 0 73.0629 11.2095 819 88.5067 18.7656 494.847
369 0 75.0864 11.3469 852 90.0164 18.966 494.438
370 0 77.0458 10.7079 825 92.28 18.3394 491.131
371 0 79.0563 11.3716 899 89.9689 18.4583 489.89
372 0 82.0756 11.8549 973 89.1942 19.0689 490.301
373 0 83.0611 11.5096 956 92.114 18.8703 490.092
374 0 88.0477 11.7209 1032 91.8992 18.4952 488.873
375 0 90.0598 11.9032 1072 90.1315 19.2463 486.938
376 0 93.1373 11.9501 1113 91.1411 18.6523 484.534
377 0 95.1537 11.8965 1132 92.4673 19.2518 482.741
378 0 99.2728 12.0476 1196 93.3554 18.49 481.308
379 0 100.216 11.8644 1189 96.1758 19.434 478.722
380 0 104.24 12.0587 1257 97.1488 19.3262 476.483
381 0 106.19 11.9879 1273 97.8555 19.238 476.13
382 0 110.181 12.3615 1362 97.4736 19.0316 473.164
383 0 111.289 12.1576 1353 99.4472 19.2299 470.218
384 0 115.339 12.3462 1424 99.0379 19.052 469.809
385 0 119.348 12.1075 1445 98.6042 18.9398 467.811
386 0 122.176 12.1219 1481 99.5719 18.9703 464.483
387 0 125.243 12.0885 1514 98.5786 19.2999 463.133
388 0 131.17 12.4267 1630 96.308 19.5387 461.939
389 0 134.324 11.971 1608 96.2836 19.0379 457.978
390 0 141.243 12.6944 1793 93.3982 19.7295 455.612
391 0 143.261 12.1177 1736 93.6244 18.9199 453.431
392 1 76.367 10.0829 770 89.7338 19.0506 488.371
393 0 80.3356 10.2321 822 89.5998 19.3455 486.513
394 0 85.309 11.5697 987 87.7903 18.8379 484.681
395 0 88.4793 11.675 1033 87.1433 18.8519 481.539
396 0 90.2198 11.7269 1058 88.6588 19.0057 480.738
397 0 94.1225 11.9206 1122 83.492 19.7112 481.797
398 0 98.0702 12.3483 1211 82.9785 19.5673 481.456
399 0 100.087 12.2594 1227 83.3007 19.9332 477.679
400 0 103.091 12.0088 1238 84.7439 19.5089 476.028
401 0 107.116 11.9216 1277 87.8614 19.6492 473.612
402 0 111.164 12.3151 1369 85.0489 20.5566 472.444
403 0 113.185 12.378 1401 92.8672 20.399 469.001
404 0 114.064 13.5275 1543 90.1594 20.8671 467.824
405 0 119.158 13.0918 1560 91.0077 20.434 466.922
406 0 124.135 13.5739 1685 88.3039 20.0938 465.399
407 0 124.105 12.4653 1547 91.4273 20.0802 463.56
408 0 127.116 11.989 1524 84.2487 19.5709 457.639
409 0 134.147 13.12 1760 92.0795 19.9119 459.143
410 0 137.092 13.1518 1803 91.528 19.8985 455.356
411 0 138.145 12.2335 1690 91.2805 21.1041 448.386
412 0 141.159 12.3832 1748 92.9022 20.3432 445.453
413 0 149.163 12.9858 1937 89.8575 19.6102 439.634
414 1 80.0722 9.12926 731 83.3256 19.6895 483.561
415 0 81.1371 10.2173 829 82.6405 19.2835 480.522
416 0 84.079 9.9906 840 78.9262 19.4464 482.669
417 0 88.0722 10.8547 956 80.0669 20.0628 481.276
418 0 89.0543 10.6677 950 81.5147 19.3558 480.221
419 0 94.0917 11.6057 1092 85.2628 20.1639 481.551
420 0 96.1277 11.6928 1124 84.694 19.9947 480.872
421 0 101.097 11.6027 1173 84.393 19.9224 475.65
422 0 104.061 11.3587 1182 84.6261 18.4907 476.715
423 0 107.17 11.8223 1267 84.6677 18.6054 471.112
424 0 110.069 11.7199 1290 86.5736 18.7171 472.117
425 0 114.132 12.3454 1409 85.8233 18.6458 466.748
426 0 117.275 13.2083 1549 92.2247 19.2272 457.741
427 1 68.1805 9.78286 667 88.3988 18.967 490.841
428 0 67.2648 10.2134 687 89.1761 18.6798 493.745
429 0 69.1398 10.5728 731 88.8796 18.4569 491.369
430 0 73.042 11.336 828 92.0193 19.2983 492.351
431 0 75.0191 11.3704 853 91.7468 18.6542 491.137
432 0 76.0674 11.1612 849 92.6926 18.9364 490.896
433 0 76.1406 10.9666 835 94.4216 19.1545 489.703
434 0 81.0594 10.6465 863 84.9873 19.6802 488.029
435 0 81.0833 10.668 865 86.6763 19.4289 486.578
436 0 83.0823 10.0623 836 89.1687 19.1914 483.116
437 0 88.1821 11 970 85.9052 19.0062 484.554
438 0 90.1776 10.7565 970 87.9938 19.5381 483
439 0 93.0643 11.0569 1029 90.5296 19.7911 482.323
440 0 94.1305 10.8573 1022 91.7436 19.2456 482.145
441 1 50.2152 9.37963 471 87.9724 19.2611 503.493
442 0 51.198 9.9418 509 86.6916 18.4303 503.169
443 0 51.2257 9.78024 501 88.3014 18.1457 500.942
444 0 55.1629 10.5868 584 86.589 18.601 501.005
445 0 56.189 10.6071 596 85.4916 18.448 500.153
446 0 57.2462 11.1274 637 84.2904 19.2339 497.776
447 0 58.11 11.1341 647 83.7991 18.7311 497.924
448 0 61.0831 11.0669 676 82.3654 19.1405 497.859
449 0 63.0459 11.0872 699 86.4735 18.6967 497.914
450 0 64.0446 11.7418 752 87.0399 19.2633 497.195
451 0 67.0897 12.1479 815 87.3779 18.8135 496.301
452 0 68.0237 12.3633 841 88.7229 19.1082 496.26
453 0 70.0779 12.2578 859 88.3993 18.8242 494.484
454 0 71.049 12.3154 875 89.0949 19.6034 494.109
455 0 75.026 12.7423 956 87.0607 19.1621 493.876
456 0 75.0307 12.5415 941 89.0287 19.848 491.21
457 0 77.0559 12.2509 944 91.2182 19.5816 491.461
458 0 81.0444 12.5857 1020 96.0598 20.2127 487.608
459 0 81.0475 12.7209 1031 98.4549 19.8186 486.363
460 0 85.0728 12.601 1072 98.9254 20.2705 486.146
461 0 87.1008 12.7094 1107 100.208 20.4643 484.608
462 0 91.1319 13.2994 1212 99.5611 19.8919 483.002
463 0 94.1045 12.7093 1196 101.676 20.1714 480.559
464 0 96.0907 13.1022 1259 100.919 20.2137 478.846
465 0 97.1195 13.1179 1274 101.632 20.6013 478.994
466 0 101.123 12.9248 1307 101.358 20.0865 478.987
467 0 104.07 13.0105 1354 98.836 20.017 477.931
468 0 107.078 13.6443 1461 97.2875 20.4264 476.231
469 0 108.12 13.3833 1447 100.65 19.8597 474.89
470 0 111.111 13.284 1476 101.928 20.0115 472.776
471 0 115.097 13.3193 1533 101.069 19.0117 470.793
472 0 118.182 13.5385 1600 100.525 19.3644 470.111
473 0 119.139 13.4297 1600 102.964 20.3012 467.086
474 0 124.169 13.385 1662 102.143 19.7292 466.073
475 0 129.109 13.5855 1754 100.447 19.1009 463.833
476 0 132.168 13.392 1770 98.9113 18.9593 461.995
477 0 135.119 13.6916 1850 98.3232 18.7276 460.509
478 0 141.202 14.0225 1980 97.8505 19.1657 458.4
479 0 145.228 13.682 1987 98.4323 19.301 456.285
480 0 148.218 13.8917 2059 101.645 18.7674 453.178
481 0 154.234 13.7648 2123 103.178 18.8125 448.506
482 1 82.1879 10.8167 889 102.962 18.9696 488.368
483 0 84.1458 12.1456 1022 103.022 18.4295 487.285
484 0 86.1708 12.6493 1090 105.63 19.3945 485.859
485 0 87.0739 12.254 1067 105.294 19.6429 482.963
486 0 87.1389 11.694 1019 102.822 19.8312 480.378
487 0 92.1141 12.7016 1170 104.259 19.9214 480.1
488 0 92.0793 11.9136 1097 100.582 19.5871 475.778
489 0 95.07 11.9175 1133 102.808 19.0009 473.463
490 0 98.083 11.3781 1116 106.98 18.2392 471.308
491 0 98.1301 11.5765 1136 104.218 19.3169 467.683
492 0 105.158 12.4575 1310 107.126 18.4809 475.346
493 1 57.0738 10.8106 617 103.88 19.2091 499.151
494 0 56.0374 10.6179 595 106.901 18.4034 498.857
495 0 59.0603 12.0555 712 104.941 19.1545 498.486
496 0 60.0445 12.2076 733 92.2988 18.9004 500.248
497 0 61.0871 11.5409 705 95.3064 18.9121 500.04
498 0 63.1002 11.7274 740 94.5514 18.5757 498.72
499 0 64.0342 12.3996 794 92.9521 18.6008 499.254
500 0 66.0466 11.8401 782 94.3018 18.7046 498.959
501 0 66.0307 11.7673 777 95.2381 18.9665 497.638
502 0 67.0488 12.1851 817 95.8886 18.4835 496.849
503 0 68.0381 11.5964 789 100.854 18.7364 496.977
504 0 72.033 11.7307 845 99.1929 18.4982 496.053
505 0 73.0221 11.8457 865 97.0486 18.622 494.627
506 0 74.0557 11.4103 845 99.1124 18.7811 494.054
507 0 74.1037 10.4583 775 96.1226 18.4581 486.92
508 0 78.0919 11.6657 911 100.892 17.6443 490.836
509 0 82.1544 12.367 1016 99.0059 18.2431 490.061
510 0 81.1325 11.5613 938 103.048 17.6109 488.31
511 0 85.1195 11.8069 1005 102.291 17.5562 488.788
512 0 87.066 12.0368 1048 101.573 18.1947 487.635
513 0 91.1469 12.5292 1142 100.335 17.7469 485.475
514 0 92.1696 11.6524 1074 103.905 18.0624 485.625
515 0 96.1084 12.1633 1169 97.5774 18.0334 482.132
516 0 99.1128 11.8955 1179 99.6455 17.1807 481.305
517 1 55.103 10.6891 589 101.353 16.6078 505.396
518 0 58.0476 11.749 682 99.7038 16.978 503.301
519 0 59.055 11.2776 666 101.523 17.015 503.239
520 0 62.0954 11.7722 731 101.534 17.3406 500.811
521 0 61.0809 11.8859 726 101.691 16.7824 500.996
522 0 65.1462 12.5564 818 94.5526 17.8949 502.671
523 0 67.0957 12.6834 851 96.7215 18.027 501.094
524 0 66.0627 12.3519 816 100.483 17.5968 499.697
525 0 71.068 13.1283 933 95.8746 17.5681 498.509
526 0 70.0957 12.8253 899 99.0857 17.3471 497.644
527 0 75.0682 13.1614 988 97.3644 18.2996 496.262
528 0 76.1478 12.8828 981 100.078 17.7686 494.676
529 0 77.0972 12.7242 981 101.584 17.1254 494.208
530 0 81.1074 12.8841 1045 101.52 17.1799 492.607
531 0 83.0897 13.3591 1110 100.858 17.4946 492.612
532 0 83.0901 12.9378 1075 104.065 17.3135 492.778
533 0 88.0608 13.4453 1184 101.172 16.549 490.704
534 0 90.0584 12.9249 1164 102.942 17.0679 488.935
535 0 93.1142 13.1344 1223 103.085 16.8062 488.447
536 0 96.0801 13.0932 1258 104.4 17.6455 486.864
537 0 97.0599 13.7853 1338 104.642 17.2616 485.446
538 0 102.135 13.4429 1373 105.73 17.7546 484.074
539 0 103.218 13.5054 1394 107.712 17.4139 482.643
540 0 105.167 13.2361 1392 109.871 17.7694 481.077
541 0 108.167 13.2388 1432 108.828 17.4148 479.491
542 1 58.1532 11.8136 687 114.917 17.1761 503.167
543 0 60.1914 12.1446 731 115.468 17.7045 502.543
544 0 62.1672 12.5146 778 113.035 16.5167 503.468
545 0 63.1453 12.0991 764 114.377 17.339 503.585
546 0 64.1238 12.7098 815 111.389 17.0307 502.772
547 0 66.1185 13.4304 888 110.456 16.6194 501.052
548 0 70.0858 13.7118 961 108.931 17.1831 500.864
549 0 69.0744 13.9125 961 110.413 17.4089 498.537
550 0 71.0892 13.898 988 111.453 17.3107 498.739
551 0 75.0958 13.4495 1010 112.637 17.6218 497.805
552 0 75.093 13.5032 1014 112.908 16.932 497.985
553 0 77.0832 13.8292 1066 110.922 17.7908 497.089
554 0 78.0463 13.1845 1029 112.034 17.8465 496.651
555 0 82.054 13.3205 1093 111.665 17.4986 494.637
556 0 84.0215 13.3299 1120 111.843 16.9759 492.973
557 0 86.0617 13.5368 1165 111.307 17.1966 493.22
558 0 88.0795 12.7044 1119 114.78 16.8195 491.371
559 0 90.0473 13.3374 1201 115.983 17.2773 490.427
560 0 93.0748 13.2367 1232 117.423 16.8604 488.599
561 0 96.1142 13.4944 1297 114.912 18.0987 488.423
562 0 98.1609 13.3964 1315 114.816 17.8426 486.471
563 0 102.077 13.2841 1356 116.658 17.2249 482.271
564 0 105.115 12.7955 1345 118.283 17.8974 481.839
565 0 108.04 13.0599 1411 118.208 17.0439 481.543
566 0 112.08 13.2138 1481 117.506 17.1594 479.642
567 0 116.069 13.4231 1558 115.565 16.525 478.875
568 1 65.1426 12.6031 821 117.889 16.8904 504.262
569 0 66.058 12.8372 848 115.625 16.9045 503.067
570 0 68.0805 12.9112 879 114.619 16.4676 502.213
571 0 69.1284 12.5997 871 113.817 16.4225 501.517
572 0 71.1233 12.7525 907 114.643 15.9945 501.596
573 0 73.0835 12.6841 927 115.12 15.9871 500.782
574 0 76.0753 12.159 925 117.857 15.6562 498.696
575 0 78.0837 12.525 978 117.869 16.3272 499.215
576 0 80.0492 13.017 1042 116.674 16.5557 497.479
577 0 83.1018 12.6231 1049 118.557 16.4156 497.325
578 0 84.0599 13.2763 1116 120.134 16.1801 494.476
579 0 87.0732 12.7823 1113 121.981 16.3082 494.568
580 0 89.0782 12.8539 1145 121.574 16.4061 494.697
581 0 90.0718 13.2006 1189 122.88 16.5879 491.102
582 0 95.0893 13.3033 1265 122.25 16.1549 489.245
583 0 97.0863 13.5859 1319 120.196 16.3692 487.405
584 0 98.0864 13.1007 1285 123.788 16.3105 486.512
585 0 102.093 12.9686 1324 124.423 16.398 484.863
586 0 106.099 13.1198 1392 119.157 16.5884 485.266
587 0 108.196 13.5495 1466 117.922 16.6985 481.546
588 1 62.0859 12.2089 758 121.234 16.376 504.318
589 0 62.0761 12.1625 755 119.793 16.3338 504.205
590 0 64.1389 11.8805 762 115.299 16.4475 501.835
591 0 68.0971 13.3192 907 116.561 16.2282 503.851
592 0 71.0791 13.1121 932 116.648 16.0966 503.337
593 0 72.0808 12.8883 929 118.443 16.0969 501.328
594 0 72.0691 13.5981 980 117.967 16.7571 501.12
595 0 75.0509 13.5774 1019 116.363 15.6094 499.352
596 0 76.152 13.2367 1008 117.958 16.4127 496.664
597 0 80.0509 13.6663 1094 112.838 16.4113 495.82
598 0 84.0488 13.5754 1141 110.708 16.7809 495.755
599 0 86.1042 13.4604 1159 111.845 16.7489 495.005
600 0 87.0458 13.5561 1180 111.649 16.5415 492.866
601 0 91.0883 13.1411 1197 112.035 16.4503 489.524
602 0 93.0928 13.8249 1287 110.743 17.0909 491.525
603 0 96.0753 13.9162 1337 110.406 16.7809 489.847
604 0 95.1223 13.12 1248 113.606 16.7893 487.643
605 0 99.1195 13.4787 1336 113.075 16.2246 487.004
606 0 103.123 13.6439 1407 112.253 16.9318 485.259
607 0 105.128 13.3837 1407 112.274 16.3312 483.893
608 0 109.083 13.6227 1486 111.089 16.3244 482.555
609 0 112.141 12.7161 1426 111.676 15.9151 480.415
610 0 113.111 13.2083 1494 106.27 17.1948 479.34
611 0 118.149 13.1021 1548 105.448 16.8902 477.182
612 0 121.11 13.7726 1668 102.906 16.8807 476.544
613 1 62.0815 11.6299 722 97.9751 16.8657 507.564
614 0 61.1546 11.2502 688 99.8183 16.2137 506.294
615 0 64.085 12.0309 771 92.8755 16.978 504.243
616 0 65.0421 11.7155 762 91.1772 16.5866 504.131
617 0 68.0805 12.4412 847 90.9882 17.0744 501.606
618 0 71.097 12.1946 867 92.3968 16.624 499.203
619 0 73.1653 12.1916 892 94.9507 15.8318 496.556
620 0 75.1201 12.5133 940 94.0032 16.6511 496.054
621 0 79.1883 12.8302 1016 90.6171 16.5935 495.294
622 0 79.1183 13.385 1059 89.4618 16.3919 494.534
623 0 83.2271 12.9165 1075 91.5898 16.774 491.01
624 0 85.1712 12.6099 1074 95.3547 15.7067 490.643
625 0 86.1422 12.6999 1094 96.149 16.2121 486.946
626 0 87.1829 12.2157 1065 99.2685 16.5052 485.148
627 0 92.1196 13.0048 1198 100.572 16.2446 486.896
628 0 93.0892 13.2131 1230 100.215 15.4667 486.007
629 0 96.1119 12.8496 1235 102.931 15.5838 484.533
630 0 99.2095 12.9725 1287 107.744 15.9611 482.617
631 0 101.181 13.2337 1339 109.521 15.6699 480.696
632 0 103.165 13.5027 1393 105.673 15.9476 478.012
633 0 107.169 13.446 1441 110.508 17.0736 475.894
634 0 111.108 13.3204 1480 110.37 16.7311 471.528
635 0 114.111 13.1012 1495 111.755 17.1679 468.926
636 0 119.193 13.3229 1588 110.197 16.8067 468.271
637 0 121.205 12.45 1509 112.399 17.2386 465.431
638 1 68.084 11.1774 761 108.237 16.2286 496.915
639 0 70.0805 11.8435 830 106.747 16.9627 496.064
640 0 69.0774 11.9287 824 105.939 16.4187 493.715
641 0 73.0418 12.7187 929 102.834 16.3875 495.892
642 0 76.0423 12.7429 969 103.034 17.8008 494.69
643 0 77.0808 12.4804 962 105.361 17.0759 493.391
644 0 81.0826 12.7154 1031 103.211 17.2396 490.913
645 0 81.0589 12.3614 1002 105.405 17.1876 490.25
646 0 83.0889 12.5047 1039 105.397 17.4832 488.146
647 0 85.045 12.2523 1042 105.198 17.4511 487.153
648 0 89.0699 12.406 1105 104.99 17.1158 484.975
649 0 92.064 12.0568 1110 105.814 17.8532 483.351
650 0 94.057 12.2266 1150 105.982 16.8922 481.809
651 1 52.0177 10.9386 569 109.649 16.9736 503.016
652 0 53.082 11.4351 607 110.372 16.5964 501.002
653 0 55.0811 11.5466 636 108.615 17.3491 499.566
654 0 58.1595 11.7264 682 108.006 17.2111 497.833
655 0 59.0928 12.2858 726 106.207 17.3388 496.408
656 0 59.0624 12.309 727 105.398 18.1279 496.97
657 0 62.0535 12.5053 776 104.773 18.7668 495.83
658 0 63.0343 12.3742 780 105.733 18.2885 494.071
659 0 65.0309 12.2557 797 103.562 18.6286 493.543
660 0 64.0134 12.9348 828 104.693 19.2705 492.272
661 0 67.0313 11.7855 790 106.557 18.7873 490.318
662 0 73.0251 11.2427 821 108.105 19.0378 489.931
663 0 71.0384 12.6129 896 106.787 18.7143 488.522
664 0 74.0294 12.8598 952 104.003 19.2101 486.819
665 0 75.0246 13.2756 996 104.994 19.1205 486.171
666 0 77.0509 13.2769 1023 105.467 19.0039 486.347
667 0 79.0578 13.5344 1070 104.667 19.1822 485.035
668 0 81.0384 13.4628 1091 104.277 19.8093 483.521
669 0 84.0443 13.5643 1140 105.867 18.6289 482.801
670 0 85.0287 13.419 1141 107.634 19.1209 481.32
671 0 89.0479 14.262 1270 106.472 18.7252 479.684
672 0 90.0505 13.6701 1231 109.869 18.5695 477.682
673 0 96.1025 14.1516 1360 106.422 18.4007 475.649
674 0 96.1341 14.5942 1403 106.125 18.345 474.989
675 0 98.164 13.7932 1354 108.64 17.9372 471.64
676 0 101.08 14.2659 1442 110.169 18.8551 471.678
677 0 106.166 14.4774 1537 108.278 18.6291 470.36
678 0 109.106 14.2706 1557 106.048 18.0443 468.57
679 0 114.061 15.6933 1790 100.682 18.2743 467.6
680 0 118.127 14.4929 1712 103.767 17.3376 465.335
681 0 122.124 14.1004 1722 105.116 18.0627 462.405
682 0 126.102 14.0918 1777 104.966 17.8447 461.013
683 1 63.1542 11.8282 747 111.412 18.4458 492.062
684 0 66.1652 12.7711 845 107.466 17.7562 490.143
685 0 68.1571 12.2364 834 109.264 18.2686 490.183
686 0 68.0488 12.4176 845 106.251 19.2213 493.612
687 0 71.0731 12.8319 912 104.75 19.3311 491.796
688 0 73.1046 12.3795 905 105.368 18.684 491.548
689 0 74.0395 12.2502 907 107.649 18.5469 490.315
690 0 76.0699 12.6857 965 105.921 18.3948 487.567
691 0 78.0747 12.6417 987 108.874 18.8582 488.03
692 0 81.0198 12.5401 1016 109.375 18.9833 487.228
693 0 83.0368 12.2115 1014 111.258 18.8245 485.984
694 0 86.0731 12.3383 1062 111.073 18.0942 485.708
695 0 88.0511 12.47 1098 111.498 18.2477 484.57
696 0 91.0512 12.4985 1138 112.25 18.3093 484.446
697 0 94.039 12.0057 1129 114.05 18.0461 483.012
698 0 98.0653 12.1348 1190 114.988 17.7126 481.755
699 0 104.081 13.5567 1411 109.898 17.7916 477.342
700 0 109.099 13.5473 1478 109.162 18.7537 475.48
701 1 55.0448 10.7912 594 119.182 17.9461 500.574
702 0 59.0248 11.8086 697 114.775 18.2697 497.554
703 0 59.0297 12.2142 721 115.614 17.7046 497.979
704 0 62.055 12.36 767 117.378 17.4263 502.18
705 0 62.0182 12.6414 784 115.051 17.8929 502.464
706 0 65.0138 12.5666 817 115.802 17.0894 499.355
707 0 67.018 12.5489 841 112.373 17.3103 500.454
708 0 68.0215 12.4667 848 118.774 17.0849 497.682
709 0 70.0542 12.4475 872 117.975 17.3498 496.539
710 0 72.0339 12.0221 866 120.738 17.8406 496.163
711 0 74.0358 12.2238 905 118.59 17.7028 493.715
712 0 77.0746 12.1441 936 116.54 16.9829 493.618
713 0 78.0322 12.2001 952 117.221 16.8708 491.829
714 0 79.0237 11.6294 919 118.823 17.4255 487.987
715 0 83.0538 12.0524 1001 116.07 17.6733 488.048
716 0 85.0968 11.9276 1015 118.057 17.2522 485.86
717 0 86.053 11.3883 980 117.645 16.9245 484.166
718 0 89.042 11.9157 1061 113.507 16.7776 481.831
719 0 94.0617 11.8008 1110 112.222 18.0541 481.127
720 0 96.0782 11.9694 1150 112.818 17.6635 478.767
721 1 50.0248 8.55576 428 106.643 17.2079 501.005
722 0 53.1036 10.2253 543 103.582 18.6501 501.597
723 0 56.0879 10.8758 610 106.5 17.2279 502.9
724 0 59.026 11.1307 657 110.082 17.9665 502.857
725 0 62.0475 10.5564 655 112.655 17.5985 503.724
726 0 63.0304 11.4072 719 110.129 18.5841 502.616
727 0 66.0444 11.2197 741 110.707 17.7625 501.304
728 0 67.0181 11.1612 748 112.884 17.4345 498.702
729 0 70.0445 11.7497 823 111.882 17.2199 495.948
730 0 72.1045 10.8731 784 113.663 17.1913 497.773
731 0 74.0581 11.5315 854 112.311 17.0082 497.858
732 0 77.0535 12.1085 933 116.362 16.552 499.456
733 0 78.1316 11.8902 929 116.59 17.4155 498.005
734 0 83.1218 11.7177 974 116.496 17.462 496.091
735 0 84.0827 11.5125 968 119.646 16.7293 493.764
736 0 86.1501 11.596 999 120.109 17.3724 492.32
737 0 90.1108 11.5635 1042 120.487 16.0969 489.376
738 1 45.0204 9.50681 428 112.393 15.9136 512.224
739 0 49.0487 10.4794 514 113.669 17.4105 511.492
740 0 49.0091 11.0184 540 117.681 17.4833 508.82
741 0 50.0523 10.1893 510 112.992 16.4294 509.973
742 0 49.0603 10.5992 520 114.477 16.6385 510.067
743 0 51.0419 11.0497 564 113.676 17.0479 508.835
744 0 52.0952 10.8071 563 115.307 17.103 508.465
745 0 56.1577 11.3253 636 114.064 16.8774 506.811
746 0 58.1908 11.3764 662 113.245 16.997 506.142
747 0 59.0522 11.7523 694 111.36 16.781 505.36
748 0 59.1127 11.0974 656 112.329 17.3628 505.137
749 0 62.1521 11.2144 697 110.465 17.1765 504.723
750 0 63.1945 11.5042 727 109.86 17.4498 502.246
751 0 67.1381 11.3944 765 106.359 17.5725 501.952
752 0 69.1338 11.9623 827 106.612 17.104 497.909
753 0 70.1419 10.9635 769 109.247 17.6749 499.482
754 1 37.1389 10.7973 401 110.514 16.8155 514.07
755 0 40.0823 10.5533 423 109.511 16.5106 513.631
756 0 42.1504 10.8659 458 106.681 16.81 514.253
757 0 43.1375 11.3822 491 110.692 18.4257 512.46
758 0 44.129 11.2624 497 117.998 17.7787 511.282
759 0 45.1473 12.0495 544 117.706 18.5147 509.722
760 0 48.2079 12.3839 597 116.595 17.995 510.668
761 0 47.1556 12.3209 581 118.293 17.7194 509.358
762 0 49.1034 12.2598 602 118.444 18.9402 508.053
763 0 49.1233 12.3159 605 120.04 18.0347 508.739
764 0 52.1212 12.5285 653 119.931 18.7887 507.219
765 0 52.1272 13.1601 686 119.915 18.0321 506.366
766 0 55.0978 12.7228 701 120.532 18.6419 506.872
767 0 55.0896 12.7247 701 122.282 17.2981 505.553
768 0 57.0574 12.8642 734 121.715 17.9959 505.561
769 0 57.0791 12.4214 709 125.353 18.2144 505.544
770 0 60.0783 13.1661 791 122.375 17.5398 504.257
771 0 60.0768 13.1998 793 123.707 17.9685 503.753
772 0 61.09 13.2264 808 123.009 18.0978 503.545
773 0 63.0601 13.2255 834 122.633 18.289 501.875
774 0 65.0656 13.6017 885 120.121 18.2237 501.644
775 0 66.0742 12.9854 858 122.966 18.6096 499.64
776 0 68.0822 13.1459 895 120.335 17.8559 498.204
777 0 73.0937 13.3117 973 116.49 17.9445 497.492
778 0 73.0485 13.2515 968 117.181 18.8419 496.449
779 0 74.1015 12.7798 947 119.035 18.0137 495.797
780 0 78.0627 13.4379 1049 116.636 18.5214 494.821
781 0 80.0766 12.9876 1040 116.194 17.7615 493.626
782 0 82.0744 13.1832 1082 116.767 18.781 492.094
783 0 83.1152 12.8135 1065 117.684 18.8009 489.146
784 0 87.1602 13.2515 1155 116.234 18.8087 490.68
785 0 89.0837 13.3582 1190 116.834 18.7874 487.841
786 0 93.1414 13.2701 1236 110.994 18.6561 486.804
787 1 50.0295 11.4932 575 119 19.1026 508.659
788 0 51.0562 11.5755 591 117.748 18 508.618
789 0 53.1163 12.049 640 115.733 19.2703 502.709
790 0 52.0778 10.8684 566 104.666 19.1519 505.219
791 0 53.0203 10.5997 562 107.559 19.1726 502.74
792 0 54.0142 10.9786 593 105.319 19.3811 504.088
793 0 57.0442 11.3596 648 103.583 19.4383 503.076
794 0 57.0429 11.4651 654 104.266 19.2385 503.82
795 0 61.0298 11.1749 682 105.235 20.085 500.718
796 0 61.0628 11.5619 706 105.578 19.3003 501.055
797 0 65.0758 11.817 769 101.919 19.9636 500.399
798 0 66.028 11.2528 743 104.073 19.5101 499.875
799 0 71.0687 11.6788 830 106.227 19.4 498.706
800 0 71.0247 12.3056 874 109.538 18.6007 500.164
801 0 72.0429 11.9651 862 112.348 18.7181 498.553
802 0 76.0313 12.4159 944 109.097 19.0275 498.058
803 0 79.0443 12.1324 959 109.409 18.8728 496.693
804 0 81.1084 12.995 1054 108.031 19.2457 496.009
805 0 82.0528 12.5163 1027 108.905 19.3427 496.202
806 0 84.0489 12.7307 1070 109.721 18.7327 494.319
807 0 87.0569 12.6009 1097 108.756 18.4859 494.859
808 0 88.086 12.4764 1099 109.267 17.778 494.225
809 0 92.1184 12.9182 1190 108.091 18.463 492.64
810 0 94.0861 13.1263 1235 107.466 18.0178 490.972
811 0 95.0518 13.3191 1266 106.813 18.0466 490.182
812 0 98.0956 12.814 1257 110.002 17.9181 489.944
813 0 100.109 13.0258 1304 108.906 18.0153 488.527
814 0 100.081 12.1102 1212 115.49 18.9381 487.597
815 0 104.147 12.5976 1312 115.118 18.7797 487.834
816 0 107.067 12.7864 1369 113.201 18.6165 486.603
817 0 110.065 12.7925 1408 117.127 17.858 484.901
818 0 113.131 12.7286 1440 118.46 17.8611 483.265
819 0 117.057 12.6178 1477 120.483 18.2925 479.857
820 0 119.114 12.8449 1530 120.044 17.6039 478.834
821 0 123.132 13.4408 1655 118.874 17.4024 477.686
822 0 126.107 13.1475 1658 120.932 17.5247 474.38
823 0 132.101 13.4292 1774 119.316 17.7277 473.799
824 0 135.078 13.3478 1803 120.002 17.2779 471.586
825 0 138.141 13.327 1841 120.706 17.8338 470.625
826 0 142.158 13.2317 1881 122.11 17.6624 467.214
827 0 145.116 13.3686 1940 121.858 17.5206 466.989
828 0 151.106 13.3019 2010 121.48 17.6622 464.392
829 0 156.095 13.9787 2182 119.201 17.4198 461.653
830 0 159.132 13.3789 2129 122.213 17.4406 461.428
831 0 164.122 13.6058 2233 121.866 17.0242 457.345
832 0 170.2 13.9072 2367 122.009 17.7731 454.456
833 1 76.0943 12.3268 938 125.598 17.1738 501.929
834 0 79.0826 12.4553 985 125.882 17.4782 499.713
835 0 82.0429 12.9323 1061 127.038 17.5759 499.479
836 0 84.1135 13.2678 1116 128.641 18.1622 496.409
837 0 86.0545 13.5031 1162 129.934 18.0473 493.824
838 0 88.1425 13.932 1228 133.822 17.9471 491.335
839 0 91.0737 13.6373 1242 134.089 16.8567 490.406
840 0 95.0765 13.9256 1324 132.841 17.5015 488.925
841 0 98.1233 14.1964 1393 130.08 17.2419 487.697
842 0 99.1986 13.9921 1388 131.949 17.3732 485.03
843 0 103.173 14.4321 1489 130.034 16.7864 482.116
844 0 106.124 13.8611 1471 127.49 17.0408 480.237
845 0 109.112 14.1415 1543 127.009 17.1141 478.733
846 0 111.134 13.9201 1547 128.479 16.2838 477.159
847 0 116.206 14.1731 1647 126.424 16.5313 476.907
848 0 118.106 14.3346 1693 126.709 16.5806 474.839
849 0 124.127 14.5013 1800 121.806 16.8489 472.144
850 0 126.129 14.5248 1832 123.065 16.5497 470.592
851 0 130.105 15.1416 1970 121.353 16.9792 469.914
852 0 134.1 14.176 1901 125.317 16.7175 468.655
853 0 136.164 14.4238 1964 124.819 16.8381 466.473
854 1 85.0327 13.2067 1123 130.355 16.5111 492.367
855 0 88.067 14.2846 1258 127.165 16.6685 489.72
856 0 90.0692 14.4445 1301 128.344 16.4735 488.898
857 0 93.0924 14.7273 1371 132.929 16.9825 485.608
858 0 96.1019 14.8696 1429 136.216 16.5136 483.871
859 0 98.1238 14.5429 1427 137.346 16.8353 482.387
860 0 101.113 14.8152 1498 134.499 16.8899 481.778
861 0 102.052 14.6004 1490 136.099 15.9168 478.975
862 0 106.106 14.5985 1549 136.928 16.9122 477.895
863 0 111.099 14.7976 1644 134.536 17.7543 475.13
864 0 115.103 14.9258 1718 134.976 17.156 473.548
865 0 118.149 14.9134 1762 135.49 16.6862 471.371
866 0 121.135 14.587 1767 134.273 17.4516 468.542
867 0 125.101 14.5163 1816 132.552 17.4879 467.605
868 0 131.163 14.7145 1930 128.73 17.1575 466.736
869 1 67.1733 12.6389 849 127.739 16.9505 497.444
870 0 71.0455 13.1465 934 125.892 16.9272 496.208
871 0 72.0469 13.2275 953 127.557 17.1773 494.656
872 0 75.0293 13.6347 1023 127.494 17.1935 492.468
873 0 77.117 13.9139 1073 127.101 16.6328 492.034
874 0 79.0794 13.771 1089 127.277 16.8292 490.997
875 0 81.0411 14.1533 1147 126.412 16.7786 492.126
876 0 83.11 14.0657 1169 127.624 16.8477 486.438
877 0 87.1126 13.9015 1211 127.315 16.3064 487.628
878 0 87.0606 13.6227 1186 130.533 16.2934 486.88
879 0 91.0536 14.0577 1280 128.997 16.5477 486.171
880 0 93.0663 14.581 1357 127.57 16.3861 484.145
881 0 95.0798 14.146 1345 130.299 17.061 483.909
882 0 97.0925 14.3369 1392 130.126 16.6774 482.378
883 0 100.077 14.8585 1487 128.574 17.4035 482.525
884 0 104.122 14.6848 1529 129.954 17.1105 478.533
885 0 105.071 14.5331 1527 132.009 16.0701 474.734
886 0 109.115 14.4526 1577 132.143 16.8859 473.021
887 0 114.116 14.5642 1662 131.421 16.5301 471.463
888 0 118.085 14.5234 1715 131.672 16.9691 470.949
889 1 56.0096 11.5873 649 135.576 17.0447 500.521
890 0 57.0315 12.2564 699 133.607 17.7268 501.086
891 0 59.0284 12.8413 758 134.131 16.31 501.091
892 0 62.055 13.1013 813 132.338 15.7528 499.973
893 0 66.0802 13.8771 917 126.601 16.2912 499.244
894 0 65.0336 12.9472 842 125.694 16.4549 493.283
895 0 68.0869 12.8659 876 125.703 16.4669 491.41
896 0 68.0394 12.3752 842 128.808 16.2743 490.868
897 0 71.0615 12.6932 902 126.41 17.1996 489.428
898 0 73.0805 13.0131 951 125.747 16.9664 489.08
899 0 76.0927 13.1287 999 123.81 17.2262 488.323
900 0 76.0769 13.1446 1000 125.15 17.998 487.918
901 0 79.0327 12.7416 1007 126.784 17.8401 485.454
902 0 81.0642 13.0637 1059 123.89 18.4769 485.393
903 0 84.0639 13.2042 1110 122.617 17.2414 483.206
904 0 91.0564 12.4209 1131 121.702 17.6684 482.972
905 0 89.0612 13.5076 1203 119.95 17.8495 479.218
906 0 89.038 13.7806 1227 119.505 17.7914 476.941
907 0 94.0886 13.6999 1289 116.813 17.3507 475.773
908 0 96.0351 13.5575 1302 116.524 17.7335 474.824
909 0 98.0453 13.8507 1358 114.404 18.8358 472.543
910 0 101.034 13.8171 1396 114.839 17.9778 470.549
911 0 102.176 13.5453 1384 117.631 18.1799 468.79
912 0 105.085 13.5985 1429 117.328 17.0098 468.902
913 0 110.051 13.5301 1489 117.515 17.1088 465.944
914 0 114.082 13.762 1570 117.9 17.0242 464.966
915 0 117.121 14.2929 1674 115.661 17.6171 463.575
916 0 121.028 14.0959 1706 117.312 17.2632 462.434
917 0 123.045 14.1249 1738 118.728 17.267 459.826
918 0 127.057 13.9701 1775 119.256 17.138 458.812
919 0 132.156 13.643 1803 120.129 17.4997 455.984
920 0 133.06 14.144 1882 119.96 16.6307 454.75
921 0 139.126 14.131 1966 120.977 17.237 451.879
922 0 142.102 13.8774 1972 121.901 17.0811 449.527
923 0 147.103 14.2349 2094 120.395 16.7025 448.574
924 0 149.15 14.2005 2118 122.705 16.4216 448.507
925 0 154.062 13.7607 2120 125.023 16.1755 446.303
926 0 158.128 14.229 2250 123.608 16.6053 446.053
927 0 163.158 14.2193 2320 123.923 16.294 444.112
928 0 167.135 13.899 2323 125.392 16.17 441.504
929 0 172.117 14.2054 2445 124.029 16.9677 439.08
930 0 180.145 14.5383 2619 123.412 16.0447 437.165
931 0 187.146 14.625 2737 125.826 15.6712 435.566
932 0 193.197 14.6689 2834 129.204 15.1849 433.37
933 0 198.133 14.6215 2897 130.314 14.6407 428.421
934 0 204.163 14.4835 2957 132.726 14.8333 426.088
935 0 212.093 14.4889 3073 132.985 15.2424 422.488
936 1 41.0231 9.87249 405 121.365 13.8765 512.758
937 0 41.0161 10.6056 435 121.163 14.0552 513.313
938 0 45.0144 10.7077 482 120.859 13.8631 513.666
939 0 44.0143 11.1555 491 123.66 13.9043 513.141
940 0 47.0478 11.584 545 122.239 13.8239 512.215
941 0 47.0379 11.2888 531 125.789 13.7043 511.488
942 0 50.0581 11.6864 585 123.622 13.4872 511.786
943 0 49.0157 11.8942 583 126.633 13.3791 511.575
944 0 48.0511 10.0102 481 121.455 14.2037 512.642
945 0 48.0277 9.64026 463 123.728 14.9179 513.864
946 0 52.0074 9.30637 484 124.754 14.2893 512.021
947 0 51.0106 9.8803 504 126.331 14.7341 510.55
948 0 50.0158 9.81689 491 125.23 15.1487 510.798
949 0 55.0153 10.1245 557 124.788 14.8294 507.961
950 0 55.048 10.0458 553 125.034 14.5262 507.278
951 0 56.0264 10.1202 567 133.284 15.2998 508.217
952 0 57.0265 10.6968 610 132.169 15.0721 507.503
953 0 57.0083 9.64771 550 134.1 15.8636 509.358
954 0 64.1702 9.67739 621 133.953 15.0821 504.49
955 0 66.0583 10.7178 708 129.934 15.5777 501.51
956 1 142.182 12.5262 1781 114.086 16.0197 464.69
957 0 146.229 12.1727 1780 114.008 16.1871 461.322
958 1 38.0152 10.2854 391 121.678 15.6829 513.685
959 0 39.1473 10.4988 411 117.82 15.0365 509.148
960 0 42.0393 10.7281 451 117.84 17.6142 512.144
961 0 43.0765 9.93581 428 120.617 16.1822 512.152
962 0 43.0997 10.2553 442 117.425 16.4253 511.527
963 0 44.0587 10.2136 450 117.176 16.8444 510.38
964 0 46.0633 10.7244 494 113.723 16.4393 509.447
965 0 46.0888 10.0024 461 114.714 16.6876 509.1
966 0 48.0631 10.1533 488 113.975 17.0717 507.518
967 0 49.0715 10.2911 505 112.291 16.2812 509.543
968 0 51.0546 9.81303 501 114.06 16.5968 507.303
969 0 51.0831 10.3948 531 112.343 16.7947 506.544
970 0 55.0462 11.0089 606 108.843 16.3234 505.223
971 0 55.0611 10.334 569 110.344 15.4306 498.812
972 0 57.0337 10.7305 612 109.232 15.7614 504.232
973 0 59.0886 10.4927 620 108.903 16.079 503.737
974 0 58.0554 9.90434 575 110.621 16.3113 501.683
975 0 62.0631 11.5689 718 105.412 15.8802 501.886
976 0 63.1528 11.7176 740 104.603 16.3014 500.709
977 0 66.0546 12.2172 807 103.418 16.6022 499.372
978 0 67.078 11.9413 801 105.331 17.5144 499.335
979 0 70.1579 12.5289 879 111.985 18.2344 497.811
980 0 71.1236 12.64 899 113.248 18.2759 497.346
981 0 75.0965 11.958 898 115.439 18.3808 495.223
982 0 76.0552 12.228 930 106.069 18.3677 495.537
983 0 76.074 10.4635 796 102.892 17.6244 490.227
984 1 40.0318 8.74305 350 96.06 17.6114 510.297
985 0 39.0156 9.43212 368 97.5408 18.0571 507.793
986 0 44.0234 10.2673 452 97.2434 17.292 506.281
987 0 40.0317 9.69233 388 100.76 17.5644 505.832
988 0 44.0261 9.97137 439 98.0114 17.0979 505.647
989 0 44.0512 9.85216 434 100.265 16.7696 504.311
990 0 45.0565 10.2538 462 98.8074 15.9459 503.506
991 0 48.0063 9.81122 471 98.3227 16.9427 503.399
992 0 48.0712 10.3388 497 98.6922 16.6499 501.986
993 0 48.0331 9.5351 458 101.338 16.786 500.919
994 0 49.0469 10.1535 498 99.8434 16.5904 500.608
995 0 53.029 10.202 541 98.3216 17.0518 500.649
996 0 54.0342 10.0307 542 98.7657 16.6827 499.661
997 0 57.0715 10.5131 600 97.8317 17.3333 498.94
998 0 61.045 10.8772 664 97.375 17.0151 500.383
999 0 61.0322 10.945 668 98.0614 17.1063 498.006
1000 0 62.027 10.705 664 96.9081 17.1762 497.303
1001 0 63.0516 10.5152 663 96.3741 17.1644 495.348
1002 0 67.049 10.8876 730 96.3466 17.1466 494.925
1003 0 68.0761 10.8261 737 96.3216 17.5129 494.635
1004 0 70.038 10.1088 708 97.6073 17.8291 493.785
1005 0 72.0894 10.8338 781 96.621 19.1101 493.617
1006 0 75.0439 10.4739 786 98.8651 18.2481 490.559
1007 0 78.0786 10.4894 819 99.1136 18.8877 490.796
1008 1 41.0234 10.6037 435 89.0529 18.9563 511.621
1009 0 43.0046 10.743 462 88.671 18.7706 510.368
1010 0 44.0181 10.95 482 91.8838 18.0788 508.878
1011 0 45.0205 10.8395 488 93.2008 18.2807 508.787
1012 0 46.0099 11.8888 547 95.9781 18.4899 510.77
1013 0 48.0202 11.995 576 94.6545 18.7274 508.811
1014 0 50.0125 12.157 608 93.8701 18.449 508.615
1015 0 50.0148 11.8165 591 94.1743 18.4027 508.866
1016 0 52.0401 12.0676 628 93.3376 18.9984 507.811
1017 0 55.0121 12.161 669 92.4544 18.7369 507.988
1018 0 57.0054 12.2444 698 90.7693 19.6848 507.504
1019 0 57.0258 11.8192 674 93.2226 19.2774 507.286
1020 0 57.0626 12.7404 727 91.5805 19.4525 506.077
1021 0 60.096 12.713 764 89.9908 18.8416 504.818
1022 0 62.0517 12.135 753 90.7756 18.4861 503.598
1023 0 62.1213 12.9746 806 90.2667 19.402 502.834
1024 0 65.1385 12.6807 826 88.9746 19.747 500.845
1025 0 68.1603 12.1478 828 90.756 18.599 499.729
1026 0 69.1287 12.8456 888 89.3097 18.8277 498.595
1027 0 72.1839 12.3435 891 89.7407 18.4747 497.012
1028 0 72.1533 12.3071 888 90.2995 18.2331 495.584
1029 0 76.0597 12.2798 934 90.4101 17.6092 493.893
1030 0 77.0939 12.3097 949 90.6586 17.686 494.395
1031 0 78.1192 12.1097 946 92.9323 17.7431 492.999
1032 0 81.126 12.1539 986 92.5984 17.9787 491.466
1033 0 83.1018 12.0575 1002 92.8673 17.4461 490.001
1034 0 85.1235 12.4055 1056 93.8125 17.5871 488.854
1035 0 90.1515 12.6454 1140 93.9596 17.0553 487.348
1036 1 45.1077 10.7299 484 101.874 16.6653 507.479
1037 0 47.058 11.2415 529 101.297 17.1248 508.146
1038 0 47.111 11.6109 547 102.59 16.6782 506.527
1039 0 50.0287 11.7732 589 102.615 16.489 506.168
1040 0 50.0979 11.9167 597 104.534 16.7052 506.085
1041 0 53.0834 12.0753 641 103.973 17.0109 504.997
1042 0 53.1015 11.9771 636 105.126 16.8726 503.995
1043 0 57.1385 12.846 734 102.922 17.0422 503.649
1044 0 56.1195 12.4199 697 106.57 17.1119 503.174
1045 0 59.0842 12.7614 754 105.794 16.3568 501.548
1046 0 62.0574 12.6979 788 106.008 16.1053 500.959
1047 0 63.1297 12.704 802 106.728 16.0611 499.278
1048 0 66.085 12.499 826 108.189 16.3269 497.873
1049 0 67.0538 13.0343 874 108.183 16.6293 498.644
1050 0 70.0586 13.3174 933 108.613 16.5059 497.438
1051 0 72.1342 13.2531 956 108.431 16.0805 497.153
1052 0 72.1195 13.3944 966 111.36 16.3747 496.599
1053 0 76.0614 13.1473 1000 111.087 16.739 495.333
1054 0 80.1099 13.3192 1067 114.96 16.9766 495.407
1055 0 82.0533 13.0159 1068 118.179 17.4625 494.338
1056 1 43.0498 11.6609 502 119.018 16.6992 512.518
1057 0 45.0541 11.7192 528 116.199 17.6288 512.047
1058 0 45.0511 12.2084 550 114.673 17.1836 512.027
1059 0 47.0174 12.0806 568 112.141 16.9542 510.305
1060 0 48.0588 12.2766 590 118.017 16.9847 508.954
1061 0 50.1028 12.7139 637 118.276 17.2747 507.672
1062 0 51.1289 12.2827 628 120.059 17.5892 508.441
1063 0 52.1031 12.4561 649 120.639 16.9923 507.461
1064 0 54.1401 13.0587 707 117.764 17.4399 506.204
1065 0 55.0789 12.6546 697 119.458 17.2023 505.944
1066 0 55.1015 12.849 708 120.973 17.3658 505.771
1067 0 58.0738 13.3279 774 118.398 17.3941 505.19
1068 0 59.08 13.4394 794 120.38 17.7053 503.855
1069 0 61.0684 13.5094 825 120.098 17.7285 503.367
1070 0 65.045 13.4984 878 118.878 17.7665 503.081
1071 0 65.0836 13.4289 874 122.644 18.3753 501.943
1072 0 66.0763 13.9233 920 120.512 17.8685 502.245
1073 0 68.0818 14.1154 961 119.919 18.3267 500.895
1074 0 68.0876 13.5561 923 122.346 17.7931 500.387
1075 0 71.0631 13.9594 992 120.914 17.9536 499.415
1076 0 73.0706 14.1507 1034 119.638 17.5213 499.162
1077 0 74.0533 13.4633 997 122.245 17.9308 498.361
1078 0 77.0629 14.0794 1085 119.904 16.9373 495.738
1079 0 80.1389 14.0381 1125 118.945 16.7289 496.306
1080 0 82.1767 14.0186 1152 119.336 17.9731 495.266
1081 0 84.1947 14.4902 1220 118.146 18.5221 494.22
1082 0 86.1557 14.8916 1283 120.797 17.7038 491.63
1083 0 89.1701 14.2985 1275 123.657 18.1396 489.705
1084 0 92.1712 14.6467 1350 117.927 17.503 489.675
1085 0 93.1862 14.7769 1377 119.982 17.5766 487.818
1086 0 98.2667 14.6947 1444 119.878 17.3373 486.175
1087 0 100.262 15.0605 1510 117.201 17.0669 485.341
1088 0 101.258 14.6655 1485 119.009 17.5522 485.417
1089 0 105.294 14.6446 1542 133.408 17.0811 482.19
1090 0 108.21 14.4996 1569 131.892 17.6272 479.98
1091 0 112.233 14.6302 1642 131.181 17.4397 478.227
1092 0 116.356 14.1807 1650 132.818 17.4873 475.767
1093 1 48.2426 11.2141 541 131.817 17.7135 508.98
1094 0 49.2678 11.5694 570 130.237 16.9649 508.305
1095 0 50.3089 12.304 619 128.57 16.9128 506.85
1096 0 53.1685 11.9996 638 126.149 16.837 502.296
1097 0 53.0702 12.7378 676 123.37 16.6154 509.741
1098 0 53.0922 12.9774 689 123.192 16.5747 508.791
1099 0 56.1072 12.4405 698 123.986 17.616 510.443
1100 0 58.1235 12.7143 739 122.673 18.3261 508.263
1101 0 61.0767 12.9346 790 120.89 17.7975 507.499
1102 0 61.1364 12.8074 783 122.109 18.7714 506.936
1103 0 63.091 13.3458 842 120.808 17.9786 505.607
1104 0 65.0789 12.5386 816 123.985 17.5613 504.952
1105 0 66.0938 12.6184 834 125.235 16.7842 504.314
1106 0 70.0902 13.6538 957 121.435 16.9279 501.939
1107 0 73.1335 13.1814 964 122.459 17.1732 501.262
1108 0 73.0971 12.9143 944 126.466 16.6409 500.492
1109 0 74.1235 13.4235 995 126.304 17.0503 500.19
1110 0 79.0834 13.5806 1074 125.695 17.0102 498.142
1111 0 81.0655 13.668 1108 125.942 17.4251 497.106
1112 0 83.1125 13.7885 1146 126.162 17.1422 496.307
1113 0 85.1439 13.4126 1142 128.913 16.7706 494.054
1114 0 87.092 13.9967 1219 128.551 17.1854 495.309
1115 0 89.1305 14.0805 1255 129.073 17.7378 494.606
1116 0 91.0932 14.0735 1282 130.184 17.2293 493.283
1117 0 94.0927 13.9649 1314 129.941 18.1324 489.049
1118 0 96.108 13.5473 1302 132.533 17.5169 489.79
1119 0 100.093 14.0768 1409 130.275 18.022 487.71
1120 0 102.138 14.1476 1445 129.885 17.7986 487.915
1121 0 105.137 14.0578 1478 131.208 18.41 486.735
1122 0 108.146 14.2493 1541 131.316 18.4731 484.417
1123 0 113.135 14.1248 1598 130.341 17.3992 482.478
1124 0 114.221 14.5858 1666 133.683 18.036 481.453
1125 0 118.211 14.1865 1677 133.951 17.2481 479.401
1126 0 122.083 14.1461 1727 133.111 18.1112 478.88
1127 0 127.045 13.8533 1760 135.64 17.7085 474.808
1128 0 129.074 13.682 1766 133.827 17.9315 471.451
1129 0 133.086 13.5025 1797 134.971 18.4352 470.649
1130 1 86.0374 12.1343 1044 140.534 17.3669 490.764
1131 0 87.0537 12.7163 1107 136.434 19.028 492.92
1132 0 90.1737 13.3742 1206 144.545 18.7463 492.968
1133 0 90.1479 12.3575 1114 133.722 18.018 493.468
1134 0 92.1168 12.2996 1133 135.35 18.5684 489.392
1135 0 94.0678 12.2571 1153 135.446 17.9011 490.152
1136 0 98.1434 12.2372 1201 133.563 17.1982 490.088
1137 0 101.109 12.5903 1273 134.6 16.9317 474.407
1138 0 104.131 12.9356 1347 133.015 17.1878 486.261
1139 0 106.109 12.9584 1375 136.453 16.6691 484.96
1140 0 111.186 12.8613 1430 136.521 17.4503 482.79
1141 1 58.0628 11.6254 675 138.661 17.7674 507.695
1142 0 58.0738 11.3476 659 140.372 16.9211 506.581
1143 0 63.0294 12.2007 769 132.741 17.2341 505.049
1144 0 65.0169 12.9351 841 134.298 16.9465 506.51
1145 0 65.132 12.4516 811 137.756 17.0185 504.778
1146 0 68.174 12.8055 873 136.115 16.7308 504.704
1147 0 69.0912 13.3736 924 135.937 17.2532 503.587
1148 0 72.1386 13.0721 943 134.92 16.7561 502.661
1149 0 73.0823 13.7516 1005 131.674 16.4328 500.904
1150 0 74.0966 12.7536 945 120.972 16.5026 499.754
1151 0 74.0606 13.6375 1010 119.843 16.5733 498.936
1152 0 76.1331 12.5044 952 116.14 16.6197 496.786
1153 0 79.0879 12.4798 987 116.447 17.1631 495.231
1154 0 82.1205 12.7861 1050 115.595 17.4381 495.004
1155 0 82.1134 13.0673 1073 116.905 16.7633 492.956
1156 0 85.077 12.5768 1070 118.186 16.9084 493.364
1157 0 86.1219 12.7494 1098 116.251 16.98 490.758
1158 0 91.0513 13.4979 1229 122.004 16.7811 493.045
1159 0 93.1467 13.3016 1239 122.407 16.9492 492.242
1160 0 97.0917 14.1928 1378 118.466 16.5058 490.422
1161 0 97.1006 13.8001 1340 122.041 16.5336 488.785
1162 0 102.134 14.1579 1446 118.091 16.686 488.099
1163 1 51.054 11.8894 607 123.82 16.1367 511.489
1164 0 54.07 12.3174 666 114.604 16.4249 511.721
1165 0 53.0511 12.5162 664 121.565 16.2229 509.926
1166 0 56.0951 13.2988 746 119.082 16.134 509.247
1167 0 58.0424 13.2145 767 119.674 16.9596 509.031
1168 0 60.0892 13.5632 815 119.664 15.9951 507.567
1169 0 61.0456 13.4162 819 121.505 16.2552 507.226
1170 0 63.0802 13.1103 827 122.981 15.9855 506.202
1171 0 64.0557 14.0034 897 120.874 15.9019 505.395
1172 0 68.0846 13.4098 913 122.269 16.3122 504.813
1173 0 67.055 14.0034 939 122.458 15.7306 504.004
1174 0 71.054 13.6657 971 121.897 16.0227 501.503
1175 0 72.0408 13.8533 998 122.35 16.1062 500.377
1176 0 76.0291 14.2709 1085 119.703 16.3548 500.173
1177 0 77.0886 13.9061 1072 121.859 16.5933 498.595
1178 0 77.0969 14.164 1092 121.44 15.6163 498.19
1179 0 79.0317 14.2348 1125 121.543 16.5716 495.559
1180 0 83.0782 14.5285 1207 119.37 16.1616 495.756
1181 0 86.1306 13.526 1165 121.897 16.9279 494.256
1182 0 87.0899 13.7444 1197 120.898 16.2322 494.368
1183 0 88.0392 13.7893 1214 122.325 16.0222 492.537
1184 0 92.2043 14.2401 1313 118.249 16.7243 491.397
1185 0 95.2265 14.1662 1349 118.091 15.9451 491.692
1186 0 96.0915 14.5799 1401 118.263 16.5753 488.392
1187 0 101.119 14.3792 1454 115.989 15.9257 489.173
1188 0 103.136 13.8458 1428 118.385 16.8389 486.941
1189 0 104.131 13.7712 1434 119.739 16.2364 484.213
1190 0 108.153 14.1743 1533 118.178 16.7286 483.928
1191 0 111.099 14.5456 1616 117.22 16.6467 482.121
1192 0 114.11 14.0917 1608 119.162 16.5435 480.996
1193 0 117.242 13.7408 1611 118.845 16.7014 481.471
1194 0 120.184 13.4045 1611 119.371 15.9553 481.448
1195 1 63.1703 12.8858 814 121.192 15.7383 505.504
1196 0 66.2269 13.4839 893 120.878 16.3024 502.758
1197 0 69.2277 13.4195 929 120.473 16.3219 501.49
1198 0 71.1167 13.963 993 123.75 15.9436 500.574
1199 0 72.0807 14.1924 1023 123.806 16.6002 499.79
1200 0 75.1642 14.4218 1084 123.395 16.5904 498.833
1201 0 75.1214 13.5381 1017 128.716 16.2075 497.286
1202 0 80.1458 14.4611 1159 125.378 16.3356 496.047
1203 0 81.2624 14.2747 1160 127.042 15.2845 495.103
1204 0 81.2624 14.3609 1167 180.41 14.329 495.064
1205 0 84.2003 14.3824 1211 130.578 15.7506 492.894
1206 0 88.2784 14.1711 1251 131.185 15.3397 490.504
1207 0 92.2602 14.8493 1370 128.601 16.1453 490.694
1208 0 93.2915 14.5029 1353 131.626 15.7369 488.265
1209 0 97.3058 14.9117 1451 128.444 15.9276 488.5
1210 0 96.1655 15.8165 1521 128.782 15.4806 485.606
1211 0 102.196 14.4526 1477 131.19 16.1916 484.125
1212 0 107.233 14.4638 1551 129.331 15.9387 482.083
1213 0 112.273 15.2663 1714 124.527 16.1155 480.05
1214 0 115.244 14.9509 1723 124.058 15.5055 478.688
1215 0 118.314 14.7658 1747 123.59 16.0784 476.57
1216 1 58.1312 12.4718 725 135.617 15.4386 504.463
1217 0 60.2437 13.1632 793 134.961 15.7957 504
1218 0 61.189 13.156 805 136.843 15.8236 502.416
1219 0 63.1713 13.6454 862 136.592 15.4571 501.074
1220 0 67.2769 13.764 926 135.188 15.2171 500.383
1221 0 69.2036 13.7132 949 136.596 16.1465 498.952
1222 0 68.1462 13.4123 914 141.646 15.7724 498.141
1223 0 70.2164 13.5438 951 142.345 15.5499 496.463
1224 0 73.1684 13.7218 1004 140.699 15.3048 495.686
1225 0 74.2545 14.0059 1040 141.075 15.7942 495.793
1226 0 77.1921 13.9263 1075 141.874 16.3674 492.825
1227 0 79.1545 13.8337 1095 142.51 15.2858 492.626
1228 0 81.1834 14.0546 1141 141.767 16.4768 491.383
1229 0 83.1977 14.123 1175 141.677 16.4894 491.383
1230 0 85.1429 14.5403 1238 139.511 17.0105 490.452
1231 0 87.1928 14.1181 1231 142.318 15.844 489.913
1232 0 90.1347 14.556 1312 140.326 16.1441 486.478
1233 0 92.1665 14.0398 1294 141.26 15.9822 484.856
1234 0 95.1999 14.2332 1355 140.877 16.1476 484.973
1235 0 99.0941 14.4004 1427 140.422 16.0357 482.685
1236 0 101.112 14.5779 1474 140.477 15.9009 481.854
1237 0 104.215 13.9999 1459 143.194 16.5627 480.218
1238 0 107.215 14.0372 1505 142.774 16.3482 478.605
1239 0 110.17 14.1055 1554 143.797 17.0656 477.83
1240 0 113.183 14.2601 1614 143.502 17.6276 475.101
1241 0 115.177 14.1522 1630 144.969 16.8061 473.81
1242 0 121.254 14.5974 1770 142.734 16.2633 470.882
1243 0 122.219 14.1386 1728 145.501 17.2425 469.37
1244 0 128.267 14.6101 1874 143.511 16.5742 465.349
1245 0 132.262 14.6452 1937 144.068 17.285 465.563
1246 0 136.322 14.6345 1995 145.917 16.7033 462.244
1247 0 141.246 14.8677 2100 145.892 16.5824 459.396
1248 0 144.36 14.3877 2077 150.535 17.1343 457.249
1249 0 148.199 14.629 2168 150.852 17.4622 454.993
1250 0 152.27 14.4875 2206 153.255 16.9506 451.113
1251 0 158.29 14.8335 2348 152.353 17.2436 451.164
1252 1 91.1981 10.8007 985 149.957 17.6102 485.203
1253 0 93.135 10.8015 1006 151.102 17.5497 483.245
1254 0 97.1846 11.5039 1118 148.95 17.6565 480.97
1255 0 100.21 11.6255 1165 149.091 17.8953 479.27
1256 0 106.234 11.4935 1221 145.566 17.199 477.262
1257 0 109.12 11.4736 1252 144.478 17.9137 474.585
1258 0 111.127 11.2574 1251 143.812 17.6315 472.202
1259 0 117.159 11.3691 1332 141.836 16.4212 470.044
1260 0 121.242 11.2667 1366 141.552 17.1764 466.486
1261 0 125.142 11.1074 1390 139.261 16.3597 465.822
1262 0 130.281 10.8074 1408 138.885 16.4048 462.214
1263 1 72.0966 8.8631 639 121.033 16.1909 495.225
1264 0 74.0949 9.32588 691 119.381 16.2301 494.904
1265 0 78.0922 9.41195 735 119.721 15.7932 492.471
1266 0 78.1094 9.37148 732 121.501 15.5464 493.495
1267 0 81.1293 8.59122 697 126.047 15.9082 490.41
1268 0 84.1308 9.41391 792 123.375 15.9154 490.418
1269 0 84.1205 9.28431 781 126.197 15.8425 488.458
1270 0 88.1608 9.38059 827 125.936 16.5018 489.169
1271 0 91.1384 9.118 831 127.291 16.6426 486.005
1272 0 94.1998 9.97879 940 125.652 16.0032 484.967
1273 0 95.1455 9.2595 881 127.995 16.4835 485.394
1274 0 98.1931 9.44059 927 127.334 16.1068 483.845
1275 0 102.184 9.54165 975 128.191 16.119 480.198
1276 0 104.229 9.74778 1016 127.641 16.0463 478.211
1277 0 107.187 9.4601 1014 130.057 15.9822 477.293
1278 0 109.209 9.51386 1039 131.017 15.9384 475.333
1279 0 113.276 10.1875 1154 129.718 16.8397 475.328
1280 0 116.247 9.8669 1147 133.062 16.4141 470.251
1281 0 119.196 9.83255 1172 134.962 16.0324 466.164
1282 0 124.265 10.2121 1269 133.388 16.2277 467.11
1283 0 126.299 10.1426 1281 136.094 16.8759 464.795
1284 0 130.209 9.93021 1293 137.14 16.935 464.032
1285 0 133.333 10.1775 1357 136.888 16.4937 460.492
1286 0 138.232 9.88193 1366 136.632 17.1171 457.435
1287 0 142.154 9.72888 1383 137.292 17.0788 452.238
1288 0 145.171 10.7873 1566 129.777 17.5109 449.55
1289 0 150.156 9.95633 1495 137.132 17.5244 448.542
1290 0 156.219 11.0486 1726 132.459 18.1738 448.155
1291 0 160.158 10.7019 1714 133.558 18.0088 445.693
1292 0 163.175 10.3447 1688 133.122 17.6232 446.326
1293 0 169.084 10.5687 1787 132.647 17.235 442.998
1294 0 173.163 11.29 1955 131.086 17.2813 438.743
1295 0 175.067 10.5217 1842 133.817 17.0592 437.725
1296 0 184.158 11.3978 2099 130.667 16.6556 437.282
1297 0 190.319 11.4965 2188 130.571 17.5288 432.398
1298 0 194.197 11.478 2229 131.461 16.747 428.336
1299 0 200.331 12.0251 2409 132.286 16.851 425.972
1300 0 202.28 12.0081 2429 134.178 17.4961 421.987
1301 0 202.193 13.2448 2678 127.897 16.6064 405.215
1302 0 216.355 13.2051 2857 126.97 17.1789 411.684
1303 0 220.363 12.8923 2841 129.464 16.5199 406.473
1304 0 224.337 13.132 2946 129.052 17.2081 405.181
1305 0 226.355 12.8294 2904 130.21 17.0592 397.976
1306 1 237.448 13.3461 3169 128.876 17.515 396.282
1307 0 242.242 13.2677 3214 130.532 17.2175 391.489
1308 0 251.253 12.9352 3250 125.172 16.2735 389.839
1309 0 257.352 12.4848 3213 119.358 15.9359 380.977
1310 0 261.246 12.4174 3244 119.98 16.6773 375.749
1311 0 358.605 18.5469 6651 98.0126 16.4957 316.791
1312 1 219.407 9.99967 2194 122.856 16.7233 414.737
1313 0 228.469 11.2488 2570 118.07 16.9984 413.247
1314 0 232.353 11.5944 2694 120.199 16.6255 403.906
1315 0 241.196 14.6479 3533 108.246 17.0198 392.934
1316 0 242.226 11.4356 2770 120.972 16.0968 394.869
1317 0 249.355 11.4496 2855 120.704 16.6259 392.271
1318 0 257.279 11.9559 3076 118.688 15.9217 389.648
1319 0 267.265 11.9769 3201 119.019 16.15 387.678
1320 0 277.344 12.3673 3430 118.046 16.1458 384.319
1321 0 282.351 12.4172 3506 98.5821 17.0473 378.793
1322 0 293.339 12.5895 3693 118.439 15.9827 375.347
1323 0 299.296 12.2822 3676 120.918 15.4407 370.801
1324 0 308.448 12.4948 3854 119.18 15.8627 367.776
1325 0 317.43 12.6611 4019 119.695 15.9246 360.788
1326 0 325.56 13.7087 4463 117.888 15.7071 352.511
1327 0 334.825 12.7888 4282 120.458 18.114 355.905
1328 0 341.587 12.3073 4204 123.789 16.7405 347.808
1329 0 349.625 14.0922 4927 117.821 15.9296 336.744
1330 0 360.688 14.3698 5183 117.795 15.6151 331.626
1331 0 370.712 13.992 5187 116.516 14.9375 320.604
1332 0 384.585 14.647 5633 112.715 15.564 313.095
1333 0 394.935 14.1542 5590 116.401 15.0522 305.313
1334 0 403.829 13.892 5610 117.808 15.1848 296.385
1335 0 212.627 8.1222 1727 99.784 15.8298 420.296
1336 0 217.378 8.71754 1895 95.942 16.7119 417.747
1337 0 221.319 8.57133 1897 96.4902 16.4412 413.392
1338 0 227.361 8.68661 1975 97.1382 16.3241 406.948
1339 0 237.443 10.7647 2556 97.8803 15 350.306
1340 0 244.524 11.5735 2830 98.7117 15.6428 352.012
1341 0 251.483 11.5554 2906 99.9566 15.9405 350.423
1342 0 255.421 11.436 2921 103.215 15.7994 352.471
1343 0 267.5 13.6561 3653 98.9918 15.5949 349.853
1344 0 272.546 14.4343 3934 99.4672 15.588 355.461
1345 0 278.571 14.1113 3931 104.541 15.6469 349.456
1346 0 285.489 13.5802 3877 98.529 15.202 343.499
1347 0 295.534 14.5736 4307 96.0701 14.5359 338.527
1348 0 302.508 13.9203 4211 100.498 15.256 336.502
1349 1 228.402 9.36506 2139 104.95 15.2347 380.908
1350 0 235.427 9.73548 2292 103.233 14.8695 383.216
1351 0 242.458 11.0947 2690 102.736 15.5855 378.308
1352 0 247.396 11.1845 2767 105.567 15.1189 372.936
1353 0 253.428 11.1748 2832 104.489 15.1148 377.931
1354 0 262.464 10.9386 2871 103.087 15.0603 374.828
1355 0 271.643 11.3016 3070 101.416 16.0339 381.45
1356 0 278.642 10.9926 3063 99.649 15.8031 386.284
1357 0 285.757 10.9989 3143 99.1021 15.2383 383.296
1358 0 294.571 12.1057 3566 100.803 17.7914 376.282
1359 0 294.604 12.0976 3564 157.308 17.7955 376.087
1360 1 235.711 9.83833 2319 103.361 15.6498 411.66
1361 0 238.859 10.9228 2609 107.726 16.8896 404.422
1362 0 247.736 10.7494 2663 105.82 16.1679 404.268
1363 1 80.4778 7.5176 605 82.8132 15.9851 493.739
1364 0 83.5828 9.36796 783 81.6232 15.9617 489.976
1365 0 86.5251 9.46546 819 78.9341 16.3138 490.172
1366 0 87.111 8.67859 756 81.7487 16.0265 492.294
1367 0 88.0893 8.43462 743 83.0929 16.0013 490.7
1368 0 92.0722 8.22181 757 83.3923 15.4993 490.581
1369 0 95.0592 8.41581 800 85.33 17.0362 490.222
1370 0 98.1129 8.01118 786 85.8422 16.7774 486.462
1371 0 99.0926 8.19436 812 87.9951 16.697 483.308
1372 0 103.076 8.76053 903 85.485 16.8826 487.019
1373 0 105.097 8.57303 901 87.1931 16.4861 476.192
1374 0 107.144 8.92258 956 86.1423 16.3598 479.992
1375 0 107.212 8.87964 952 87.542 16.4695 479.645
1376 0 109.152 9.26229 1011 85.9674 15.8803 477.558
1377 0 113.11 9.20341 1041 80.5946 16.0672 478.46
1378 0 114.148 9.2249 1053 81.8927 16.0636 479.155
1379 0 113.185 8.91463 1009 81.667 16.5144 476.146
1380 0 113.136 8.89192 1006 86.7883 15.669 475.083
1381 0 116.25 9.85808 1146 86.6335 15.6632 477.201
1382 1 62.1662 7.51212 467 77.4647 15.8694 508.604
1383 0 63.1113 7.97005 503 76.3698 15.9085 506.616
1384 0 63.1614 8.01123 506 74.5711 16.6818 507.087
1385 0 65.1426 8.58118 559 71.0751 16.6154 504.474
1386 0 68.1334 8.61545 587 69.3526 16.4106 505.337
1387 0 67.0613 9.21544 618 67.1262 15.7087 504.762
1388 0 68.214 9.3236 636 66.728 15.8947 502.219
1389 0 73.1094 9.53366 697 64.7891 15.099 501.977
1390 0 72.2071 8.97419 648 66.5231 15.1605 501.815
1391 0 73.1697 9.51214 696 66.4497 15.2514 501.776
1392 0 73.1467 9.31006 681 67.3671 16.3333 500.884
1393 0 75.1471 9.38159 705 67.1801 16.0156 497.98
1394 0 74.0898 8.57068 635 69.5874 15.9669 499.287
1395 0 77.0921 9.62485 742 68.0701 15.4663 497.373
1396 0 79.245 9.62837 763 70.0878 14.8676 496.425
1397 0 80.148 9.38264 752 71.4029 15.1928 495.461
1398 0 82.2883 9.90421 815 72.535 14.6331 493.065
1399 0 81.2066 9.26033 752 76.9707 14.7753 491.186
1400 0 84.1474 9.83987 828 80.1594 14.413 491.229
1401 0 87.2153 10.4798 914 84.2823 14.721 489.223
1402 0 89.2092 10.3577 924 85.7078 14.6429 490.505
1403 0 87.1867 9.60009 837 90.276 14.81 487.176
1404 0 91.2379 10.1712 928 89.2737 14.7996 487.102
1405 0 92.2134 10.1287 934 92.6638 15.1831 483.482
1406 0 94.239 10.5795 997 92.8887 14.8044 483.597
1407 0 95.1699 10.2974 980 96.6816 14.6612 483.206
1408 0 99.3416 10.942 1087 97.0129 14.2576 482.539
1409 0 102.2 11.1546 1140 97.0895 14.8535 483.717
1410 0 99.1453 9.52138 944 100.178 15.0222 476.415
1411 0 104.093 9.99111 1040 98.2067 14.6615 477.325
1412 0 106.087 10.284 1091 99.2585 15.6104 479.112
1413 0 109.07 10.9838 1198 102.595 15.1569 476.179
1414 0 109.095 10.1746 1110 106.301 15.5234 475.157
1415 0 113.2 10.9099 1235 102.819 16.2988 472.671
1416 0 115.106 10.764 1239 105.083 15.611 469.856
1417 0 117.103 11.0159 1290 105.406 16.1434 470.489
1418 0 121.126 11.294 1368 105.338 15.7208 469.715
1419 0 122.16 11.1166 1358 107.549 16.2725 470.245
1420 0 127.146 12.1908 1550 104.166 16.6213 467.655
1421 0 129.093 11.3484 1465 106.694 16.1454 465.089
1422 0 132.151 11.8728 1569 104.578 15.7948 464.703
1423 0 138.199 11.7801 1628 102.188 15.7697 462.919
1424 1 74.3138 8.9889 668 91.8249 15.768 495.561
1425 0 76.2337 8.97241 684 95.4561 15.5702 494.31
1426 0 80.2587 10.6032 851 99.0423 16.161 492.524
1427 0 82.0996 10.743 882 102.478 15.5045 493.613
1428 0 83.0642 11.0637 919 102.905 15.0936 490.814
1429 0 87.1094 11.2847 983 101.123 14.532 490.064
1430 0 86.0785 10.5369 907 104.397 15.355 488.848
1431 0 89.1282 10.7934 962 103.824 15.7152 487.779
1432 0 92.0958 11.4012 1050 101.057 15.0486 486.198
1433 0 93.0948 10.9029 1015 102.701 15.7675 485.065
1434 0 97.0889 11.3401 1101 101.021 14.9718 484.737
1435 0 98.1132 11.2625 1105 101.006 14.8045 481.994
1436 0 101.082 11.0108 1113 100.929 14.9479 479.612
1437 0 103.057 11.4209 1177 98.8853 15.0493 480.357
1438 0 106.122 11.5622 1227 99.3293 15.0049 479.941
1439 0 109.101 11.1732 1219 100.222 15.4971 476.637
1440 0 111.114 10.9527 1217 101.125 15.1101 475.147
1441 0 114.087 12.2188 1394 98.6471 14.7948 474.535
1442 0 115.092 11.2084 1290 101.528 15.2984 473.136
1443 0 118.08 11.5854 1368 101.334 16.0234 471.36
1444 0 122.15 11.5104 1406 102.536 15.3642 469.275
1445 0 126.086 10.7308 1353 93.6984 15.6127 467.625
1446 1 71.0415 8.85398 629 97.6963 15.8808 496.269
1447 0 74.0473 9.71001 719 94.5911 16.7622 496.599
1448 0 75.0602 10.0852 757 91.8534 15.9881 494.229
1449 0 79.0248 10.8067 854 89.8056 16.2623 494.813
1450 0 81.1794 11.5177 935 91.693 16.1412 494.576
1451 0 85.0586 12.1446 1033 91.15 15.4492 493.819
1452 0 86.0796 11.9076 1025 93.2459 16.601 491.163
1453 0 90.1292 12.127 1093 93.2333 16.4904 490.318
1454 0 92.2585 12.1723 1123 95.6287 16.5948 486.118
1455 0 95.1977 12.4793 1188 95.3392 15.8359 487.376
1456 0 96.2197 12.7105 1223 97.1455 15.7089 486.657
1457 0 99.2204 12.6184 1252 99.4289 15.869 485.707
1458 0 103.185 13.1415 1356 96.9926 15.986 484.162
1459 0 103.11 12.6273 1302 96.9524 15.4209 482.239
1460 0 106.114 12.6185 1339 96.9783 15.6124 482.416
1461 0 109.094 12.7138 1387 97.0937 15.4182 479.558
1462 0 111.065 12.9924 1443 99.21 16.0416 479.674
1463 0 114.18 13.4349 1534 105.507 15.251 477.428
1464 0 116.138 13.2428 1538 105.436 15.2874 476.271
1465 0 119.104 12.7031 1513 99.7905 15.7548 474.496
1466 0 123.12 12.8005 1576 97.4575 14.7779 472.301
1467 0 127.065 13.1587 1672 95.988 14.951 470.053
1468 0 130.086 12.8223 1668 97.3046 14.8909 467.219
1469 0 134.08 12.582 1687 104.794 15.639 465.89
1470 0 140.191 12.8467 1801 107.144 15.2526 463.086
1471 1 76.1272 10.1278 771 94.476 14.6563 496.268
1472 0 79.1009 10.3918 822 93.0511 16.0645 493.631
1473 0 80.0912 11.1997 897 95.1003 15.3434 493.566
1474 0 83.079 12.3497 1026 93.3421 15.8421 492.073
1475 0 85.0638 11.3915 969 95.9515 15.2508 491.721
1476 0 87.1169 11.5592 1007 96.5919 15.2781 488.735
1477 0 90.0821 11.7115 1055 97.146 14.6303 488.416
1478 0 92.1457 11.2973 1041 99.0231 15.3746 485.523
1479 0 96.0934 11.9155 1145 97.0166 15.0498 485.039
1480 0 98.1081 11.895 1167 97.8946 15.8329 484.998
1481 0 101.155 11.9915 1213 98.0989 15.3784 483.209
1482 0 101.115 12.1149 1225 99.1249 15.8359 481.313
1483 0 103.105 12.1333 1251 100.743 15.4668 481.628
1484 0 107.05 12.2746 1314 100.451 16.6971 479.998
1485 0 110.132 12.14 1337 101.557 15.5482 478.091
1486 0 111.133 11.8237 1314 109.393 16.0023 476.106
1487 0 116.117 12.0741 1402 108.637 15.7482 473.377
1488 0 119.151 12.0099 1431 110.263 15.1195 473.166
1489 0 123.274 12.2166 1506 109.563 15.4469 470.476
1490 0 124.276 12.1101 1505 110.27 15.6199 468.444
1491 0 130.267 12.4437 1621 107.816 15.0623 467.39
1492 0 133.249 12.8407 1711 110.345 15.377 464.868
1493 0 138.231 12.8553 1777 115.105 15.6989 462.922
1494 0 139.065 12.4546 1732 113.088 15.7003 457.122
1495 0 139.124 11.7018 1628 111.62 15.7862 451.741
1496 0 144.202 11.463 1653 110.074 15.6564 448.506
1497 1 85.0809 9.66139 822 108.202 14.9404 483.456
1498 0 89.0808 10.7094 954 108.847 15.2579 483.914
1499 0 91.05 11.5761 1054 106.562 15.7324 483.3
1500 0 93.0905 11.6338 1083 106.327 16.5032 485.587
1501 0 97.1094 12.3984 1204 104.639 17.0224 483.44
1502 0 99.1337 11.9737 1187 105.072 16.9267 482.207
1503 0 104.157 12.0971 1260 104.167 15.9587 480.775
1504 0 106.154 12.3029 1306 102.703 16.111 479.409
1505 0 107.136 11.7234 1256 104.885 15.6903 476.53
1506 0 111.142 12.0746 1342 102.562 16.0984 475.019
1507 0 115.195 12.2922 1416 101.782 15.1405 472.864
1508 0 118.164 12.0172 1420 101.589 15.6866 473.663
1509 0 120.082 12.1334 1457 101.675 16.3981 470.394
1510 0 124.162 11.9521 1484 103.305 16.8086 467.29
1511 1 72.0393 10.1195 729 98.5981 16.6269 496.849
1512 0 72.0616 10.2135 736 93.0014 15.6685 496.251
1513 0 76.0476 11.0194 838 93.3675 15.0489 494.436
1514 0 75.0236 11.1165 834 96.8549 15.2422 493.873
1515 0 77.0257 11.5156 887 96.0778 15.4397 491.961
1516 0 81.105 11.7379 952 94.4664 15.3372 491.424
1517 0 79.0384 10.1849 805 88.2857 15.2509 493.626
1518 0 83.0749 10.5086 873 87.5304 14.63 492.371
1519 0 86.0987 11.0106 948 86.943 14.634 489.289
1520 0 88.0795 10.9901 968 87.2097 15.5919 488.894
1521 0 90.1105 10.0321 904 87.5951 15.24 489.336
1522 0 91.1013 10.1755 927 88.2621 15.4542 486.523
1523 0 94.0899 9.88417 930 87.4333 16.2828 486.466
1524 0 99.1902 10.9285 1084 84.6006 15.6116 483.004
1525 0 100.055 10.3543 1036 88.4836 15.7452 484.433
1526 0 104.087 11.2983 1176 87.7355 15.466 482.789
1527 0 107.081 11.5707 1239 87.18 16.0726 478.759
1528 0 108.052 10.9576 1184 89.8345 16.1098 476.75
1529 0 111.05 11.6434 1293 87.8902 16.2877 472.328
1530 0 114.051 11.3546 1295 87.8417 15.9506 470.385
1531 1 60.0285 7.67968 461 89.7332 15.4577 494.625
1532 0 62.0629 9.31313 578 86.1194 16.7976 492.102
1533 0 62.1431 9.44594 587 87.632 17.5213 489.927
1534 0 71.0746 11.5934 824 89.4466 15.7488 498.333
1535 0 68.0404 10.0822 686 86.7901 15.7464 501.162
1536 0 72.0489 10.4929 756 85.4802 16.6997 499.996
1537 0 74.087 10.3527 767 86.8748 15.9831 497.279
1538 0 76.0764 10.1214 770 88.0623 16.087 496.416
1539 0 77.0703 10.1466 782 89.1496 16.3312 495.174
1540 0 79.0906 10.0012 791 90.9608 16.1972 494.679
1541 0 81.1013 9.98751 810 90.7889 15.7457 495.075
1542 0 84.0877 10.5723 889 91.667 16.0844 491.152
1543 0 86.0992 10.6157 914 92.7516 16.1204 490.909
1544 0 87.1699 10.5656 921 95.3692 16.3073 491.722
1545 0 92.1829 10.7829 994 96.3068 15.9477 490.513
1546 0 92.0762 11.1321 1025 97.2273 15.5122 489.204
1547 0 93.1959 10.3331 963 102.104 16.4351 488.213
1548 0 97.1742 11.1038 1079 103.391 16.2215 486.108
1549 0 99.1966 11.0891 1100 104.402 16.3582 484.58
1550 0 104.282 11.4593 1195 103.483 16.0126 483.233
1551 0 104.218 10.7563 1121 105.975 16.4594 482.123
1552 0 108.268 11.2129 1214 106.661 16.6129 480.694
1553 0 111.366 11.4577 1276 104.719 16.5165 481.101
1554 0 115.216 11.7692 1356 106.195 16.1541 478.751
1555 0 117.163 11.7187 1373 109.908 15.7706 477.594
1556 0 119.23 11.4149 1361 110.86 15.9794 475.94
1557 0 122.111 11.5878 1415 109.394 16.6551 469.558
1558 0 124.13 11.4235 1418 109.992 16.464 467.047
1559 1 71.0703 8.68155 617 106.152 17.1491 492.551
1560 0 75.1255 9.78363 735 103.287 17.2054 495.585
1561 0 78.3197 11.3509 889 108.143 15.9595 495.096
1562 0 78.1085 10.7031 836 102.255 17.433 490.529
1563 0 81.0806 10.8534 880 102.993 17.292 489.057
1564 0 83.042 10.8861 904 102.322 17.7931 489.171
1565 0 85.0405 10.642 905 102.756 16.6884 487.403
1566 0 84.1029 8.59661 723 95.379 16.101 494.306
1567 0 87.1 9.49483 827 100.527 16.5635 492.751
1568 0 90.0621 9.70442 874 95.2929 17.4188 490.063
1569 0 92.0619 9.17861 845 97.6343 16.742 490.375
1570 0 95.0828 9.54957 908 99.2555 16.9449 487.938
1571 0 97.0612 10.8282 1051 97.883 16.4548 485.049
1572 0 99.1464 10.2172 1013 99.0494 16.5864 485.171
1573 0 104.117 11.4967 1197 97.5965 16.9983 481.085
1574 0 105.092 10.3909 1092 102.543 16.685 484.505
1575 0 108.118 10.3128 1115 102.215 16.4179 483.724
1576 0 110.054 11.1036 1222 102.962 15.8412 478.646
1577 0 116.103 12.3683 1436 99.7535 17.1149 475.587
1578 0 117.115 11.7919 1381 105.538 16.8559 474.324
1579 0 124.043 12.4231 1541 107.069 15.8501 472.386
1580 0 128.12 12.4181 1591 107.167 15.9994 471.328
1581 0 129.158 12.2796 1586 107.799 16.3525 468.154
1582 1 70.1148 9.79821 687 101.904 16.1994 501.067
1583 0 73.1194 10.3256 755 102.14 15.9722 499.265
1584 0 74.0878 11.2164 831 101.463 16.4332 498.316
1585 0 76.2318 11.019 840 102.739 16.4274 496.833
1586 0 78.1948 11.3563 888 102.39 16.9842 497.863
1587 0 81.3334 12.418 1010 104.335 16.502 494.186
1588 0 83.311 12.0272 1002 105.949 15.5389 493.667
1589 0 85.3138 11.9324 1018 106.204 16.1248 492.022
1590 0 88.2788 12.3586 1091 106.905 15.9808 492.221
1591 0 90.2307 12.4015 1119 107.918 16.0938 490.695
1592 0 92.3095 12.6098 1164 109.101 15.6993 490.061
1593 0 95.2426 12.6414 1204 107.915 16.3854 487.968
1594 0 97.2639 12.4815 1214 108.045 16.0815 486.575
1595 0 99.3365 12.5533 1247 107.052 16.3753 484.808
1596 0 102.287 13.0124 1331 105.064 16.0751 484.115
1597 0 106.337 13.4289 1428 103.315 15.6436 482.981
1598 0 107.314 13.0365 1399 104.595 16.2588 480.706
1599 0 109.248 12.5586 1372 105.676 16.4431 480.638
1600 0 113.277 13.2243 1498 101.947 15.9166 477.675
1601 0 114.225 12.4842 1426 104.348 15.5996 475.023
1602 0 117.244 12.7 1489 103.925 15.6615 473.559
1603 0 120.175 12.3653 1486 103.292 15.2275 470.697
1604 0 125.143 12.4417 1557 102.338 15.1811 469.136
1605 0 126.208 12.7725 1612 100.818 15.3499 465.976
1606 0 132.173 12.0978 1599 102.247 15.6954 461.203
1607 0 136.14 12.3329 1679 100.207 15.6689 463.614
1608 0 137.138 12.1921 1672 102.258 15.7751 460.138
1609 0 144.205 12.2742 1770 100.938 14.9672 460.722
1610 0 146.256 12.7653 1867 101.007 14.8725 458.45
1611 0 152.21 12.693 1932 100.563 14.9058 456.061
1612 0 151.147 11.9486 1806 103.246 13.9878 450.705
1613 0 156.121 11.6768 1823 104.679 14.1914 447.03
1614 0 165.257 12.4291 2054 101.433 14.4922 447.652
1615 1 57.0484 9.5533 545 87.8844 15.2826 495.655
1616 0 59.0403 9.84074 581 87.7418 16.0912 495.475
1617 0 62.0661 10.7466 667 86.9595 14.6687 503.268
1618 0 64.1656 10.7067 687 90.3552 14.2999 501.473
1619 0 66.1251 9.42154 623 81.7608 15.0112 500.377
1620 0 68.1526 9.69883 661 88.1634 14.4191 498.265
1621 0 70.1852 9.58892 673 81.153 14.6954 495.874
1622 0 69.0426 10.4863 724 87.0055 15.6354 497.67
1623 0 73.0675 10.8119 790 85.1354 15.5456 494.762
1624 0 76.0773 10.8179 823 84.0717 16.4253 495.447
1625 0 82.0412 11.2139 920 82.3272 15.4652 495.441
1626 0 84.0684 11.4787 965 82.8197 15.6881 492.799
1627 0 86.0403 11.3784 979 84.4729 15.3493 490.027
1628 0 90.0397 11.7393 1057 83.211 15.7833 487.727
1629 1 52.0209 10.3804 540 82.513 15.7185 508.726
1630 0 53.0427 10.1616 539 88.5622 15.8571 506.937
1631 0 55.0364 10.4658 576 94.5538 15.7378 505.866
1632 0 57.0337 10.9935 627 92.8214 16.0909 505.153
1633 0 58.0149 10.9627 636 94.5912 16.0362 504.137
1634 0 60.0394 10.7596 646 94.6115 16.6858 503.862
1635 0 61.0639 11.1031 678 93.6298 15.6504 501.988
1636 0 61.0664 11.1027 678 95.0487 16.5841 501.038
1637 0 64.1206 11.4628 735 94.1673 16.0381 499.472
1638 0 65.0879 11.8148 769 93.2848 15.078 499.386
1639 0 66.0785 11.3955 753 93.9894 15.4967 498.224
1640 0 70.0857 12.0424 844 91.5723 15.6422 496.643
1641 0 75.0588 13.8425 1039 84.8489 15.487 492.152
1642 0 77.1739 15.0569 1162 80.9905 15.5172 491.609
1643 0 76.2976 12.8969 984 84.5335 15.747 487.092
1644 0 73.0666 10.6478 778 83.2082 15.5476 497.449
1645 0 78.0381 12.4811 974 78.7187 15.9374 494.113
1646 0 82.122 12.2014 1002 79.2844 15.8942 492.41
1647 0 79.1909 10.4684 829 85.6972 15.6791 491.644
1648 0 81.1523 10.622 862 87.2065 15.8376 491.348
1649 0 84.2225 11.6715 983 85.9573 15.235 486.848
1650 0 87.0835 11.3914 992 87.8145 15.6966 491.29
1651 0 89.0451 11.5896 1032 88.7558 15.7665 488.447
1652 0 95.1416 12.6023 1199 88.0158 15.8791 486.073
1653 0 96.0439 12.7442 1224 89.2361 15.8391 486.228
1654 0 100.124 12.5444 1256 90.4689 16.3519 482.59
1655 0 103.354 12.5781 1300 90.6338 16.1169 482.841
1656 0 106.301 12.1353 1290 92.8023 15.5171 479.171
1657 0 107.276 12.0158 1289 93.4484 15.4019 478.317
1658 0 113.34 12.114 1373 93.6642 15.5725 474.496
1659 1 58.1172 10.1347 589 86.584 15.9066 506.323
1660 0 60.1178 10.6957 643 86.0638 14.8429 507.056
1661 0 63.1259 11.881 750 84.764 15.948 505.531
1662 0 63.027 11.4237 720 94.7097 15.1653 504.021
1663 0 65.0647 11.5885 754 92.008 15.1724 501.558
1664 0 67.1101 11.9803 804 91.204 14.9415 501.073
1665 0 68.0683 11.9586 814 92.5184 15.5405 499.402
1666 0 70.0565 11.5621 810 93.0642 15.3667 500.726
1667 0 70.0487 11.7347 822 93.3321 15.1217 498.62
1668 0 74.0479 12.1273 898 93.1993 14.9655 496.608
1669 0 75.2049 12.2598 922 92.8416 14.3872 494.274
1670 0 80.1395 11.9791 960 92.3812 13.9281 493.64
1671 0 80.1436 12.1906 977 93.2579 14.2692 490.695
1672 0 82.144 12.2955 1010 93.7475 14.5 489.12
1673 0 86.2172 12.9788 1119 90.6041 14.9759 487.231
1674 0 88.3635 12.7089 1123 92.2271 14.4016 486.257
1675 0 91.1547 12.8463 1171 91.4099 14.643 484.704
1676 0 93.183 12.7169 1185 91.8186 14.4186 483.354
1677 0 96.2567 12.7991 1232 90.8263 14.7541 483.541
1678 0 98.2142 12.768 1254 90.1348 14.6085 483.026
1679 0 102.22 12.9622 1325 89.1653 15.3291 480.365
1680 0 104.22 13.1357 1369 88.8342 15.2644 478.687
1681 0 107.165 13.3346 1429 88.3443 14.6025 477.593
1682 0 109.334 12.9878 1420 88.4824 15.8951 475.104
1683 0 113.376 13.2127 1498 88.002 15.1382 471.657
1684 0 117.303 13.3757 1569 87.2498 14.8368 471.745
1685 0 122.274 13.4943 1650 87.5879 14.0545 468.895
1686 1 69.2064 11.603 803 86.3773 16.5567 495.822
1687 0 72.1446 12.0037 866 88.7898 15.4342 494.366
1688 0 73.1493 12.5907 921 87.3952 14.6265 493.599
1689 0 77.1317 13.2371 1021 85.8639 15.3105 491.856
1690 0 78.1283 12.6843 991 87.1372 15.1393 491.625
1691 0 81.168 12.5419 1018 86.0491 15.3595 491.51
1692 0 84.193 12.3169 1037 87.2459 15.7772 488.879
1693 0 86.171 12.8117 1104 85.9402 15.471 487.533
1694 0 88.2151 12.9003 1138 86.2232 15.0773 485.996
1695 0 91.257 12.5799 1148 86.2605 15.2003 484.585
1696 0 94.1967 12.6862 1195 87.0008 14.2611 482.063
1697 0 97.2168 12.9196 1256 86.7014 15.1807 480.909
1698 0 98.2165 13.0732 1284 87.1106 14.3512 479.921
1699 0 101.161 12.6728 1282 88.4493 14.486 478.011
1700 0 104.253 12.9493 1350 87.7252 14.9319 477.802
1701 0 108.199 12.8652 1392 88.0948 15.6336 475.703
1702 0 109.173 12.4023 1354 90.709 15.1322 475.543
1703 0 114.169 12.9019 1473 89.2064 14.8785 474.773
1704 0 116.154 12.8278 1490 90.6913 15.3859 471.048
1705 0 121.166 12.1899 1477 92.4204 16.1991 469.36
1706 0 125.262 12.6694 1587 92.77 15.1815 466.545
1707 0 129.257 12.4248 1606 94.5928 15.2951 465.404
1708 1 69.1172 10.5328 728 92.831 15.3819 495.681
1709 0 73.0842 11.6031 848 90.1392 15.9458 495.86
1710 0 76.0381 11.389 866 91.7182 16.0797 494.819
1711 0 77.0448 11.6945 901 91.5283 16.192 494.633
1712 0 80.0341 12.1198 970 91.0433 16.4701 494.103
1713 0 83.0429 11.488 954 94.0304 16.2002 490.457
1714 0 88.0561 12.2195 1076 91.0948 17.1403 491.068
1715 0 89.0763 11.6417 1037 94.0096 16.3828 487.425
1716 0 91.0884 12.0762 1100 94.0682 16.5536 485.635
1717 0 91.099 11.3613 1035 97.1304 16.1643 481.238
1718 0 95.0695 11.4232 1086 97.3775 16.5378 481.828
1719 0 96.091 10.4692 1006 100.87 15.8111 479.765
1720 0 102.083 11.7747 1202 97.1356 16.2612 480.842
1721 0 107.065 12.0581 1291 96.6654 16.1596 479.917
1722 0 108.119 11.737 1269 98.3712 16.015 478.199
1723 0 112.127 11.7813 1321 98.6798 15.57 476.65
1724 0 114.086 10.9303 1247 102.144 15.9703 474.531
1725 0 118.071 10.5021 1240 102.848 15.2823 471.108
1726 0 123.051 11.0442 1359 100.701 15.6843 471.709
1727 1 66.027 10.5108 694 95.013 15.6095 500.674
1728 0 66.0592 10.8236 715 95.9734 15.6196 499.231
1729 0 70.1116 11.3961 799 94.4355 16.0313 496.707
1730 0 72.1238 12.0764 871 92.225 14.9587 493.575
1731 0 74.1128 11.2261 832 94.0805 14.9675 492.087
1732 0 77.0698 11.9113 918 89.0566 15.4706 494.968
1733 0 80.0759 12.0261 963 89.5742 16.3645 493.471
1734 0 82.0916 12.1693 999 89.7317 16.3493 492.693
1735 0 85.1582 12.1538 1035 89.5778 15.9198 491.348
1736 0 85.1381 12.3094 1048 90.6536 15.9408 489.448
1737 0 88.0841 11.9204 1050 90.7171 15.4343 488.885
1738 0 92.0692 12.5775 1158 88.8515 16.057 487.535
1739 0 94.0824 12.3402 1161 90.0672 16.1671 486.287
1740 0 96.1184 12.547 1206 90.9768 16.5506 485.055
1741 0 100.093 12.6082 1262 90.8693 16.7472 482.435
1742 0 102.149 12.7853 1306 99.7466 17.0191 480.908
1743 0 103.182 12.8123 1322 98.4902 16.4153 479.146
1744 0 106.116 12.3449 1310 98.0557 16.5305 478.316
1745 0 111.176 13.0064 1446 94.9765 15.5277 476.327
1746 0 115.145 11.6375 1340 97.8709 15.859 473.653
1747 0 117.103 10.9305 1280 98.3664 15.5531 472.27
1748 1 64.063 11.0204 706 93.6714 14.7535 499.535
1749 0 67.0457 11.1267 746 92.9759 14.7319 497.997
1750 0 68.0664 11.9442 813 92.2657 14.6863 496.469
1751 0 71.103 11.3216 805 95.5689 14.5851 495.576
1752 0 71.0443 12.1896 866 95.1432 15.0162 493.246
1753 0 75.0425 12.1398 911 89.8891 14.7003 493.117
1754 0 76.064 11.8321 900 88.0422 14.6044 492.581
1755 0 78.1439 12.0035 938 87.3827 15.5203 491.743
1756 0 79.1006 11.9595 946 88.2918 15.5909 490.864
1757 0 84.0557 12.5631 1056 84.8731 15.9867 489.838
1758 0 84.0611 12.0032 1009 87.0089 14.6432 489.854
1759 0 87.0518 11.5334 1004 87.8865 14.7271 487.704
1760 0 89.0619 11.3404 1010 87.9257 14.9851 486.772
1761 0 90.0759 11.0684 997 88.3912 15.7773 483.959
1762 0 92.0503 11.1787 1029 88.1584 14.8105 482.514
1763 0 96.0423 11.7032 1124 85.5899 14.7963 483.016
1764 0 98.0277 11.4355 1121 86.1365 15.132 479.205
1765 0 102.079 11.5499 1179 84.5818 15.5522 478.405
1766 0 104.066 11.1276 1158 84.8998 15.2504 476.991
1767 0 106.109 11.9311 1266 83.4352 15.8286 475.739
1768 0 110.086 11.4728 1263 83.6635 16.0958 473.076
1769 0 114.083 11.6406 1328 82.5858 15.8524 472.526
1770 0 118.07 11.273 1331 83.4065 15.5177 471.83
1771 0 122.073 11.3293 1383 82.8286 15.261 467.39
1772 1 65.0916 10.1703 662 82.2553 16.1692 493.385
1773 0 65.1658 10.6651 695 83.5468 15.9842 490.157
1774 0 71.1329 11.2466 800 80.295 15.8138 491.928
1775 0 73.0654 11.7566 859 78.1851 15.4377 492.49
1776 0 72.0709 11.7107 844 80.282 15.8258 491.019
1777 0 76.0665 11.7397 893 80.3819 14.9731 489.96
1778 0 77.1051 11.8669 915 81.9366 15.4415 487.62
1779 0 82.1544 12.4035 1019 80.1443 15.6752 489.344
1780 0 84.2141 12.4445 1048 81.124 16.0439 486.79
1781 0 87.1086 12.7083 1107 81.4182 15.8238 484.65
1782 0 90.2037 12.5272 1130 82.1504 16.3133 484.125
1783 0 91.1209 13.2132 1204 81.7508 15.8953 483.094
1784 0 94.1528 13.1913 1242 82.9469 15.909 481.511
1785 0 95.1704 12.3147 1172 86.3874 16.0299 480.765
1786 0 100.169 12.3392 1236 86.2662 16.072 479.666
1787 0 103.068 11.4973 1185 89.0025 15.2641 476.624
1788 0 104.185 11.7099 1220 90.0648 15.3492 474.764
1789 0 107.253 12.3913 1329 89.8029 15.5139 473.741
1790 0 112.276 12.4247 1395 89.0366 15.3104 472.481
1791 0 115.165 12.5038 1440 88.9826 15.8264 470.459
1792 1 63.082 9.97114 629 89.4452 16.8203 494.634
1793 0 66.1211 10.6471 704 84.8821 16.4773 493.955
1794 0 69.0545 11.9181 823 87.7582 14.8955 494.944
1795 0 72.1544 12.1406 876 86.1712 15.7694 491.873
1796 0 74.1063 12.8059 949 87.4626 15.2961 491.152
1797 0 78.0483 12.5691 981 87.4322 14.8726 491.976
1798 0 78.0898 12.4344 971 88.9722 15.2976 490.871
1799 0 79.0375 12.4371 983 89.706 15.4812 488.474
1800 0 80.0936 12.3605 990 91.0152 14.0556 489.102
1801 0 84.0725 13.5359 1138 90.4561 16.8805 487.684
1802 0 87.1292 12.7856 1114 90.5476 15.3043 486.287
1803 0 89.0484 12.3641 1101 91.6431 15.9037 486.21
1804 0 90.065 12.4133 1118 93.3971 14.9454 483.53
1805 0 93.0608 12.3468 1149 93.2393 15.0679 482.99
1806 0 95.0782 12.5055 1189 94.5837 14.7822 481.247
1807 0 98.1096 12.9243 1268 94.7098 14.888 479.742
1808 0 101.123 12.7469 1289 96.4414 13.9566 477.788
1809 0 102.108 12.7707 1304 97.3129 14.51 476.59
1810 0 105.063 13.116 1378 97.8309 14.3113 475.286
1811 0 109.137 13.341 1456 96.4025 14.8304 475.343
1812 0 115.06 13.5843 1563 96.4242 13.9123 473.766
1813 0 115.064 13.1927 1518 99.5007 15.0725 471.318
1814 0 117.1 12.8949 1510 101.287 15.0026 470.032
1815 0 123.125 13.1086 1614 99.72 14.9064 467.114
1816 1 69.1008 11.4326 790 95.9582 15.4304 494.085
1817 0 71.1296 11.697 832 95.476 14.6214 491.924
1818 0 73.1337 11.6225 850 92.5929 15.0235 489.691
1819 0 77.1748 12.4263 959 90.9009 14.5464 490.186
1820 0 78.0689 12.8348 1002 91.8313 15.5539 490.435
1821 0 81.0306 13.1679 1067 90.9513 15.582 487.558
1822 0 84.0845 13.2843 1117 91.8281 14.8353 486.637
1823 0 86.0491 12.7718 1099 94.4158 15.2384 485.338
1824 0 86.0566 12.5499 1080 97.6213 15.6685 482.369
1825 0 92.0452 13.4065 1234 94.1864 16.1094 482.066
1826 0 93.0869 13.0416 1214 106.577 15.2216 476.811
1827 0 95.1106 13.437 1278 106.315 15.8333 476.207
1828 0 96.0948 13.0184 1251 108.094 15.4964 473.824
1829 0 98.064 12.9609 1271 106.511 15.8796 473.309
1830 0 101.051 13.4091 1355 103.559 15.3446 471.307
1831 0 105.075 13.143 1381 107.19 15.9269 470.815
1832 0 109.105 13.5375 1477 103.672 15.35 468.45
1833 0 107.093 13.3529 1430 105.745 15.3287 466.078
1834 0 112.096 13.1316 1472 105.395 15.4918 463.04
1835 0 116.144 13.2508 1539 104.614 15.6823 461.508
1836 0 120.117 13.5452 1627 108.722 15.5015 459.728
1837 0 127.171 14.4137 1833 104.972 15.078 458.891
1838 0 125.194 12.7402 1595 112.912 16.2 456.673
1839 0 131.114 12.6836 1663 113.228 15.8455 454.933
1840 1 76.0991 10.8674 827 116.49 15.3241 483.542
1841 0 78.0293 11.1497 870 114.957 15.6839 482.356
1842 0 79.1044 11.7566 930 109.645 15.1161 480.449
1843 0 83.1374 12.2448 1018 108.656 14.6424 478.032
1844 0 85.0717 11.7666 1001 107.44 14.4975 480.151
1845 0 87.0578 11.3373 987 110.575 15.0426 478.072
1846 0 88.1358 11.7886 1039 109.857 15.3465 478.097
1847 0 91.0666 12.0022 1093 110.165 15.409 476.147
1848 0 94.104 11.9124 1121 111.459 14.6441 474.959
1849 0 96.1278 11.6199 1117 112.676 15.4458 472.805
1850 0 99.0784 11.6675 1156 113.577 15.6246 471.558
1851 0 100.182 11.7286 1175 115.201 16.3353 469.005
1852 0 105.162 12.3619 1300 112.435 15.3392 469.745
1853 0 106.076 11.7274 1244 115.606 15.8031 466.857
1854 0 108.096 12.5536 1357 114.732 15.378 463.034
1855 0 111.081 11.4961 1277 118.724 15.6594 464.05
1856 0 115.112 12.1533 1399 116.7 14.9685 461.538
1857 0 120.126 11.7543 1412 116.717 15.6537 458.375
1858 0 124.129 12.4306 1543 113.572 15.8451 456.824
1859 0 129.154 12.3186 1591 112.878 15.2634 454.805
1860 0 134.176 13.2214 1774 112.722 17.6432 452.347
1861 1 76.1264 10.0491 765 112.49 15.6915 480.133
1862 0 79.1073 11.3517 898 108.982 16.1726 481.585
1863 0 81.0335 11.4397 927 109.187 15.0216 477.819
1864 0 84.1056 11.759 989 107.365 15.0455 477.363
1865 0 88.1369 11.9019 1049 106.43 15.6845 475.615
1866 0 92.0834 12.4344 1145 108.827 15.3738 480.158
1867 0 94.0921 11.7332 1104 111.029 15.0833 479.381
1868 0 96.0569 11.6598 1120 112.181 15.3786 476.804
1869 0 99.0576 11.5286 1142 112.001 15.5245 473.293
1870 0 103.095 11.8338 1220 110.351 14.8639 471.374
1871 0 104.068 11.5885 1206 111.016 15.3516 469.075
1872 0 100.053 12.1436 1215 110.44 15.4058 463.951
1873 0 102.077 12.3828 1264 111.078 15.0926 460.982
1874 0 104.035 11.7653 1224 114.016 15.3415 460.202
1875 0 106.144 11.4561 1216 114.831 15.4145 457.81
1876 0 105.113 11.8539 1246 116.441 15.3114 449.918
1877 0 111.08 12.0544 1339 114.565 15.0769 450.011
1878 1 121.2 12.2607 1486 111.095 15.4993 451.479
1879 0 128.143 12.4782 1599 109.023 16.05 451.084
1880 0 131.067 12.4364 1630 110.353 15.8914 448.109
1881 0 135.125 12.1813 1646 110.572 15.9077 445.99
1882 0 140.141 11.9808 1679 111.599 15.8398 443.487
1883 0 142.153 11.5861 1647 113.645 16.8506 441.522
1884 0 150.119 11.9372 1792 109.941 16.2249 443.035
1885 0 153.223 12.1783 1866 110.779 16.4357 437.895
1886 0 161.185 12.0482 1942 109.822 16.792 435.938
1887 0 167.252 11.9999 2007 109.906 16.0693 433.443
1888 0 171.182 11.4907 1967 112.239 15.6955 431.069
1889 0 181.221 11.9522 2166 111.966 15.6094 431.174
1890 1 106.13 11.2597 1195 107.374 15.8962 476.269
1891 0 108.115 10.9051 1179 109.266 15.7693 475.185
1892 0 113.147 12.3909 1402 110.297 16.1969 471.315
1893 0 118.119 12.9192 1526 118.57 16.8336 467.284
1894 0 120.136 12.4276 1493 121.204 16.0998 465.913
1895 0 123.103 12.851 1582 120.424 16.6492 464.068
1896 0 127.129 13.2542 1685 118.923 16.3347 464.105
1897 0 131.131 13.0251 1708 119.666 16.3753 462.091
1898 0 135.135 12.8538 1737 119.487 15.7248 461.447
1899 0 138.164 12.3259 1703 117.503 16.5549 459.918
1900 0 143.153 12.7347 1823 116.001 16.3022 458.514
1901 0 148.142 12.6837 1879 115.276 15.6647 456.808
1902 0 149.189 12.3266 1839 116.487 16.2572 454.352
1903 0 155.15 12.2656 1903 116.783 15.9138 451.844
1904 1 87.069 11.2669 981 114.028 15.9755 486.931
1905 0 90.1333 11.6272 1048 116.048 14.9284 485.535
1906 0 94.1073 12.2839 1156 114.904 15.9109 481.525
1907 0 94.168 11.5432 1087 119.471 15.3128 480.464
1908 0 96.0944 11.5511 1110 120.736 14.9964 478.05
1909 0 100.059 12.2628 1227 119.153 15.1043 477.587
1910 0 101.116 11.7785 1191 122.437 15.6658 476.358
1911 0 104.077 12.1929 1269 120.708 15.6848 475.784
1912 0 106.073 12.3877 1314 112.75 14.6849 477.522
1913 0 107.078 11.7018 1253 115.255 15.2083 477.701
1914 0 111.104 12.0428 1338 115.76 15.2683 476.517
1915 0 114.096 12.1126 1382 115.528 15.4247 474.242
1916 0 118.104 11.6677 1378 116.489 14.5508 473.112
1917 0 120.128 11.7874 1416 114.659 15.3757 470.757
1918 0 124.147 11.6958 1452 115.378 15.4449 470
1919 0 128.101 12.5214 1604 119.562 14.6453 465.06
1920 0 132.126 12.9119 1706 116.967 15.7521 464.536
1921 0 132.077 12.3715 1634 119.179 14.7399 459.677
1922 0 136.103 12.1379 1652 118.067 14.1168 459.08
1923 0 140.047 12.1673 1704 118.104 13.6678 459.031
1924 0 145.119 13.389 1943 116.725 16.4174 456.437
1925 0 151.066 12.7096 1920 115.374 14.5453 454.557
1926 0 154.073 13.2145 2036 114.073 14.5683 452.873
1927 0 157.099 12.6417 1986 117.736 15.1203 448.791
1928 0 161.146 12.0078 1935 111.093 14.7199 438.672
1929 0 164.15 11.8123 1939 111.577 14.3032 436.905
1930 0 170.079 12.0826 2055 111.907 14.072 432.748
1931 0 175.144 11.796 2066 113.007 14.0044 430.179
1932 0 181.161 11.8182 2141 112.72 14.1317 427.54
1933 0 183.152 11.586 2122 114.216 13.7064 424.966
1934 0 190.19 12.8871 2451 112.02 15.7099 423.937
1935 0 195.145 12.0013 2342 113.852 14.1067 419.812
1936 0 202.197 13.017 2632 111.368 13.5752 418.123
1937 0 210.232 13.3947 2816 110.163 13.3789 417.836
1938 0 213.275 13.0348 2780 112.744 13.6378 415.904
1939 0 221.282 13.0603 2890 112.696 13.8429 413.33
1940 0 227.232 12.9075 2933 113.088 14.1401 406.704
1941 0 233.308 12.9357 3018 112.903 13.4119 402.366
1942 1 168.23 9.7248 1636 107.045 13.9205 448.402
1943 0 170.291 11.2161 1910 106.272 15.366 445.746
1944 0 173.223 10.5875 1834 107.41 14.1712 442.077
1945 0 180.181 11.2332 2024 109.166 14.2194 438.277
1946 0 186.213 11.1217 2071 109.634 14.8716 434.47
1947 0 192.151 10.8925 2093 110.447 14.7334 431.29
1948 0 198.214 11.2908 2238 109.675 14.6171 430.326
1949 0 202.204 11.3252 2290 110.117 13.8834 427.924
1950 0 209.177 11.5644 2419 110.632 13.9946 421.442
1951 0 213.204 11.7165 2498 111.157 13.7002 417.896
1952 0 221.225 12.6116 2790 109.75 15.5692 416.434
1953 0 226.245 12.5793 2846 109.902 13.9852 413.288
1954 0 233.213 12.4393 2901 111.068 14.4609 409.219
1955 0 239.201 11.8938 2845 113.562 14.2028 407.103
1956 0 245.202 12.1573 2981 113.33 14.1167 401.261
1957 0 251.25 12.605 3167 112.441 13.5816 398.57
1958 0 258.174 13.6846 3533 110.661 15.8211 395.84
1959 1 201.198 9.95538 2003 108.164 13.5627 433.065
1960 0 206.254 10.9962 2268 106.925 13.7174 425.153
1961 0 212.194 11.7487 2493 105.443 14.0634 421.453
1962 0 219.197 11.8615 2600 103.866 13.1762 418.029
1963 0 226.315 11.3426 2567 104.017 13.4063 415.866
1964 0 226.309 11.3341 2565 143.434 13.4094 415.639
1965 1 238.239 11.1904 2666 104.114 12.7281 407.122
1966 0 246.256 13.287 3272 100.18 14.1675 401.314
1967 0 252.309 11.9695 3020 103.275 12.7179 398.425
1968 0 259.346 12.1613 3154 103.813 13.675 396.153
1969 0 266.304 12.3167 3280 103.629 13.5268 393.124
1970 0 274.296 12.3735 3394 104.424 13.6243 386.103
1971 0 282.346 12.0738 3409 106.402 13.3611 376.46
1972 0 290.358 12.4088 3603 106.207 13.0414 376.02
1973 1 79.1849 9.8251 778 85.8753 13.6722 489.476
1974 0 80.1071 9.61213 770 89.3506 13.4065 488.634
1975 0 83.154 10.8834 905 95.0674 15.1238 490.116
1976 0 85.1993 10.6222 905 94.4033 14.6088 489.644
1977 0 87.1703 11.5406 1006 93.8211 16.6541 490.596
1978 0 87.1119 8.88513 774 82.7429 14.3811 490.824
1979 0 88.0864 9.97884 879 83.3288 15.6177 485.164
1980 0 90.051 8.9838 809 84.22 13.445 487.18
1981 0 93.1308 9.8571 918 86.5828 15.0349 486.419
1982 0 96.1006 9.44843 908 84.5407 13.2941 485.391
1983 0 98.0455 10.9031 1069 82.3134 14.5051 481.329
1984 0 101.12 10.7496 1087 82.6311 15.0598 479.931
1985 0 105.108 10.5986 1114 95.4102 12.9982 477.358
1986 0 110.167 11.9183 1313 96.4433 14.3069 474.708
1987 0 113.134 12.8609 1455 90.7491 12.8797 472.135
1988 0 115.107 10.5901 1219 98.7801 12.5086 474.115
1989 0 121.164 13.9976 1696 88.3945 13.1274 466.837
1990 0 120.063 10.2447 1230 99.8797 13.1675 470.655
1991 0 131.155 15.5236 2036 80.5142 13.192 460.644
1992 0 131.159 14.5854 1913 86.4041 12.8824 460.076
1993 0 141.293 17.0497 2409 79.0145 13.961 454.968
1994 0 129.206 12.9406 1672 87.0987 13.7656 453.932
1995 0 131.226 13.0005 1706 89.0252 14.3007 453.61
1996 0 135.171 12.4287 1680 89.922 12.8518 452.005
1997 0 139.451 13.7539 1918 90.1762 14.2237 452.085
1998 0 141.242 13.4733 1903 90.628 15.0888 449.976
1999 1 87.2607 11.1161 970 91.7196 14.0918 489.229
2000 0 90.2405 12.6772 1144 98.8409 15.0105 486.316
2001 0 91.2867 12.4224 1134 100.4 15.4691 485.754
2002 0 94.2039 12.4199 1170 96.6205 15.1419 485.854
2003 0 95.2307 11.6349 1108 98.0596 14.2581 485.915
2004 0 98.2347 12.9384 1271 99.0425 15.0283 482.207
2005 0 99.3358 12.6339 1255 101.987 15.7116 480.736
2006 0 101.307 11.9242 1208 102.446 13.8071 481.095
2007 0 104.596 13.7864 1442 101.896 14.8516 477.482
2008 0 107.264 12.996 1394 99.0022 14.7066 477.451
2009 0 109.232 12.5696 1373 100.173 15.0087 476.823
2010 0 110.203 10.7983 1190 96.0992 13.5555 475.749
2011 0 112.111 11.56 1296 95.1505 15.5486 471.101
2012 0 116.094 10.5863 1229 97.2197 13.0382 468.776
2013 0 118.16 11.5522 1365 95.6396 13.2557 467.555
2014 0 123.167 10.9526 1349 99.2928 13.6168 469.923
2015 0 125.118 10.7339 1343 99.411 13.4222 467.6
2016 0 128.247 10.7994 1385 97.7755 12.6751 466.064
2017 0 130.175 11.0313 1436 98.9457 13.0975 460.681
2018 0 134.243 11.1291 1494 99.245 12.4137 459.843
2019 0 136.248 11.89 1620 97.8241 14.1228 459.006
2020 0 139.183 10.9496 1524 98.6621 12.2211 456.959
2021 0 144.308 12.21 1762 98.8871 13.9285 453.131
2022 0 147.239 12.4084 1827 97.1921 13.6388 450.604
2023 0 151.188 11.6809 1766 99.4088 13.41 448.579
2024 0 156.173 12.2685 1916 97.8565 14.5277 445.857
2025 0 159.154 11.913 1896 97.6804 12.894 447.886
2026 0 165.112 13.2879 2194 95.067 13.8938 444.616
2027 0 168.224 12.5012 2103 96.8607 13.7427 442.071
2028 1 99.0946 8.85013 877 86.2828 14.3398 485.031
2029 0 103.051 9.64571 994 85.673 12.9245 479.804
2030 0 106.235 11.2768 1198 85.1269 14.5309 474.53
2031 0 109.048 10.2707 1120 85.1679 13.0098 475.28
2032 0 111.098 12.0074 1334 84.6964 14.7451 475.7
2033 0 113.097 11.2735 1275 85.4173 12.7082 475.438
2034 0 116.145 12.1744 1414 86.7249 14.9936 471.9
2035 0 118.174 10.6453 1258 92.9372 13.1566 470.852
2036 0 121.308 12.2581 1487 91.2999 14.302 469.924
2037 0 123.2 10.3977 1281 91.4137 15.192 465.407
2038 0 130.157 10.7025 1393 86.2584 13.9174 469.551
2039 0 133.204 11.2309 1496 85.1484 15.1524 462.741
2040 0 136.16 10.9577 1492 84.4296 13.931 462.085
2041 0 140.177 11.3784 1595 83.0871 15.0646 459.758
2042 0 142.242 10.6368 1513 85.5863 14.8711 459.056
2043 0 146.473 11.0054 1612 83.8065 14.9001 458.663
2044 0 149.409 10.2002 1524 86.565 14.374 452.319
2045 0 155.408 11.3058 1757 85.3745 15.5925 451.125
2046 0 158.351 10.2746 1627 86.5679 13.5679 450.207
2047 0 162.395 11.9216 1936 84.501 15.219 448.257
2048 0 165.441 10.7108 1772 87.0621 13.6117 443.552
2049 0 169.561 12.8862 2185 86.5698 16.0407 439.438
2050 0 174.377 11.4465 1996 87.5611 13.51 439.532
2051 0 178.578 12.5099 2234 88.9566 14.8174 433.983
2052 0 182.277 12.0147 2190 89.6178 15.1078 433.997
2053 0 190.326 12.2789 2337 89.5537 13.7869 432.067
2054 0 195.579 13.1967 2581 91.2298 14.8628 430.335
2055 0 199.446 11.7626 2346 93.3414 14.7302 427.223
2056 0 204.244 12.9698 2649 93.8358 15.6251 423.733
2057 0 209.367 12.299 2575 95.0691 13.7425 420.758
2058 0 216.311 13.5592 2933 94.7491 15.6205 419.536
2059 0 223.281 13.3598 2983 95.5585 15.29 413.991
2060 0 229.328 13.2082 3029 98.2727 15.8336 409.662
2061 0 235.371 12.3337 2903 98.8119 13.444 409.444
2062 1 177.234 12.3622 2191 93.7467 14.6682 444.501
2063 0 182.198 12.2394 2230 97.9224 14.5 440.151
2064 0 186.24 11.6624 2172 100.48 14.779 437.927
2065 0 194.197 12.7036 2467 99.3364 14.8715 434.576
2066 0 198.222 11.8403 2347 101.77 13.9003 431.412
2067 0 204.359 13.0261 2662 100.846 14.3043 427.053
2068 0 211.302 11.8409 2502 102.791 14.0088 427.106
2069 0 218.265 12.2741 2679 103.177 13.0403 422.476
2070 0 224.268 13.7781 3090 101.807 15.4395 419.181
2071 0 230.221 12.5401 2887 104.449 13.3232 416.522
2072 1 166.225 11.8635 1972 101.178 14.7946 448.692
2073 0 168.231 11.722 1972 102.695 13.7175 443.759
2074 0 174.154 13.0574 2274 101.418 14.9288 440.599
2075 0 179.185 13.154 2357 100.486 13.3059 436.702
2076 0 184.207 14.0168 2582 99.701 14.9644 434.68
2077 0 188.221 13.4151 2525 100.861 13.0059 431.046
2078 0 191.351 13.99 2677 104.768 15.1005 434.468
2079 0 197.24 12.3403 2434 106.142 12.7153 431.214
2080 0 200.45 13.6942 2745 107.103 14.1417 427.572
2081 0 206.307 13.7998 2847 104.686 13.1033 426.983
2082 0 212.238 13.8524 2940 106.224 13.7224 421.192
2083 0 217.332 13.1826 2865 108.835 13.8077 422.152
2084 0 223.406 13.2494 2960 107.712 12.2851 418.593
2085 0 228.678 14.2034 3248 109.158 14.2993 416.3
2086 0 232.314 12.4143 2884 110.079 12.7642 410.569
2087 0 241.169 13.4594 3246 109.054 13.2449 407.277
2088 0 249.185 14.5273 3620 106.207 14.1293 400.478
2089 0 253.222 12.3765 3134 109.523 12.9359 404.369
2090 0 264.189 13.9219 3678 108.035 14.5808 397.265
2091 0 273.206 14.2017 3880 106.319 12.7727 389.543
2092 0 281.256 14.4033 4051 108.47 13.8208 387.97
2093 1 299.245 17.9184 5362 91.8754 12.4491 365.48
2094 0 303.221 17.2349 5226 94.8182 12.5775 362.108
2095 0 311.224 17.5051 5448 95.6188 12.6467 368.027
2096 0 315.287 14.0887 4442 107.695 13.6652 368.485
2097 0 321.317 13.1677 4231 111.027 12.5689 373.273
2098 0 329.417 13.7546 4531 111.143 14.629 369.46
2099 0 338.383 14.5427 4921 107.42 12.7033 354.124
2100 0 348.326 15.3219 5337 105.582 13.2166 350.481
2101 0 356.399 15.0169 5352 106.498 12.6712 344.993
2102 0 366.412 14.672 5376 108.193 12.9245 342.73
2103 0 376.386 14.7588 5555 109.391 13.3998 338.315
2104 0 385.623 14.6983 5668 109.719 13.3904 331.948
2105 0 397.604 14.8992 5924 108.862 12.9316 329.263
2106 0 408.497 16.4138 6705 108.204 13.582 322.473
2107 0 410.484 16.1882 6645 107.693 12.7217 313.461
2108 0 371.28 15.5893 5788 109.783 12.6303 308.982
2109 0 367.516 15.0089 5516 112.061 12.5179 319.847
2110 0 377.371 15.1522 5718 111.943 13.5079 321.444
2111 0 388.441 15.0782 5857 112.457 13.3394 320.725
2112 0 400.548 15.4913 6205 110.781 13.3154 326.271
2113 0 405.379 15.8346 6419 111.196 12.9037 307.512
2114 0 412.595 15.9721 6590 112.283 12.7284 310.389
