time division length width area intensity CMx CMy
0 0 73.0748 14.0951 1030 129.848 701.967 482.757
1 0 74.0274 12.9817 961 128.412 701.241 481.631
2 0 75.0681 13.4678 1011 125.315 701.658 481.981
3 0 79.0532 13.4466 1063 122.505 701.173 481.425
4 0 80.0937 12.5353 1004 122.464 701.197 481.02
5 0 84.0672 12.9777 1091 117.794 701.053 480.167
6 0 86.0644 12.6766 1091 118.517 701.379 478.984
7 0 89.0883 13.0769 1165 116.548 701.47 477.976
8 1 45.0337 11.8134 532 122.212 701.261 496.786
9 0 47.0304 13.1192 617 116.323 701.237 496.368
10 0 51.0597 13.2786 678 111.115 702.261 495.649
11 0 49.0491 13.0481 640 113.786 700.812 494.558
12 0 52.0211 13.0716 680 105.878 700.976 496.246
13 0 53.1394 13.1165 697 105.409 700.232 495.443
14 0 55.0384 12.8456 707 105.948 699.536 494.672
15 0 57.0327 13.1503 750 106.96 700.232 492.749
16 0 60.0226 14.128 848 105.415 699.991 491.566
17 0 62.0244 13.801 856 106.123 698.894 490.143
18 0 63.0277 13.74 866 106.184 700.003 489.883
19 0 67.0428 13.8121 926 105.282 699.044 488.476
20 0 69.0636 14.5228 1003 102.865 699.631 487.118
21 0 69.0278 13.8785 958 104.671 699.194 486.694
22 0 73.0876 13.9695 1021 102.592 700.438 485.166
23 0 76.1142 14.3731 1094 100.637 699.697 484.11
24 0 78.0688 13.8852 1084 101.221 699.821 482.446
25 0 82.129 13.6249 1119 100.55 699.114 481.074
26 0 83.1489 14.2034 1181 98.8019 699.599 480.419
27 0 87.0712 13.7818 1200 98.0442 699.323 477.391
28 0 89.1617 13.5484 1208 96.9752 699.119 476.872
29 0 93.116 14.0255 1306 94.7182 699.425 474.949
30 0 96.1929 14.1175 1358 94.6598 700.361 473.138
31 1 46.096 11.1073 512 94.2754 699.639 498.396
32 0 49.0429 12.4381 610 90.9311 699.707 498.095
33 0 48.0878 12.2068 587 91.4583 699.647 496.542
34 0 53.0413 13.1596 698 86.6963 698.759 497.577
35 0 51.0387 12.6571 646 81.9056 699.399 498.008
36 0 53.0205 12.5423 665 81.7955 698.86 496.659
37 0 55.0259 12.9575 713 80.9201 699.337 494.108
38 0 58.0205 13.0816 759 79.8182 699.072 493.785
39 0 59.0515 13.2257 781 79.8259 699.215 492.469
40 0 63.0805 13.4273 847 80.0165 699.168 490.995
41 0 64.0607 12.9253 828 80.7053 699.861 490.492
42 0 65.102 12.611 821 82.2521 699.58 489.661
43 0 68.0198 13.1138 892 81.2478 698.636 488.448
44 0 70.1273 13.3614 937 81.8677 699.115 484.288
45 0 74.0996 13.2255 980 83.0714 698.628 484.402
46 0 76.0657 13.0676 994 82.3652 698.869 484.904
47 0 79.1164 13.6887 1083 82.7849 698.242 483.625
48 0 79.0547 13.2566 1048 86.7948 698.999 479.368
49 0 84.0839 14.0098 1178 83.3497 698.377 479.744
50 0 84.0897 12.8315 1079 85.8665 698.973 478.461
51 0 89.0585 13.7438 1224 82.3407 699.125 477.667
52 0 91.0724 13.0885 1192 82.8096 699.018 475.145
53 0 94.1229 13.9499 1313 80.3808 698.268 472.155
54 0 97.0858 13.3902 1300 80.8069 698.935 471.027
55 0 100.181 13.8349 1386 80.0642 698.951 469.584
56 0 105.099 14.3103 1504 78.871 698.208 467.884
57 0 107.133 13.5626 1453 81.3489 698.11 465.594
58 0 111.112 13.5269 1503 81.8789 698.524 464.778
59 0 115.068 14.5479 1674 79.9683 697.452 462.827
60 0 119.21 13.8075 1646 82.5122 698.146 460.371
61 0 122.233 13.8669 1695 83.8608 698.56 458.735
62 0 127.193 14.364 1827 83.9376 698.326 457.001
63 0 131.151 14.51 1903 84.093 698.175 455.223
64 0 135.093 14.0718 1901 86.5644 698.542 452.222
65 0 141.193 13.9313 1967 86.8327 698.283 451.015
66 1 75.1061 10.8913 818 86.132 697.687 482.51
67 0 79.1194 11.8555 938 83.9797 697.357 481.214
68 0 81.1017 12.8357 1041 81.8444 697.727 478.159
69 0 83.0482 12.7998 1063 81.9238 698.449 478.227
70 0 87.1344 12.4406 1084 82.0535 698.899 477.849
71 0 90.1177 12.7833 1152 81.2595 698.412 476.47
72 0 91.0828 12.1867 1110 82.5225 698.386 473.389
73 0 96.1294 13.0345 1253 80.5539 698.318 470.89
74 0 99.084 13.5542 1343 79.7171 698.411 469.831
75 0 101.104 12.769 1291 81.189 698.386 468.332
76 0 104.095 12.4021 1291 81.7266 698.056 462.754
77 0 106.111 12.666 1344 81.9888 698.007 462.55
78 0 111.177 12.6824 1410 82.5426 698.811 460.209
79 0 115.15 13.2783 1529 82.2891 698.578 455.466
80 0 120.073 13.0004 1561 83.5759 698.899 453.932
81 0 124.139 12.768 1585 86.4271 698.688 451.914
82 0 128.21 13.1191 1682 86.3835 698.897 449.141
83 0 132.22 12.6078 1667 88.4925 698.492 441.242
84 0 135.162 12.9622 1752 87.8311 699.041 439.771
85 0 140.236 13.0709 1833 88.3262 698.943 440.225
86 0 147.196 12.9079 1900 88.4395 699.061 436.787
87 0 153.253 13.2069 2024 88.5608 699.388 436.268
88 0 160.329 13.1043 2101 89.3851 699.96 433.939
89 0 169.25 13.8021 2336 87.8395 700.011 434.494
90 0 174.217 13.7358 2393 89.5224 699.745 433.41
91 0 182.284 14.1318 2576 88.913 699.435 428.644
92 0 186.281 13.0073 2423 91.9005 699.913 426.099
93 0 194.287 13.8249 2686 90.545 699.39 423.892
94 0 201.132 14.4333 2903 90.3775 699.083 422.638
95 1 96.0866 11.4688 1102 87.2886 699.312 473.891
96 0 100.075 12.101 1211 85.8811 699.742 473.117
97 0 101.063 11.4384 1156 81.2777 698.901 472.886
98 0 105.076 11.9532 1256 80.3869 699.354 472.472
99 0 108.078 11.797 1275 81.7192 699.488 469.798
100 0 113.087 12.6805 1434 79.8194 698.792 469.375
101 0 115.139 11.8466 1364 81.2111 699.4 466.041
102 1 72.0995 11.1374 803 82.7522 698.479 486.264
103 0 77.0927 11.5056 887 80.8027 699.328 484.962
104 0 80.0892 12.2363 980 80.2469 698.113 483.639
105 0 81.0657 11.9039 965 82.772 698.577 480.847
106 0 82.06 12.9052 1059 80.7932 697.798 481.126
107 0 86.0803 13.1505 1132 78.9258 698.289 478.832
108 0 89.1603 12.2252 1090 81.1128 697.678 476.296
109 0 92.0959 12.7476 1174 80.0613 698.357 476.688
110 0 93.1214 12.9079 1202 78.7163 698.36 474.533
111 0 98.0938 12.9978 1275 76.8533 697.658 472.333
112 0 100.107 13.2857 1330 78.6827 697.768 471.221
113 0 103.112 13.0053 1341 79.4333 697.647 470.14
114 0 106.09 12.414 1317 79.9674 697.437 469.279
115 0 109.105 12.4926 1363 79.9032 697.277 467.599
116 0 112.167 12.4012 1391 79.6477 697.428 464.956
117 0 116.211 12.3913 1440 80.8792 697.612 463.374
118 0 122.248 13.7181 1677 78.2105 698.209 462.146
119 1 62.1897 11.3845 708 83.0565 698.977 490.814
120 0 64.08 11.5013 737 75.9566 699.06 488.362
121 0 66.1258 11.6445 770 76.2844 698.543 488.819
122 0 69.3051 11.8029 818 75.7103 697.577 488.41
123 0 70.1631 12.0434 845 75.9243 697.515 488.031
124 0 74.1983 12.4396 923 75.533 697.868 486.551
125 0 75.1185 11.9811 900 77.51 697.679 483.268
126 0 78.233 12.6417 989 76.4004 697.878 483.12
127 0 78.1495 12.0922 945 78.7365 697.502 481.131
128 0 81.2221 12.435 1010 78.701 698.111 479.685
129 0 83.185 12.6585 1053 78.0959 698.291 479.747
130 0 88.2308 13 1147 77.0506 698.307 479.201
131 0 91.2221 14.1303 1289 76.1901 697.509 476.016
132 0 93.2667 13.1451 1226 78.438 697.177 475.104
133 0 96.2136 13.3661 1286 80.3142 697.118 473.788
134 0 100.146 13.5902 1361 79.7201 697.263 472.376
135 0 103.1 13.8021 1423 79.4125 697.71 470.72
136 0 104.077 13.9993 1457 79.3795 697.568 467.874
137 0 106.077 13.641 1447 79.3407 697.515 465.775
138 0 110.089 13.8615 1526 76.964 697.602 464.953
139 0 112.158 13.8109 1549 76.4048 698.052 461.431
140 0 112.126 12.8516 1441 79.0708 696.999 459.421
141 0 113.117 11.7135 1325 77.5026 697.353 455.958
142 0 117.176 11.854 1389 76.6508 697.748 455.924
143 0 121.298 12.4322 1508 75.0219 697.044 451.731
144 1 66.1271 9.31539 616 69.2256 697.273 471.232
145 0 68.1041 9.647 657 70.2785 697.559 476.123
146 0 72.0927 10.2784 741 67.1808 698.858 478.788
147 0 76.2292 11.531 879 73.0967 698.241 482.791
148 0 80.2552 12.3606 992 71.9567 697.753 482.608
149 0 81.1881 11.8367 961 74.129 697.94 479.515
150 0 83.184 11.2161 933 75.6881 697.632 479.026
151 0 84.1998 11.5558 973 75.6917 698.012 478.212
152 0 87.1769 11.4136 995 75.0412 697.25 476.032
153 0 91.1967 12.336 1125 74.0809 697.829 473.807
154 0 93.2358 11.4977 1072 77.25 697.578 471.503
155 0 96.4043 11.8563 1143 77.811 698.069 469.765
156 0 100.082 12.0001 1201 71.612 698.607 469.767
157 0 102.164 11.462 1171 74.1196 698.395 466.901
158 0 106.084 11.7831 1250 74.2912 697.862 464.208
159 0 109.078 11.5055 1255 74.5323 698.01 463.433
160 0 114.114 12.0669 1377 74.0182 698.495 463.63
161 0 117.058 11.8659 1389 74.419 697.357 458.788
162 0 121.154 12.3561 1497 72.7635 696.943 457.302
163 0 124.117 12.4076 1540 73.563 697.275 456.395
164 1 71.0475 9.90886 704 69.5909 696.23 485.723
165 0 72.057 9.50636 685 68.146 696.628 482.987
166 0 73.0434 10.0214 732 68.6762 697.029 481.455
167 0 77.0417 10.4748 807 68.6419 697.024 480.162
168 0 77.0438 10.4097 802 70.7606 697.456 479.38
169 0 78.0801 10.0154 782 73.9335 697.586 479.219
170 0 83.0473 10.5723 878 73.9146 697.432 479.229
171 0 83.1102 10.1672 845 75.3266 697.396 477.556
172 0 87.0863 10.4264 908 75.6509 697.035 474.977
173 0 87.1172 10.0554 876 76.105 697.304 474.311
174 0 94.0669 10.9284 1028 74.4339 697.016 474.249
175 0 95.1342 10.7112 1019 75.476 697.383 472.338
176 0 100.072 11.5117 1152 74.1554 697.91 471.696
177 0 104.067 11.3965 1186 79.7496 697.293 468.487
178 0 106.054 11.0699 1174 80.2257 697.099 467.424
179 0 107.072 10.8899 1166 79.6407 697.179 465.75
180 0 112.101 10.8474 1216 78.486 697.392 464.109
181 0 116.145 10.7969 1254 77.8381 697.14 463.738
182 0 118.322 10.4292 1234 78.8752 696.709 461.102
183 0 123.125 11.598 1428 76.6968 697.148 460.569
184 0 125.146 10.4198 1304 78.4686 698.15 455.729
185 0 130.272 11.3685 1481 77.2262 696.402 453.99
186 0 133.263 11.2559 1500 77.7733 697.206 450.455
187 0 136.37 10.2222 1394 79.2755 696.661 451.09
188 0 141.265 10.4555 1477 79.7407 696.802 447.164
189 0 146.27 11.3694 1663 78.1642 696.977 444.302
190 0 150.213 10.9578 1646 79.1367 697.006 442.24
191 0 153.29 10.7313 1645 80.262 697.298 437.496
192 0 157.294 10.1402 1595 81.2232 696.645 436.546
193 0 164.323 10.9236 1795 80.39 696.815 433.937
194 0 167.36 10.6357 1780 81.2433 696.659 429.455
195 0 171.215 10.992 1882 83.161 697.197 425.394
196 0 177.318 10.5573 1872 84.9263 696.859 422.075
197 0 181.443 10.9346 1984 84.9501 696.867 417.659
198 0 187.389 11.3347 2124 84.2109 697.122 414.388
199 0 193.347 10.9027 2108 85.7462 696.75 412.947
200 0 197.379 10.1936 2012 87.5721 696.95 409.99
201 0 204.514 11.5542 2363 86.7232 697.185 402.373
202 0 209.42 11.4507 2398 110.709 697.465 404.095
203 0 216.504 11.4178 2472 110.258 696.53 398.811
204 0 223.436 11.9408 2668 108.383 696.914 396.292
205 0 227.355 12.7422 2897 106.371 696.534 397.159
206 0 234.498 12.4479 2919 107.636 697.03 392.448
207 0 241.302 12.677 3059 105.191 696.092 392.206
208 0 249.386 13.02 3247 103.154 696.507 389.296
209 1 189.374 10.6773 2022 101.2 696.775 422.061
210 0 195.258 10.9035 2129 100.711 697.039 415.651
211 0 200.338 10.4424 2092 102.611 696.788 414.942
212 0 205.154 10.7772 2211 100.512 696.276 409.691
213 0 214.224 11.2639 2413 99.8608 696.652 406.057
214 0 218.371 10.9035 2381 101.735 696.562 399.526
215 0 225.412 11.3658 2562 103.184 696.718 399.595
216 0 233.453 12.0238 2807 105.154 696.803 394.326
217 0 240.449 12.3477 2969 108.511 697.466 391.231
218 1 53.022 9.41119 499 82.7916 696.419 493.295
219 0 55.0877 10.0748 555 82.5477 696.058 492.204
220 0 52.0783 8.25679 430 77.5837 697.563 495.07
221 0 55.2189 8.69267 480 76.9521 697.531 493.302
222 0 56.0621 8.4014 471 78.7197 697.331 493.769
223 0 57.1249 9.19039 525 77.6419 697.731 492.41
224 0 58.1305 8.91099 518 78.2297 697.873 493.025
225 0 60.1207 8.44966 508 80.8465 697.295 489.697
226 0 60.1557 7.96268 479 81.9436 697.495 490.34
227 0 63.0888 8.43256 532 80.5451 697.664 489.382
228 0 65.083 8.5122 554 80.4964 697.816 490.155
229 0 65.1934 8.145 531 81.4972 697.533 488.04
230 0 67.1231 7.77676 522 82.2395 697.036 487.408
231 0 69.1228 8.07259 558 80.8262 697.299 486.572
232 0 74.1289 8.49871 630 79.1111 698.232 484.722
233 0 73.238 7.10014 520 83.0365 697.906 483.037
234 0 75.1931 7.51398 565 83.4018 697.488 484.081
235 1 41.1119 7.97823 328 85.4543 697.777 499.027
236 0 43.1046 8.00378 345 84.7333 697.443 498.768
237 0 42.0945 8.12458 342 85.7602 697.196 498.222
238 0 42.155 8.82458 372 86.0995 697.046 497.503
239 0 44.0713 8.62239 380 86.4737 698.032 495.592
240 0 41.0199 9.06877 372 86.9328 695.36 496.683
241 0 47.0493 9.03309 425 85.2141 695.706 496.835
242 0 50.0179 8.9168 446 86.9574 694.652 495.556
243 0 48.0597 9.7379 468 87.4957 694.865 494.31
244 0 52.0474 9.47214 493 88.1684 694.294 493.694
245 0 57.027 10.4863 598 86.2458 694.629 495.05
246 0 55.0708 10.2051 562 89.8381 694.779 494.254
247 0 58.0199 10.2206 593 89.0118 694.506 494.767
248 0 56.0729 10.8609 609 90.6141 694.054 494.044
249 0 59.0347 10.5023 620 92.1 694.276 494.337
250 0 60.0412 10.9258 656 89.529 694.803 494.288
251 0 63.1124 11.535 728 88.1003 694.9 493.17
252 0 63.0509 10.6105 669 94.7952 695.254 492.436
253 0 64.0795 11.1736 716 93.9651 695.594 490.457
254 0 67.0248 11.6076 778 92.2481 695.573 488.963
255 0 68.066 11.959 814 92.269 695.292 488.488
256 0 71.0222 11.5879 823 93.2977 695.484 487.023
257 0 72.0603 11.0186 794 95.4471 695.144 486.057
258 0 74.1344 11.3847 844 97.9396 695.955 484.627
259 0 75.1362 11.5657 869 98.0483 696.427 482.096
260 0 77.0788 11.6764 900 98.1167 696.27 483.029
261 0 78.0558 11.8633 926 98.0205 696.306 481.009
262 0 80.2246 11.1811 897 99.3913 696.12 479.996
263 0 84.1484 12.062 1015 97.6177 696.85 479.04
264 0 86.1118 12.0657 1039 98.3167 696.552 478.881
265 0 88.0589 12.1169 1067 99.3664 698.103 477.709
266 0 91.0676 12.7048 1157 98.6906 698.269 477.065
267 0 94.1511 12.9685 1221 97.9165 697.561 476.433
268 0 94.0765 12.9894 1222 102.19 697.177 475.854
269 0 97.0828 13.4215 1303 100.613 697.381 472.595
270 0 100.113 13.4947 1351 100.079 697.593 471.487
271 0 102.08 13.1661 1344 101.975 696.715 471.006
272 0 105.121 13.4035 1409 100.241 695.969 469.123
273 0 105.164 13.36 1405 101.127 696.31 467.775
274 0 108.168 13.7194 1484 100.206 697.268 468.819
275 0 112.204 13.1012 1470 100.838 696.941 465.55
276 0 114.127 13.8268 1578 98.8619 695.977 464.464
277 0 117.164 13.1013 1535 101.848 696.608 463.704
278 0 120.146 12.8344 1542 102.743 696.995 459.641
279 1 60.0409 10.6594 640 102.447 697.178 492.122
280 0 63.0802 10.8116 682 93.8196 696.814 488.176
281 0 64.0659 11.1604 715 97.6545 696.399 486.222
282 0 66.1215 12.2351 809 97.2892 696.383 486.707
283 0 67.0375 12.3811 830 89.4084 695.136 488.018
284 0 69.0865 11.4639 792 92.7601 694.708 488.634
285 0 69.1028 11.2731 779 94.5841 694.602 488.103
286 0 73.0682 11.9614 874 91.9668 695.459 486.722
287 0 74.0346 11.1299 824 96.5498 695.064 486.484
288 0 74.0346 11.1299 824 137.155 694.051 486.525
289 0 78.0649 11.9132 930 97.057 695.989 482.28
290 0 80.068 11.5777 927 100.184 696.014 481.639
291 0 84.0265 11.7106 984 98.9451 695.073 480.284
292 0 84.0896 11.3807 957 100.863 695.484 479.042
293 0 89.1182 11.8494 1056 98.9564 695.021 476.813
294 0 89.1255 11.826 1054 100.344 695.22 476.362
295 0 93.1516 11.4008 1062 101.802 694.864 474.246
296 0 97.1219 11.9437 1160 99.8707 695.328 474.354
297 1 49.0224 10.1994 500 98.688 695.792 497.214
298 0 52.0409 10.6455 554 97.9747 695.354 496.314
299 0 54.0092 11.3869 615 94.9642 695.493 495.507
300 0 51.0324 10.5227 537 87.0149 696.343 497.918
301 0 53.0236 10.7311 569 86.7452 694.946 499.204
302 0 53.0164 9.75169 517 89.6035 694.551 498.07
303 0 55.0408 10.4105 573 88.6457 695.393 496.286
304 0 57.0293 9.80198 559 90.3292 694.927 496.528
305 0 60.0489 10.7246 644 89.2267 695.32 494.491
306 0 62.0377 10.6226 659 88.8877 695.476 493.754
307 0 62.0424 10.8797 675 90.0059 695.116 494.705
308 0 64.034 10.9161 699 89.3491 695.062 493.2
309 0 68.0279 11.0396 751 89.6778 695.085 491.988
310 0 71.034 11.7549 835 87.4982 695.301 491.099
311 0 74.0427 11.3583 841 90.1855 694.952 489.616
312 0 75.045 11.5531 867 90.3576 695.293 488.241
313 0 79.0349 11.0331 872 92.9507 695.557 487.591
314 1 43.0169 10.3913 447 96.132 695.445 504.154
315 0 46.1475 10.8565 501 96.1098 696.749 503.088
316 0 46.0805 10.9374 504 97.6944 696.8 503.028
317 0 42.0233 10.2324 430 92.0256 695.463 506.695
318 0 44.0257 10.4939 462 89.8095 694.405 505.864
319 0 45.0542 10.787 486 91.0247 695.344 505.743
320 0 48.0317 10.6596 512 91.3086 695.492 504.365
321 0 48.0541 10.7379 516 91.4302 694.998 504.661
322 0 50.018 10.8361 542 93.2786 694.692 502.943
323 0 51.038 10.8155 552 94.0181 694.879 502.926
324 0 51.0359 10.4632 534 95.4326 695.006 503.554
325 0 53.0642 11.0432 586 94.4334 694.908 502.915
326 0 56.0927 10.6609 598 94.1572 694.682 501.324
327 0 56.0411 10.9741 615 94.4 695.075 501.616
328 0 59.0988 11.6077 686 92.2464 693.793 499.276
329 0 60.0122 11.0811 665 93.6496 694.098 499.221
330 0 61.0736 10.5774 646 95.6378 693.536 498.048
331 0 65.0169 10.7203 697 95.9412 693.765 498.805
332 0 67.098 11.4161 766 95.4634 692.358 494.851
333 0 69.1271 11.1823 773 96.5213 693.1 493.638
334 0 72.097 11.8729 856 94.8481 693.235 493.937
335 0 73.0686 11.6603 852 98.1045 693.09 491.653
336 0 73.076 11.4949 840 98.5464 692.643 489.571
337 0 78.0533 11.6074 906 97.3157 693.177 489.018
338 0 79.1043 11.1246 880 98.4989 692.457 488.045
339 0 83.1471 11.2331 934 96.4786 692.329 487.668
340 0 85.0957 11.2462 957 94.3595 691.928 488.644
341 0 86.1362 10.5531 909 95.4532 692.52 486.006
342 0 91.0969 11.131 1014 94.5513 692.291 483.175
343 0 94.0658 10.8435 1020 94.2971 692.033 482.796
344 0 96.0654 11.2111 1077 95.2748 691.515 482.153
345 1 52.0451 11.4132 594 99.1027 690.934 502.13
346 0 54.0746 10.7444 581 101.484 691.262 500.522
347 0 55.0825 11.2558 620 101.165 690.879 500.158
348 0 58.1114 11.7361 682 99.8196 690.512 498.871
349 0 60.0946 12.1642 731 100.804 691.23 497.498
350 0 60.0402 12.5416 753 104.507 691.923 498.124
351 0 61.1377 12.8726 787 102.601 691.748 498.178
352 0 65.0828 12.5532 817 103.376 691.627 495.126
353 0 67.059 12.2877 824 103.505 691.449 495.297
354 0 69.0807 12.3045 850 105.359 692.211 493.64
355 0 70.0745 12.8007 897 105.013 691.632 491.542
356 0 74.2594 13.0758 971 103.856 692.01 492.134
357 0 76.0771 12.7502 970 104.036 692.279 490.709
358 0 75.2069 12.7781 961 106.774 692.604 489.01
359 0 78.2014 12.7363 996 106.686 692.881 487.449
360 0 82.1629 12.6943 1043 104.333 692.548 486.404
361 0 84.2052 12.8852 1085 103.687 693.078 484.886
362 0 88.2367 13.3051 1174 100.236 693.472 482.307
363 0 87.1631 12.8724 1122 101.137 694.241 480.815
364 0 87.1631 12.9183 1126 153.534 695.234 480.764
365 0 93.1202 12.3926 1154 100.496 693.373 478.464
366 0 94.1426 13.2352 1246 99.2809 693.53 476.876
367 0 98.2724 13.2998 1307 98.2892 693.358 475.008
368 0 100.25 13.0973 1313 94.2551 693.866 474.654
369 0 103.199 13.0331 1345 95.0565 694.13 471.026
370 0 106.176 13.0539 1386 94.3579 693.501 470.058
371 0 108.171 12.3508 1336 97.018 693.611 464.073
372 0 113.133 12.9229 1462 93.7107 694.369 469.061
373 0 118.139 12.8832 1522 94.2057 694.007 467.561
374 0 121.177 12.1392 1471 104.208 693.559 464.365
375 1 65.083 13.1985 859 95.2282 693.766 490.407
376 0 67.1057 12.8901 865 96.4116 693.877 491.845
377 0 67.0925 13.0417 875 97.9509 694.512 490.729
378 0 69.122 12.6298 873 99.5578 694.047 489.78
379 0 71.0435 13.4706 957 98.5183 694.831 487.306
380 0 73.2143 12.9073 945 101.175 694.909 486.23
381 0 74.1405 13.6767 1014 99.3846 694.74 484.798
382 0 78.0642 12.9893 1014 100.361 694.799 481.954
383 0 78.128 12.8123 1001 101.699 695.013 477.757
384 0 79.1015 13.4384 1063 101.624 694.786 475.294
385 0 80.2028 12.3562 991 104.982 694.653 476.125
386 0 85.1935 12.5831 1072 103.38 694.745 476.535
387 0 87.0925 12.1824 1061 104.107 695.012 474.252
388 0 90.1583 12.1564 1096 103.109 695.262 473.935
389 0 95.1939 12.4693 1187 100.252 694.863 472.193
390 0 97.2331 12.4752 1213 100.905 695.504 470.999
391 1 48.0277 10.3274 496 90.1411 694.706 496.911
392 0 50.0839 10.5423 528 87.9943 694.682 496.18
393 0 54.0705 11.9289 645 89.9209 694.662 496.781
394 0 56.0585 12.7545 715 93.7427 693.98 496.49
395 0 59.1866 12.6718 750 93.5867 694.055 495.715
396 0 60.0907 13.2966 799 94.229 694.288 495.159
397 0 61.2059 12.3027 753 96.5923 694.297 493.275
398 0 65.073 12.8317 835 94.0922 694.529 491.82
399 0 67.1349 13.2569 890 93.4326 694.647 488.662
400 0 69.2135 13.1911 913 92.966 694.359 486.944
401 0 72.3111 12.6813 917 94.5911 694.557 485.218
402 0 72.1687 12.8033 924 94.5303 695.387 484.532
403 0 76.3863 13.1699 1006 93.166 695.613 481.592
404 0 77.0627 13.5085 1041 97.3064 695.801 483.708
405 0 83.1157 12.7413 1059 95.7129 695.365 484.016
406 0 85.1392 12.9318 1101 95.7629 694.952 481.998
407 0 86.2153 12.6428 1090 97.3927 694.999 482.041
408 0 90.1282 12.6708 1142 96.7995 694.957 480.949
409 0 91.1219 13.4106 1222 95.3863 695.034 478.194
410 1 48.0516 10.7385 516 89.3527 695.295 502.12
411 0 50.0514 11.0486 553 85.0796 696.702 502.087
412 0 50.0533 11.4877 575 85.5043 695.779 501.405
413 0 50.037 11.1118 556 87.8094 695.023 499.245
414 0 51.0254 11.0533 564 88.3209 694.931 499.644
415 0 55.1014 11.0523 609 86.8801 694.471 498.529
416 0 55.04 11.0102 606 88.9967 694.545 496.911
417 0 57.0552 11.5327 658 89.6185 695.091 495.576
418 0 60.025 11.5119 691 88.5644 694.42 496.621
419 0 60.0234 12.2785 737 88.5902 695.149 495.41
420 0 62.057 11.8278 734 89.9033 695.056 494.322
421 0 65.1327 12.559 818 88.2665 695.435 493.315
422 0 66.0814 11.7885 779 91.439 694.081 492.021
423 0 68.0553 12.1813 829 92.2726 694.105 490.661
424 0 72.0617 12.184 878 95.4089 694.272 489.138
425 0 75.081 12.5864 945 98.3894 694.229 488.028
426 0 74.1341 13.1653 976 99.8227 694.216 487.953
427 0 78.1523 12.2837 960 98.9698 694.275 486.238
428 0 79.199 12.7022 1006 98.496 694.5 484.165
429 0 83.0841 12.8424 1067 97.5398 694.35 482.205
430 0 83.2606 12.7912 1065 97.1005 694.894 479.986
431 0 87.2059 12.3615 1078 96.026 694.213 478.98
432 0 91.2495 12.4932 1140 93.9526 694.253 475.942
433 0 92.3535 12.3439 1140 94.6675 694.266 475.947
434 0 97.3311 12.4112 1208 92.6879 694.718 474.743
435 0 99.306 12.5974 1251 92.9329 694.639 473.075
436 0 101.399 12.288 1246 92.7761 694.344 472.116
437 0 107.304 12.7116 1364 90.5696 694.427 469.65
438 1 56.3247 10.9011 614 85.9984 694.337 496.031
439 0 58.1664 10.7622 626 85.4728 694.505 495.312
440 0 58.1464 10.6111 617 85.624 693.977 494.665
441 0 62.0691 11.4872 713 86.5175 695.14 493.575
442 0 65.0832 12.3841 806 85.3251 694.464 492.422
443 0 68.0584 12.3717 842 90.9549 694.412 489.259
444 0 70.0499 12.2199 856 90.0292 694.715 487.637
445 0 72.0815 11.7783 849 90.4311 694.418 488.285
446 0 73.0603 12.1406 887 88.7396 695.051 485.321
447 0 78.0849 11.8077 922 89.0542 694.05 484.842
448 0 79.0882 11.5946 917 90.8026 694.999 483.243
449 0 81.1135 12.0942 981 90.318 694.077 482.733
450 0 83.1412 11.8714 987 89.9574 694.595 482.768
451 0 87.1119 12.2831 1070 89.1832 694.089 479.563
452 0 90.1318 12.0379 1085 89.6009 693.827 479.587
453 0 92.1362 12.4381 1146 89.0558 694.145 477.956
454 0 94.1041 12.0717 1136 90.9102 694.787 477.046
455 0 97.1077 12.6046 1224 89.3072 694.26 476.065
456 0 101.12 12.6879 1283 89.8504 695.016 473.03
457 0 104.094 12.383 1289 92.377 694.614 472.523
458 0 107.09 13.0265 1395 92.3534 695.039 469.099
459 1 53.0395 11.3689 603 90.4378 694.161 497.265
460 0 54.0354 12.3067 665 92.0466 694.681 495.977
461 0 56.0938 12.2474 687 97.2009 694.787 494.805
462 0 58.0305 12.4245 721 94.0541 694.462 493.11
463 0 59.0301 12.3835 731 96.2367 694.49 492.174
464 0 64.0484 12.6155 808 94.3515 694.715 490.842
465 0 64.0579 12.0048 769 96.8557 694.798 489.559
466 0 67.0642 12.4358 834 94.4688 694.727 489.543
467 0 69.0698 12.1471 839 94.0942 694.722 488.765
468 0 71.0995 13.024 926 92.6998 695.251 486.987
469 0 74.0875 12.8767 954 92.4969 694.74 486.573
470 0 76.0592 12.819 975 93.1785 694.795 485.607
471 0 78.0615 13.0026 1015 92.4502 693.891 484.223
472 0 79.0382 13.4365 1062 92.7137 694.158 483.355
473 0 81.0608 12.5708 1019 94.8744 695.328 480.959
474 0 84.0794 12.7855 1075 94.6474 694.865 480.1
475 0 88.0937 13.27 1169 93.4713 694.147 479.55
476 0 90.078 13.4328 1210 93.7033 694.059 477.964
477 0 91.1366 13.2658 1209 94.9404 693.916 476.835
478 0 94.1437 13.3201 1254 95.7201 694.419 474.957
479 0 99.1346 13.6481 1353 95.1086 694.647 471.945
480 0 102.148 13.5294 1382 96.6122 694.173 471.391
481 0 106.164 13.9124 1477 94.805 694.412 469.722
482 0 108.198 13.6325 1475 97.1715 694.521 468.022
483 0 112.236 13.4627 1511 97.2793 694.013 465.603
484 1 67.0907 10.5976 711 90.4079 693.589 491.541
485 0 64.1834 9.19241 590 86.1017 694.168 484.746
486 0 64.0632 9.2877 595 87.9361 694.518 482.035
487 0 68.0887 11.5585 787 86.6531 693.578 487.551
488 0 71.1199 11.108 790 88.2013 693.162 488.034
489 0 72.1011 11.4561 826 88.3462 692.611 486.281
490 0 75.0807 11.3611 853 89.3904 692.962 486.219
491 0 78.0867 11.0646 864 89.265 693.811 484.235
492 0 80.0603 11.2415 900 88.6133 693.122 483.392
493 0 83.0497 11.3787 945 88.9968 693.743 481.361
494 0 86.0708 11.7578 1012 88.3636 693.443 480.916
495 0 89.0349 11.0743 986 89.3022 693.897 478.818
496 0 92.1139 11.8223 1089 88.4867 694.147 478.437
497 0 94.0672 10.9496 1030 90.6922 694.016 477.301
498 0 97.1194 11.5734 1124 89.6744 693.593 475.595
499 0 101.14 11.0639 1119 90.6095 694.007 473.906
500 0 102.056 10.6118 1083 92.3657 694.042 472.716
501 1 56.0865 10.2164 573 87.9686 693.546 495.62
502 0 59.1062 10.4727 619 87.3457 693.307 494.152
503 0 55.0808 8.24244 454 82.4053 693.346 495.203
504 0 57.0912 9.26588 529 81.2647 692.728 496.454
505 0 60.0988 9.60085 577 80.7972 692.657 495.399
506 0 60.085 9.12041 548 82.9891 692.927 493.21
507 0 63.0718 10.0045 631 81.187 692.772 491.098
508 0 65.1107 9.983 650 80.4646 692.106 491.103
509 0 66.1252 9.5425 631 81.309 692.756 490.983
510 0 66.1252 9.55762 632 111.707 692.756 490.932
511 0 71.0765 9.34204 664 82.4804 692.175 489.77
512 0 71.1148 8.76049 623 82.6453 692.701 489.873
513 0 74.0823 9.30046 689 81.6676 692.44 490.434
514 0 76.102 9.51355 724 82.4309 692.811 488.113
515 0 78.1086 9.44839 738 80.6043 693.005 487.66
516 0 82.0688 10.5034 862 79.3295 692.543 485.077
517 0 84.0502 8.82805 742 80.872 692.652 486.406
518 0 85.0908 9.11967 776 81.3093 692.594 484.282
519 0 88.0642 10.1176 891 81.3176 692.89 481.816
520 0 90.0902 9.91229 893 82.9664 693.306 480.132
521 0 92.1071 9.34782 861 83.8769 692.744 479.218
522 0 96.0654 9.44149 907 83.1885 693.388 480.373
523 1 158.187 11.164 1766 92.474 693.417 446.514
524 0 158.167 9.78079 1547 92.3303 693.09 448.953
525 0 161.164 9.62376 1551 90.8524 693.051 447.755
526 0 167.139 9.95576 1664 92.3594 692.957 441.383
527 0 171.161 9.15515 1567 94.866 694.195 437.941
528 0 172.22 10.655 1835 99.8959 693.837 440.336
529 0 177.224 10.941 1939 99.9526 693.085 442.387
530 0 181.207 11.473 2079 101.646 693.081 437.103
531 1 63.0742 11.4627 723 86.935 693.441 496.863
532 0 66.0551 10.9605 724 88.5373 693.38 496.736
533 0 67.0413 11.4109 765 87.7451 692.507 495.86
534 0 71.1412 10.8798 774 87.5943 693.169 496.191
535 0 70.1053 11.4399 802 86.7544 692.771 494.314
536 0 72.1371 11.589 836 87.3134 693.658 493.715
537 0 75.1634 11.8675 892 87.3487 693.034 491.812
538 0 76.088 12.0387 916 87.8821 693.727 490.213
539 0 78.1791 11.4225 893 90.8466 693.253 490.526
540 0 80.1473 11.0796 888 92.661 693.374 490.304
541 0 81.1509 11.3739 923 92.468 693.057 488.412
542 0 81.1509 11.4232 927 137.278 693.046 488.438
543 0 86.2147 11.425 985 95.0802 693.063 486.168
544 0 90.2324 11.6145 1048 93.4141 692.048 484.692
545 0 92.2621 11.9659 1104 92.558 692.802 481.043
546 0 96.1682 10.1177 973 93.261 692.905 479.309
547 1 48.0815 9.42149 453 80.3201 692.7 499.804
548 0 51.0383 9.75738 498 80.9518 693.436 500.289
549 0 54.0703 10.2274 553 79.8626 692.575 501.137
550 0 56.058 11.8627 665 81.7729 692.144 501.692
551 0 57.1081 11.8722 678 82.2802 692.469 500.768
552 0 59.1185 11.6207 687 83.1645 691.824 500.249
553 0 60.0812 11.9505 718 82.6281 692.6 499.281
554 0 61.0841 11.476 701 83.8131 692.825 500.084
555 0 64.0799 11.5949 743 84.6608 692.456 498.988
556 0 64.063 11.7384 752 85.3949 691.922 497.766
557 0 67.0657 11.7646 789 85.9278 692.279 496.272
558 0 69.0579 11.6134 802 87.4763 691.979 496.706
559 0 70.0394 11.5649 810 91.9062 692.593 495.874
560 0 72.0865 11.4585 826 91.5896 692.085 496.252
561 0 74.1326 11.5873 859 93.603 692.81 493.671
562 0 77.0741 11.4046 879 92.5085 692.596 491.752
563 0 78.0875 11.7945 921 94.6254 692.229 490.975
564 0 82.0545 11.7483 964 94.7967 692.897 489.879
565 1 42.0166 10.0198 421 97.0166 692.394 510.442
566 0 44.0403 9.67295 426 98.7653 692.796 509.413
567 0 47.024 10.4627 492 96.8923 691.97 508.134
568 0 48.0621 11.0274 530 93.7321 692.006 508.245
569 0 48.0879 11.9157 573 90.5393 692.749 507.792
570 0 47.1326 11.5419 544 91.7629 692.564 506.43
571 0 49.0406 11.2356 551 91.2323 692.37 505.744
572 0 51.1284 11.7352 600 88.45 692.315 506.295
573 0 53.134 11.4051 606 88.8432 692.185 505.809
574 0 53.1094 11.3163 601 89.6406 691.792 504.917
575 0 54.0862 11.5741 626 89.631 692.351 504.658
576 0 55.0441 11.2637 620 90.2516 692.513 503.25
577 0 58.0658 11.7108 680 89.5691 692.372 501.381
578 0 60.0719 12.7014 763 88.6239 692.056 500.875
579 0 63.0978 12.0765 762 90.5184 692.19 500.594
580 0 62.0509 12.3608 767 91.0117 692.351 500.419
581 0 62.0548 12.3923 769 122.537 692.359 500.345
582 0 67.0789 12.0455 808 91.3688 691.865 497.548
583 0 70.1358 11.9055 835 107.222 692.265 495.159
584 0 70.0828 12.6993 890 107.915 692.199 495.161
585 0 74.0916 12.3901 918 108.166 692.27 494.52
586 0 76.0949 12.2216 930 106.086 692.226 493.735
587 0 78.1738 13.6619 1068 105.238 691.789 492.265
588 0 79.1911 12.7918 1013 105.505 692.066 492.756
589 0 82.3814 13.0612 1076 108.059 691.857 492.044
590 0 85.2539 13.2428 1129 109.041 691.779 490.491
591 0 87.0943 12.5496 1093 105.349 691.938 490.379
592 0 88.1714 12.6685 1117 106.514 691.474 488.209
593 0 91.149 12.7813 1165 105.915 691.233 488.148
594 0 95.0784 13.1576 1251 102.433 692.032 486.249
595 0 97.1226 12.9115 1254 102.4 690.847 484.466
596 1 50.0273 10.2544 513 90.2183 691.207 505.304
597 0 52.0345 11.3771 592 94.7635 691.01 506.662
598 0 55.1151 12.2834 677 93.6588 691.95 501.867
599 0 55.1028 12.4857 688 92.75 691.039 505.483
600 0 58.0308 12.9931 754 86.5743 691.736 505.775
601 0 58.1056 12.8731 748 87.7781 691.561 505.166
602 0 60.049 11.7238 704 92.0327 692.256 503.911
603 0 62.0577 12.7301 790 90.8468 692.039 501.814
604 0 63.0597 12.3534 779 90.4942 691.974 501.092
605 0 64.0437 12.4134 795 92.4252 691.39 500.26
606 0 67.0421 11.4257 766 94.5653 692.163 498.552
607 0 68.0906 11.8665 808 91.6448 691.955 497.952
608 0 71.0656 11.6512 828 90.9831 691.819 496.643
609 0 75.068 12.4287 933 86.4598 691.329 495.97
610 0 75.1715 12.1855 916 85.9258 692.144 494.938
611 0 79.1548 12.3303 976 83.0297 691.652 492.886
612 0 81.1428 12.2254 992 84.6079 691.712 494.231
613 0 85.1976 12.5825 1072 83.8965 691.786 492.773
614 1 45.0376 11.1462 502 86.7789 691.46 510.237
615 0 47.0762 11.5557 544 84.2739 692.05 509.2
616 0 48.2703 11.6428 562 86.6584 691.016 503.888
617 0 49.1764 12.2213 601 85.4642 691.85 506.459
618 0 52.1957 12.6639 661 86.4735 691.51 504.891
619 0 52.0981 12.0542 628 87.629 691.056 505.083
620 0 54.1814 12.4766 676 86.2263 691.488 503.713
621 0 56.1278 13.2911 746 79.6662 691.619 502.078
622 0 57.2027 12.2197 699 81.7611 691.366 501.943
623 0 60.1815 12.346 743 91.1952 691.688 500.299
624 0 62.157 11.8571 737 93.9701 690.649 499.986
625 0 64.081 12.5154 802 92.0012 691.266 497.776
626 0 65.1416 12.1888 794 92.2015 691.519 497.105
627 0 66.2383 12.0625 799 93.2916 691.708 496.513
628 0 69.1202 11.8489 819 91.4603 690.912 496.234
629 0 70.1417 12.0043 842 91.8527 691.118 493.666
630 0 72.1934 11.5939 837 95.4982 691.44 493.662
631 0 74.1881 12.037 893 95.2464 691.157 491.529
632 0 76.184 11.4328 871 94.4512 691.293 491.334
633 0 79.3726 12.0697 958 92.2359 692.5 489.462
634 0 82.3221 11.4429 942 92.4321 692.34 488.507
635 0 84.2082 11.3647 957 91.9833 693.048 486.561
636 0 85.16 10.5331 897 94.5864 692.744 484.711
637 0 90.1635 11.4902 1036 92.3793 693.098 482.759
638 1 47.1884 10.8501 512 88.7559 692.449 503.957
639 0 48.0834 10.9809 528 88.2576 693.307 503.968
640 0 49.0871 10.8175 531 87.403 692.659 502.038
641 0 49.0088 11.855 581 84.4819 692.308 503.062
642 0 51.0679 10.8679 555 86.5387 693.728 502.924
643 0 51.0611 11.2806 576 87.6979 693.102 501.92
644 0 54.0969 11.5718 626 85.7971 693.423 500.92
645 0 54.1136 11.0878 600 87.765 693.587 499.387
646 0 55.0511 11.6437 641 87.4914 693.641 498.686
647 0 58.1479 11.7459 683 84.9649 693.302 497.165
648 0 56.2157 10.5131 591 91.2589 693.117 497.8
649 0 58.1209 10.1513 590 92.4729 693.985 497.963
650 0 61.1008 10.2454 626 93.3355 693.364 494.219
651 0 61.0388 10.6162 648 94.0231 693.377 492.627
652 0 64.0359 11.0563 708 93.4972 692.972 491.018
653 0 66.0802 11.1228 735 95.0109 693.578 489.88
654 0 67.066 11.0041 738 97.1111 693.491 487.145
655 0 69.1784 11.2607 779 96.6316 693.54 487.411
656 0 72.0492 11.3672 819 97.1819 694.256 485.6
657 0 72.0499 11.2561 811 99.2774 694.396 483.275
658 0 74.0993 11.3361 840 99.8571 693.919 481.473
659 0 76.0944 11.6697 888 98.8153 694.301 480.223
660 0 76.0996 11.6689 888 130.242 695.293 480.356
661 0 80.0818 11.3009 905 102.082 694.134 475.586
662 0 81.0855 11.0501 896 106.86 693.689 472.339
663 0 84.1958 11.0101 927 107.384 693.354 470.583
664 0 87.0854 11.4945 1001 105.849 693.862 465.654
665 0 90.0788 11.6565 1050 105.541 693.554 466.117
666 0 92.1038 11.867 1093 105.446 693.398 464.697
667 0 93.0641 11.5189 1072 108.357 693.617 461.213
668 0 97.098 11.7304 1139 106.421 694.376 460.971
669 0 96.038 12.0473 1157 107.661 693.264 459.747
670 0 103.053 12.7992 1319 104.33 693.855 458.661
671 0 105.049 12.4704 1310 107.669 693.564 455.844
672 0 107.067 12.6276 1352 107.947 693.614 454.734
673 0 114.104 12.436 1419 108.089 693.609 451.418
674 0 115.058 11.7158 1348 111.246 693.478 449.847
675 0 121.087 12.685 1536 107.23 693.053 447.583
676 0 126.108 12.5052 1577 109.517 693.788 447.438
677 0 128.07 13.0475 1671 108.703 693.504 443.45
678 0 131.194 13.2628 1740 107.305 692.98 440.582
679 1 144.176 15.058 2171 101.715 693.208 443.21
680 0 141.129 13.1086 1850 107.121 692.214 439.568
681 0 148.162 13.4178 1988 105.609 692.981 435.562
682 0 150.105 13.7171 2059 105.283 692.718 434.879
683 0 155.225 13.4514 2088 106.387 692.882 430.909
684 0 162.309 13.5359 2197 106.651 692.586 428.691
685 0 164.23 14.1204 2319 104.607 692.948 426.383
686 0 169.149 13.03 2204 110.035 693.664 420.418
687 0 175.186 13.7911 2416 107.386 694.044 417.605
688 0 181.231 13.4745 2442 108.922 693.271 415.887
689 0 188.33 14.5224 2735 108.605 693.26 411.154
690 0 195.279 13.893 2713 110.077 692.97 408.787
691 0 198.151 14.2416 2822 110.08 693.375 405.373
692 0 204.226 14.1804 2896 111.825 693.347 398.809
693 0 216.335 14.5931 3157 109.402 692.959 399.27
694 0 222.347 14.0052 3114 111.413 692.584 394.37
695 0 230.386 14.428 3324 110.435 692.915 390.584
696 1 62.0452 8.36486 519 83.1888 694.59 484.181
697 0 72.0839 10.5849 763 94.9541 693.76 493.604
698 0 73.0762 10.0717 736 98.3628 693.323 490.908
699 0 70.0435 10.0366 703 96.5405 693.852 492.936
700 0 73.0377 11.0217 805 94.513 693.391 492.928
701 0 74.0246 10.3479 766 96.4191 692.581 493.302
702 0 78.0591 10.4664 817 96.6867 691.912 490.077
703 0 79.0808 10.2427 810 98.2173 692.244 490.33
704 0 81.0225 9.86146 799 99.3404 692.308 490.822
705 0 84.0414 10.6138 892 95.2769 692.98 489.722
706 0 86.0252 10.4853 902 97.0643 692.499 486.492
707 0 89.0666 10.509 936 94.1923 693.129 486.922
708 0 90.0699 10.7805 971 97.4645 693.188 485.644
709 0 93.0772 10.8512 1010 97.4475 692.336 482.545
710 0 97.06 10.1381 984 97.9705 693.026 485.001
711 0 108.13 8.11059 877 98.2531 691.631 484.888
712 0 107.182 8.50892 912 97.4002 691.363 484.657
713 0 107.18 9.54467 1023 98.3441 691.345 479.042
714 0 108.204 10.6466 1152 96.678 692.009 477.302
715 0 111.119 10.4392 1160 98.1638 692.259 475.67
716 1 63.0777 9.86086 622 98.1785 691.339 496.791
717 0 59.0619 9.34613 552 96.2083 690.848 492.591
718 0 66.1148 10.149 671 95.3115 691.261 496.385
719 0 65.0995 9.64677 628 82.9172 692.637 499.893
720 0 65.0382 8.37969 545 85.055 691.815 500.259
721 0 68.0394 8.77433 597 85.1323 692.402 499.176
722 0 69.0821 9.77098 675 91.2637 694.545 497.787
723 0 75.0566 10.4588 785 95.0408 693.154 495.617
724 0 75.0653 10.5375 791 98.3034 694.096 492.326
725 0 80.0332 11.3453 908 95.88 694.095 491.593
726 0 78.1313 10.8279 846 98.1643 694.587 493.985
727 0 81.0549 11.0666 897 99.1193 694.025 490.137
728 0 83.0545 11.0169 915 100.542 693.736 488.237
729 0 88.0759 11.8307 1042 96.6583 693.753 485.607
730 0 88.0749 11.8195 1041 142.43 695.748 485.634
731 0 91.0783 11.6932 1065 99.538 693.551 483.852
732 0 93.0811 11.5491 1075 99.6065 693.254 482.073
733 0 94.0472 10.7925 1015 101.81 693.862 481.046
734 0 97.1133 10.5547 1025 102.359 693.387 476.844
735 0 100.275 10.8102 1084 101.586 692.18 476.658
736 0 105.258 11.5811 1219 99.8687 692.904 473.29
737 1 61.066 10.4477 638 97.2414 692.748 495.335
738 0 62.096 10.4999 652 97.1058 693.17 494.867
739 0 61.1491 10.3354 632 98.3592 693.217 494.445
740 0 66.0306 11.4795 758 103.02 694.207 493.781
741 0 68.0468 11.6244 791 103.048 692.76 492.992
742 0 71.0636 11.7641 836 102.658 692.939 491.984
743 0 71.0647 11.6936 831 104.421 693.507 491.514
744 0 75.0428 12.1264 910 102.722 693.366 490.307
745 0 76.0837 12.552 955 102.435 693.029 489.13
746 0 77.1184 12.6559 976 103.358 693.318 489.552
747 0 78.0776 13.0895 1022 101.94 693.009 488.947
748 0 82.1057 12.9833 1066 100.686 693.401 487.726
749 0 85.114 12.9121 1099 100.249 693.309 486.084
750 0 86.1116 12.147 1046 104.272 693.797 482.996
751 0 87.1994 12.007 1047 106.08 692.86 482.524
752 0 91.1534 12.4296 1133 104.668 692.865 481.032
753 1 46.0423 10.5121 484 107.486 694.01 503.636
754 0 50.0499 10.5495 528 101.826 694.055 501.195
755 0 51.0573 11.8298 604 102.05 693.642 501.012
756 0 53.1463 11.6847 621 103.733 693.111 502.108
757 0 52.1312 11.4902 599 107.27 694.464 501.482
758 0 56.1378 11.8815 667 107.072 693.651 500.432
759 0 55.1378 11.7342 647 108.702 693.675 500.41
760 0 56.0727 11.5386 647 110.855 693.505 499.162
761 0 59.0746 11.9848 708 106.388 693.24 498.924
762 0 59.1694 12.1008 716 109.743 694.293 497.244
763 0 62.1652 12.0968 752 108.524 693.343 497.969
764 0 61.1103 12.2074 746 110.497 694.212 496.509
765 0 63.0482 11.7212 739 112.015 693.429 496.019
766 0 64.0628 11.8009 756 112.704 693.925 494.417
767 0 66.1 12.1785 805 112.13 692.867 493.975
768 0 68.0506 12.6817 863 110.729 691.555 493.331
769 0 71.0455 12.8368 912 111.221 691.769 492.583
770 0 73.0856 12.7248 930 110.883 691.286 492.276
771 0 77.063 13.171 1015 108.258 691.662 490.568
772 0 78.0537 13.0423 1018 109.43 692.19 490.692
773 0 81.062 12.9284 1048 109.365 692.168 489.209
774 0 84.0491 12.9686 1090 107.416 692.29 487.895
775 0 86.0439 12.9004 1110 107.351 692.79 487.05
776 0 86.1924 12.0544 1039 97.4803 692.669 487.985
777 1 47.0666 11.4519 539 99.4323 692.31 506.02
778 0 48.0214 11.953 574 98.0348 693.479 505.2
779 0 48.0214 11.9738 575 158.798 694.485 505.238
780 0 52.0517 12.3723 644 100.494 693.14 504.73
781 0 54.0433 12.5825 680 102.413 692.206 503.984
782 0 55.0373 11.8828 654 107.683 693.147 502.844
783 0 55.0244 12.3945 682 106.705 692.779 501.899
784 0 57.0755 12.6149 720 104.785 693.064 502.486
785 0 57.0755 12.6674 723 155.534 694.064 502.391
786 0 58.0313 12.9585 752 103.065 693.066 500.553
787 0 60.1004 12.8951 775 103.068 693.698 499.848
788 0 62.0349 12.8315 796 103.176 692.475 499.442
789 0 63.0503 13.1958 832 102.605 693.255 497.339
790 0 66.0471 12.8242 847 102.335 693.331 496.561
791 0 67.037 12.8586 862 103.883 693.408 496.879
792 0 68.0275 12.98 883 103.87 693.456 494.974
793 0 71.023 13.1507 934 101.961 693.792 491.669
794 0 74.0862 13.0929 970 101.464 693.509 492.556
795 0 75.1083 13.1011 984 101.718 694.514 489.462
796 0 79.0792 13.164 1041 101.169 693.703 489.334
797 0 80.1054 12.9829 1040 100.245 694.345 490.151
798 0 83.0667 13.11 1089 100.048 693.882 488.273
799 0 83.0809 12.7346 1058 104.396 694.081 486.654
800 0 86.0557 12.3525 1063 105.404 693.659 486.242
801 0 90.0839 12.344 1112 103.21 693.597 485.852
802 1 45.1169 11.4148 515 101.586 693.452 505.414
803 0 48.103 12.3693 595 97.5563 693.714 505.254
804 0 50.0655 11.8844 595 99.7966 694.185 504.521
805 0 51.0653 12.4546 636 95.2531 694.325 503.497
806 0 53.1038 12.6168 670 97.1716 693.863 503.658
807 0 54.0717 12.5204 677 98.8774 694.191 503.501
808 0 56.0064 12.3914 694 99.4179 693.911 502.863
809 0 55.0327 11.9929 660 102.618 694.217 501.192
810 0 58.0371 12.2508 711 99.8087 693.824 501.736
811 0 60.0395 12.4751 749 98.2951 693.909 499.466
812 0 61.0597 12.3486 754 99.3899 693.74 499.769
813 0 63.056 12.0211 758 99.8588 693.637 498.012
814 0 66.1956 13.2184 875 97.0869 694.464 498.242
815 0 66.1628 13.1494 870 99.7299 694.109 497.403
816 0 71.0975 13.0806 930 96.7 693.817 496.919
817 0 71.2146 13.1434 936 98.6239 693.139 496.293
818 0 74.1972 13.4507 998 97.0762 693.118 496.009
819 0 77.1193 13.4856 1040 96.9298 693.435 493.862
820 0 78.1442 12.4513 973 98.9959 692.827 492.013
821 0 80.1356 12.5537 1006 98.8897 692.578 490.522
822 0 82.149 12.2095 1003 99.319 692.662 490.308
823 0 86.1345 12.9565 1116 96.5314 692.904 488.455
824 0 88.1566 12.7727 1126 96.2735 692.419 487.028
825 0 93.1353 12.659 1179 94.8168 692.947 486.567
826 1 51.0229 10.8579 554 95.6751 692.72 507.702
827 0 51.1045 11.6624 596 95.8356 692.493 506.857
828 0 53.0377 11.8029 626 94.869 692.502 505.832
829 0 55.1128 12.4109 684 92.7266 691.852 503.844
830 0 55.1358 12.3332 680 91.7074 691.762 503.707
831 0 58.0255 12.7358 739 85.0839 692.043 504.165
832 0 59.0661 12.4098 733 85.6944 692.759 504.134
833 0 61.0534 12.6283 771 85.8145 692.135 503.681
834 0 63.0362 12.8656 811 85.3305 692.843 501.562
835 0 66.0421 13.0371 861 85.4379 692.945 501.305
836 0 65.0411 12.346 803 135.787 693.915 500.189
837 0 69.102 12.4743 862 89.4594 693.514 497.675
838 0 68.0253 13.0834 890 91.1809 693.479 497.283
839 0 72.0706 12.1409 875 93.1806 692.359 497.035
840 0 75.1112 13.3668 1004 92.9612 692.768 494.408
841 0 77.0298 12.7223 980 94.6347 692.6 493.361
842 0 80.0578 13.178 1055 94.6806 692.824 491.611
843 0 82.059 13.1247 1077 97.7029 692.146 489.011
844 0 85.1202 13.6043 1158 94.31 692.443 488.606
845 0 88.0619 13.3429 1175 95.5396 692.542 487.161
846 0 91.1162 13.7846 1256 96.6417 691.678 484.898
847 0 94.0905 14.0397 1321 97.1204 691.965 483.233
848 0 97.0822 13.7409 1334 101.003 691.878 481.014
849 0 102.208 14.128 1444 100.736 691.945 474.955
850 1 53.1524 12.3607 657 100.647 690.998 497.895
851 0 54.0971 12.6809 686 101.964 691.66 498.637
852 0 55.1137 13.1365 724 105.434 692.291 500.441
853 0 53.0227 12.0514 639 96.8169 692.282 503.196
854 0 56.0674 12.1283 680 96.5779 691.644 503.412
855 0 58.04 12.1296 704 96.7116 691.868 501.672
856 0 61.043 12.483 762 95.1168 691.761 500.661
857 0 61.0611 12.5939 769 95.7971 692.094 499.293
858 0 64.0214 12.3865 793 97.5422 691.695 498.24
859 0 66.0951 13.3293 881 95.6061 691.952 497.687
860 0 69.0659 12.9297 893 96.3158 691.872 497.31
861 0 71.0425 13.0344 926 95.8877 690.988 496.391
862 0 73.0668 13.2892 971 97.6962 691.962 494.98
863 0 75.148 13.0542 981 101.014 692.839 491.864
864 0 78.0972 12.8558 1004 102.519 692.372 489.033
865 0 82.1127 12.6533 1039 103.15 691.839 489.244
866 0 83.1272 12.5831 1046 101.209 692.5 487.129
867 0 86.1131 12.9365 1114 99.3618 692.409 485.988
868 0 90.1313 12.9145 1164 98.3067 692.192 483.213
869 0 93.074 12.9789 1208 97.5033 691.989 481.678
870 1 51.0695 11.827 604 100.621 692.306 500.922
871 0 51.0904 11.8417 605 99.9339 692.547 499.519
872 0 54.0149 12.6817 685 95.8584 692.839 499.434
873 0 56.0382 12.313 690 96.9348 692.146 498.613
874 0 53.0289 11.7106 621 98.3205 692.309 501.478
875 0 55.0409 12.3545 680 96.7853 692.216 501.487
876 0 59.0203 13.3005 785 93.2497 692.134 500.172
877 0 60.1173 12.4922 751 95.3782 691.527 498.967
878 0 61.0482 12.9078 788 95.599 691.883 497.291
879 0 65.0677 13.0172 847 93.9693 691.961 497.591
880 0 65.0712 12.7092 827 96.9141 691.811 494.988
881 0 69.0576 13.0326 900 95.4389 692.747 493.572
882 0 72.0741 13.1254 946 95.0021 692.054 492.689
883 0 72.051 12.7271 917 97.819 692.601 491.855
884 0 76.0715 13.1192 998 96.3267 692.245 489.888
885 0 77.1016 12.6586 976 98.9447 691.234 487.665
886 0 82.1031 13.008 1068 96.8699 691.112 487.24
887 0 82.1031 12.935 1062 164.688 692.102 487.246
888 0 86.0667 12.5252 1078 98.7774 691.257 486.726
889 0 90.1539 12.8558 1159 98.8395 691.527 482.562
890 0 89.1505 12.9556 1155 161.228 691.532 482.537
891 0 95.0763 12.2638 1166 99.0986 691.364 480.507
892 1 53.0719 11.1358 591 96.4179 690.702 500.382
893 0 51.0518 11.4002 582 91.6907 691.892 497.296
894 0 57.0853 11.8419 676 96.2988 692.393 500.815
895 0 57.0394 12.3949 707 96.6549 692.395 498.922
896 0 60.02 12.1626 730 96.3329 692.255 497.866
897 0 60.0301 12.1606 730 97.0274 693.186 497.405
898 0 62.0475 12.2003 757 96.5707 692.886 496.815
899 0 63.0391 12.6747 799 95.2804 693.169 495.981
900 0 65.0282 12.2716 798 95.6065 694.147 494.074
901 0 67.0598 13.0779 877 95.0582 694.146 492.235
902 0 69.0094 12.1867 841 97.5398 694.401 492.693
903 0 71.0472 12.541 891 97.2334 692.918 491.853
904 0 72.0287 12.3284 888 97.0034 693.696 490.697
905 0 75.0204 12.4499 934 98.0717 693.712 487.96
906 0 77.0382 12.3186 949 98.764 693.68 487.114
907 0 79.0226 11.7561 929 100.634 693.114 483.849
908 0 83.0168 12.8046 1063 96.6773 691.875 484.215
909 0 85.0932 12.3864 1054 97.6262 693.186 482.109
910 0 87.0643 12.6573 1102 97.0617 692.979 480.823
911 0 90.0745 12.3564 1113 98.1312 693.064 480.126
912 0 93.102 12.9965 1210 95.4587 691.875 481.08
913 0 95.0748 12.4534 1184 96.978 692.086 478.229
914 0 96.1251 12.8999 1240 97.9177 692.048 477.783
915 0 100.086 12.6491 1266 98.3878 692.602 476.651
916 0 102.078 12.5394 1280 99.7227 692.44 473.05
917 0 104.13 10.871 1132 101.154 692.197 472.257
918 0 109.063 11.553 1260 97.6048 691.97 471.521
919 1 59.0147 10.455 617 92.1167 692.091 497.583
920 0 62.057 10.8932 676 91.1376 691.124 496.972
921 0 64.0848 11.4536 734 93.0981 691.74 492.906
922 0 65.0786 10.7101 697 126.638 692.779 493.56
923 0 69.0343 11.6464 804 90.8433 691.695 492.55
924 0 71.0504 12.273 872 91.0585 692.289 491.987
925 0 72.0819 12.1667 877 97.3409 692.005 490.912
926 0 74.1153 12.6155 935 97.1123 692.318 491.99
927 0 76.0289 12.6005 958 97.786 692.188 492.009
928 0 80.0548 13.1785 1055 95.9649 692.015 490.188
929 0 81.0155 13.5036 1094 95.6344 692.945 490.176
930 0 83.0717 12.9045 1072 98.4049 692.279 491.616
931 0 85.0307 13.0894 1113 100.083 691.824 489.703
932 0 88.0442 13.073 1151 100.656 691.367 489.723
933 0 89.0738 12.3269 1098 103.421 690.706 489.026
934 0 92.0423 13.0809 1204 102.164 690.934 487.248
935 0 96.0575 12.8465 1234 101.309 691.424 485.448
936 0 98.0552 12.238 1200 101.823 690.701 484.007
937 0 101.083 12.4254 1256 103.326 690.893 482.986
938 0 104.057 12.6949 1321 103.623 690.589 481.864
939 0 106.131 12.6071 1338 104.762 690.483 481.43
940 0 111.082 12.6214 1402 104.599 690.393 479.594
941 1 64.0697 11.3158 725 105.803 690.361 501.356
942 0 65.054 12.1899 793 103.468 689.956 501.328
943 0 68.0714 12.9864 884 100.544 689.612 499.003
944 0 69.0454 12.7163 878 100.974 689.949 498.968
945 0 67.0631 12.3466 828 97.0833 690.618 500.826
946 0 71.0545 11.6812 830 98.6373 690.182 499.36
947 0 73.0659 12.8788 941 97.0138 690.562 497.545
948 0 75.1044 12.8088 962 96.0925 690.958 495.534
949 0 76.0451 12.6635 963 98.6085 690.644 494.656
950 0 79.0498 12.6376 999 98.7007 690.427 491.762
951 0 82.0452 12.9075 1059 105.277 691.169 493.727
952 0 84.0981 12.6519 1064 108.5 691.147 490.48
953 0 88.0626 13.286 1170 107.389 691.876 490.246
954 0 91.0747 13.0113 1185 109.755 691.241 486.9
955 0 94.0771 12.4898 1175 111.762 691.851 486.792
956 0 93.0781 12.9354 1204 103.522 691.663 483.833
957 0 96.0752 12.969 1246 103.337 691.91 483.087
958 0 101.069 13.0702 1321 102.642 691.849 481.806
959 0 101.1 12.6509 1279 105.106 691.733 478.588
960 0 107.082 14.7738 1582 97.6119 692.45 476.228
961 0 118.143 16.2599 1921 93.3144 691.336 469.254
962 0 121.15 17.7549 2151 87.8285 691.495 465.87
963 0 118.182 16.593 1961 92.4829 691.774 468.172
964 0 126.247 16.6024 2096 90.0205 691.302 461.662
965 0 131.233 16.5812 2176 89.1659 691.285 457.848
966 0 136.265 17.532 2389 85.4517 691.663 453.039
967 0 133.332 16.6952 2226 89.4807 690.958 456.016
968 0 145.247 17.2465 2505 82.9202 691.213 448.012
969 0 149.369 17.44 2605 82.8879 691.191 445.646
970 1 68.1083 10.1016 688 97.6323 690.545 486.578
971 0 70.1053 10.9692 769 94.8661 691.134 482.306
972 0 74.1309 11.2773 836 95.1866 690.884 488.792
973 0 76.0643 11.1222 846 94.6466 691.493 487.966
974 0 78.0427 11.3143 883 92.0725 691.855 488.371
975 0 80.0207 11.472 918 90.707 692.215 485.646
976 0 81.0752 10.9158 885 92.6565 692.779 484.084
977 0 84.0925 11.9036 1001 90.3187 693.117 483.811
978 0 86.0659 11.8049 1016 91.6654 692.565 483.099
979 0 89.0562 11.824 1053 97.8272 692.818 480.634
980 0 92.0539 12.4166 1143 97.126 693.055 481.134
981 0 93.0981 11.4825 1069 98.9635 693.17 476.332
982 0 96.1032 12.1016 1163 87.3568 693.543 476.767
983 0 100.084 13.059 1307 84.6748 692.622 475.245
984 0 101.127 11.7674 1190 89.9151 692.697 475.496
985 0 102.082 12.6467 1291 87.1309 692.627 473.048
986 0 105.156 11.6494 1225 89.6408 691.829 471.631
987 0 110.156 11.9013 1311 88.5713 693.115 470.479
988 0 111.135 11.8054 1312 88.5747 692.432 468.755
989 0 114.094 11.9726 1366 88.8521 692.158 467.845
990 0 118.156 12.1872 1440 87.7854 691.258 466.349
991 0 123.112 12.1271 1493 87.8218 692.244 465.778
992 0 125.124 12.156 1521 89.693 691.951 463.506
993 0 131.14 12.9556 1699 87.5615 691.951 462.134
994 0 134.128 13.0696 1753 88.7319 691.613 461.669
995 0 139.176 12.9046 1796 92.3385 692.081 458.984
996 0 143.166 11.9512 1711 97.4576 691.693 456.083
997 0 147.13 13.0769 1924 98.8909 692.45 454.959
998 0 150.191 12.9369 1943 100.857 692.46 452.394
999 0 152.259 12.505 1904 103.796 692.519 448.59
1000 0 156.271 12.4975 1953 104.625 692.711 447.091
1001 0 158.252 12.2273 1935 107.381 692.422 443.519
1002 0 162.413 13.047 2119 106.122 692.394 443.125
1003 0 162.232 12.5561 2037 108.97 692.655 442.825
1004 0 165.348 12.7005 2100 109.916 692.968 441.669
1005 0 164.265 12.5102 2055 112.229 694.013 440.95
1006 0 167.183 13.5301 2262 109.798 693.227 441.337
1007 0 167.236 13.0654 2185 112.634 693.863 440.905
1008 0 170.262 13.3442 2272 112.85 693.728 437.522
1009 0 169.28 12.7658 2161 114.41 693.56 435.872
1010 0 172.396 12.9759 2237 114.474 693.143 436.049
1011 0 171.349 13.0786 2241 114.14 693.398 438.683
1012 0 175.483 12.6964 2228 114.285 693.189 434.847
1013 0 176.446 13.2392 2336 111.524 693.428 434.138
1014 0 176.443 12.8767 2272 112.488 693.075 434.812
1015 0 178.287 13.512 2409 108.941 693.044 434.474
1016 0 178.497 13.5968 2427 108.431 693.556 432.259
1017 0 179.273 12.9746 2326 109.258 693.427 431.785
1018 0 179.453 12.2985 2207 109.32 694.322 433.175
1019 0 182.404 12.7574 2327 108.08 693.978 433.217
1020 0 183.431 12.2608 2249 108.627 694.111 431.212
1021 0 184.37 12.8546 2370 104.873 693.619 431.912
1022 0 183.362 12.3253 2260 104.713 693.395 430.033
1023 0 184.36 12.1122 2233 104.451 694.301 431.558
1024 0 186.202 12.4488 2318 101.74 694.833 429.136
1025 0 186.357 12.2936 2291 101.416 693.694 427.083
1026 0 187.455 11.9175 2234 101.135 694.004 426.026
1027 0 187.447 13.3371 2500 95.9324 693.589 421.756
1028 0 187.478 14.4977 2718 90.0684 693.225 420.724
1029 0 190.482 15.7443 2999 86.0087 692.822 427.471
1030 0 188.414 14.4098 2715 88.4855 692.798 425.916
1031 0 191.527 15.3503 2940 84.8129 693.003 425.574
1032 0 191.47 15.0781 2887 84.7322 693.03 428.281
1033 0 192.609 14.8539 2861 84.9311 692.674 426.387
