time division length width area intensity CMx CMy
831 0 100.18 13.4657 1349 80.5322 1367.04 411.706
832 0 104.174 13.6311 1420 78.5838 1367.76 413.97
833 0 105.119 13.3658 1405 80.3566 1367.18 411.325
834 0 109.155 13.632 1488 82.7016 1367.33 407.712
835 0 111.166 14.0241 1559 83.4785 1367.34 408.682
836 0 111.166 13.7992 1534 165.051 1368.33 407.342
837 0 117.07 14.2564 1669 84.6393 1367.88 403.247
838 0 117.157 13.2813 1556 89.8772 1367.9 399.778
839 0 125.147 15.2301 1906 82.4806 1366.87 397.498
840 0 124.092 13.5948 1687 86.6479 1367.18 398.681
841 1 138.065 17.8467 2464 73.989 1367.38 385.154
842 0 132.081 13.2646 1752 87.6638 1366.86 393.218
843 0 134.15 12.9855 1742 89.1458 1366.61 391.8
844 0 141.207 14.1069 1992 84.0954 1366.52 388.524
845 0 143.173 13.8015 1976 86.6336 1366.81 386.732
846 0 147.196 13.5465 1994 86.5446 1366.08 385.026
847 0 152.136 13.8034 2100 86.1171 1366.55 385.868
848 0 157.223 13.7894 2168 86.9677 1366.51 382.563
849 0 163.273 14.6748 2396 83.7909 1366.75 381.054
850 0 166.335 14.1161 2348 87.0788 1366.45 376.489
851 0 175.296 14.3985 2524 86.7064 1366.85 373.934
852 0 179.375 14.6732 2632 87.9882 1366.73 371.636
853 0 186.314 14.2823 2661 89.5968 1366.79 367.339
854 0 190.31 14.7707 2811 89.2689 1366.32 365.4
855 0 194.288 14.9418 2903 89.7668 1366.42 360.874
856 0 201.392 14.8864 2998 90.1204 1366.25 360.129
857 0 207.305 15.1371 3138 90.1472 1366.67 358.06
858 0 214.278 14.9992 3214 91.8877 1366.2 353.747
859 0 221.51 14.7217 3261 93.2815 1366.5 351.614
860 0 226.272 15.1189 3421 94.0286 1366.46 351.015
861 1 173.318 13.9108 2411 97.2596 1365.52 371.303
862 0 182.356 14.9597 2728 95.2526 1366.54 369.594
863 0 184.254 13.9644 2573 99.6603 1367.23 364.577
864 0 193.268 14.022 2710 99.5192 1366.68 361.447
865 0 197.215 14.4259 2845 99.6931 1366.1 358.475
866 0 204.281 13.9024 2840 98.7606 1366.78 356.366
867 0 210.169 14.3456 3015 96.0896 1366.77 351.716
868 0 219.251 14.285 3132 94.0581 1366.5 349.31
869 0 226.335 13.9969 3168 96.4785 1366.16 340.824
870 1 53.0963 10.1702 540 87.487 1365.6 427.28
871 0 57.2527 11.2484 644 85.3183 1367.41 427.301
872 0 59.3223 12.0359 714 78.8291 1367.42 430.798
873 0 62.4362 13.1494 821 77.4555 1366.81 430.616
874 0 60.2531 12.3811 746 82.9692 1367.12 432.06
875 0 63.3656 12.0412 763 84.3761 1367.25 432.827
876 0 64.2986 12.3486 794 85.0491 1367.13 431.059
877 0 67.2713 12.8881 867 83.4187 1366.49 427.858
878 0 68.3144 12.5157 855 86.1988 1366.74 427.425
879 0 68.1854 12.3047 839 87.9273 1367.01 426.178
880 0 72.2584 12.4138 897 87.1315 1367.02 423.546
881 0 73.2839 12.2264 896 88.4196 1367.71 423.113
882 0 76.1629 12.9065 983 87.0051 1366.27 418.185
883 0 78.0837 13.0245 1017 87.8909 1366.95 416.732
884 0 77.0847 12.9338 997 143.708 1368.97 416.144
885 1 96.2432 17.7155 1705 69.4739 1366.12 402.77
886 1 45.1204 10.7934 487 86.5585 1365.88 431.273
887 0 45.1204 10.7712 486 151.755 1364.87 431.27
888 0 49.02 11.5259 565 86.9982 1365.82 430.54
889 0 49.0524 11.4164 560 85.5339 1366.39 431.443
890 0 48.0467 11.5513 555 146.213 1367.38 431.258
891 0 51.0414 11.7552 600 85.6867 1366.12 430.277
892 0 54.137 11.3416 614 85.0261 1366.56 427.648
893 0 57.1212 12.6923 725 81.5752 1367.4 425.912
894 0 56.1484 11.7189 658 85.8587 1367.15 425.64
895 0 56.1725 11.7317 659 143.042 1367.16 425.666
896 0 61.0948 13.6345 833 81.078 1366.9 425.863
897 0 64.1123 13.336 855 82.1275 1367.4 424.127
898 0 63.0871 13.2832 838 83.4833 1367.07 423.79
899 0 67.1796 13.1439 883 82.6988 1367.37 422.908
900 0 67.0879 13.0873 878 83.8952 1368.22 422.531
901 0 67.1164 13.4393 902 85.0188 1367.75 421.018
902 0 71.1092 13.9363 991 81.6287 1368.34 422.834
903 0 69.2221 13.2183 915 84.765 1367.43 424.729
904 0 74.0889 14.4826 1073 79.7847 1367.34 419.797
905 0 73.0872 12.5877 920 85.3098 1367.45 420.09
906 0 75.1483 13.5998 1022 83.8297 1367.47 419.163
907 0 77.0821 13.4791 1039 84.0298 1367.07 417.383
908 0 79.1154 13.0063 1029 83.7891 1367.39 418.121
909 0 81.1385 13.2736 1077 82.8282 1368.6 416.051
910 1 45.0376 11.2573 507 81.927 1367.97 432.801
911 0 46.0558 11.3992 525 82.6229 1368.56 432.429
912 0 46.0589 11.8327 545 82.8422 1367.45 431.692
913 0 48.0756 11.9395 574 80.0784 1367.37 430.005
914 0 48.0621 12.8167 616 82.8133 1367.41 431.106
915 0 52.0295 12.589 655 81.629 1367.29 429.623
916 0 50.0319 13.0517 653 82.6692 1367.06 430.56
917 0 54.0184 12.8845 696 82.4468 1367.4 428.677
918 0 53.1143 12.5955 669 85.6203 1366.97 428.94
919 0 54.036 12.9543 700 85.98 1367.75 428.029
920 0 57.0406 13.394 764 84.1806 1366.87 427.658
921 0 59.0424 13.3802 790 83.6468 1367.46 427.651
922 0 59.0424 13.3633 789 148.728 1367.47 427.677
923 0 61.0304 13.6981 836 82.622 1367.51 432.279
924 0 62.0672 13.2437 822 84.4489 1367.29 431.158
925 0 64.1265 13.8009 885 83.887 1366.81 430.789
926 0 66.0916 13.6931 905 84.7072 1367.39 430.326
927 0 68.0803 13.3813 911 87.1317 1367.2 430.768
928 0 70.0686 13.2442 928 87.2037 1366.95 430.227
929 0 71.0853 13.7159 975 85.5467 1367.83 430.173
930 0 74.0787 14.1606 1049 86.142 1366.93 427.726
931 0 77.0306 14.293 1101 86.0754 1366.62 426.684
932 0 79.0629 13.2426 1047 88.3553 1366.19 425.526
933 0 81.1642 13.7992 1120 86.5473 1365.53 424.853
934 0 81.1642 13.8238 1122 158.546 1365.51 424.854
935 0 87.1864 14.36 1252 86.5232 1366.42 420.053
936 0 91.1422 13.6819 1247 87.745 1365.58 419.511
937 0 91.063 13.6609 1244 86.5579 1365.82 418.699
938 1 49.0255 11.2798 553 87.0036 1365.69 437.15
939 0 52.0182 12.957 674 83.7151 1365 436.341
940 0 54.026 13.4935 729 83.0398 1365.33 432.963
941 0 57.0286 12.3622 705 83.4525 1364.84 433.488
942 0 57.0225 12.8896 735 83.3401 1364.6 433.395
943 0 59.0763 12.2384 723 84.2531 1364.51 432.393
944 0 61.0354 12.7795 780 83.8064 1364.58 429.94
945 0 65.0335 12.7627 830 83.0831 1364.89 430.112
946 0 66.0656 13.2747 877 82.3387 1364.63 428.291
947 0 69.0519 13.4392 928 80.6821 1364.69 427.589
948 0 73.0533 13.8255 1010 77.0634 1365.15 426.705
949 0 74.0717 13.6219 1009 78.9772 1365.09 423.382
950 0 76.0911 13.3656 1017 79.4877 1364.79 421.556
951 0 80.1257 13.5662 1087 84.9963 1365.49 421.061
952 0 84.1786 13.3169 1121 85.1963 1365.57 421.944
953 0 85.1032 12.8315 1092 89.7207 1366.27 418.371
954 1 45.0389 11.3013 509 85.1375 1365.68 439.798
955 0 45.0639 11.2951 509 89.0825 1366.18 438.293
956 0 45.0878 11.6883 527 84.1328 1366.08 437.975
957 0 47.0921 12.1464 572 83.1224 1366.32 437.009
958 0 49.0282 10.7897 529 75.8299 1366.5 435.348
959 0 49.0066 11.9576 586 74.4027 1366.46 435.742
960 0 50.0866 11.4602 574 77.0976 1367.12 432.76
961 0 54.0647 11.8562 641 75.9298 1366.04 433.949
962 0 55.0383 12.1188 667 76.021 1366.32 431.702
963 0 57.0188 12.1188 691 76.4009 1366.64 433.032
964 0 60.077 12.5173 752 76.637 1366.17 432.677
965 0 62.1327 12.2963 764 77.8285 1366.42 430.327
966 0 64.0727 12.8604 824 78.7536 1366.79 427.29
967 0 65.0873 12.3219 802 80.4277 1366.05 428.052
968 0 67.0757 12.5828 844 82.9633 1366.33 425.386
969 0 71.0762 12.8876 916 82.3865 1366.42 423.873
970 0 72.1253 12.5337 904 84.6748 1365.95 422.385
971 0 75.0697 12.9346 971 85.7384 1366.4 419.576
972 0 80.0465 13.3048 1065 88.37 1366.52 419.584
973 0 83.148 13.025 1083 89.3296 1366.98 417.511
974 0 86.06 12.9328 1113 89.3854 1367.13 415.851
975 0 87.0481 13.2915 1157 90.1521 1366.79 415.628
976 1 43.1463 10.87 469 81.4883 1367.57 436.198
977 0 45.1251 11.2133 506 86.1344 1367.81 435.208
978 0 47.0398 12.245 576 87.1493 1368.36 435.148
979 0 47.1092 12.0146 566 96.8675 1368.54 434.507
980 0 48.0185 11.6205 558 100.088 1367.88 435.452
981 0 50.1562 12.6006 632 98.2421 1367.96 434.968
982 0 50.0478 12.7478 638 89.815 1368.38 436.497
983 0 52.0519 12.3723 644 81.7283 1367.81 435.008
984 0 52.0713 12.31 641 85.4852 1368.05 433.267
985 0 56.0273 12.7438 714 83.6919 1367.74 432.492
986 0 57.0873 12.1218 692 85.2312 1367.09 431.338
987 0 57.0184 13.2413 755 90.9709 1368.22 429.383
988 0 60.0537 12.9884 780 90.9397 1367.92 427.874
989 0 61.0428 13.2366 808 91.6275 1367.59 426.892
990 0 65.0431 14.0368 913 87.5411 1366.75 426.03
991 0 65.05 12.9593 843 90.9656 1367.82 424.089
992 0 70.0921 13.9245 976 88.7459 1367.66 423.29
993 0 73.0808 13.6287 996 89.0863 1367.76 421.649
994 0 74.0748 13.9589 1034 89.1015 1367.18 420.75
995 0 77.1611 13.1802 1017 89.3088 1367.47 420.767
996 0 77.0873 13.1928 1017 89.6126 1367.21 419.788
997 0 81.0646 12.8293 1040 89.2596 1367.85 420.371
998 0 83.1456 13.4102 1115 88.0744 1367.75 419.238
999 1 42.0227 11.232 472 79.8898 1367.8 441.739
1000 0 43.0365 11.4786 494 81.8279 1367.9 439.257
1001 0 46.0434 12.4665 574 77.9791 1367.58 439.132
1002 0 47.0802 12.5743 592 78.6368 1367.67 438.231
1003 0 47.0414 12.5634 591 89.4518 1367.61 438.418
1004 0 49.0484 13.2114 648 88.3241 1367.97 435.606
1005 0 51.0416 12.9894 663 88.543 1369.09 435.814
1006 0 52.04 12.8363 668 88.6078 1368.34 434.512
1007 0 53.0677 12.9646 688 90.4956 1368.93 428.174
1008 0 56.0221 12.9949 728 89.7802 1368.88 423.984
1009 0 58.0768 13.9126 808 88.1584 1368.56 420.527
1010 0 59.0167 13.8096 815 89.2908 1368.18 422.772
1011 0 60.0685 13.5013 811 90.1554 1368.42 430.018
1012 0 63.0837 13.8388 873 89.6151 1368.18 425.57
1013 0 64.0317 14.2742 914 89.0328 1368.39 429.381
1014 0 67.0268 14.0242 940 91.1723 1368.17 424.887
1015 0 70.1074 13.8787 973 91.9455 1368.05 421.61
1016 0 70.0706 13.4293 941 94.4442 1368.62 416.913
1017 0 76.0903 14.6405 1114 90.6625 1368.48 414.937
1018 0 78.1292 13.9769 1092 93.2445 1369.31 415.412
1019 0 80.1126 13.7432 1101 96.1626 1369.03 417.244
1020 0 83.0755 13.8428 1150 94.4104 1369.52 424.832
1021 0 84.0905 13.6876 1151 95.8401 1369.16 422.268
1022 0 89.0694 14.2585 1270 93.5118 1368.87 420.118
1023 0 91.077 13.7247 1250 95.4264 1369.72 420.386
1024 1 42.0244 13.04 548 92.4672 1370.01 442.159
1025 0 45.0671 13.2913 599 88.9399 1368.85 440.998
1026 0 45.0693 13.5347 610 88.3525 1369.29 440.625
1027 0 49.1021 14.2357 699 96.0901 1368.54 440.708
1028 0 50.0482 13.7068 686 87.0743 1368.51 439.223
1029 0 50.0582 14.643 733 85.6112 1368.02 437.12
1030 0 53.0554 14.532 771 84.1271 1367.87 438.062
1031 0 54.109 14.4523 782 85.2442 1368.02 436.601
1032 0 55.1431 14.8341 818 84.6638 1368.08 435.824
1033 0 55.1888 15.3473 847 85.1877 1367.74 435.43
1034 0 57.1095 14.551 831 86.9916 1367.82 435.395
1035 0 60.0552 14.2702 857 87.294 1367.31 434.912
1036 0 60.1208 13.4396 808 89.4517 1367.68 435.24
1037 0 63.1177 13.7996 871 88.7738 1368.21 433.067
1038 0 63.0899 14.1544 893 89.4233 1367.68 431.146
1039 0 68.1199 14.1809 966 88.5642 1367.62 430.471
1040 0 68.2045 13.7234 936 90.1004 1367.45 430.83
1041 0 72.0507 14.0873 1015 88.7685 1367.69 428.716
1042 0 73.0982 13.6118 995 89.209 1367.43 428.671
1043 0 76.1525 13.2103 1006 89.8668 1367.7 427.421
1044 0 80.241 13.7835 1106 87.6736 1367.78 425.14
1045 1 41.1298 13.4939 555 93.2973 1367.06 442.924
1046 0 43.2735 13.6111 589 91.6604 1366.94 441.384
1047 0 46.2379 14.0361 649 90.8089 1366.87 440.445
1048 0 47.1345 15.1269 713 88.6662 1366.97 439.259
1049 0 51.2985 14.4059 739 89.3464 1367.59 438.697
1050 0 49.2196 13.4499 662 95.9622 1367.27 438.795
1051 0 53.3441 13.7597 734 92.7629 1366.83 439.41
1052 0 51.1873 14.2614 730 95.0644 1367.07 439.675
1053 0 53.3466 13.7029 731 96.3461 1367.37 439.372
1054 0 57.3355 13.4995 774 99.4729 1367.71 438.908
1055 0 58.3462 13.6256 795 101.814 1368.13 437.382
1056 0 59.2904 13.4592 798 103.378 1367.8 436.539
1057 0 63.3991 14.0223 889 100.226 1368.45 435.15
1058 0 65.4839 14.37 941 99.9936 1367.99 434.294
1059 0 66.1734 13.6913 906 104.085 1367.87 432.651
1060 0 69.4032 14.5094 1007 101.695 1367.62 429.859
1061 0 69.3363 13.7734 955 105.702 1367.92 428.168
1062 0 74.4377 14.0117 1043 103.701 1368.26 428.382
1063 0 76.3432 14.4217 1101 102.98 1367.63 427.491
1064 0 80.3569 14.6472 1177 101.845 1368.06 424.58
1065 0 82.2908 14.1571 1165 102.911 1367.88 424.376
1066 1 42.1978 11.4698 484 113.837 1367.98 441.236
1067 0 44.3255 12.7015 563 111.925 1367.82 440.217
1068 0 47.4367 13.0279 618 110.207 1368.14 438.934
1069 0 48.3704 13.6034 658 108.494 1368.11 438.22
1070 0 49.4503 12.8412 635 110.512 1368.27 439.74
1071 0 50.4346 13.2052 666 109.734 1368.65 438.754
1072 0 51.296 13.3734 686 110.625 1368.39 437.515
1073 0 55.4531 13.4889 748 108.791 1368.79 436.017
1074 0 56.2252 13.3214 749 108.184 1368.32 435.056
1075 0 59.2797 13.5122 801 107.272 1368.39 434.401
1076 0 58.2508 13.4934 786 108.851 1367.97 433.606
1077 0 63.1801 13.5169 854 108.446 1368.33 433.412
1078 0 63.1962 13.5609 857 165.68 1368.33 433.42
1079 0 67.1798 13.5308 909 107.867 1367.22 431.165
1080 0 70.1859 13.5497 951 108.007 1368.18 429.967
1081 0 71.2551 13.178 939 109.858 1368.56 428.248
1082 0 72.0954 13.4683 971 109.84 1367.93 426.104
1083 0 77.1449 14.0904 1087 106.717 1368.37 425.514
1084 0 80.1218 13.7915 1105 108.817 1367.7 423.748
1085 0 81.2597 14.2014 1154 108.866 1367.75 422.813
1086 0 83.1252 14.436 1200 109.862 1367.54 420.358
1087 0 84.0771 13.9039 1169 110.627 1367.23 419.867
1088 0 89.2496 14.3418 1280 109.37 1367.69 417.836
1089 0 91.4135 14.1992 1298 124.706 1367.33 416.548
1090 0 94.095 14.666 1380 122.42 1367.87 415.014
1091 0 96.0485 14.8258 1424 122.507 1367.75 415.645
1092 0 100.091 14.6267 1464 122.458 1367.78 413.914
1093 0 104.053 15.5017 1613 120.403 1368.36 412.255
1094 0 108.089 14.5713 1575 122.928 1367.7 408.005
1095 0 113.086 15.9525 1804 118.166 1367.73 408.127
1096 0 116.144 14.8092 1720 121.665 1367.21 405.817
1097 0 122.051 15.2887 1866 119.531 1367.72 403.515
1098 0 125.156 15.269 1911 120.564 1367.63 399.78
1099 0 128.198 14.9534 1917 120.972 1368.6 400.042
1100 0 134.09 15.0795 2022 120.121 1369.28 397.136
1101 0 137.087 14.4142 1976 122.272 1368.56 393.122
1102 1 72.1263 9.84385 710 113.539 1369.77 426.507
1103 0 74.1185 11.7245 869 109.769 1368.93 424.975
1104 0 78.1527 12.322 963 107.757 1368.62 425.768
1105 0 79.1219 12.0573 954 110.335 1367.79 423.28
1106 0 83.1111 12.2126 1015 109.669 1368.05 421.055
1107 0 83.0526 11.9202 990 110.737 1368.28 418.788
1108 0 88.1205 12.8574 1133 107.633 1367.68 417.649
1109 0 89.0773 12.5172 1115 108.598 1368.13 415.55
1110 0 94.0836 12.4995 1176 107.978 1368.02 414.997
1111 0 97.0585 12.6316 1226 108.138 1368.43 410.746
1112 0 100.156 12.7901 1281 107.163 1368.21 410.269
1113 0 101.125 11.9159 1205 110.821 1367.71 407.398
1114 0 107.103 12.614 1351 108.806 1368.21 406.007
1115 0 110.128 12.4582 1372 109.39 1368.62 405.353
1116 1 58.028 8.47867 492 96.6626 1368.49 435.283
1117 0 60.0765 9.5212 572 99.3409 1368.51 433.414
1118 0 61.061 9.76072 596 98.7164 1368.37 433.52
1119 0 63.0767 10.733 677 96.517 1369.21 430.606
1120 0 65.1151 10.1359 660 96.9273 1368.04 429.645
1121 0 68.1363 10.4937 715 94.7902 1368.89 430.288
1122 0 68.2633 10.2105 697 97.2023 1369.23 427.471
1123 0 69.2242 10.271 711 98.3727 1368.34 428.409
1124 0 71.2546 9.68358 690 99.9812 1369.03 427.635
1125 0 71.2545 9.5994 684 128.506 1369.02 427.732
1126 0 75.2469 9.86087 742 100.313 1368.82 424.477
1127 0 78.316 10.6109 831 99.4043 1368.28 424.628
1128 0 75.232 9.3976 707 93.8402 1368.59 425.322
1129 0 77.1388 9.78755 755 97.3947 1369.39 426.347
1130 0 81.1872 9.25023 751 97.7537 1368.64 424.411
1131 1 44.0717 8.8719 391 90.6445 1369.07 441.844
1132 0 44.1459 8.90231 393 94.9313 1370.05 441.196
1133 0 46.1281 9.49529 438 93.2283 1369.17 441.078
1134 0 47.1808 8.64759 408 94.6887 1369.45 437.086
1135 0 46.1378 8.7347 403 95.9553 1368.68 437.913
1136 0 50.193 8.547 429 94.8648 1368.4 435.186
1137 0 53.1597 8.84129 470 93.5809 1368.16 432.843
1138 0 55.1764 8.68125 479 94.2422 1367.84 432.589
1139 0 55.1715 8.70015 480 94.1312 1367.35 429.962
1140 0 56.1489 8.58431 482 95.6556 1368.3 429.734
1141 0 56.1411 7.81958 439 108.765 1369.33 430.18
1142 0 60.129 8.56492 515 96.0932 1367.37 428.798
1143 0 60.0268 8.32962 500 97.606 1366.46 428.742
1144 0 59.0618 7.38209 436 100.466 1365.61 424.498
1145 0 64.0932 8.08199 518 99.1081 1365.87 426.869
1146 0 65.0672 7.36162 479 101.186 1365.86 425.63
1147 0 69.1115 8.58034 593 99.5902 1366.11 426.003
1148 0 71.0809 8.53957 607 99.2175 1365.74 424.666
1149 0 77.1012 8.75473 675 98.7141 1365.5 422.016
1150 0 81.1698 8.32822 676 90.3166 1365.29 418.55
1151 0 82.1631 7.98412 656 93.8049 1365.44 417.716
1152 0 90.1389 9.46317 853 89.8124 1365.45 417.499
1153 1 45.044 9.45742 426 76.7207 1366.18 438.751
1154 0 47.0474 9.52232 448 71.8884 1367.13 438.935
1155 0 49.0168 9.52736 467 70.4347 1367.03 436.979
1156 0 50.1126 9.8179 492 89.0203 1366.57 437.646
1157 0 52.075 9.42871 491 88.332 1366.77 437.47
1158 0 52.075 9.46711 493 125.13 1366.74 437.43
1159 0 54.2082 9.85091 534 91.103 1366.58 433.669
1160 0 59.19 8.44738 500 92.786 1366.27 434.274
1161 0 60.0903 9.65215 580 90.6948 1366.46 433.322
1162 0 60.1533 10.573 636 89.522 1366.58 432.476
1163 1 111.3 11.177 1244 98.3923 1366.52 406.42
1164 0 114.219 12.0821 1380 96.9572 1366.62 403.163
1165 0 119.206 10.9643 1307 97.5287 1366.67 405.154
1166 0 122.252 11.5335 1410 94.9326 1366.64 405.666
1167 0 126.195 11.3237 1429 95.8635 1367.33 401.848
1168 0 129.331 12.0389 1557 95.264 1366.15 394.304
1169 0 132.268 11.4087 1509 97.0239 1366.44 391.327
1170 0 138.477 12.2187 1692 93.3156 1366.05 391.151
1171 0 140.411 10.7399 1508 96.7414 1365.95 386.479
1172 0 147.46 11.3387 1672 95.5736 1366.3 381.757
1173 1 81.2428 10.5856 860 86.7349 1365.71 416.001
1174 0 83.218 9.46911 788 89.2005 1366.07 415.412
1175 0 86.2707 8.73994 754 91.1034 1366.2 412.092
1176 0 87.1979 9.71353 847 89.6789 1366.45 409.112
1177 1 45.0943 9.62428 434 76.1751 1366.3 432.417
1178 0 47.2022 10.2326 483 76.1325 1365.07 432.029
1179 0 43.022 9.99488 430 76.7744 1366.81 434.326
1180 0 45.1592 9.92046 448 76.9487 1366.36 433.748
1181 0 49.0246 10.1786 499 85.6573 1367.15 431.573
1182 0 48.0655 10.4857 504 86.1151 1365.74 430.169
1183 0 51.0317 10.2877 525 85.1448 1365.68 431.941
1184 0 49.0651 10.2924 505 87.297 1366.43 429.24
1185 0 54.083 11.2974 611 84.311 1365.83 431.162
1186 0 53.073 10.5515 560 88.3643 1366.37 429.582
1187 0 56.0976 10.6956 600 86.98 1365.95 429.335
1188 0 54.08 10.8358 586 90.8157 1367.02 429.48
1189 0 59.144 10.8549 642 89.2555 1366.2 427.558
1190 0 59.0859 11.0686 654 90.1957 1366.82 426.786
1191 0 62.0919 11.4024 708 89.1412 1366.8 426.554
1192 0 69.1491 10.9763 759 88.917 1366.54 426.767
1193 0 67.1697 11.1955 752 91.5253 1366.88 424.094
1194 0 68.0947 11.8952 810 91.0963 1366.19 424.057
1195 0 69.1096 11.3588 785 92.679 1365.91 421.899
1196 0 71.1426 12.243 871 92.1527 1366.51 420.966
1197 0 73.257 11.5347 845 91.4485 1366.42 420.512
1198 0 75.2976 12.2447 922 92.6855 1366.22 418.762
1199 0 77.1932 12.0347 929 92.3036 1366.64 419.493
1200 0 80.1639 11.9006 954 96.3742 1367.17 417.061
1201 0 82.2557 11.9019 979 97.7835 1366.59 415.2
1202 0 84.1712 11.2746 949 96.392 1366.58 415.208
1203 0 87.2613 11.9068 1039 95.6487 1365.54 415.77
1204 0 90.2402 11.9127 1075 95.7163 1365.17 412.847
1205 1 44.0839 9.66339 426 86.3263 1366 433.613
1206 0 47.1673 10.6006 500 84.528 1365.45 432.994
1207 0 51.0924 11.352 580 83.6241 1366.27 432.234
1208 0 45.0201 9.90669 446 88.0157 1365.69 433.397
1209 0 49.0343 9.97261 489 87.5808 1365.84 432.503
1210 0 53.0273 10.4852 556 101.383 1365.64 432.782
1211 0 50.0204 10.2958 515 88.0311 1366.45 429.79
1212 0 54.104 10.9234 591 87.0338 1366 430.531
1213 0 55.0819 10.6569 587 88.6082 1366.28 428.499
1214 0 56.0306 10.53 590 89.1017 1365.56 428.341
1215 0 59.0461 11.1438 658 87.3739 1366.27 428
1216 0 60.035 10.3773 623 88.9807 1365.82 425.514
1217 0 62.0591 11.054 686 88.0875 1366.08 423.249
1218 0 63.0372 10.6286 670 89.0731 1366.01 424.31
1219 0 65.0635 11.1276 724 89.395 1365.86 422.649
1220 0 65.0833 10.4174 678 91.5206 1365.59 422.156
1221 0 66.0285 10.4955 693 92.2035 1366.68 418.013
1222 0 66.0259 10.3596 684 133.222 1366.69 417.928
1223 0 74.0645 11.1659 827 90.8549 1366.05 416.383
1224 0 73.0549 11.1834 817 91.8886 1365.78 413.133
1225 0 74.0865 11.0007 815 93.3178 1366.32 413.393
1226 0 81.0895 11.5921 940 91.2957 1366.81 412.402
1227 0 80.1196 11.3081 906 92.3146 1365.62 411.257
1228 0 82.1536 11.1377 915 93.3694 1366.82 410.518
1229 0 84.1207 10.0451 845 97.8533 1366.89 408.437
1230 0 87.1079 10.9749 956 96.4226 1367.42 408.018
1231 0 92.0831 11.1204 1024 96.5801 1366.3 407.2
1232 0 96.094 12.852 1235 93.37 1366.52 403.838
1233 1 49.0245 9.58704 470 95.3702 1366.14 426.847
1234 0 51.0277 10.4257 532 94.1711 1366.21 425.635
1235 0 53.0409 11.0858 588 89 1366.1 421.993
1236 0 54.0847 9.78096 529 94.8147 1366.83 422.658
1237 0 57.179 10.5633 604 91.5629 1367.25 420.056
1238 0 60.0567 10.1238 608 92.7385 1367.1 417.518
1239 0 62.1129 11.2054 696 92.4152 1367.18 417.728
1240 0 63.0572 10.8314 683 92.94 1367.58 416.064
1241 0 64.1367 10.6491 683 94.4041 1366.59 415.07
1242 0 64.0826 10.861 696 95.1739 1366.3 412.721
1243 0 68.0506 10.7567 732 92.9577 1367.9 412.079
1244 0 71.0515 10.795 767 93.9035 1367.24 409.201
1245 0 72.0554 10.7556 775 95.1613 1367.74 410.668
1246 0 77.0746 11.3786 877 93.2668 1367.09 410.094
1247 0 78.129 11.0458 863 96.0869 1366.93 408.676
1248 0 78.0512 10.98 857 98.0035 1367.41 408.678
1249 0 85.1547 11.1327 948 96.0622 1367.29 409.015
1250 0 84.1516 11.2773 949 96.3614 1366.94 406.094
1251 0 88.1869 11.4983 1014 95.286 1367.25 407.83
1252 0 91.1126 11.5462 1052 95.4477 1367.46 405.44
1253 0 94.1098 11.9435 1124 95.9831 1367.41 403.481
1254 0 96.1108 11.8925 1143 96.9895 1367.62 401.815
1255 0 99.2135 12.0649 1197 97.5313 1367.68 401.118
1256 0 102.179 12.3215 1259 96.34 1367.05 401.112
1257 1 55.0662 10.9141 601 97.5724 1369.59 431.033
1258 0 57.0725 11.1087 634 96.7666 1369.24 428.817
1259 0 60.0511 12.0231 722 92.7424 1368.09 428.665
1260 0 61.0789 12.9341 790 90.9266 1368.53 427.343
1261 0 63.1383 12.3538 780 91.5154 1368.02 427.359
1262 0 64.1293 12.6307 810 89.558 1367.93 426.92
1263 0 64.1432 11.755 754 93.6326 1368.18 426.515
1264 0 65.1458 11.0214 718 96.0613 1368.4 426.511
1265 0 68.1373 11.7703 802 93.8828 1367.94 425.082
1266 0 70.1108 11.7386 823 96.3888 1367.66 423.26
1267 0 73.1205 11.5973 848 98.3078 1367.59 422.432
1268 0 75.1888 12.063 907 96.1235 1367.81 421.873
1269 0 78.1188 11.4697 896 97.8214 1367.63 419.365
1270 0 80.1862 10.9121 875 98.2217 1368.21 417.918
1271 0 84.1161 11.5792 974 95.6057 1368.41 416.849
1272 1 44.0687 11.0963 489 96.1881 1368.36 436.652
1273 0 46.1044 11.2788 520 92.6077 1368.67 435.365
1274 0 47.1041 11.0818 522 89.9138 1368.25 434.42
1275 0 48.057 11.9858 576 90.2413 1368.09 432.667
1276 0 45.1505 10.6311 480 97.6417 1367.65 435.479
1277 0 47.1345 11.0959 523 97.4704 1367.73 434.254
1278 0 47.1211 11.2688 531 99.3804 1367.49 434.154
1279 0 50.1147 10.8551 544 100.706 1368.38 433.41
1280 0 50.1147 10.915 547 147.792 1369.37 433.316
1281 0 51.149 11.4763 587 100.658 1367.26 429.944
1282 0 52.13 11.3179 590 101.085 1367.35 430.725
1283 0 54.1201 11.6038 628 99.6688 1367.98 431.293
1284 0 56.1551 11.2902 634 100.166 1367.98 430.364
1285 0 57.128 11.9906 685 99.0029 1367.47 428.305
1286 0 55.0804 10.9476 603 102.051 1368.05 429.371
1287 0 59.1318 11.9733 708 99.6215 1367.98 428.668
1288 0 63.1527 12.0185 759 105.123 1368.21 426.12
1289 0 63.1164 11.9145 752 98.6609 1368.38 428.166
1290 0 66.1066 12.2378 809 98.4586 1368.85 426.831
1291 0 67.0999 11.8629 796 98.6457 1368.69 425.634
1292 0 67.057 12.4223 833 99.2725 1368.44 423.932
1293 0 69.1544 12.3636 855 99.7006 1368.21 423.577
1294 0 73.1234 12.855 940 99.1915 1368.26 421.793
1295 0 72.1152 12.4662 899 98.9878 1367.91 420.715
1296 0 77.1615 13.4782 1040 97.2894 1367.43 419.524
1297 0 79.142 12.4712 987 97.8825 1368.41 418.207
1298 0 81.0736 12.4948 1013 98.2507 1367.8 417.507
1299 0 83.0728 13.3738 1111 97.2529 1367.86 416.261
1300 0 85.0738 13.5529 1153 98.0772 1368.44 414.635
1301 0 89.071 12.9223 1151 99.2772 1367.76 414.564
1302 0 91.0776 13.0877 1192 100.584 1368.13 412.515
1303 0 95.1963 13.8451 1318 97.2064 1367.73 411.159
1304 0 97.1775 13.5319 1315 99.1574 1368.43 408.693
1305 0 100.124 13.8228 1384 98.5166 1368.29 407.322
1306 0 102.115 12.8189 1309 101.855 1368.8 406.973
1307 0 107.138 13.3005 1425 101.618 1368.64 403.688
1308 0 111.162 14.4204 1603 99.7342 1367.71 402.538
1309 0 112.106 13.6924 1535 103.698 1367.52 401.946
1310 1 63.141 12.1632 768 110.598 1368.08 425.129
1311 0 66.11 12.7515 843 110.711 1368.66 424.63
1312 0 69.1922 12.8338 888 109.365 1367.42 424.884
1313 0 70.1516 12.587 883 111.849 1367.67 422.89
1314 0 73.161 12.739 932 110.496 1367.81 422.66
1315 0 76.1227 13.3469 1016 109.497 1368.32 422.087
1316 0 76.1508 13.3551 1017 112.058 1367.34 420.801
1317 0 79.1842 13.1971 1045 112.373 1368.16 419.501
1318 0 81.1133 13.5243 1097 109.571 1367.52 418.569
1319 0 81.2082 13.9272 1131 108.526 1367.78 418.265
1320 0 85.1985 13.6974 1167 107.852 1367.78 417.689
1321 0 86.1202 14.294 1231 87.5126 1368.48 418.588
1322 0 89.1702 14.0966 1257 105.193 1367.75 414.716
1323 0 87.1047 13.0877 1140 108.446 1367.08 414.252
1324 0 89.0921 12.6498 1127 109.45 1367.8 413.059
1325 0 93.0952 12.7611 1188 108.526 1367.67 414.063
1326 0 94.0681 12.3209 1159 111.822 1367.69 411.13
1327 0 100.089 12.9884 1300 109.227 1369.71 408.598
1328 0 103.125 12.4412 1283 110.485 1368.7 412.773
1329 0 107.103 12.502 1339 109.76 1368 410.217
1330 1 59.1038 11.5221 681 111.078 1368.06 428.429
1331 0 63.0698 12.8429 810 105.209 1365.25 426.257
1332 0 64.1374 12.5824 807 107.004 1367.28 426.7
1333 0 65.1519 12.3864 807 113.621 1366.79 425.627
1334 0 69.138 12.0628 834 112.417 1366.94 425.107
1335 0 70.1328 12.2767 861 112.099 1366.64 424.275
1336 0 72.0973 13.1212 946 109.636 1367.35 423.071
1337 0 71.1125 12.6138 897 112.243 1367.07 422.836
1338 0 75.193 12.4613 937 111.921 1366.77 422.429
1339 0 76.1751 12.5369 955 113.401 1365.92 420.775
1340 0 80.0932 12.7726 1023 112.518 1367.26 420.063
1341 0 82.0505 12.407 1018 115.122 1367.53 417.784
1342 0 84.0889 12.9863 1092 113.476 1366.72 417.391
1343 0 86.158 12.6744 1092 115.623 1366.78 415.038
1344 0 88.0781 12.9771 1143 115.056 1366.87 415.778
1345 0 92.0956 12.3133 1134 116.498 1366.98 414.229
1346 0 94.0999 12.9756 1221 114.359 1366.77 411.551
1347 0 95.1128 12.3222 1172 117.224 1365.98 410.699
1348 0 98.102 12.7214 1248 115.752 1366.73 414.764
1349 0 103.157 13.3001 1372 112.892 1366.48 408.593
1350 0 106.137 13.7087 1455 111.212 1365.76 406.322
1351 1 57.0418 11.8334 675 110.092 1367.37 430.729
1352 0 59.1074 11.8428 700 110.204 1365.08 429.631
1353 0 61.0522 13.0544 797 97.9711 1367.09 430.533
1354 0 62.2282 13.113 816 93.5564 1366.25 434.551
1355 0 62.1641 12.8852 801 95.5693 1367.14 436.498
1356 0 63.1284 12.3241 778 98.2224 1367.01 431.041
1357 0 65.086 12.6295 822 100.555 1366.93 428.911
1358 0 68.1478 13.0598 890 98.4629 1367.8 428.74
1359 0 68.1134 12.2736 836 101.513 1367.42 427.642
1360 0 68.1398 12.2249 833 102.639 1366.68 425.876
1361 0 73.121 13.0332 953 100.183 1366.6 424.896
1362 0 75.1485 13.1872 991 98.4006 1367.27 424.644
1363 0 78.0969 13.4448 1050 97.3629 1367.27 423.565
1364 0 79.176 12.9964 1029 98.2128 1366.66 422.165
1365 0 83.2099 12.7028 1057 99.2337 1367.15 420.276
1366 0 84.1451 13.1915 1110 97.2045 1366.88 418.622
1367 0 85.174 13.2435 1128 98.5869 1366.84 416.105
1368 0 87.2285 12.7137 1109 99.9017 1366.15 415.81
1369 0 92.1767 12.9642 1195 98.6218 1366.51 414.578
1370 0 94.2074 12.8015 1206 99.7371 1365.94 414.295
1371 0 99.1746 13.5922 1348 97.3309 1366.22 417.243
1372 1 58.1107 12.0804 702 98.6809 1367.09 435.011
1373 0 57.1452 11.637 665 101.174 1367.03 431.402
1374 0 58.0985 12.1518 706 99.6714 1366.79 430.891
1375 0 59.0942 11.947 706 96.9943 1366.63 427.778
1376 0 63.1282 12.5301 791 97.0341 1365.99 426.384
1377 0 62.0706 12.2763 762 88.294 1365.7 428.436
1378 0 60.0381 11.8425 711 92.9775 1365.64 429.203
1379 0 62.0473 12.4099 770 90.839 1366.38 429.425
1380 0 61.02 12.1272 740 96.0635 1365.81 432.911
1381 0 62.0481 12.1841 756 98.131 1365.99 434.177
1382 0 64.0665 11.9407 765 99.1255 1364.63 435.608
1383 0 66.1043 12.3139 814 95.812 1364.75 433.7
1384 0 69.0583 12.7573 881 92.462 1365.4 434.447
1385 0 71.0586 12.5389 891 91.5432 1365.48 431.994
1386 0 72.0537 12.4629 898 91.1336 1364.93 432.043
1387 0 74.0416 11.9257 883 91.5243 1364.37 432.02
1388 0 75.1249 11.8336 889 89.0394 1365.62 432.001
1389 0 79.2014 12.525 992 86.4194 1365.08 431.881
1390 0 80.2649 11.9106 956 88.8787 1365.13 430.768
1391 0 82.1832 11.8029 970 90.4227 1365.22 429.252
1392 0 85.179 11.9865 1021 92.5318 1366.2 426.778
1393 0 86.2681 11.7309 1012 94.7184 1366.1 420.747
1394 0 90.1864 12.2302 1103 95.4007 1365.94 416.49
1395 0 93.1409 12.3469 1150 96.1948 1365.69 415.922
1396 0 96.1785 12.7471 1226 96.2692 1365.21 414.359
1397 1 52.0833 11.0976 578 100.436 1366.04 432.971
1398 0 54.0833 11.7411 635 99.652 1365.51 432.383
1399 0 54.0361 12.4732 674 99.5994 1365.81 430.331
1400 0 56.0355 11.5641 648 95.9167 1365.41 426.96
1401 0 59.0552 13.1233 775 94.4877 1366.15 431.027
1402 0 56.0855 11.6608 654 98.0933 1365.76 433.04
1403 0 57.0804 11.5626 660 99.0833 1365.92 433.318
1404 0 59.0556 12.3104 727 98.2765 1365.76 430.121
1405 0 61.108 11.897 727 98.3673 1366.08 430.182
1406 0 63.1133 12.1369 766 99.1854 1365.76 428.202
1407 0 65.0715 12.5247 815 100.128 1365.53 427.655
1408 0 67.1291 12.5728 844 101.789 1365.17 426.037
1409 0 67.0281 12.2933 824 103.5 1365.54 426.33
1410 0 71.1503 12.7477 907 104.056 1365.5 424.989
1411 0 73.1777 13.0777 957 103.633 1365.15 424.075
1412 0 73.1604 12.9578 948 106.915 1366.25 422.752
1413 0 77.1786 12.957 1000 108.389 1365.67 422.182
1414 0 79.1708 13.3004 1053 108.754 1365.96 421.191
1415 0 81.1286 13.7066 1112 107.903 1366.86 419.552
1416 0 85.1263 13.6973 1166 108.193 1365.94 416.822
1417 0 87.1384 13.7942 1202 108.986 1366.48 417.678
1418 0 90.1387 14.0117 1263 109.154 1366.1 414.222
1419 0 92.0893 13.8561 1276 110.395 1366.61 413.12
1420 0 95.1223 14.5497 1384 108.818 1366.36 411.931
1421 0 96.2613 13.4322 1293 112.032 1365.77 411.572
1422 0 97.1714 12.9565 1259 113.786 1365.62 411.793
1423 0 100.163 13.3782 1340 112.876 1365.66 410.172
1424 0 102.215 13.3249 1362 113.073 1366.2 408.935
1425 0 105.117 13.3756 1406 113.078 1365.84 406.368
1426 0 107.197 13.0601 1400 112.837 1366.26 405.899
1427 0 109.184 13.5185 1476 112.346 1366.06 404.95
1428 0 113.124 13.967 1580 111.427 1365.92 402.367
1429 0 116.214 13.7505 1598 111.25 1365.2 404.32
1430 0 119.184 13.5673 1617 112.312 1365.97 403.4
1431 0 122.121 13.1509 1606 112.293 1366.33 401.672
1432 0 128.158 13.4287 1721 109.674 1365.32 398.955
1433 0 130.158 13.8908 1808 108.731 1366.22 396.092
1434 1 70.1601 12.1009 849 109.515 1365.72 425.021
1435 0 72.1843 12.7175 918 109.936 1365.44 422.735
1436 0 74.1463 12.9069 957 111.38 1365.66 420.24
1437 0 76.044 13.8341 1052 105.08 1365.89 423.22
1438 0 77.0622 13.3009 1025 108.78 1366.31 423.878
1439 0 81.0684 13.7538 1115 107.044 1366.46 422.353
1440 0 80.0821 13.4362 1076 109.925 1366.14 421.744
1441 0 83.058 13.7494 1142 109.581 1365.83 419.291
1442 0 84.0859 13.1651 1107 111.913 1366.49 417.379
1443 0 86.1021 12.7058 1094 113.734 1366.85 416.62
1444 0 89.2034 14.1026 1258 109.859 1366.4 414.601
1445 0 91.0467 13.3997 1220 112.496 1365.57 412.596
1446 0 95.0879 13.5664 1290 111.519 1365.67 410.274
1447 0 95.1354 13.3073 1266 113.276 1366.5 409.22
1448 0 99.2137 13.7683 1366 111.159 1366.03 406.821
1449 0 103.099 14.0059 1444 109.605 1366.51 406.94
1450 0 106.105 13.4772 1430 111.941 1366.29 406.737
1451 0 107.134 13.1891 1413 114.293 1365.57 403.197
1452 0 113.139 13.3818 1514 113.001 1366.67 402.48
1453 0 114.206 13.7646 1572 112.087 1366.44 401.888
1454 0 119.162 13.4943 1608 112.94 1366.48 399.355
1455 0 122.214 13.599 1662 113.741 1365.75 397.995
1456 0 126.256 13.5123 1706 113.273 1365.79 396.402
1457 0 129.101 13.5475 1749 113.459 1365.96 396.958
1458 0 132.282 13.5392 1791 113.491 1366.28 394.721
1459 1 67.2171 11.6488 783 114.978 1366.17 424.092
1460 0 72.1044 11.9688 863 113.197 1366.13 422.991
1461 0 73.1014 13.1188 959 112.163 1366.52 421
1462 0 73.067 12.7691 933 106.95 1366.23 424.429
1463 0 74.0519 12.2617 908 110.456 1365.51 423.732
1464 0 76.0653 13.002 989 110.26 1365.55 421.823
1465 0 78.1564 12.347 965 111.918 1366.15 420.31
1466 0 82.1341 13.0275 1070 112.051 1365.34 417.832
1467 0 84.2321 12.9286 1089 114.266 1365.49 418.323
1468 0 86.1981 13.1557 1134 116.437 1365.34 416.049
1469 0 89.1747 13.9277 1242 113.268 1366.1 417.837
1470 0 90.1857 13.6607 1232 117.19 1366.49 414.236
1471 0 93.1115 13.1992 1229 119.155 1365.43 414.058
1472 0 95.2609 14.2976 1362 117.837 1366.69 411.529
1473 0 99.1677 14.2083 1409 119.524 1365.79 409.704
1474 0 101.231 14.4323 1461 120.742 1366.94 408.894
1475 0 106.183 14.8423 1576 119.431 1366.19 408.049
1476 0 110.235 15.0134 1655 118.709 1366.07 407.095
1477 0 111.212 14.6927 1634 121.338 1365.61 407.791
1478 0 115.179 14.7769 1702 121.029 1366.13 406.68
1479 0 120.15 14.64 1759 121.331 1365.99 407.845
1480 0 122.235 14.4558 1767 124.402 1366.37 404.679
1481 0 125.253 14.7542 1848 124.408 1366.36 403.619
1482 0 129.204 14.7441 1905 124.888 1366.63 402.843
1483 0 132.214 14.3707 1900 128.97 1365.99 400.454
1484 0 135.252 14.8981 2015 127.065 1366.76 398.263
1485 0 138.287 14.5133 2007 129.695 1365.75 396.227
1486 0 144.261 15.0768 2175 127.568 1365.73 395.762
1487 0 148.276 15.08 2236 128.54 1365.49 393.617
1488 1 65.1901 12.1184 790 124.658 1364.71 434.781
1489 0 67.2579 12.8015 861 122.863 1365.25 435.256
1490 0 69.2188 13.1467 910 122.013 1365.39 433.664
1491 0 70.3113 12.7149 894 123.553 1365.07 433.107
1492 0 72.1902 13.3536 964 121.842 1365.36 431.98
1493 0 76.2188 13.5268 1031 119.43 1365.63 430.714
1494 0 77.1996 13.8084 1066 118.705 1365.09 429.073
1495 0 79.2472 13.3885 1061 119.865 1365.51 426.864
1496 0 81.1263 13.5345 1098 117.847 1365.59 425.813
1497 0 83.1893 13.5715 1129 117.953 1365.77 425.6
1498 0 86.2203 13.9874 1206 116.471 1365.32 423.348
1499 0 88.232 13.7025 1209 117.768 1366.17 422.221
1500 0 88.232 13.6912 1208 167.637 1366.16 422.273
1501 0 93.282 13.8076 1288 117.062 1366.54 418.109
1502 0 96.1986 14.3037 1376 114.483 1366.52 417.758
1503 0 98.3054 13.9056 1367 116.972 1365.82 415.522
1504 0 102.301 14.7799 1512 113.287 1366.1 414.826
1505 0 105.281 13.9721 1471 115.842 1365.53 412.101
1506 0 107.188 14.302 1533 114.597 1365.98 411.133
1507 0 110.167 14.6142 1610 113.783 1365.37 410.807
1508 0 112.271 14.9371 1677 113.534 1365.51 409.984
1509 0 115.366 14.7011 1696 114.839 1366.02 407.784
1510 0 117.208 14.8966 1746 114.237 1366.55 406.89
1511 0 120.39 15.4498 1860 111.896 1366.08 405.453
1512 0 122.229 14.7019 1797 115.029 1366.05 404.089
1513 0 126.194 14.9769 1890 113.601 1365.91 401.904
1514 0 130.124 15.1318 1969 112.102 1366.11 399.701
1515 0 133.198 15.1053 2012 112.148 1366.4 398.608
1516 0 138.196 14.682 2029 113.664 1365.51 396.975
1517 0 141.157 15.4934 2187 112.065 1365.63 394.032
1518 0 146.199 15.6841 2293 111.135 1365.36 391.529
1519 0 150.187 15.6738 2354 111.415 1365.49 387.833
1520 1 83.1886 11.7925 981 112.406 1365.45 423.019
1521 0 85.1975 12.7938 1090 111.813 1365.46 420.767
1522 0 89.112 13.253 1181 111.347 1365.66 418.963
1523 0 90.1615 13.4426 1212 111.071 1365.88 419.224
1524 0 93.1842 13.2104 1231 111.831 1365.5 415.574
1525 0 96.1802 13.1316 1263 111.194 1366.4 414.487
1526 0 99.1337 13.4061 1329 111.541 1366.34 413.897
1527 0 102.158 13.8609 1416 109.237 1366.79 415.089
1528 0 103.171 13.4146 1384 112.34 1366.79 412.431
1529 0 108.208 14.1672 1533 109.673 1367 411.909
1530 0 109.178 13.913 1519 109.879 1366.57 410.704
1531 0 112.18 13.5585 1521 111.466 1366.35 408.103
1532 0 115.206 13.7579 1585 111.469 1367.51 406.274
1533 0 119.237 14.1148 1683 109.825 1367.24 404.539
1534 0 123.338 13.7995 1702 110.21 1366.99 403.929
1535 0 127.26 14.16 1802 110.604 1366.62 400.081
1536 0 129.206 14.1866 1833 111.187 1367.63 397.329
1537 0 134.23 14.2367 1911 111.481 1367.17 394.603
1538 0 137.336 13.7473 1888 114.753 1367.3 390.953
1539 0 142.249 14.0598 2000 113.646 1367.37 388.794
1540 0 147.28 14.3128 2108 113.953 1367.23 386.315
1541 0 151.313 14.209 2150 114.665 1366.7 385.592
1542 0 155.314 14.1648 2200 116.285 1367.01 382.469
1543 0 158.365 14.5992 2312 115.259 1366.9 381.374
1544 0 163.373 14.0414 2294 118.043 1367.07 379.319
1545 0 167.236 14.1178 2361 118.878 1366.67 378.066
1546 0 173.278 14.2545 2470 117.288 1366.23 376.975
1547 0 177.287 14.6204 2592 116.245 1366.93 374.047
1548 0 181.232 14.3959 2609 118.212 1366.68 370.689
1549 0 187.222 14.5549 2725 117.505 1366.65 367.111
1550 0 192.272 14.3286 2755 118.867 1366.27 363.226
1551 0 201.325 14.9261 3005 115.781 1366.52 361.077
1552 1 47.0556 9.05312 426 90.9977 1365.42 444.481
1553 0 48.0724 10.1306 487 89.0678 1365.33 443.992
1554 0 49.056 10.009 491 85.8106 1365.09 444.218
1555 0 46.2322 9.71184 449 85.9577 1365.55 444.198
1556 0 49.2492 9.96971 491 85.4053 1365.68 444.159
1557 0 49.1861 8.86428 436 89.1766 1365.92 445.234
1558 0 49.2347 9.99295 492 88.7114 1365.97 444.055
1559 0 51.3015 9.57088 491 90.7413 1366.38 444.018
1560 0 53.2487 9.07064 483 93.5135 1366.66 443.484
1561 0 52.3455 9.07433 475 95.3347 1365.8 443.274
1562 0 55.2943 10.6159 587 92.8109 1366.67 441.141
1563 0 56.2351 9.69146 545 96.3743 1366.47 440.807
1564 0 56.3199 9.05542 510 98.7588 1366.99 440.786
1565 0 60.2872 10.5329 635 94.3937 1365.86 438.967
1566 0 59.2724 9.02613 535 98.8692 1366.11 439.26
1567 0 60.2949 8.5911 518 99.6332 1366.62 439.448
1568 0 63.2872 9.5596 605 98.2496 1366.69 438.59
1569 0 65.2137 9.56853 624 100.269 1366.44 435.833
1570 0 65.2149 9.99772 652 99.4095 1366.63 435.894
1571 0 67.2829 10.1512 683 99.0878 1365.91 436.914
1572 0 66.2494 9.53971 632 99.2642 1366.45 436.995
1573 0 72.1863 9.72484 702 97.6695 1366.75 433.953
1574 1 136.527 10.0493 1372 101.501 1365.86 402.265
1575 0 141.531 10.2804 1455 99.7595 1365.7 400.576
1576 1 81.3724 9.094 740 95.2432 1365.8 423.904
1577 0 91.3437 10.5098 960 85.4156 1366.52 422.189
1578 0 91.3437 10.4879 958 164.751 1368.51 422.327
1579 1 55.2658 11.4899 635 87.589 1365.52 436.731
1580 0 55.0952 11.6344 641 76.8596 1365.05 436.841
1581 0 52.099 10.7104 558 83.6774 1364.85 437.814
1582 0 53.1098 10.6383 565 84.8584 1364.77 437.016
1583 0 55.1567 10.7874 595 85.5126 1364.55 434.97
1584 0 57.1653 11.1256 636 84.3805 1365.03 436.23
1585 0 59.1029 11.3869 673 84.7578 1365.14 434.493
1586 0 61.1208 10.7656 658 84.7888 1366.27 434.406
1587 0 61.2401 11.2998 692 85.0636 1365.97 433.764
1588 0 62.1139 11.173 694 85.5086 1365.1 432.539
1589 0 64.1557 11.8462 760 83.8513 1365.6 431.568
1590 0 68.0846 11.3976 776 85.4111 1365.37 431.119
1591 0 68.1411 11.8137 805 84.3826 1365.56 430.44
1592 0 70.1905 11.6825 820 85.45 1365.21 430.062
1593 0 72.1211 11.7441 847 85.4215 1366.14 428.24
1594 0 74.0885 11.9047 882 84.7052 1365.93 427.384
1595 0 77.1551 12.7665 985 83.1655 1366.26 426.193
1596 0 77.2054 12.2401 945 85.9862 1365.67 425.145
1597 0 80.1606 12.3128 987 86.7112 1365.51 423.487
1598 0 83.2064 12.6433 1052 85.1521 1366.09 421.428
1599 0 84.1493 12.2045 1027 87.1548 1366.08 423.201
1600 0 86.1681 12.522 1079 86.937 1365.61 420.835
1601 0 89.2168 12.5313 1118 87.8792 1365.31 418.552
1602 0 95.1513 13.3682 1272 85.8577 1365.32 415.361
1603 0 96.125 13.0871 1258 87.3704 1365 416.014
1604 0 99.1266 12.711 1260 89.1167 1364.72 414.86
1605 0 102.157 13.3912 1368 86.5058 1365.03 412.226
1606 0 102.135 12.8946 1317 87.7547 1365.09 406.895
1607 0 104.082 12.3461 1285 86.1634 1365.25 407.419
1608 1 62.045 10.299 639 82.9171 1365.46 423.734
1609 0 61.1755 10.3473 633 82.9163 1365.75 422.58
1610 0 65.1873 10.9377 713 79.3408 1365.71 424.275
1611 0 65.033 10.6715 694 81.2104 1366.16 421.771
1612 0 69.0334 11.3279 782 78.5486 1365.28 420.363
1613 0 71.0614 10.512 747 80.7041 1365.53 417.222
1614 0 73.0456 10.8836 795 78.9836 1364.86 417.668
1615 0 73.0388 10.3917 759 81.9328 1365.94 414.026
1616 0 75.1144 10.9966 826 80.684 1366.94 415.45
1617 0 76.0442 10.678 812 82.5172 1366.2 413.437
1618 0 79.088 10.6843 845 88.7799 1365.39 414.444
1619 0 81.0684 11.2004 908 83.3337 1365.99 411.041
1620 0 83.1108 11.611 965 83.0902 1364.95 409.074
1621 0 82.1577 10.9545 900 86.5767 1365.22 407.53
1622 0 86.1787 12.7062 1095 82.0338 1365.54 408.784
1623 0 90.1289 11.8386 1067 85.283 1365.41 405.49
1624 0 93.1796 11.773 1097 85.5023 1366.47 404.531
1625 0 95.1821 11.9245 1135 86.4097 1365.41 403.51
1626 0 96.1351 11.2342 1080 89.45 1365.71 401.458
1627 0 101.21 11.985 1213 87.4872 1365.33 400.969
1628 0 106.312 13.3382 1418 94.3025 1365.56 405.843
1629 1 60.188 10.0352 604 91.601 1365.17 431.836
1630 0 61.0304 10.5849 646 85.452 1366.71 432.093
1631 0 60.0231 10.7125 643 149.711 1367.7 432.103
1632 0 62.1905 11.2397 699 85.2632 1366.64 429.585
1633 0 64.1675 12.1713 781 80.822 1366.21 429.572
1634 0 66.0759 12.3494 816 79.0159 1365.26 428.911
1635 0 68.1664 11.4866 783 79.4559 1364.48 428.861
1636 0 65.2028 11.4719 748 88.627 1365.86 428.727
1637 0 67.2265 12.2273 822 87.3917 1365.19 427.983
1638 0 69.2397 11.7707 815 87.8196 1364.21 427.555
1639 0 69.2281 11.6571 807 90.3891 1364.95 425.073
1640 0 71.2128 12.0063 855 89.3614 1365.01 424.06
1641 0 74.2694 12.4681 926 88.6404 1364.85 422.84
1642 0 77.2745 12.475 964 89.3734 1365.15 421.935
1643 0 78.2122 12.1081 947 91.4995 1366.08 419.85
1644 0 80.2614 12.5216 1005 90.7114 1365.35 420.945
1645 0 82.2038 12.469 1025 91.6537 1365.94 418.01
1646 0 83.1711 13.4542 1119 90.3029 1366.02 417.119
1647 0 87.2048 13.1185 1144 90.9738 1365.86 415.413
1648 0 90.1728 13.2967 1199 90.4721 1366.17 414.838
1649 0 93.1185 13.1982 1229 90.6599 1365.58 411.535
1650 0 95.1762 13.3121 1267 90.8745 1365.94 409.503
1651 0 98.2772 13.1668 1294 91.5201 1366.18 407.478
1652 0 101.175 13.5112 1367 91.5055 1366.48 406.552
1653 0 102.198 13.963 1427 91.6531 1366.35 406.083
1654 0 106.175 13.9393 1480 91.602 1366.67 403.577
1655 0 109.215 14.0274 1532 91.7213 1366.54 402.07
1656 0 113.235 14.1035 1597 92.3626 1366.03 402.602
1657 0 115.178 13.8569 1596 92.1767 1366.04 397.946
1658 0 118.243 13.523 1599 93.1945 1366.13 397.954
1659 0 120.152 13.1916 1585 94.0315 1366.7 394.22
1660 0 122.107 13.8321 1689 91.2581 1365.67 390.259
1661 0 123.087 13.7463 1692 92.7139 1366.66 389.079
1662 0 128.114 13.4489 1723 93.7226 1366.09 389.894
1663 0 130.178 13.374 1741 94.9391 1366.11 386.026
1664 0 136.134 13.854 1886 93.9401 1365.59 383.284
1665 0 139.112 13.6652 1901 94.6902 1366.42 382.407
1666 0 145.138 13.3735 1941 95.8223 1365.94 380.092
1667 1 74.1177 11.2659 835 85.0575 1365.88 418.455
1668 0 75.0723 11.762 883 82.7395 1365.68 415.427
1669 0 77.0903 11.7654 907 82.4465 1365.4 413.748
1670 0 84.0214 12.0446 1012 85.8241 1363.64 420.826
1671 0 85.1443 12.1911 1038 85.8786 1364.43 421.171
1672 0 90.0902 11.7105 1055 86.0806 1364.71 422.337
1673 0 90.1082 12.5849 1134 84.8157 1365.18 419.165
1674 0 93.1296 12.037 1121 85.8582 1364.56 420.588
1675 0 95.1812 12.5025 1190 86.0992 1364.8 416.174
1676 0 100.054 12.6132 1262 86.6743 1364.63 414.935
1677 0 102.111 12.7508 1302 87.3618 1364.64 416.655
1678 0 105.075 13.0288 1369 89.3382 1364.76 413.277
1679 1 56.1197 11.9744 672 91.4524 1364.9 437.682
1680 0 58.0768 12.9139 750 88.504 1365.45 432.823
1681 0 59.1132 12.4845 738 84.1125 1364.64 433.783
1682 0 55.1111 11.7218 646 89.1084 1365.73 434.316
1683 0 58.0868 11.3451 659 90.5296 1364.99 433.542
1684 0 59.0814 11.1372 658 92.7766 1364.76 433.19
1685 0 61.1807 11.9809 733 87.075 1363.7 433.372
1686 0 62.0827 11.7746 731 87.2298 1364.96 432.425
1687 0 63.1375 11.4512 723 89.1784 1365.43 430.631
1688 0 65.1215 11.133 725 90.3614 1364.66 431.472
1689 0 68.0677 12.2084 831 88.367 1365.34 429.706
1690 0 69.1023 11.8809 821 90.3386 1365.03 431.675
1691 0 72.1712 12.124 875 89.9406 1365.51 430.939
1692 0 73.0892 11.9169 871 90.4466 1365.8 426.574
1693 0 73.101 11.7098 856 92.9206 1365.7 426.988
1694 0 76.1047 12.4171 945 91.7323 1365.14 426.494
1695 0 77.1461 12.4439 960 91.526 1365.5 424.984
1696 0 81.1559 12.9257 1049 89.5643 1364.71 425.811
1697 0 84.1514 12.5607 1057 89.8647 1365.61 422.673
1698 0 87.113 12.4551 1085 92.0737 1365.04 422.666
1699 0 88.1226 11.9493 1053 93.5005 1365.12 422.99
1700 0 91.2178 12.3989 1131 93.0416 1365.72 421.711
1701 0 94.1787 12.763 1202 93.0433 1366.39 415.208
1702 0 98.2025 12.8408 1261 93.7454 1365.82 413.052
1703 0 99.1663 12.9177 1281 95.7385 1365.54 411.931
1704 1 59.182 10.8986 645 100.332 1366.1 428.04
1705 0 55.0602 11.2241 618 98.0663 1366.64 423.408
1706 0 60.0852 11.6668 701 98.3324 1365.9 427.586
1707 0 62.053 11.2001 695 90.5583 1366.77 433.147
1708 0 66.0641 12.3819 818 87.4792 1366.58 432.829
1709 0 67.0356 12.5157 839 88.64 1366.99 431.931
1710 0 68.0258 12.6423 860 90.7326 1366.66 429.636
1711 0 71.0618 12.7776 908 89.9912 1366.66 428.487
1712 0 71.0618 12.7917 909 155.628 1366.65 428.626
1713 0 75.1562 12.6936 954 93.6436 1366.72 426.687
1714 0 77.0501 13.0175 1003 94.0837 1367.39 425.623
1715 0 80.0496 13.4167 1074 94.0242 1366.72 423.491
1716 0 82.0867 13.3274 1094 93.8857 1366.86 423.185
1717 0 86.0482 13.69 1178 93.955 1366.6 421.846
1718 0 88.0995 12.3837 1091 95.56 1365.95 421.653
1719 0 89.1231 11.6244 1036 97.2346 1365.27 421.407
1720 0 92.0766 12.5656 1157 95.5428 1365.73 419.106
1721 1 54.0358 12.0661 652 97.8328 1365.28 438.5
1722 0 58.0175 12.5824 730 98.937 1365 436.553
1723 0 58.0251 12.7014 737 94.8236 1364.72 436.176
1724 0 61.0473 12.908 788 95.0241 1365.13 432.322
1725 0 63.1615 13.4576 850 93.4706 1364.55 431.72
1726 0 65.1302 12.8205 835 95.309 1364.97 430.751
1727 0 65.0973 13.6718 890 93.6708 1364.61 430.047
1728 0 67.0815 13.342 895 95.6313 1364.65 427.866
1729 0 70.0525 13.8039 967 90.88 1365.37 429.686
1730 0 71.0663 13.2974 945 93.1058 1364.94 426.705
1731 0 73.0648 13.2759 970 92.166 1364.85 427.67
1732 0 74.045 13.1272 972 92.3508 1364.62 427.338
1733 0 75.0474 12.6853 952 93.6607 1365.52 427.045
1734 0 78.0937 13.3814 1045 93.0718 1365.74 423.987
1735 0 80.0452 13.1176 1050 93.6438 1365.15 424.538
1736 0 83.0475 12.5952 1046 97.6816 1365.31 419.557
1737 0 85.0896 13.1156 1116 97.6308 1364.91 419.298
1738 0 89.0997 13.4344 1197 97.0518 1365.48 418.777
1739 0 91.0663 13.7482 1252 97.0375 1365.64 417.113
1740 0 92.0431 13.0048 1197 96.6617 1366.6 416.676
1741 0 96.1509 13.4684 1295 97.5097 1366.15 414.267
1742 0 97.0844 13.4213 1303 99.5457 1366.54 414.174
1743 0 102.136 13.482 1377 97.0581 1366.12 414.492
1744 0 104.157 13.5084 1407 97.6013 1366.03 412.225
1745 0 107.126 13.022 1395 99.5928 1365.01 409.732
1746 0 110.107 13.7321 1512 98.0403 1365.46 406.706
1747 0 114.103 13.8296 1578 98.9125 1365.13 404.061
1748 0 117.153 13.7513 1611 98.8684 1365.15 404.228
1749 0 121.185 13.9126 1686 99.3037 1365.33 401.064
1750 0 121.175 12.6264 1530 93.8013 1365.35 394.639
1751 1 72.0698 11.9051 858 90.0793 1365.48 420.654
1752 0 72.107 11.8158 852 91.5915 1365.51 414.846
1753 0 78.1222 12.7365 995 94.3668 1365.81 415.59
1754 0 80.0885 13.1979 1057 92.8789 1365.39 415.511
1755 0 82.0952 13.5818 1115 93.174 1366.27 413.291
1756 0 84.0538 13.0274 1095 94.7799 1366.99 413.108
1757 0 86.0715 13.0357 1122 94.8984 1367.05 409.992
1758 0 90.055 13.3585 1203 92.0748 1365.63 409.052
1759 0 91.0738 12.4514 1134 93.4215 1365.43 407.153
1760 0 94.0435 12.7601 1200 94.3075 1366 406.658
1761 0 98.0458 13.4529 1319 95.2199 1366.41 404.158
1762 0 101.052 13.3792 1352 95.1309 1365.5 401.846
1763 0 106.08 13.3672 1418 92.7976 1365.59 401.878
1764 0 108.029 13.3112 1438 94.6752 1366.07 399.299
1765 0 111.053 13.0749 1452 97.4463 1366.22 399.134
1766 1 58.0168 11.2898 655 88.8916 1366.4 425.469
1767 0 61.0494 12.0231 734 88.4005 1366.34 423.719
1768 0 63.0645 12.5903 794 85.4144 1366.12 432.038
1769 0 65.1704 12.3369 804 85.9764 1365.87 431.597
1770 0 67.1056 12.7858 858 86.0303 1365.5 430.904
1771 0 68.177 12.6582 863 88.3048 1365.4 428.1
1772 0 71.1284 12.2595 872 88.695 1366.03 427.139
1773 0 72.1521 12.8894 930 87.7312 1365.71 425.998
1774 0 74.2027 12.385 919 88.8411 1365.94 426.569
1775 0 76.2717 13.3864 1021 87.0607 1365.58 423.339
1776 0 79.1566 12.9237 1023 87.2884 1366.09 424.236
1777 0 82.2294 13.7542 1131 86.6101 1365.14 420.189
1778 0 85.1794 13.7944 1175 87.0902 1365.42 419.813
1779 0 86.2321 13.7304 1184 88.772 1365.69 419.242
1780 0 89.3305 13.6795 1222 90.8805 1366.08 417.975
1781 0 92.2986 14.0414 1296 95.3318 1365.83 413.255
1782 0 95.2467 13.5963 1295 95.0958 1366.36 412.356
1783 0 96.2758 13.4509 1295 96.2371 1366.07 413.915
1784 0 100.232 13.7082 1374 95.3028 1366.02 413.041
1785 0 101.241 13.4827 1365 96.1385 1366.13 409.127
1786 0 105.298 13.8559 1459 93.5819 1366.13 411.509
1787 0 108.426 13.8067 1497 93.1931 1365.32 409.87
1788 0 111.281 13.1019 1458 95.4739 1365.3 409.219
1789 0 114.176 13.777 1573 95.0636 1365.48 407.087
1790 0 118.359 14.4645 1712 93.2991 1365.3 405.655
1791 0 118.204 14.3142 1692 95.2435 1365.69 405.371
1792 0 124.311 14.3108 1779 95.163 1366.7 404.139
1793 0 124.306 14.3839 1788 159.319 1367.71 404.135
1794 0 129.215 14.5107 1875 97.7717 1365.57 399.951
1795 0 135.238 14.9662 2024 96.7036 1365.53 398.549
1796 0 139.257 14.1681 1973 99.8262 1365.13 395.128
1797 0 142.314 14.3556 2043 101.253 1364.63 392.763
1798 0 147.301 14.6842 2163 100.829 1364.88 389.344
1799 0 151.279 14.6352 2214 101.942 1365.13 388.196
1800 0 155.132 14.3878 2232 104.007 1364.33 385.037
1801 0 160.155 14.9292 2391 103.744 1365.75 381.986
1802 0 165.131 14.9457 2468 103.124 1365.3 380.422
1803 0 167.095 14.1716 2368 106.296 1365.91 375.014
1804 0 173.159 14.8649 2574 104.822 1364.99 373.709
1805 0 176.255 14.5471 2564 106.927 1365.25 371.55
1806 0 182.157 14.4765 2637 107.768 1364.92 368.884
1807 0 186.171 14.7875 2753 107.381 1365.35 366.744
1808 0 194.254 14.7281 2861 106.963 1364.26 365.882
1809 0 197.35 14.8163 2924 107.69 1364.81 362.752
1810 0 203.198 14.5572 2958 108.614 1364.57 360.148
1811 0 212.209 15.0559 3195 106.2 1365.17 354.624
1812 0 217.303 14.6432 3182 107.867 1364.16 351.262
1813 0 223.333 14.0597 3140 109.787 1365.41 346.725
1814 1 58.1006 9.12211 530 86.7623 1366.42 438.085
1815 0 60.0874 10.1852 612 86.0327 1366.09 435.704
1816 0 60.0646 10.8383 651 86.725 1364.3 436.51
1817 0 62.1156 11.4625 712 86.882 1363.41 435.378
1818 0 63.1254 11.4217 721 85.9071 1364.05 434.913
1819 0 66.1458 11.7165 775 86.0774 1363.7 434.846
1820 0 67.15 11.2137 753 87.8021 1364.41 434.9
1821 0 68.1621 11.3259 772 88.7604 1364.43 433.247
1822 0 69.1103 11.7349 811 89.1048 1363.81 431.734
1823 0 73.2779 11.3404 831 90.0168 1364.43 429.78
1824 0 74.123 11.5079 853 86.9015 1364.86 423.801
1825 0 78.1511 11.7465 918 90.4913 1365.34 428.233
1826 0 77.217 10.982 848 93.8726 1364.58 431.025
1827 0 79.1632 10.5099 832 95.5288 1365.4 427.548
1828 0 82.209 10.9355 899 95.0823 1365.32 423.727
1829 0 86.3107 12.2001 1053 88.9924 1365.96 421.501
1830 0 89.3473 12.983 1160 87.6931 1365.24 418.57
1831 0 96.3388 15.2794 1472 83.7371 1366.13 414.425
1832 0 94.3596 11.6363 1098 99.6685 1365.33 415.944
1833 0 100.278 11.4382 1147 95.9137 1365.1 416.254
1834 0 102.405 10.4585 1071 95.0803 1365.6 414.28
1835 1 56.2173 9.42771 530 84.9547 1365.95 437.715
1836 0 60.1108 11.745 706 78.8045 1365.14 436.623
1837 0 62.1024 11.2878 701 80.4479 1364.82 436.137
1838 0 66.3134 11.2647 747 95.2597 1366.29 430.921
1839 0 65.2936 11.6857 763 95.0459 1366.09 430.752
1840 0 68.3263 12.6159 862 93.2587 1365.04 430.948
1841 0 70.2989 12.4469 875 93.6514 1365.53 429.415
1842 0 71.1506 11.8762 845 92.0888 1364.85 427.236
1843 0 72.1637 11.9312 861 92.5401 1364.58 426.095
1844 0 73.222 12.4826 914 91.4256 1364.66 425.286
1845 0 74.2336 11.6793 867 93.6655 1365.2 424.438
1846 0 75.2137 12.3914 932 91.8004 1365.46 422.882
1847 0 77.1986 12.4096 958 92.1649 1365.34 423.05
1848 0 79.2653 12.6032 999 90.8669 1364.69 422.495
1849 0 80.2846 12.6799 1018 90.388 1365.44 422.004
1850 0 84.163 12.8204 1079 89.1205 1365.71 419.693
1851 0 84.1584 12.4052 1044 92.2337 1366.69 418.208
1852 0 87.2819 12.6143 1101 91.446 1365.6 418.845
1853 0 88.1645 12.8396 1132 91.5521 1366.31 416.647
1854 0 91.2181 12.7825 1166 91.1835 1366.02 415.773
1855 0 94.2011 12.5901 1186 92.3263 1366.16 413.415
1856 0 96.2271 12.2731 1181 93.4547 1365.53 412.409
1857 0 100.211 13.272 1330 90.2842 1366.48 411.324
1858 0 101.156 12.1989 1234 92.3152 1366.57 409.735
1859 0 105.235 12.3628 1301 90.1852 1366.06 409.98
1860 0 107.179 12.4744 1337 90.7988 1366.96 407.609
1861 0 108.19 12.4595 1348 153.568 1367.95 407.601
1862 1 67.1784 11.8639 797 83.5521 1366.88 429.02
1863 0 67.2182 12.0949 813 80.5916 1365.7 427.533
1864 0 67.2068 12.6922 853 75.3869 1366.26 426.865
1865 0 71.162 12.858 915 75.0098 1365.88 427.906
1866 0 74.0855 13.1875 977 81.9846 1365.57 427.028
1867 0 73.0962 12.5588 918 84.5153 1365.32 423.967
1868 0 77.124 12.6809 978 83.7025 1365.46 422.222
1869 0 79.1846 12.5151 991 83.4702 1365.45 423.068
1870 0 80.159 12.7247 1020 82.752 1364.91 422.487
1871 0 83.2163 13.519 1125 81.312 1365.23 421.092
1872 0 84.0777 13.2378 1113 82.8302 1365.16 419.726
1873 0 86.0745 13.0701 1125 84.1422 1364.88 417.298
1874 0 88.1201 12.778 1126 85.667 1365.12 416.594
1875 0 91.0673 13.7481 1252 83.7652 1365.17 414.802
1876 0 93.089 13.7181 1277 84.3203 1365.16 415.617
1877 0 97.12 13.2825 1290 84.8248 1364.91 412.34
1878 0 99.1245 13.4377 1332 84.9407 1365.31 409.947
1879 0 101.094 12.9384 1308 86.344 1366.06 408.411
1880 0 103.154 12.5928 1299 88.361 1365.91 406.57
1881 0 108.148 13.2781 1436 84.9735 1365.98 406.462
1882 0 109.171 13.3919 1462 86.0691 1366.12 404.868
1883 0 113.173 13.5633 1535 84.1948 1367.07 402.557
1884 0 113.229 12.7087 1439 82.0591 1366.5 401.763
1885 0 116.229 12.8023 1488 81.373 1366.7 401.505
1886 0 121.201 13.4652 1632 81.3119 1367 399.001
1887 0 127.26 14.0735 1791 82.89 1366.44 398.557
1888 0 127.26 14.1128 1796 161.401 1366.43 398.514
1889 0 134.182 13.9587 1873 82.6925 1365.81 395.932
1890 0 135.182 13.7074 1853 84.6816 1365.81 395.059
1891 0 140.307 14.0549 1972 85.0806 1365.89 391.605
1892 0 145.244 13.6873 1988 87.1871 1365.76 390.747
1893 1 86.1383 11.4351 985 83.5036 1367.19 419.064
1894 0 90.1704 12.7536 1150 80.8574 1366.27 419.854
1895 0 87.1491 11.509 1003 83.0698 1366.26 420.134
1896 0 89.2465 11.9893 1070 83.7308 1365.92 418.774
1897 0 94.1912 12.3366 1162 82.8795 1365.76 417.468
1898 0 97.1368 12.5184 1216 82.6883 1365.28 417.104
1899 0 100.149 13.4201 1344 81.8281 1366.11 414.613
1900 0 102.187 12.5652 1284 84.6565 1365.72 413.623
1901 0 104.188 12.3623 1288 86.0986 1365.24 412.924
1902 0 106.263 12.9208 1373 86.1187 1365.68 412.663
1903 0 110.155 13.3721 1473 86.0204 1365.67 408.363
1904 0 112.169 13.2568 1487 88.8178 1365.49 407.72
1905 0 118.2 14.0947 1666 89.9382 1365.29 407.79
1906 0 123.162 14.144 1742 89.2572 1365.28 408.448
1907 0 123.134 13.7574 1694 91.5773 1364.51 405.54
1908 0 128.146 13.3988 1717 93.4741 1364.31 403.391
1909 0 132.2 13.9259 1841 92.2423 1364.7 398.966
1910 0 135.157 14.3981 1946 91.5118 1365.16 396.25
1911 0 139.209 13.9502 1942 91.9279 1365.09 395.057
1912 0 141.122 14.3706 2028 95.0296 1364.83 395.654
1913 1 84.1495 13.6067 1145 90.1528 1365.42 422.569
1914 0 85.1452 13.7177 1168 92.0779 1365.19 419.644
1915 0 87.0583 13.4278 1169 92.7434 1364.47 421.003
1916 0 87.1706 12.9746 1131 83.9885 1364.01 421.302
1917 0 89.1039 12.491 1113 86.1572 1364.77 419.825
1918 0 94.1595 12.6806 1194 85.2471 1364.9 419.238
1919 0 94.1052 12.7092 1196 87.6957 1363.99 417.49
1920 0 99.1397 13.1935 1308 87.9495 1365.21 416.152
1921 0 103.192 13.3149 1374 90.6565 1364.42 415.302
1922 0 104.197 13.484 1405 91.0577 1364.6 414.783
1923 0 107.175 13.5386 1451 91.816 1364.03 415.919
1924 0 110.137 13.5559 1493 90.3798 1364.55 414.085
1925 0 114.225 13.3946 1530 91.3301 1364.15 412.022
1926 0 115.135 13.2193 1522 91.9093 1364.07 411.135
1927 0 120.197 13.4113 1612 93.8096 1364.75 408.315
1928 0 125.256 13.7718 1725 92.0643 1364.66 405.43
1929 0 128.201 13.8845 1780 90.9528 1363.96 401.06
1930 0 130.223 13.2235 1722 96.1098 1363.81 399.983
1931 1 71.0596 10.1183 719 82.4534 1364.29 422.131
1932 0 70.1595 10.7042 751 81.1345 1364.25 422.129
1933 0 75.1188 11.9145 895 84.3352 1363.51 426.712
1934 0 78.1704 12.4728 975 81.9867 1364.02 428.224
1935 0 80.2034 12.3436 990 83.4424 1364.02 425.898
1936 0 83.1265 12.4629 1036 83.1515 1363.51 424.496
1937 0 85.0815 12.5762 1070 83.1262 1363.25 422.418
1938 0 86.1464 12.1073 1043 84.7296 1363.67 421.904
1939 0 90.1359 12.4257 1120 83.2 1363.84 420.987
1940 0 91.1147 11.2715 1027 86.1353 1364.08 418.861
1941 0 96.0942 12.623 1213 83.6983 1363.51 419.427
1942 0 98.1924 12.6283 1240 83.2355 1363.76 419.742
1943 0 101.13 13.1414 1329 83.6193 1363.79 418.506
1944 0 103.118 13.2082 1362 84.08 1363.85 418.214
1945 0 106.146 12.6524 1343 85.4207 1363.73 414.958
1946 0 108.181 13.4958 1460 84.7336 1364.61 415.123
1947 0 113.126 13.843 1566 83.9783 1364.34 413.38
1948 0 115.195 13.0648 1505 87.0086 1364.34 408.85
1949 0 121.217 13.6202 1651 84.7941 1363.71 407.367
1950 0 126.216 13.8017 1742 84.5689 1363.97 404.425
1951 0 129.232 13.5647 1753 91.4615 1363.88 396.945
1952 0 134.225 13.306 1786 92.2615 1364.3 396.269
1953 1 76.1884 11.3009 861 89.3542 1364.23 428.689
1954 0 78.0986 12.5867 983 87.6999 1364.24 425.986
1955 0 82.1256 12.7122 1044 87.8822 1363.95 423.74
1956 0 83.281 12.1877 1015 82.7911 1364.17 423.421
1957 0 85.2437 11.3791 970 83.8753 1363.74 422.588
1958 0 86.2209 11.5517 996 84.6104 1364.55 420.98
1959 0 90.1034 12.0972 1090 83.0156 1363.57 419.696
1960 0 92.1426 11.9163 1098 83.7013 1364.19 416.903
1961 0 94.1431 11.6312 1095 84.7443 1363.51 416.25
1962 0 99.3035 12.1949 1211 83.7721 1363.83 416.431
1963 0 102.198 13.0727 1336 83.0621 1363.21 413.522
1964 0 103.206 12.7416 1315 83.6981 1364 415.671
1965 0 107.284 13.0402 1399 83.8628 1363.37 411.835
1966 0 108.165 12.9524 1401 85.5796 1363.42 410.981
1967 0 113.265 13.3669 1514 84.107 1363.11 409.528
1968 0 115.225 12.6535 1458 86.2805 1364.14 407.879
1969 0 117.292 12.422 1457 88.6177 1363.99 407.054
1970 0 123.26 13.4675 1660 86.9145 1364.28 406.57
1971 0 125.191 13.3875 1676 91.7053 1363.88 402.135
1972 0 131.196 13.8037 1811 91.3799 1363.51 400.109
1973 0 133.261 13.7699 1835 91.0403 1363.64 396.695
1974 0 138.184 12.8163 1771 92.7973 1363.46 393.963
1975 0 142.437 13.1216 1869 92.3649 1364.28 391.132
1976 1 85.2758 10.6126 905 82.4155 1363.87 423.508
1977 0 87.2615 12.2047 1065 80.2826 1364.59 423.339
1978 0 90.2272 11.7703 1062 81.7232 1363.62 420.721
1979 0 92.1044 12.2361 1127 79.315 1364.43 421.8
1980 0 97.1225 12.0569 1171 79.9155 1363.56 419.888
1981 0 99.2315 12.1534 1206 80.8773 1363.9 418.558
1982 0 103.242 12.2722 1267 81.1673 1363.55 416.254
1983 0 105.076 11.9914 1260 82.8794 1363.55 412.268
1984 0 107.134 12.1436 1301 83.8424 1363.96 411.791
1985 0 110.191 12.315 1357 84.2616 1363.33 410.542
1986 0 113.22 12.4978 1415 85.8438 1362.94 407.168
1987 0 117.246 12.6401 1482 85.2375 1363.23 407.038
1988 0 121.257 12.9477 1570 84.7694 1362.78 405.893
1989 0 123.149 12.7 1564 85.7289 1363.33 405.824
1990 0 128.121 12.8941 1652 84.842 1363.42 404.673
1991 0 132.178 12.4378 1644 85.5529 1363.15 403.828
1992 0 136.227 13.1986 1798 84.7714 1362.8 400.043
1993 1 79.044 11.0318 872 81.6594 1362.44 429.595
1994 0 81.139 11.5234 935 82.8588 1362.97 426.751
1995 0 83.1391 11.3906 947 88.6167 1362.59 423.431
1996 0 83.1773 9.85845 820 83.0451 1362.41 416.315
1997 0 84.1273 10.5079 884 83.9842 1362.29 414.325
1998 0 86.0838 10.5595 909 85.1705 1363.56 411.942
1999 0 86.1934 10.3952 896 87.0491 1363.83 410.16
2000 0 93.1066 11.6748 1087 84.9531 1363.54 411.532
2001 0 97.0961 12.0602 1171 83.0922 1363.96 409.537
2002 0 98.1155 11.4253 1121 83.5085 1363.61 406.881
2003 0 98.135 11.0766 1087 77.0331 1363.94 407.464
2004 0 104.203 10.9594 1142 77.7741 1363.58 405.9
2005 0 104.134 10.1984 1062 79.549 1364.16 407.017
2006 0 108.231 10.6809 1156 79.3728 1363.53 404.161
2007 0 113.144 12.2056 1381 84.8928 1362.93 402.917
2008 0 116.163 12.5427 1457 85.2155 1363.29 401.166
2009 0 118.267 12.8438 1519 86.9348 1363.34 399.727
2010 0 120.15 12.4761 1499 86.3142 1363.26 398.869
2011 0 126.294 12.5659 1587 88.937 1363.81 397.989
2012 0 134.342 13.1084 1761 86.3708 1362.96 396.789
2013 0 137.2 12.9665 1779 86.3215 1363.17 393.455
2014 0 139.197 12.2344 1703 88.384 1363.19 390.336
2015 0 138.122 12.2356 1690 87.5639 1363.23 384.891
2016 0 145.269 12.3082 1788 84.6488 1363.64 383.068
2017 0 150.262 12.1255 1822 86.1921 1364.25 383.476
2018 0 156.161 13.23 2066 85.2212 1363.54 379.217
2019 0 159.188 13.0035 2070 85.9367 1364 378.319
2020 1 90.1084 11.4196 1029 83.208 1363.59 411.245
2021 0 96.1442 11.7324 1128 81.4707 1363.69 412.384
2022 0 99.0439 12.0452 1193 80.2976 1363.86 408.82
2023 0 100.066 11.9821 1199 80.5263 1363.78 409.776
2024 0 103.101 12.3084 1269 79.3893 1363.8 408.733
2025 0 107.192 11.6334 1247 79.1147 1363.16 406.942
2026 0 110.149 12.011 1323 78.9713 1362.96 403.615
2027 0 111.177 11.8819 1321 79.1885 1362.69 402.559
2028 0 117.148 12.5909 1475 80.7722 1363.03 403.734
2029 0 120.238 12.8328 1543 80.2249 1362.72 400.702
2030 0 124.213 12.6798 1575 80.3079 1362.77 402.335
2031 0 129.269 13.2205 1709 78.007 1362.86 399.985
2032 0 132.217 14.0602 1859 74.9699 1363.14 400.723
2033 0 135.135 13.1054 1771 70.594 1362.94 401.04
2034 0 140.088 13.3702 1873 76.3476 1363.6 396.571
2035 0 145.172 13.205 1917 76.6421 1363.55 394.854
2036 0 150.159 12.8664 1932 77.0471 1362.84 391.67
2037 0 152.111 12.7473 1939 76.7179 1363.76 389.566
2038 0 160.188 13.6464 2186 77.5435 1363.77 386.329
2039 1 92.1718 11.3158 1043 72.209 1364 420.476
2040 0 94.1328 11.8343 1114 66.7181 1363.11 420.469
2041 0 97.0982 12.2968 1194 69.9397 1363.03 416.992
2042 0 101.237 12.5547 1271 76.1361 1362.51 418.266
2043 0 103.126 11.966 1234 78.3225 1362.74 413.51
2044 0 106.157 12.3779 1314 76.7489 1362.42 413.562
2045 0 109.032 12.3359 1345 78.0565 1363.51 411.354
2046 0 113.07 13.2662 1500 77.9627 1362.59 409.087
2047 0 115.134 13.0631 1504 78.3664 1362.92 407.021
2048 0 118.106 12.929 1527 78.9208 1362.95 405.722
2049 0 119.136 12.1626 1449 80.2616 1363.57 405.334
2050 0 124.207 12.3262 1531 80.6368 1363.4 405.302
2051 0 128.214 13.5321 1735 83.0403 1363.16 402.825
2052 0 131.126 13.0104 1706 85.9977 1363.49 400.564
2053 1 73.1339 10.9115 798 81.188 1362.85 432.158
2054 0 74.136 12.005 890 79.9831 1363.9 430.037
2055 0 75.0281 12.2088 916 83.095 1363.42 426.108
2056 0 77.094 13.1658 1015 75.3931 1364.31 429.799
2057 0 77.1741 12.3358 952 78.1408 1364.04 431.317
2058 0 80.1812 12.4468 998 79.5571 1364.59 429.407
2059 0 81.1555 12.8765 1045 80.066 1364.28 427.842
2060 0 82.0481 12.0173 986 83.4361 1364.83 426.182
2061 0 85.1427 11.8624 1010 84.4366 1363.88 426.604
2062 0 89.0935 12.7619 1137 83.6763 1363.59 425.752
2063 0 92.1281 12.3307 1136 85.9692 1363.6 421.814
2064 0 95.1357 12.7082 1209 85.2076 1363.84 422.189
2065 0 96.1079 12.8501 1235 86.5822 1363.83 420.857
2066 0 99.1071 12.4814 1237 88.0679 1364.17 420.419
2067 0 101.115 12.8962 1304 88.2109 1363.46 418.665
2068 0 103.089 12.7075 1310 90.1534 1364.32 416.739
2069 0 106.114 13.052 1385 89.6397 1363.42 414.747
2070 0 110.133 13.7834 1518 87.2556 1364.53 414.105
2071 0 114.095 14.4178 1645 85.3653 1363.86 410.681
2072 0 116.14 13.5957 1579 86.8594 1363.82 408.237
2073 0 119.121 13.7507 1638 86.1477 1363.82 406.357
2074 0 121.106 12.9969 1574 87.8399 1363.72 402.73
2075 0 123.142 12.2867 1513 88.3979 1363.33 404.594
2076 0 127.163 12.9205 1643 89.4614 1363.82 400.521
2077 0 134.105 12.5647 1685 89.3448 1363.32 397.947
2078 1 79.0831 12.3035 973 85.6711 1364.21 424.416
2079 0 78.1027 10.6654 833 86.1297 1363.88 418.607
2080 0 84.1707 12.938 1089 84.8641 1363.46 421.766
2081 0 87.1785 11.9525 1042 86.2946 1363.12 421.6
2082 0 87.1583 12.0241 1048 87.6422 1363.55 419.957
2083 0 92.1165 12.0825 1113 86.8589 1363.56 420.092
2084 0 95.1566 12.4111 1181 85.9712 1363.14 415.649
2085 0 98.1613 12.4285 1220 86.0115 1363.2 416.196
2086 0 99.1041 11.826 1172 87.3814 1363.58 414.003
2087 0 99.0896 11.868 1176 136.947 1364.57 414.031
2088 0 105.154 12.6956 1335 86.6757 1363.78 412.527
2089 0 107.192 12.6316 1354 87.2001 1363.81 410.008
2090 0 111.121 13.5798 1509 84.3797 1363.96 407.329
2091 0 113.166 13.3432 1510 83.8444 1363.56 406.679
2092 0 115.127 12.6555 1457 84.7461 1363.95 404.358
2093 0 118.261 12.5654 1486 77.4852 1363.09 404.777
2094 1 66.1352 10.7356 710 74.1239 1363.25 433.183
2095 0 68.1715 12.2485 835 73.1964 1363.62 433
2096 0 72.1493 12.5573 906 72.0861 1364.22 430.581
2097 0 71.0518 11.8787 844 74.6244 1363.18 430.416
2098 0 72.1507 12.4046 895 73.2793 1363.9 430.257
2099 0 76.1352 11.8342 901 73.3873 1363.22 429.296
2100 0 77.1054 12.7877 986 74.001 1363.95 426.073
2101 0 79.1048 13.0586 1033 72.9274 1363.43 426.712
2102 0 82.1159 12.9695 1065 73.2817 1363.7 424.608
2103 0 85.1941 12.7708 1088 73.9697 1364.34 422.145
2104 0 87.1254 12.9124 1125 74.8524 1364.3 420.366
2105 0 89.1422 13.069 1165 74.5459 1364.06 419.826
2106 0 92.1867 13.7872 1271 73.9788 1363.62 417.302
2107 0 95.1374 13.4647 1281 75.3653 1363.81 417.653
2108 0 99.2102 13.7788 1367 79.801 1363.3 412.837
2109 0 101.171 13.8281 1399 80.2302 1363.27 411.961
2110 0 104.126 13.7717 1434 81.0788 1364.36 408.937
2111 0 106.221 14.5923 1550 79.7735 1364.27 409.712
2112 0 109.262 14.305 1563 81.5752 1364.32 407.455
2113 0 111.173 14.8418 1650 79.5612 1363.92 408.83
2114 0 115.177 14.0913 1623 81.2994 1363.7 406.592
2115 0 117.09 13.9465 1633 82.7128 1363.97 402.712
2116 0 122.122 14.1416 1727 81.3775 1363.8 403.159
2117 0 126.129 15.064 1900 80.51 1365.04 401.619
2118 0 126.129 15.0878 1903 169.008 1366.05 401.71
2119 0 134.177 15.0174 2015 82.6918 1364.12 398.322
2120 0 136.129 14.501 1974 85.5562 1363.76 395.041
2121 0 141.286 15.5288 2194 85.382 1364.64 393.972
2122 0 144.219 15.4695 2231 87.2985 1364.6 392.13
2123 0 149.189 14.8402 2214 90.1048 1364.46 389.679
2124 0 152.262 14.915 2271 91.3545 1363.99 386.648
2125 0 159.242 15.5989 2484 89.7029 1363.71 384.81
2126 0 164.229 15.1861 2494 91.4876 1364.79 383.489
2127 0 167.295 15.5414 2600 92.2565 1364.49 379.223
2128 0 173.278 15.4203 2672 92.0797 1365.11 378.802
2129 0 178.255 15.7639 2810 87.7356 1364.38 378.254
2130 0 181.271 14.5638 2640 91.2371 1365.27 374.647
2131 0 190.286 15.6554 2979 88.1578 1364.78 372.321
2132 0 193.174 15.6284 3019 89.3349 1365.09 369.232
2133 0 202.283 15.6958 3175 89.0441 1364.9 367.118
2134 0 206.397 15.4654 3192 90.4947 1365.03 362.555
2135 0 211.296 15.5469 3285 90.9269 1365.35 359.086
2136 0 220.415 15.43 3401 91.4663 1364.64 355.757
2137 0 227.39 16.7114 3800 88.6634 1365.11 352.076
2138 0 232.329 14.785 3435 93.3505 1364.76 347.466
2139 0 242.566 16.0369 3890 90.5689 1364.21 343.703
2140 1 187.407 13.1692 2468 92.4327 1364.75 374.681
2141 0 194.346 14.042 2729 91.948 1364.08 369.085
2142 0 200.271 13.9262 2789 92.645 1364.09 366.085
2143 0 208.495 14.667 3058 91.1583 1364.16 361.764
2144 0 214.336 15.0604 3228 91.3126 1364.48 358.381
2145 0 223.537 14.8343 3316 92.1258 1364.15 352.42
2146 0 228.37 14.2532 3255 93.9641 1363.95 346.325
2147 0 238.405 14.8151 3532 92.878 1363.41 344.868
2148 0 248.395 15.3465 3812 92.3198 1363.75 338.414
2149 0 256.481 15.5216 3981 92.0555 1364.07 334.693
2150 0 263.481 15.1093 3981 93.4039 1364.73 332.478
2151 1 72.2873 9.17174 663 71.6275 1364.85 432.872
2152 0 72.2383 11.2129 810 69.9864 1363.97 431.219
2153 0 72.2017 10.5815 764 71.7435 1364.14 432.618
2154 0 76.318 11.2948 862 72.5673 1365.22 430.041
2155 0 77.2895 11.8127 913 73.1501 1363.54 430.179
2156 0 80.2016 11.3589 911 76.5971 1364.58 427.34
2157 0 84.23 11.4211 962 76.9906 1364.53 425.858
2158 0 90.3253 11.6579 1053 75.5689 1364.02 425.14
2159 0 90.2478 12.0557 1088 75.5919 1365.08 423.529
2160 0 93.2826 12.9392 1207 74.3339 1365.17 421.457
2161 0 98.3293 12.2242 1202 75.688 1364.67 419.533
2162 0 99.2605 11.3338 1125 77.6302 1364.06 418.516
2163 0 103.312 12.3316 1274 76.0973 1364.09 417.291
2164 0 106.281 13.5489 1440 75.0938 1364.56 412.96
2165 0 107.199 12.0524 1292 78.8754 1365.5 413.286
2166 0 117.238 19.2514 2257 62.2982 1365.03 402.956
2167 0 117.386 16.3137 1915 68.6512 1365.75 408.061
2168 0 118.273 14.9653 1770 72.5316 1365.54 404.649
2169 0 123.378 16.6075 2049 69.3909 1366.08 402.618
2170 0 128.321 16.7626 2151 69.0051 1365.26 400.111
2171 0 131.407 16.2092 2130 70.9765 1365.12 399.004
2172 0 136.355 16.6991 2277 69.9469 1364.8 397.236
2173 0 141.371 17.2312 2436 68.9918 1365.41 393.862
2174 0 145.433 17.4857 2543 69.6461 1364.68 392.047
2175 1 84.1944 10.9508 922 74.3026 1365.29 423.246
2176 0 88.2032 12.2785 1083 73.3703 1365.04 421.487
2177 0 90.2181 12.7912 1154 72.6473 1365.51 420.292
2178 0 95.3298 12.6298 1204 72.539 1365.13 420.243
2179 0 96.3876 13.2278 1275 71.5773 1366.46 418.736
2180 0 99.2427 13.1597 1306 72.9142 1365.71 416.995
2181 0 100.409 12.5885 1264 74.394 1365.39 414.996
2182 0 105.4 13.2922 1401 72.9493 1365.74 413.815
2183 0 108.368 13.445 1457 72.9465 1366.94 413.003
2184 0 113.405 13.9236 1579 72.2438 1366.17 410.35
2185 0 116.544 13.8489 1614 72.8711 1365.81 407.712
2186 0 119.369 13.5547 1618 73.7602 1365.74 406.557
2187 0 123.365 13.9748 1724 73.5905 1366.08 404.682
2188 0 126.456 13.9337 1762 74.4268 1366.25 403.544
2189 0 130.363 13.8536 1806 75.1473 1365.88 400.121
2190 0 133.254 13.9208 1855 75.3951 1366.16 400.417
2191 0 137.238 14.391 1975 75.4481 1365.61 396.449
2192 0 141.43 14.5584 2059 74.5925 1365.59 393.617
2193 0 147.215 14.0271 2065 75.723 1365.7 391.203
2194 0 153.227 15.03 2303 73.8584 1365.51 387.888
2195 0 156.354 14.2114 2222 75.7349 1365.78 386.039
2196 0 159.396 13.7205 2187 77.4687 1365.62 384.032
2197 0 164.356 14.4868 2381 77.3419 1365.17 382.054
2198 0 171.241 15.2008 2603 76.1037 1365.55 380.43
2199 0 179.328 14.1751 2542 77.6806 1365.56 376.347
2200 1 103.184 12.1531 1254 72.2871 1365.37 414.903
2201 0 105.121 12.3287 1296 73.1211 1365.6 414.566
2202 0 109.188 13.1791 1439 72.8409 1365.49 411.646
2203 0 114.165 12.6484 1444 74.1544 1364.58 409.427
2204 0 117.234 12.8802 1510 75.0252 1364.78 408.281
2205 0 119.384 13.4022 1600 74.9756 1365.54 408.02
2206 0 122.131 13.0761 1597 76.2342 1364.71 405.299
2207 0 125.23 13.3595 1673 77.514 1365.39 401.736
2208 0 130.164 13.5521 1764 77.322 1364.38 401.236
2209 0 134.147 13.3883 1796 78.3252 1365.25 399.669
2210 0 138.134 13.3638 1846 78.682 1365.47 398.374
2211 0 143.193 14.037 2010 77.5289 1365.55 396.283
2212 0 147.186 13.6834 2014 79.1971 1365.32 390.842
2213 0 152.236 13.8273 2105 78.9715 1364.97 392.676
2214 0 155.195 14.0018 2173 79.8486 1365.82 386.48
2215 0 160.285 14.2621 2286 79.5879 1364.48 385.921
2216 0 164.204 13.7147 2252 80.5826 1364.53 383.726
2217 0 171.233 13.2335 2266 81.5234 1364.69 381.888
2218 0 177.377 14.4664 2566 79.3991 1364.41 378.541
2219 0 183.255 13.6858 2508 81.6188 1365.49 373.103
2220 1 102.201 13.356 1365 77.1744 1364.89 412.565
2221 0 106.169 13.1677 1398 78.216 1365.22 411.311
2222 0 109.292 13.5783 1484 80.5836 1364.39 410.737
2223 0 109.191 12.6842 1385 81.7242 1365.06 411.162
2224 0 114.205 13.2131 1509 81.5116 1365.24 407.343
2225 0 118.136 13.3152 1573 80.5569 1365.18 404.243
2226 0 121.182 13.2776 1609 84.4406 1363.55 400.262
2227 0 125.213 13.9043 1741 84.9885 1363.53 399.914
2228 0 128.227 13.4995 1731 86.0439 1364.11 399.228
2229 0 133.355 13.2428 1766 84.329 1364.07 398.921
2230 0 138.265 13.2354 1830 82.8863 1363.82 396.45
2231 0 142.265 13.8615 1972 82.0517 1364.11 392.062
2232 0 146.267 13.5095 1976 81.7556 1364.29 391.349
2233 0 151.277 13.743 2079 81.8264 1363.76 388.647
2234 0 157.423 13.829 2177 82.2545 1364.53 387.54
2235 0 160.483 13.2849 2132 84.4644 1364.53 385.529
2236 0 168.349 13.5849 2287 84.2151 1364.07 381.759
2237 0 172.441 12.6362 2179 88.2533 1363.67 380.015
2238 0 176.597 12.4747 2203 89.2869 1364.35 375.138
2239 0 185.483 13.4406 2493 87.4858 1363.69 373.056
2240 0 190.439 13.5424 2579 87.3199 1363.3 366.959
2241 0 195.41 13.7506 2687 87.2129 1363.37 367.254
2242 0 202.555 14.0011 2836 87.6562 1363.93 363.032
2243 0 207.375 13.4925 2798 89.8503 1363.7 359.121
2244 0 215.35 14.2094 3060 87.665 1363.68 357.859
2245 0 219.395 13.8745 3044 88.908 1363.74 356.229
2246 0 225.525 14.0516 3169 89.7444 1364.39 348.466
2247 0 234.379 16.1533 3786 84.1698 1364.18 345.175
2248 1 250.326 19.6943 4930 75.0329 1364.59 328.832
2249 0 251.527 17.8867 4499 79.4561 1364.89 326.861
2250 0 259.403 16.8695 4376 81.7566 1364.03 328.249
2251 0 253.239 13.3471 3380 91.5142 1364.23 324.23
2252 1 294.497 19.0121 5599 71.5867 1363.53 298.698
2253 1 49.0211 9.52651 467 81.4925 1365.01 429.531
2254 0 60.0765 10.0871 606 73.703 1365.89 432.48
2255 0 60.147 10.0421 604 72.4371 1365.05 426.454
2256 0 68.3786 10.9391 748 74.7005 1363.81 435.833
2257 0 70.3264 10.7783 758 76.7058 1364.56 432.908
2258 0 71.3474 10.7082 764 76.6296 1365.35 434.363
2259 0 73.5092 11.019 810 75.0272 1364.84 432.767
2260 0 74.2929 11.2124 833 77.2209 1365.36 432.283
2261 0 76.3672 11.0519 844 78.6789 1365.33 431.122
2262 1 90.5273 16.0283 1451 64.3439 1364.52 421.62
2263 0 88.3876 15.1718 1341 69.1432 1365.22 423.002
2264 0 92.4225 15.7429 1455 66.9265 1364.81 420.347
2265 0 91.3734 15.9565 1458 69.1811 1364.35 421.133
2266 0 101.405 16.5278 1676 64.0048 1364.74 415.057
2267 0 102.318 16.7322 1712 65.2652 1365.37 417.073
2268 0 100.324 16.8455 1690 68.6089 1364.64 413.779
2269 0 99.4417 13.6864 1361 76.8104 1365.8 418.783
2270 0 100.202 11.6265 1165 74.473 1365.9 420.714
2271 0 102.327 11.0724 1133 74.3672 1365.42 420.38
2272 0 106.429 14.31 1523 67.6231 1365.27 413.884
2273 0 106.2 13.8795 1474 72.8786 1366.35 413.748
2274 1 64.2281 11.8173 759 72.693 1364.49 437.931
2275 0 65.2921 11.5634 755 74.0675 1364.94 437.525
2276 0 69.1891 12.1262 839 73.2265 1364.69 436.731
2277 0 70.2128 12.2342 859 73.4331 1364.55 436.18
2278 0 70.1408 12.2753 861 74.9849 1365.95 435.138
2279 0 74.1526 13.1216 973 73.7564 1364.94 434.02
2280 0 75.2703 13.1127 987 75.1459 1364.61 433.322
2281 0 77.3635 13.1328 1016 78.9823 1364.71 431.112
2282 0 78.2369 13.3569 1045 79.5005 1365.09 429.261
2283 0 80.2735 13.4042 1076 79.9247 1364.81 428.775
2284 0 81.2898 13.2858 1080 80.3343 1365.45 428.442
2285 0 85.2732 13.6972 1168 79.268 1365.66 428.68
2286 0 84.2495 13.9348 1174 80.5136 1364.55 426.233
2287 0 86.1608 13.6953 1180 81.4856 1364.49 426.58
2288 0 91.1778 15.4095 1405 78.0185 1365.09 423.391
2289 0 92.3167 14.1578 1307 83.3022 1364.87 421.689
2290 0 95.2846 15.1546 1444 81.838 1364.94 422.013
2291 0 94.1713 14.2506 1342 86.0156 1364.61 417.607
2292 0 98.1452 14.4684 1420 85.6338 1364.31 415.242
2293 0 95.0741 13.7051 1303 89.9716 1364.16 412.549
2294 0 100.095 14.2365 1425 88.4232 1364.55 410.978
2295 0 102.082 14.7822 1509 87.2167 1364.73 410.834
2296 0 105.054 14.3069 1503 88.5595 1364.23 405.653
2297 0 106.136 14.0952 1496 90.8877 1364.49 403.801
2298 0 108.042 14.3277 1548 91.2054 1364.1 404.208
2299 0 113.082 14.6177 1653 90.0756 1365.03 402.509
2300 0 115.11 14.673 1689 90.9076 1364.95 402.214
2301 0 118.086 14.7943 1747 90.779 1364.71 400.996
2302 0 122.123 14.8293 1811 89.8874 1365.49 399.47
2303 0 122.127 14.3866 1757 93.1019 1364.56 395.686
2304 0 128.097 14.0285 1797 93.5275 1365.28 396.029
2305 0 131.155 14.1131 1851 93.0908 1364.62 393.98
2306 0 131.076 14.1445 1854 94.9935 1364.11 390.807
2307 0 139.124 13.5059 1879 95.3842 1364.44 389.63
2308 0 140.218 14.3205 2008 94.0692 1364.59 386.814
2309 1 76.0515 10.4403 794 85.2506 1364.94 423.465
2310 0 80.1134 11.1717 895 84.1464 1365.19 421.781
2311 0 79.1321 11.5377 913 82.8554 1364.95 421.539
2312 0 82.0728 11.636 955 82.8377 1364.95 420.562
2313 0 84.0516 12.2306 1028 86.7091 1364.62 419.822
2314 0 84.0692 12.4659 1048 86.5391 1364.27 418.616
2315 0 86.1149 12.9014 1111 87.9217 1364.63 414
2316 0 90.1184 12.65 1140 88.1965 1364.45 414.941
2317 0 93.1368 12.487 1163 88.3362 1363.84 414.033
2318 0 92.1626 12.7709 1177 89.0586 1364.24 409.897
2319 0 95.1157 12.2693 1167 89.3822 1363.5 407.897
2320 0 99.2144 13.1433 1304 85.9824 1364.09 407.161
2321 0 98.1304 13.1865 1294 88.0672 1363.47 403.041
2322 0 98.1712 12.2745 1205 90.3104 1363.24 401.33
2323 0 102.175 12.4002 1267 89.6243 1363.03 399.231
2324 0 102.082 12.8133 1308 89.055 1363.3 395.76
2325 0 108.266 12.5155 1355 88.4989 1363.81 392.528
2326 0 115.23 12.6182 1454 87.066 1363.33 391.017
2327 0 114.219 12.4322 1420 88.3331 1364.17 385.757
2328 0 122.105 12.4401 1519 86.8065 1363.7 383.793
2329 0 125.154 12.5046 1565 87.1891 1364.1 381.035
2330 0 129.152 12.4272 1605 87.9265 1364.64 376.357
2331 0 139.231 12.5619 1749 86.5889 1364.95 373.963
2332 0 137.319 12.7077 1745 88.9072 1364.86 369.192
2333 0 145.277 12.7825 1857 87.9542 1364.34 371
2334 0 148.212 12.4416 1844 89.4951 1364.64 366.73
2335 1 159.224 11.6691 1858 89.697 1364.73 367.452
2336 0 159.264 9.78249 1558 94.932 1365.66 363.797
2337 0 165.261 12.8282 2120 89.6462 1365.06 358.156
2338 1 183.217 12.1168 2220 89.1851 1365.12 359.411
2339 0 189.276 12.5795 2381 88.9748 1365.98 361.425
2340 0 197.335 12.7195 2510 88.3968 1366.49 362.083
2341 0 203.343 13.5928 2764 86.4493 1366.03 358.876
2342 0 205.256 12.3407 2533 89.3198 1365.97 354.534
2343 0 214.48 12.7657 2738 88.9127 1366 350.413
2344 0 224.344 13.3991 3006 87.2924 1366.21 350.588
2345 0 229.392 12.8252 2942 90.416 1365.71 342.128
2346 1 254.646 20.6758 5265 68.9951 1365.17 323.007
2347 0 260.444 20.0619 5225 71.3458 1364.69 321.07
2348 1 190.248 10.7439 2044 94.6023 1365.16 363.731
2349 0 198.348 11.621 2305 93.7692 1363.99 362.685
2350 0 205.384 12.854 2640 91.6818 1363.91 362.602
2351 1 68.3157 10.349 707 72.2702 1363.91 440.59
2352 0 71.3306 11.7761 840 70.4893 1364.2 438.755
2353 0 70.3615 11.4267 804 72.1903 1363.76 438.903
2354 0 73.2642 10.8102 792 77.8876 1363.18 437.533
2355 0 75.2618 11.0547 832 78.9159 1364.05 435.576
2356 0 78.3275 10.954 858 79.4895 1363.89 435.245
2357 0 79.2711 11.139 883 79.4938 1363.43 434.634
2358 0 80.2129 11.2077 899 80.7219 1363.34 434.378
2359 0 82.3691 11.5699 953 80.8153 1363.09 434.13
2360 0 83.2522 11.7354 977 81.5967 1363.7 432.757
2361 0 86.3045 12.143 1048 81.4552 1363.16 433.789
2362 0 85.3286 11.1334 950 72.9832 1362.73 432.686
2363 0 86.3043 11.5637 998 77.5301 1362.08 432.991
2364 0 88.3603 11.1362 984 79.2917 1362.53 433.275
2365 0 93.4237 12.1061 1131 82.2042 1362.13 428.132
2366 0 96.3326 11.9689 1153 82.8248 1361.82 425.882
2367 0 98.2949 11.8623 1166 81.9914 1361.08 424.865
2368 0 100.169 11.9797 1200 76.0192 1361.57 422.772
2369 0 103.202 11.9863 1237 83.4964 1362.07 417.302
2370 0 108.168 12.2033 1320 83.8561 1361.53 413.948
2371 0 109.196 12.5554 1371 84.7549 1362.14 413.73
2372 0 114.177 12.1741 1390 84.6755 1361.85 414.746
2373 0 116.278 11.9885 1394 86.5043 1361.75 411.56
2374 0 121.198 12.3352 1495 84.9525 1362.16 412.177
2375 0 124.155 13.3784 1661 83.2492 1361.95 410.317
2376 0 125.261 13.4998 1691 82.6452 1362.15 408.396
2377 0 130.293 13.5541 1766 82.6529 1362.34 407.717
2378 0 132.186 13.8592 1832 83.2429 1361.79 404.877
2379 0 134.206 13.0844 1756 84.8075 1362.34 402.425
2380 0 140.35 14.129 1983 82.474 1361.97 400.936
2381 0 143.243 13.697 1962 84.1152 1362.27 396.65
2382 0 146.254 13.4287 1964 84.3809 1361.38 393.625
2383 0 150.228 14.032 2108 82.6338 1361.83 394.388
2384 0 153.401 13.4745 2067 85.8989 1361.48 390.349
2385 0 159.214 13.5478 2157 86.5508 1361.8 387.537
2386 0 165.287 14.254 2356 85.4648 1361.94 386.602
2387 0 167.32 13.6565 2285 87.656 1362.01 383.521
2388 0 172.309 13.6441 2351 87.1148 1361.97 380.063
2389 0 177.204 13.4139 2377 87.8342 1361.95 376.994
2390 0 184.277 13.3929 2468 86.419 1362.3 375.549
2391 0 190.218 13.5739 2582 85.682 1363.18 370.546
2392 0 194.213 13.099 2544 87.6348 1362.46 369.384
2393 0 200.163 13.0744 2617 88.525 1362.39 363.887
2394 0 203.394 13.2993 2705 88.3065 1363.15 363.146
2395 0 210.314 13.8174 2906 86.9195 1363.21 360.011
2396 1 251.729 19.4971 4908 66.9452 1362.65 339.232
2397 0 247.75 20.7346 5137 65.5492 1362.58 329.725
2398 0 245.547 21.4216 5260 66.5146 1362.48 329.006
2399 0 248.415 21.9753 5459 65.8016 1363.57 323.195
2400 0 253.445 22.135 5610 66.7731 1363.11 324.784
2401 0 252.339 18.4989 4668 74.5651 1362.93 325.043
2402 0 251.391 14.9965 3770 84.6032 1362.27 331.219
2403 1 63.0699 10.7975 681 79.1542 1363 435.758
2404 0 64.0883 11.3593 728 78.1374 1362.18 434.828
2405 0 67.2872 10.9233 735 78.0599 1363.82 437.171
2406 0 65.0804 11.094 722 67.1066 1362.63 432.672
2407 0 69.15 11.7281 811 66.7596 1363.88 436.684
2408 0 70.1836 10.9997 772 67.3679 1363.18 432.39
2409 0 73.1748 11.247 823 67.6075 1363.74 432.361
2410 0 72.1704 11.556 834 68.0036 1363.27 433.436
2411 0 76.1128 11.2465 856 68.4521 1363.79 431.328
2412 0 76.1816 10.8163 824 69.5194 1363.08 431.775
2413 0 81.0704 12.927 1048 76.6441 1363.16 424.459
2414 1 126.409 11.447 1447 64.5556 1363.48 418.304
2415 0 131.228 11.461 1504 64.3989 1364.29 417.138
2416 0 133.689 12.8731 1721 60.5125 1363.92 412.184
2417 0 142.257 11.198 1593 64.7345 1364.44 417.852
2418 0 156.222 9.43528 1474 67.175 1364.13 415.786
2419 0 149.75 11.3856 1705 62.4956 1364.8 410.642
2420 0 148.329 10.6789 1584 65.779 1363.85 414.342
2421 0 148.222 12.1507 1801 62.1916 1364.27 413.497
2422 0 151.564 13.9941 2121 58.1985 1363.6 411.272
2423 0 148.337 13.5097 2004 61.4431 1363.73 408.322
2424 0 105.062 15.2005 1597 70.0908 1363.81 414.709
2425 0 106.127 15.4155 1636 70.1638 1364.13 412.564
2426 0 109.144 15.0719 1645 71.1921 1364.03 409.509
2427 0 113.123 15.965 1806 69.6113 1364 407.493
2428 0 114.07 15.5781 1777 71.2859 1363.83 406.51
2429 0 119.166 15.7008 1871 71.1117 1364.15 404.276
2430 0 119.137 14.4875 1726 73.9258 1364.97 403.717
2431 0 121.212 15.5347 1883 72.6001 1364.45 401.233
2432 0 124.144 15.627 1940 72.7964 1365.18 400.572
2433 0 127.219 15.2414 1939 73.4724 1363.99 399.642
2434 0 131.22 16.3542 2146 71.2134 1364.64 399.034
2435 0 135.174 15.1582 2049 73.1596 1364.06 397.628
2436 0 139.265 15.5172 2161 72.9662 1364.15 396.994
2437 0 142.296 15.4818 2203 73.6173 1363.45 394.614
2438 0 146.285 15.3057 2239 74.6534 1364.14 391.878
2439 1 88.236 10.8459 957 73.7074 1363.91 429.121
2440 0 90.2252 11.6154 1048 78.5973 1364.58 425.864
2441 0 92.2563 11.8474 1093 81.3193 1365.15 423.288
2442 0 92.1507 12.0455 1110 84.6847 1364.16 419.881
2443 0 95.1183 12.7315 1211 80.4038 1363.96 419.002
2444 0 97.1642 12.237 1189 74.9773 1363.04 420.082
2445 0 99.2347 11.9918 1190 75.7008 1363.17 420.734
2446 0 100.169 11.5106 1153 79.255 1363.08 416.974
2447 0 106.21 12.4659 1324 78.7356 1363.5 416.278
2448 0 109.221 12.8729 1406 81.6095 1363.68 414.559
2449 0 112.192 12.7905 1435 82.7742 1363.68 414.128
2450 0 114.142 12.8524 1467 84.3538 1362.77 410.573
2451 0 116.244 13.1362 1527 84.1192 1363.6 411.422
2452 0 119.19 13.0547 1556 83.9878 1363.22 406.997
2453 0 123.163 12.6824 1562 84.7522 1364.2 404.096
2454 0 126.189 12.5526 1584 86.1465 1363.75 401.499
2455 0 130.229 12.7008 1654 85.3942 1363.73 400.002
2456 0 132.273 12.202 1614 86.5068 1363.52 397.722
2457 0 138.203 13.0605 1805 84.5856 1364.18 397.235
2458 0 142.2 12.6231 1795 86.0724 1363.04 393.438
2459 0 148.13 13.1439 1947 87.0288 1363.48 392.036
2460 1 91.1381 8.98636 819 80.3333 1363.45 426.007
2461 0 92.189 9.83848 907 80.5215 1362.58 422.443
2462 0 93.1702 9.89587 922 74.9024 1363.97 423.143
2463 0 97.1851 10.5263 1023 74.1486 1363.31 422.629
2464 0 100.174 10.5217 1054 74.7514 1363.66 419.848
2465 0 100.17 10.0229 1004 75.9223 1363.04 418.671
2466 0 104.266 10.291 1073 76.2367 1363.81 415.682
2467 0 106.266 11.0195 1171 76.0145 1363.5 415.41
2468 0 110.226 10.5238 1160 76.4586 1363.41 416.348
2469 0 114.206 11.5318 1317 75.9005 1363.25 413.006
2470 0 116.248 11.9314 1387 75.8962 1363.83 414.244
2471 0 120.265 11.1254 1338 77.0665 1363.18 409.045
2472 0 123.37 11.7938 1455 77.0997 1363.61 406.619
2473 0 126.45 10.8264 1369 81.1205 1363.41 405.982
2474 0 131.384 11.6453 1530 79.8359 1363.67 404.347
2475 0 135.315 12.6076 1706 78.6559 1363.04 402.434
2476 0 137.355 12.0709 1658 81.0549 1363.97 394.449
2477 0 142.481 12.7385 1815 80.2766 1364.29 391.86
2478 0 148.446 11.9034 1767 82.1602 1363.36 389.811
2479 0 150.121 10.4716 1572 85.666 1364.04 385.128
2480 1 93.1996 10.2254 953 73.2319 1363.58 422.733
2481 0 96.2371 10.8378 1043 73.1294 1364.15 420.155
2482 0 97.1529 11.4665 1114 73.6248 1364.46 418.847
2483 0 97.1372 10.5418 1024 76.1758 1364.83 416.95
2484 0 100.172 10.6317 1065 74.5408 1364.87 417.37
2485 0 102.193 10.4508 1068 76.3596 1364.65 417.206
2486 0 105.295 11.0357 1162 76.062 1364.28 415.07
2487 0 109.38 11.3 1236 75.8689 1364.19 412.308
2488 0 112.167 11.6523 1307 76.1446 1363.7 411.104
2489 0 115.136 12.0292 1385 75.5827 1364.16 410.879
2490 0 114.253 11.6058 1326 79.9879 1364.18 403.318
2491 0 119.236 11.8001 1407 79.6077 1363.96 403.104
2492 0 121.257 11.4715 1391 80.0899 1364.14 402.027
2493 0 122.289 11.2684 1378 82.9267 1363.92 399.451
2494 0 129.278 12.3223 1593 83.4181 1363.85 402.047
2495 0 133.327 12.4581 1661 83.7634 1363.97 398.586
2496 0 138.266 13.004 1798 81.2347 1363.75 394.036
2497 0 143.308 12.5743 1802 80.9123 1364.41 393.003
2498 0 147.23 11.8862 1750 83.1583 1364.31 390.578
2499 0 154.392 12.5655 1940 80.8278 1363.52 391.021
2500 1 89.2815 11.2341 1003 78.1486 1364.55 422.514
2501 0 91.2501 12.0329 1098 78.5656 1364.35 419.769
2502 0 90.3413 11.6115 1049 82.0419 1364.54 415.909
2503 0 95.1692 12.2939 1170 80.5658 1364.75 417.15
2504 0 96.1884 12.4755 1200 80.2567 1364.68 413.095
2505 0 99.1511 12.1733 1207 80.9536 1364.22 414.235
2506 0 102.231 11.8555 1212 81.0429 1364.03 413.27
2507 0 103.273 11.9198 1231 81.1925 1363.81 411.076
2508 0 107.15 11.5166 1234 80.5073 1363.6 412.132
2509 0 109.226 11.9934 1310 79.8985 1363.48 409.698
2510 0 110.155 11.8016 1300 80.6315 1362.75 408.048
2511 0 115.161 12.1916 1404 79.3319 1363.39 406.935
2512 0 119.3 12.0117 1433 79.2087 1363.52 406.515
2513 0 124.342 11.6775 1452 79.1742 1363.73 403.731
2514 1 70.227 11.178 785 80.6828 1363.92 429.032
2515 0 73.2088 11.8702 869 78.8044 1363.64 426.412
2516 0 72.2506 12.0968 874 79.8753 1363.98 423.598
2517 0 78.31 12.6421 990 77.9697 1363.95 422.477
2518 0 83.2621 12.8149 1067 77.3046 1364.2 422.222
2519 0 80.3025 11.3446 911 82.9144 1363.13 421.941
2520 0 82.1958 10.9738 902 84.6796 1363.5 421.079
2521 0 90.1932 10.4332 941 84.1328 1363.7 421.663
2522 0 91.3317 12.2082 1115 81.7498 1364.33 419.091
2523 0 90.434 11.6991 1058 84.1834 1363.41 416.681
2524 0 94.3327 12.0213 1134 83.291 1362.76 412.308
2525 0 97.3917 11.6334 1133 84.4669 1362.01 412.211
2526 0 100.191 11.6777 1170 86.0231 1362.04 408.967
2527 0 105.295 12.4222 1308 83.9633 1362.8 411.226
2528 0 105.349 12.3779 1304 85.8827 1363.35 408.401
2529 0 111.328 12.3599 1376 86.7049 1362.54 406.718
2530 0 114.385 12.9387 1480 85.9818 1363.52 405.574
2531 0 115.254 12.364 1425 89.9782 1362.96 403.443
2532 0 119.297 13.4454 1604 87.553 1363.09 400.716
2533 0 122.174 12.916 1578 90.0425 1362.3 400.054
2534 0 124.173 13.2638 1647 90.3036 1362.9 396.173
2535 0 130.341 12.9429 1687 90.243 1362.46 394.254
2536 0 134.217 13.4782 1809 90.4328 1362.81 392.757
2537 0 137.385 13.4731 1851 91.0702 1362.71 389.967
2538 0 139.335 13.263 1848 93.151 1363.18 388.189
2539 0 144.352 13.952 2014 90.6599 1362.54 384.529
2540 0 149.298 13.4831 2013 92.5405 1362.64 385.772
2541 0 152.251 13.9704 2127 92.1834 1363.04 382.515
2542 0 155.42 13.2673 2062 94.8923 1363.69 378.629
2543 0 163.436 14.0055 2289 92.9834 1363.2 376.804
2544 0 169.345 14.2785 2418 94.6121 1362.93 374.23
2545 1 98.3303 11.5936 1140 100.868 1363.51 405.006
2546 0 101.291 12.2123 1237 97.6079 1363.41 405.263
2547 0 104.222 12.8764 1342 95.6468 1363.32 401.463
2548 0 109.216 13.2764 1450 93.7083 1363.13 401.659
2549 0 109.221 13.0836 1429 96.3646 1362.4 399.7
2550 0 114.285 12.8188 1465 96.9154 1363.17 399.362
2551 0 111.373 12.1753 1356 102.441 1362.98 395.027
2552 0 116.274 12.2039 1419 102.016 1363.32 394.522
2553 0 120.216 12.594 1514 99.7701 1364.54 395.225
2554 0 127.16 12.3309 1568 100.427 1365.32 391.729
2555 0 129.205 12.9949 1679 97.1459 1365.46 387.707
2556 0 135.233 12.6078 1705 98.6528 1365.06 387.98
2557 0 141.27 12.961 1831 98.3386 1364.92 386.529
2558 0 143.253 13.1795 1888 97.1997 1363.79 382.577
2559 0 149.326 13.052 1949 97.3622 1363.79 378.111
2560 0 154.302 13.2014 2037 96.2577 1362.8 373.126
2561 0 160.389 13.2241 2121 96.5186 1363.79 373.607
2562 1 97.2447 11.6099 1129 93.7369 1363.36 407.724
2563 0 98.3267 11.6347 1144 96.4406 1363.43 402.374
2564 0 101.316 11.7553 1191 93.5474 1362.94 405.985
2565 0 104.213 11.4957 1198 94.5175 1363.4 404.871
2566 0 107.236 11.4141 1224 94.415 1363.1 403.949
2567 0 111.235 11.687 1300 93.7054 1363.62 402.806
2568 0 112.266 11.161 1253 94.9729 1362.73 400.199
2569 0 113.328 10.7917 1223 97.3606 1362.96 394.986
2570 0 116.289 11.1103 1292 96.3452 1362.97 393.127
2571 0 119.239 11.607 1384 95.1402 1363.1 395.382
2572 0 123.131 10.5254 1296 98.4491 1363.55 391.297
2573 0 126.284 10.7614 1359 97.9316 1364.38 391.882
2574 0 129.224 11.4685 1482 96.1532 1363.94 390.638
2575 1 20.0042 6.09873 122 58.4754 1366.65 454.434
2576 0 20.002 6.64932 133 58.3459 1365.8 454.18
2577 0 22.01 6.58791 145 60.0483 1366.48 454.366
2578 0 21.0066 6.42657 135 62.2963 1365.24 455.807
2579 0 20.0025 6.79914 136 62.0074 1366.4 456.926
2580 0 21.0559 6.79144 143 62.0699 1364.64 456.112
2581 0 20.1038 6.91412 139 62.8273 1362.5 458.302
2582 0 21.1711 6.80174 144 63.7431 1364.05 458.014
2583 0 21.0902 7.39681 156 65.3654 1363.28 457.949
2584 0 21.3286 5.90756 126 64.9048 1363.53 457.238
2585 0 21.1464 6.1949 131 63.2137 1362.85 458.802
2586 0 20.2339 6.86965 139 65.5468 1363.53 458.856
2587 0 16.0562 4.9202 79 65.0633 1362.54 461.316
2588 0 16.092 6.77354 109 65.6055 1362.53 460.725
2589 0 19.0844 7.59783 145 64.2207 1362.52 460.159
2590 0 20.1137 5.76722 116 65.4828 1362.67 460.578
2591 0 22.1908 6.21878 138 63.3116 1362.29 460.297
2592 0 19.1489 6.31891 121 64.8182 1363.2 460.628
2593 0 19.0718 5.50552 105 63.9143 1363.14 460.314
2594 0 19.1426 5.6941 109 63.4954 1363.22 460.385
2595 0 19.0905 5.08107 97 63.6289 1363.45 459.68
2596 0 19.1402 5.48583 105 61.9048 1363.29 459.667
2597 0 19.0999 4.76443 91 63.3736 1363.48 457.879
2598 0 19.0258 4.99322 95 62 1362.82 455.979
2599 0 23.2586 6.53521 152 60.4803 1363.64 455.77
2600 0 20.0549 5.33536 107 62.2897 1362.74 455.346
2601 0 18.1614 4.51506 82 63.5366 1363.02 456.976
2602 0 18.1503 6.33598 115 63.2783 1363.5 455.27
2603 0 22.0935 6.65355 147 60.9388 1363.37 453.687
2604 0 19.0668 4.77269 91 62.3297 1362.73 456.121
2605 0 20.0903 5.87348 118 61.339 1363.36 455.805
2606 0 16.0662 4.108 66 61.7576 1362.97 455.53
2607 0 17.0554 5.57007 95 61.3579 1363.13 456.084
2608 0 16.1022 5.21669 84 62.5119 1362.71 456.071
2609 0 20.1788 6.34329 128 60.75 1363.52 456.484
2610 0 20.0078 6.69738 134 61.4925 1363.55 456.985
2611 0 21.1271 7.0999 150 60.6133 1362.92 455.08
2612 0 20.0937 6.66875 134 60.7239 1362.66 455.858
2613 0 18.043 5.15436 93 62.4731 1363.06 456.086
2614 0 22.0503 6.62122 146 61.6438 1362.35 454.623
2615 0 20.0947 5.52384 111 62.964 1363.01 455.532
2616 1 135.266 11.9321 1614 83.7385 1363.8 394.27
2617 0 140.523 12.2756 1725 83.9368 1364.12 391.554
2618 0 145.306 11.9334 1734 86.7359 1363.89 391.458
2619 0 146.323 11.4404 1674 90.052 1364.25 388.863
2620 0 152.409 11.6331 1773 89.8979 1364.04 389.998
2621 0 156.325 12.3461 1930 90.529 1364.64 387.139
2622 0 161.353 13.2132 2132 88.8968 1364.31 386.542
2623 0 163.296 12.2048 1993 93.3497 1364.86 383.876
2624 0 167.224 12.1932 2039 95.3242 1364.06 379.912
2625 0 170.304 12.8711 2192 97.1045 1364.14 375.96
2626 0 178.375 13.0511 2328 95.509 1364.26 376.261
2627 0 183.245 13.3864 2453 97.1211 1364.09 374.706
2628 0 187.297 13.7429 2574 97.1636 1363.58 370.192
2629 0 191.171 13.1243 2509 98.7278 1363.94 366.212
2630 0 195.24 13.5269 2641 99.6388 1363.31 363.603
2631 0 202.271 13.8379 2799 99.0775 1363.62 363.407
2632 0 206.349 13.4142 2768 101.591 1363.9 356.644
2633 0 212.452 13.25 2815 101.902 1364.84 355.201
2634 1 228.513 21.0229 4804 77.8701 1363.75 336.812
2635 0 227.371 20.3632 4630 81.1013 1363.74 338.063
2636 0 228.401 15.5035 3541 94.2028 1364.3 345.489
2637 0 234.597 14.8723 3489 97.0037 1364.93 340.463
2638 0 241.378 15.3949 3716 97.5589 1364.21 338.389
2639 0 248.408 15.386 3822 98.2098 1364.79 331.297
2640 0 255.476 15.4652 3951 98.103 1364.19 329.193
2641 0 263.472 16.237 4278 96.8604 1363.8 322.525
2642 0 269.332 15.7538 4243 98.5258 1364.16 318.86
2643 0 277.33 15.2562 4231 100.527 1363.41 315.061
2644 0 286.384 16.01 4585 99.0358 1363.57 311.742
2645 0 294.479 15.9061 4684 98.9479 1363.06 307.237
2646 0 300.367 15.5077 4658 100.203 1363.32 302.345
2647 0 309.511 15.6343 4839 100.245 1363.3 298.124
2648 1 42.1257 8.14229 343 69.5335 1363.19 449.274
2649 0 40.0513 8.06467 323 68.1146 1362.01 448.341
2650 0 44.0772 8.59855 379 67.5646 1361.74 448.298
2651 0 40.0573 7.83877 314 70.035 1363.15 447.357
2652 0 43.1308 8.27714 357 67.7255 1362.73 447.23
2653 0 43.0806 8.17073 352 67.8807 1363.42 447.622
2654 0 45.1372 8.59602 388 65.8093 1363.12 447.325
2655 0 44.1216 7.79664 344 69.7878 1362.48 446.933
2656 0 44.1356 8.33793 368 67.2663 1362.61 447.152
2657 0 45.1595 8.99035 406 66.6108 1363.01 446.931
2658 0 45.1672 8.78957 397 67.8892 1362.9 445.773
2659 0 46.1644 8.75134 404 66.3218 1362.9 446.307
2660 0 46.1499 9.23078 426 67.1009 1363.04 446.549
2661 0 46.2013 7.9435 367 68.1417 1363.76 447.147
2662 0 48.1824 8.26027 398 67.701 1364.36 447.402
2663 0 50.1782 8.5296 428 67.5584 1363.8 443.159
2664 0 52.1126 7.56055 394 69.4137 1363.81 446.51
2665 0 52.1177 9.34423 487 70.0883 1364.64 445.115
2666 0 56.1666 8.9377 502 68.7968 1363.49 442.279
2667 0 55.2169 8.51189 470 70.2362 1363.81 440.909
2668 0 54.2531 9.21606 500 68.756 1363.43 439.764
2669 0 55.086 9.73025 536 65.7127 1365.48 438.239
2670 0 54.0606 8.63845 467 68.6039 1366.41 438.852
2671 0 57.0351 8.9068 508 67.2244 1366.51 438.87
2672 1 154.358 11.7778 1818 81.1755 1365.17 385.147
2673 0 156.165 11.1101 1735 81.445 1364.55 383.107
2674 0 162.14 11.9711 1941 80.5301 1364.76 383.281
2675 0 162.364 10.5011 1705 84.1501 1366.05 377.64
2676 0 167.191 11.3643 1900 82.5605 1365.25 377.503
2677 1 116.135 9.23066 1072 77.9132 1366.22 404.122
2678 0 118.303 10.4139 1232 77.1818 1364.88 400.838
2679 1 58.2582 8.65115 504 70.2302 1364.7 440.151
2680 0 61.2223 9.16333 561 67.6185 1363.55 438.786
2681 0 61.2524 8.58742 526 69.8555 1363.96 443.947
2682 0 63.2548 9.13765 578 69.3166 1363.77 441.978
2683 0 63.2683 8.298 525 71.2552 1363.79 441.434
2684 0 63.131 8.52196 538 71.9387 1363.16 442.117
2685 0 63.1849 8.83123 558 75.0233 1363.83 439.57
2686 0 63.1177 7.9534 502 75.6853 1363.86 442.199
2687 0 57.0344 3.01572 172 71.5058 1364.42 445.86
2688 0 65.0507 7.9784 519 77.7399 1365.01 432.27
2689 0 68.1465 7.42518 506 77.1423 1364.31 432.553
2690 0 70.1395 8.36904 587 78.523 1364.04 433.661
2691 0 70.0368 8.86677 621 79.9356 1364.63 434.725
2692 1 35.003 7.25653 254 72 1364.33 448.346
2693 0 37.0119 7.51111 278 72.3741 1366 447.309
2694 0 36.0091 7.91466 285 71.2632 1365.91 447.474
2695 0 35.0079 6.8556 240 70.6458 1364.63 447.917
2696 0 38.0264 7.88925 300 68.6567 1363.87 447.55
2697 0 36.0409 7.90768 285 68.807 1364.86 444.635
2698 0 37.0217 7.18498 266 67.7632 1365.43 444.147
2699 0 34.0499 6.81354 232 66.6336 1365.52 442.526
2700 0 32.0813 5.08084 163 64.9816 1366.19 443.644
2701 0 31.0864 5.01827 156 65.1282 1366.06 443.378
2702 0 30.0999 2.99004 90 66.2333 1364.58 444.056
2703 1 20.0191 5.49474 110 63.7364 1364.85 447.964
2704 0 21.1046 5.68596 120 67.7833 1363.47 446.217
2705 0 25.208 7.06126 178 67.1854 1362.54 447.14
2706 0 24.2418 6.47641 157 69.9299 1363.28 448.006
2707 0 24.1479 5.59055 135 62.4148 1364.96 449.607
2708 0 28.025 7.7431 217 69.0323 1365.91 453.719
2709 0 27.1416 8.17933 222 74.7342 1362.18 457.432
2710 0 28.1051 8.32591 234 75.9316 1363.29 459.218
2711 0 31.1745 8.01937 250 77.436 1363.24 459.908
2712 0 30.1632 8.2551 249 78.1968 1362.85 458.775
2713 0 31.167 9.97849 311 74.8039 1362.97 457.399
2714 0 31.2051 8.87676 277 77.7942 1363.38 458.116
2715 0 39.4095 7.71387 304 79.5987 1362.7 456.059
2716 0 39.4625 8.51441 336 79.4345 1362.94 455.539
2717 0 41.5805 9.06675 377 79.4801 1362.95 453.822
2718 0 41.4082 8.64563 358 82.3073 1362.63 454.989
2719 0 41.329 8.80738 364 83.8901 1362.7 455.371
2720 0 39.4493 7.80749 308 86.5714 1362.79 453.127
2721 0 40.4523 9.24545 374 85.4091 1362 454.332
2722 0 40.3847 8.81521 356 87.1096 1363.03 453.351
2723 0 41.4438 8.56581 355 86.8592 1362.26 455.411
2724 0 327.858 15.0339 4929 108.939 1362.67 293.089
2725 0 338.753 15.7903 5349 107.446 1362.73 290.914
2726 0 346.901 15.627 5421 109.663 1363.57 284.805
2727 1 150.613 10.4904 1580 94.0215 1363.52 398.772
2728 0 153.516 10.8523 1666 94.2113 1363.57 395.908
2729 0 158.556 11.0939 1759 92.9676 1362.82 392.038
2730 0 161.593 10.5883 1711 93.8901 1364.11 389.911
2731 0 164.511 9.7015 1596 95.4004 1364.02 388.659
2732 0 168.626 10.977 1851 94.5937 1364.49 383.697
2733 1 119.411 9.92375 1185 85.4852 1364.06 418.023
2734 0 120.276 9.91055 1192 85.828 1364.35 417.429
2735 0 117.355 10.0635 1181 89.0779 1364.71 414.409
2736 0 119.438 10.1811 1216 87.2607 1364.02 416.431
2737 0 123.365 11.3727 1403 85.9808 1364.09 410.301
2738 0 126.413 10.79 1364 88.6283 1363.55 410.632
2739 0 129.388 12.304 1592 89.358 1363.8 406.398
2740 0 131.51 12.4401 1636 91.9817 1363.06 405.543
2741 0 132.502 12.7847 1694 90.6375 1363.54 404.411
2742 0 136.353 12.3576 1685 92.9496 1363.77 402.239
2743 0 138.466 12.3712 1713 93.749 1362.69 399.605
2744 0 142.378 12.6354 1799 93.1267 1363.71 396.69
2745 0 143.414 12.5232 1796 92.672 1364.02 397.053
2746 0 144.374 11.4287 1650 95.7618 1364.41 399.312
2747 0 148.385 11.6454 1728 95.6117 1363.69 395.396
2748 0 151.233 12.0873 1828 96.9097 1363.59 394.818
2749 0 154.37 11.3688 1755 99.563 1364.66 390.828
2750 0 155.425 11.06 1719 100.572 1364.47 388.47
2751 0 162.408 11.3418 1842 96.1732 1364.02 385.76
2752 1 33.1179 10.2966 341 68.6804 1363.29 453.9
2753 0 33.1449 10.077 334 68.1287 1363.74 454.281
2754 0 31.1043 10.8988 339 67.4985 1364.98 454.003
2755 0 35.3599 10.8315 383 65.1149 1364.63 453.175
2756 0 35.0913 9.94549 349 67.0229 1363.96 454.295
2757 0 35.2598 9.69943 342 67.0936 1363.87 453.865
2758 0 34.1773 10.5918 362 64.7707 1363.9 453.613
2759 0 30.0702 8.84598 266 72.8233 1363.9 455.974
2760 0 28.1919 8.69045 245 73.3143 1363.75 455.294
2761 0 29.1047 9.41429 274 70.635 1363.57 456.066
2762 0 29.1387 9.02581 263 70.9392 1363.71 456.951
2763 0 30.1207 9.32913 281 68.637 1363.61 456.868
2764 0 28.0985 8.32784 234 70.547 1363.98 456.154
2765 0 31.1051 9.19465 286 67.5839 1363.73 456.444
2766 0 31.2479 9.31262 291 66.9553 1363.45 456.574
2767 0 30.075 9.40981 283 66.9152 1363.22 455.329
2768 0 29.1536 9.46711 276 67.1341 1363.7 455.996
2769 0 28.087 8.68728 244 68.6926 1363.81 457.418
2770 0 28.1448 8.63394 243 66.5885 1363.64 458.177
2771 0 29.1956 8.59718 251 66.3625 1363.25 458.175
2772 0 29.1956 8.76844 256 119.055 1363.29 458.27
2773 0 30.1599 9.58227 289 62.9066 1363.46 457.82
2774 0 29.2742 9.80387 287 63.6934 1364.19 457.801
2775 0 28.116 8.64277 243 64.3786 1362.95 459.523
2776 0 27.1234 8.36916 227 64.5683 1363.28 459.084
2777 1 186.547 13.0583 2436 75.3169 1363.57 376.312
2778 0 187.428 12.7462 2389 82.4483 1363.54 374.196
