time division length width area intensity CMx CMy
0 0 55.0339 13.5735 747 146.644 1302.16 486.535
1 0 57.0113 13.7692 785 120.48 1301.53 485.966
2 0 59.0222 13.605 803 117.884 1302 485.736
3 0 60.0168 13.6962 822 116.602 1301.52 484.55
4 0 64.0228 13.995 896 112.301 1301.55 482.946
5 0 67.0573 14.1521 949 108.856 1301.29 483.925
6 0 70.0946 14.8799 1043 106.221 1301.63 481.439
7 0 72.0841 14.9409 1077 105.527 1301.73 481.14
8 0 75.0458 14.5644 1093 105.119 1301.63 479.388
9 0 78.0661 15.6534 1222 101.773 1301.49 478.749
10 0 80.0226 16.033 1283 98.0249 1302.57 476.952
11 0 82.0908 15.3854 1263 100.245 1301.07 475.505
12 0 82.0726 15.267 1253 100.481 1301.31 474.727
13 0 88.0661 16.0902 1417 97.079 1300.55 472.763
14 0 89.1229 15.0691 1343 101.852 1299.79 471.286
15 0 92.1071 14.9283 1375 100.735 1300.52 469.457
16 0 95.0517 14.6867 1396 100.218 1300.33 469.049
17 0 99.0894 14.9158 1478 98.3938 1299.38 467.639
18 0 104.06 14.309 1489 97.9087 1300.25 466.096
19 1 51.0599 12.5343 640 97.875 1299.71 490.462
20 0 53.0505 12.9311 686 96.6604 1300.16 489.628
21 0 55.0631 14.0748 775 93.8852 1299.81 489.034
22 0 57.0702 13.7375 784 93.94 1301.07 487.064
23 0 58.0679 14.1386 821 93.24 1300.39 485.672
24 0 59.0845 14.2169 840 92.5881 1300.39 485.286
25 0 62.0309 14.3154 888 91.0856 1299.54 484.184
26 0 64.074 13.7341 880 91.9045 1300.05 483.368
27 0 67.0972 14.3374 962 90.3597 1299.63 481.326
28 0 70.0401 14.5203 1017 89.4336 1299.41 480.794
29 0 72.0785 14.4981 1045 89.2086 1299.64 480.265
30 0 73.0801 14.9699 1094 89.3455 1300.56 478.701
31 0 73.0874 13.8191 1010 91.8842 1299.95 478.802
32 0 76.0858 14.2734 1086 156.215 1299.95 477.599
33 0 82.0614 14.6841 1205 89.7668 1300.02 474.772
34 0 83.0479 14.8589 1234 90.2942 1298.95 474.338
35 0 85.0541 14.6025 1242 90.8019 1299.38 472.502
36 0 89.0443 14.8128 1319 89.8939 1298.91 470.737
37 0 91.0416 14.5538 1325 90.4845 1299.39 469.361
38 0 95.0964 14.9848 1425 90.1726 1299.2 468.738
39 0 96.0773 14.7798 1420 92.0676 1299.27 466.398
40 0 102.071 14.7349 1504 92.111 1299.26 464.449
41 0 104.05 14.839 1544 92.511 1300.11 464.791
42 0 109.081 15.0622 1643 94.1552 1299.84 462.97
43 0 113.046 14.9673 1692 94.1348 1298.8 461.012
44 0 116.054 15.1654 1760 93.8733 1299.3 458.39
45 0 120.087 15.7136 1887 93.6047 1298.8 455.574
46 0 124.057 15.3156 1900 94.101 1299.12 455.974
47 0 129.087 15.5787 2011 92.6887 1298.39 452.277
48 0 133.069 15.3003 2036 95.7038 1299.2 449.381
49 0 138.146 15.071 2082 95.5898 1298.43 446.923
50 0 141.173 14.9958 2117 95.9277 1298.96 444.496
51 0 147.156 15.2695 2247 94.0116 1299.2 443.349
52 0 153.141 15.4498 2366 93.7303 1299.07 440.029
53 0 153.141 15.4433 2365 169.634 1298.07 440.099
54 0 161.137 15.3969 2481 93.6776 1299.05 434.813
55 0 167.154 15.4229 2578 92.531 1299.08 431.775
56 0 172.207 15.0575 2593 93.1192 1298.41 429.562
57 0 181.135 16.4463 2979 88.4864 1298.47 425.649
58 0 186.257 15.1672 2825 91.6411 1298.76 420.82
59 0 193.172 15.0902 2915 91.3015 1297.74 418.146
60 0 193.172 15.085 2914 164.857 1296.74 418.208
61 1 116.261 12.7902 1487 86.6066 1298.84 460.679
62 0 119.24 13.3596 1593 86.3603 1298.65 457.869
63 0 123.173 13.6231 1678 88.236 1298.76 455.495
64 0 126.17 13.4501 1697 87.2687 1299.13 453.245
65 0 132.189 14.0783 1861 86.6018 1298.76 452.193
66 0 135.237 13.1769 1782 87.7149 1298.41 448.866
67 0 140.252 12.7699 1791 88.9838 1298 443.404
68 0 146.254 12.2458 1791 88.349 1298.32 439.858
69 0 150.214 13.2611 1992 86.2003 1298.97 437.383
70 1 83.2447 11.316 942 84.6189 1299.33 472.995
71 0 86.2194 12.5958 1086 86.9383 1298.99 474.573
72 0 89.2388 12.7299 1136 87.1584 1298.83 472.356
73 0 92.3628 12.7541 1178 86.6078 1298.56 470.447
74 0 95.395 13.2082 1260 85.8476 1298.64 469.048
75 0 99.3393 12.6133 1253 86.5339 1298.67 467.471
76 0 100.033 12.1859 1219 74.155 1298.35 467.492
77 0 103.136 11.2473 1160 75.7991 1298.29 466.765
78 0 107.094 12.4284 1331 74.2239 1298.85 464.272
79 0 112.116 12.2551 1374 74.6703 1298.72 461.405
80 0 115.055 12.5593 1445 73.5502 1298.91 460.827
81 0 119.151 12.0604 1437 76.0411 1298.68 457.331
82 0 122.142 11.5439 1410 77.8447 1298.69 453.579
83 0 127.14 11.9081 1514 78.7853 1298.28 451.97
84 0 131.145 12.3909 1625 77.7354 1298.82 449.876
85 0 137.13 12.4699 1710 77.6392 1298.58 449.822
86 0 141.192 12.3449 1743 77.8526 1298.66 447.005
87 0 146.248 12.0207 1758 79.6997 1299.07 443.193
88 0 152.207 12.6078 1919 79.6556 1299.47 441.517
89 0 157.189 12.0428 1893 81.3972 1299.56 436.245
90 1 87.2067 10.5267 918 74.3312 1299.16 475.964
91 0 91.1454 10.7301 978 74.6104 1298.92 473.78
92 0 95.0863 11.3791 1082 73.9926 1299.52 469.382
93 0 96.0928 11.7074 1125 78.584 1299.18 467.93
94 0 101.154 11.2205 1135 75.378 1298.6 468.44
95 0 104.108 11.44 1191 75.5542 1298.45 466.918
96 0 106.091 11.3676 1206 76.84 1298.59 463.936
97 0 112.1 12.7119 1425 75.0912 1298.41 464.238
98 0 115.128 12.9074 1486 75.8869 1298.99 463.909
99 0 122.271 13.6909 1674 76.7378 1299.05 461.855
100 0 124.199 12.8182 1592 79.3763 1298.54 460.655
101 0 130.272 13.871 1807 81.0769 1298.95 457.461
102 0 132.213 13.4102 1773 82.7862 1298.11 456.309
103 0 137.179 13.6828 1877 83.8716 1298.71 453.21
104 1 71.1414 12.0043 854 77.1956 1297.94 485.724
105 0 73.0799 12.11 885 79.5107 1298.44 484.686
106 0 76.1109 12.3241 938 83.6887 1297.67 481.995
107 0 74.0922 11.7691 872 72.2901 1298.62 484.445
108 0 76.0514 11.5185 876 72.6027 1298.13 483.519
109 0 76.0514 11.5711 880 151.411 1297.13 483.453
110 0 83.0506 11.8121 981 70.1947 1298.91 480.359
111 0 85.0636 12.379 1053 68.2089 1298.32 477.46
112 0 89.0703 11.2608 1003 71.6201 1298.53 478.086
113 0 91.1324 11.6973 1066 71.5122 1298.85 475.872
114 0 93.1396 12.025 1120 71.2982 1298.49 474.344
115 0 96.1642 12.3955 1192 70.6888 1298.14 472.766
116 0 100.079 12.2703 1228 70.8664 1298.14 470.536
117 0 106.18 13.2323 1405 68.1972 1298.02 469.527
118 0 107.129 12.471 1336 70.5479 1298.63 467.186
119 0 112.128 12.994 1457 70.5848 1299.25 465.38
120 0 112.188 11.7481 1318 74.2929 1299.05 461.028
121 0 117.241 11.9668 1403 73.1739 1298.51 461.747
122 1 62.1648 12.0325 748 72.4265 1298.59 486.75
123 0 63.148 11.4651 724 71.837 1298.19 486.782
124 0 65.0813 11.9236 776 71.9562 1298.23 485.911
125 0 65.0491 11.0839 721 69.785 1298.32 486.657
126 0 68.0589 10.9023 742 69.8127 1298.22 486.74
127 0 70.037 12.3363 864 68.0741 1297.8 483.98
128 0 72.0556 11.5605 833 70.4022 1298.39 482.468
129 0 75.0574 12.204 916 68.8155 1298.69 482.849
130 0 76.09 12.1567 925 70.3373 1298.56 479.742
131 0 78.0758 12.3726 966 70.8302 1297.76 479.732
132 0 81.1426 12.0159 975 72.4441 1297.55 478.388
133 0 85.0837 12.5758 1070 72.3103 1297.53 475.613
134 0 88.1024 12.6217 1112 73.3085 1297.68 474.298
135 0 91.1003 12.9088 1176 74.7526 1298.22 472.98
136 0 93.0451 12.4671 1160 77.6267 1298.11 470.871
137 0 97.0955 13.2447 1286 77.1967 1298.08 470.386
138 0 99.0888 13.0994 1298 79.7057 1298.04 467.883
139 0 103.076 13.0777 1348 81.5838 1298.57 466.639
140 0 105.024 14.8156 1556 85.3528 1297.15 464.672
141 1 53.0342 11.0495 586 80.1212 1297.07 492.254
142 0 56.0734 11.9665 671 81.1386 1297.5 490.776
143 0 58.2326 12.1753 709 81.4908 1297.71 488.712
144 0 61.2004 12.8104 784 80.9426 1296.65 488.967
145 0 58.0208 10.5824 614 77.0391 1297.36 491.575
146 0 61.0457 12.0729 737 74.1533 1298.52 490.175
147 0 61.0393 11.9923 732 75.5915 1297.63 488.258
148 0 63.0372 12.5323 790 74.8177 1297.29 487.025
149 0 64.0394 11.7271 751 77.8748 1297.47 486.728
150 0 67.1004 11.6095 779 78.1656 1297.04 486.488
151 0 68.044 12.9328 880 77.1818 1297.5 483.762
152 0 71.0771 12.1277 862 76.6427 1296.74 483.748
153 0 74.0338 12.5348 928 77.0129 1297.28 482.652
154 0 77.1567 13.3365 1029 76.5394 1296.76 481.047
155 0 78.0597 13.4512 1050 77.399 1297.33 480.047
156 0 79.0695 12.4953 988 80.1336 1297.72 479.044
157 0 85.0778 13.3525 1136 77.2086 1297.52 477.229
158 0 86.0478 12.5628 1081 79.3867 1296.9 476.525
159 0 88.111 12.9382 1140 79.1158 1297.06 473.808
160 0 93.114 13.5425 1261 77.8438 1297.55 472.407
161 0 93.071 12.9579 1206 79.8665 1296.63 469.817
162 0 98.0602 13.2368 1298 78.4222 1296.41 469.15
163 0 102.092 13.9874 1428 76.3095 1296.63 467.405
164 1 53.0473 10.6886 567 77.7919 1296.44 490.219
165 0 54.0823 10.558 571 77.0473 1296.4 488.41
166 0 53.0135 11.2236 595 72.3025 1297.11 485.992
167 0 57.1133 11.9587 683 74.3162 1296.84 485.564
168 0 55.0209 11.0685 609 67.6174 1296.98 490.422
169 0 57.0194 11.1366 635 69.0441 1297.34 489.58
170 0 58.0505 11.4039 662 69.3036 1297.3 487.835
171 0 60.0428 10.6091 637 69.5196 1297.4 487.548
172 0 61.079 11.346 693 68.342 1296.84 485.062
173 0 62.0294 11.1399 691 68.2547 1297.18 484.926
174 0 64.0279 9.93317 636 69.9277 1296.94 485.66
175 0 67.0209 11.0712 742 67.9232 1297.29 483.569
176 0 70.0494 11.4062 799 67.9149 1297.81 483.548
177 0 70.0447 11.0501 774 69.3527 1297.41 481.244
178 0 73.0437 11.8012 862 68.5963 1297.13 480.673
179 0 76.0661 11.5294 877 69.0582 1297.17 479.627
180 0 76.032 10.9691 834 71.271 1297.23 477.48
181 0 81.0405 11.0809 898 71.1915 1297.02 476.381
182 0 83.0358 12.1032 1005 71.1801 1296.61 475.298
183 0 85.0423 11.4884 977 73.7001 1297.2 473.486
184 0 90.0295 11.9961 1080 72.2991 1298.54 471.803
185 0 92.0726 11.7516 1082 74.4834 1296.8 469.466
186 1 50.0775 10.2242 512 74.0508 1296.94 491.9
187 0 50.0316 10.8731 544 72.7702 1296.43 491.395
188 0 54.0344 11.7703 636 70.3522 1298.07 489.604
189 0 55.0468 12.5711 692 69.3309 1298 488.367
190 0 56.0618 12.5754 705 66.0865 1297.14 489.651
191 0 57.0433 12.0084 685 68.108 1297.05 489.019
192 0 57.0433 11.9909 684 124.287 1297.04 488.984
193 0 60.0577 11.8553 712 69.809 1296.42 488.376
194 0 63.086 12.4116 783 68.9272 1296.37 486.221
195 0 63.0743 12.3188 777 71.0734 1296.5 487.299
196 0 66.0493 12.097 799 72.2441 1296.2 485.558
197 0 66.0631 11.822 781 73.379 1296.32 482.94
198 0 67.0829 11.2696 756 76.6614 1296.51 484.69
199 0 68.0487 12.1971 830 76.5759 1296.18 484.419
200 0 70.1463 12.1033 849 76.7809 1296.5 482.947
201 0 76.0625 12.2925 935 75.3358 1296.87 481.157
202 0 77.0514 12.3035 948 97.5591 1297.23 479.762
203 0 79.0986 11.6437 921 97.9175 1296.38 479.718
204 0 84.1032 12.3539 1039 96.1049 1296.77 476.869
205 0 86.084 12.4065 1068 97.6236 1296.35 475.512
206 0 89.0749 12.4053 1105 98.5873 1297.03 474.311
207 0 92.0746 12.8483 1183 97.8132 1296.06 473.085
208 0 94.0868 12.329 1160 99.5819 1296.58 471.691
209 0 98.0791 12.3166 1208 99.0182 1296.87 470.046
210 1 57.1251 11.1685 638 96.069 1296.81 491.15
211 0 57.1279 11.2729 644 92.7842 1296.77 490.741
212 0 59.0642 12.0886 714 91.3515 1296.33 489.476
213 0 59.1455 12.055 713 103.839 1296.56 488.072
214 0 61.1347 12.3007 752 95.7287 1296.71 488.858
215 0 60.0637 10.9717 659 89.9302 1296.53 489.467
216 0 63.0592 10.8152 682 89.5191 1296.68 489.51
217 0 63.0364 10.3274 651 88.8249 1296.68 487.896
218 0 66.0585 11.0357 729 87.4595 1296.99 486.974
219 0 67.0269 10.4734 702 87.7664 1296.39 486.613
220 0 70.1349 10.0093 702 86.9587 1296.36 485.122
221 0 72.1312 10.2175 737 86.772 1296.46 483.332
222 0 74.0522 10.7222 794 86.4723 1296.22 482.63
223 0 76.0607 10.3339 786 87.7901 1296.79 480.486
224 0 79.162 11.407 903 87.0742 1297.12 477.341
225 0 81.1064 11.2691 914 89.2035 1296.35 478.14
226 0 84.0426 11.2205 943 91.0488 1296.44 475.311
227 0 88.0693 12.1836 1073 89.5769 1296.92 474.817
228 0 91.0927 12.0097 1094 91.3126 1296.65 473.559
229 0 94.1177 11.9212 1122 91.7959 1296.61 470.819
230 0 98.0864 11.653 1143 92.7253 1296.24 469.598
231 1 50.0415 10.2315 512 87.9766 1297.78 494.76
232 0 51.0516 10.7538 549 86.153 1298.12 494.699
233 0 50.0275 10.6342 532 86.8045 1297.75 493.387
234 0 53.0613 10.3465 549 86.3534 1295.62 492.636
235 0 54.0333 11.1968 605 85.6413 1296.58 492.378
236 0 56.0482 11.6328 652 85.8589 1296.58 491.709
237 0 57.0542 12.4268 709 85.3738 1296.4 490.286
238 0 65.021 11.6732 759 94.8854 1296.73 490.722
239 0 62.0182 12.4641 773 96.7646 1297.71 488.291
240 0 64.08 12.8277 822 96.2275 1297.54 486.321
241 0 66.0371 13.0684 863 95.7567 1298 486.231
242 0 67.1038 13.2332 888 97.5574 1295.42 484.378
243 0 67.1907 12.5315 842 101.603 1295.88 481.229
244 0 71.1004 12.9535 921 100.425 1295.78 482.222
245 0 70.1391 12.7746 896 103.339 1295.52 481.256
246 0 73.0809 12.7804 934 103.892 1295.62 479.899
247 0 77.0384 12.5911 970 104.913 1294.88 480.56
248 0 78.0277 13.4311 1048 106.094 1295.1 480.395
249 0 79.0536 13.0671 1033 108.976 1295.36 479.538
250 0 83.0215 13.3339 1107 106.976 1295.9 477.924
251 0 84.0428 13.9096 1169 106.628 1296.03 478.171
252 0 86.1133 13.459 1159 110.451 1295.74 476.052
253 0 90.0607 13.8906 1251 109.265 1296.46 475.21
254 0 91.0549 13.5632 1235 109.614 1296.24 473.36
255 0 93.0544 13.605 1266 111.1 1296.06 471.602
256 0 94.0667 12.7356 1198 103.584 1296.45 473.295
257 0 96.0699 13.2924 1277 102.385 1296.26 471.805
258 0 98.0851 12.479 1224 104.651 1296.36 471.821
259 0 102.081 12.6664 1293 103.118 1296.48 467.454
260 1 56.0241 11.5843 649 101.26 1296.9 489.965
261 0 57.0327 11.7827 672 97.8854 1296.57 489.11
262 0 59.0657 12.8501 759 95.7826 1295.91 489.169
263 0 63.0592 13.1147 827 93.0822 1297.06 488.588
264 0 63.0431 12.8642 811 89.439 1296.88 487.016
265 0 65.0418 12.6841 825 89.503 1297.72 485.335
266 0 68.0846 12.7635 869 89.71 1298.02 484.869
267 0 69.1097 13.3122 920 88.4794 1297.25 483.141
268 0 70.0723 12.7297 892 94.0605 1297.22 482.899
269 0 72.066 12.3914 893 94.3595 1297.19 481.623
270 0 76.076 12.4744 949 93.0369 1297.21 480.82
271 0 79.0276 13.1853 1042 91.6862 1296.99 479.528
272 0 82.0827 12.8285 1053 92.6401 1297.06 478.438
273 0 83.0672 13.0256 1082 91.756 1297.23 476.584
274 0 86.0586 13.1771 1134 91.1102 1298.1 476.594
275 0 89.0604 13.62 1213 91.0651 1296.85 474.078
276 0 92.0658 13.5772 1250 91.836 1295.91 473.342
277 0 93.1061 13.3396 1242 94.4275 1296.71 471.988
278 0 97.0718 13.0934 1271 95.4028 1297.18 469.496
279 0 101.09 13.3842 1353 96.442 1296.81 469.198
280 0 103.074 13.5921 1401 97.3141 1296.76 467.114
281 0 106.055 13.4741 1429 99.8726 1296.54 464.128
282 1 58.024 11.5642 671 101.976 1297.1 489.693
283 0 60.0445 11.6247 698 103.878 1297.56 487.861
284 0 63.0484 12.657 798 102.236 1296.92 486.917
285 0 65.0543 11.6057 755 99.5881 1296.91 487.479
286 0 65.0115 12.2901 799 99.6984 1297.53 485.529
287 0 68.0422 12.845 874 98.9886 1297.39 484.103
288 0 71.0439 12.6682 900 99.6011 1297.78 482.928
289 0 72.0608 12.6144 909 100.393 1298.01 480.666
290 0 75.0385 12.9933 975 102.509 1297.66 479.122
291 0 77.0399 12.7986 986 103.229 1296.74 477.899
292 0 79.0949 13.0223 1030 102.741 1297.38 476.357
293 0 82.0676 12.7943 1050 102.042 1296.72 476.252
294 0 84.1185 13.374 1125 103.109 1296.78 475.093
295 0 88.1072 13.1317 1157 103.48 1296.4 473.602
296 0 89.1251 13.2735 1183 103.966 1296.74 471.233
297 0 89.1324 12.2739 1094 107.676 1297.79 472.469
298 0 92.1088 12.203 1124 106.746 1296.93 473.352
299 0 96.1753 13.1635 1266 103.498 1296.89 471.453
300 0 99.1243 13.2864 1317 103.658 1296.58 468.323
301 0 103.163 13.5126 1394 102.801 1296.79 466.139
302 0 105.208 13.2785 1397 102.555 1296.26 465.619
303 0 109.105 12.9141 1409 101.149 1296.93 463.877
304 0 112.115 12.7904 1434 101.654 1296.44 462.039
305 0 116.111 13.2287 1536 102.357 1296.76 460.175
306 0 119.22 12.976 1547 101.208 1296.97 460.415
307 0 122.195 12.4637 1523 100.905 1296.72 458.159
308 1 69.091 11.7237 810 100.238 1296.94 484.135
309 0 70.0438 11.9497 837 96.8112 1296.98 483.597
310 0 74.1166 12.5613 931 100.989 1297.22 482.73
311 0 74.058 12.5037 926 102.543 1296.96 483.014
312 0 79.0581 13.3446 1055 99.619 1297.06 483.064
313 0 80.1552 12.6255 1012 106.712 1297.4 480.147
314 0 81.0757 12.5562 1018 108.06 1297.47 479.733
315 0 86.0886 13.0215 1121 107.239 1297.6 478.522
316 0 87.0822 12.781 1113 111.129 1297.47 476.829
317 0 89.147 12.9786 1157 110.996 1297.51 476.736
318 0 93.1204 13.5201 1259 106.625 1296.39 475.572
319 0 95.1113 13.2266 1258 109.604 1297.21 473.802
320 0 98.1964 13.5647 1332 107.435 1297.22 473.134
321 0 100.13 13.2827 1330 108.702 1296.52 472.309
322 0 102.142 12.9722 1325 111.274 1295.95 470.205
323 0 106.198 13.0605 1387 109.671 1296.55 468.751
324 0 111.189 13.3556 1485 107.558 1296.63 468.357
325 0 115.188 13.4042 1544 107.573 1295.6 466.916
326 0 117.142 12.8903 1510 112.187 1295.97 464.334
327 0 121.156 12.7852 1549 111.655 1295.68 461.735
328 1 63.0824 10.3198 651 98.5822 1294.81 491.865
329 0 67.0879 11.2837 757 98.0634 1295.76 490.696
330 0 68.0529 11.7115 797 89.3538 1294.77 490.591
331 0 69.1719 11.7678 814 108.803 1294.61 488.264
332 0 72.1968 12.2443 884 106.98 1293.83 485.772
333 0 74.1942 12.1034 898 107.882 1294.55 484.568
334 0 77.1781 11.9723 924 107.979 1294.63 482.836
335 0 78.2406 12.0398 942 108.433 1294.37 482.183
336 0 82.3044 11.7855 970 107.629 1294.05 480.162
337 0 85.2395 12.0953 1031 105.403 1294.17 479.093
338 0 86.1692 12.1041 1043 105.709 1293.74 479.179
339 0 90.2948 12.2598 1107 104.158 1293.25 477.613
340 0 93.1195 12.3282 1148 104.099 1293.04 477.503
341 0 94.2848 11.0304 1040 105.649 1293.56 476.438
342 1 53.236 10.8761 579 97.943 1294.07 496.832
343 0 55.1917 10.9799 606 95.9538 1293.81 496.003
344 0 54.1404 11.4332 619 94.441 1293.34 495.877
345 0 57.2167 11.7798 674 88.1899 1293.02 494.914
346 0 59.1286 12.0923 715 82.4951 1291.54 493.915
347 0 60.2506 12.3152 742 83.8059 1293.09 492.945
348 0 60.1052 11.43 687 88.5357 1292.28 493.288
349 0 64.1166 11.7754 755 87.8159 1293.09 492.506
350 0 65.1044 12.3187 802 87.2369 1293.31 491.233
351 0 68.045 12.4917 850 83.9624 1291.92 490.127
352 0 69.0309 12.2409 845 85.0947 1291.78 488.391
353 0 72.0422 12.3261 888 85.3818 1291.38 488.39
354 0 74.0669 12.7317 943 86.3192 1292.28 486.244
355 0 74.0669 12.8262 950 132.183 1293.27 486.336
356 0 78.0731 13.1543 1027 89.5239 1291.57 484.944
357 0 79.036 12.5133 989 91.8969 1292.14 485.037
358 0 83.0891 13.636 1133 90.5869 1292.41 482.658
359 0 87.0547 13.1641 1146 92.0803 1292.66 481.589
360 0 89.0666 12.9678 1155 93.458 1292.35 480.35
361 0 90.082 12.9216 1164 94.4579 1292.99 478.395
362 0 94.0855 12.8394 1208 92.8634 1292.8 477.087
363 0 96.0612 13.7621 1322 90.553 1293.33 477.519
364 0 96.0612 13.7621 1322 139.675 1294.33 477.53
365 1 50.053 12.1072 606 97.0347 1292.31 499.302
366 0 50.0282 12.9327 647 102.791 1294.36 499.116
367 0 53.0099 12.6014 668 104.139 1294.7 498.099
368 0 55.0362 13.0823 720 102.708 1294.84 496.35
369 0 56.06 13.111 735 103.852 1295.04 495.551
370 0 58.0904 13.5823 789 102.322 1294.47 493.374
371 0 60.0522 13.7713 827 99.3144 1294.43 492.592
372 0 59.0464 13.2099 780 103.369 1295.26 493.282
373 0 61.0387 13.2867 811 104.961 1295.02 493.035
374 0 63.0634 13.7322 866 103.374 1294.43 492.626
375 0 64.0734 14.3273 918 99.756 1295.22 491.169
376 0 65.0496 13.9125 905 102.217 1294.96 490.361
377 0 67.0698 14.0451 942 101.293 1295.53 488.034
378 0 68.1827 13.7425 937 102.513 1294.92 487.815
379 0 70.1021 14.2792 1001 101.012 1295.73 486.72
380 0 72.0916 14.4122 1039 101.034 1295.84 484.698
381 0 74.0923 12.5114 927 106.36 1295.72 485.513
382 0 75.03 13.2081 991 105.456 1295.56 483.623
383 0 76.0652 12.8705 979 107.794 1295.53 481.494
384 0 80.0706 13.6255 1091 104.396 1295.36 480.169
385 0 81.0427 13.0055 1054 105.981 1295.38 478.337
386 0 85.0538 13.0035 1106 104.755 1295.55 478.179
387 0 88.0588 13.8317 1218 101.629 1295.61 476.644
388 0 89.0515 13.2283 1178 103.657 1295.85 475.132
389 0 94.041 13.3027 1251 101.228 1295.25 473.094
390 0 93.0464 12.7033 1182 104.417 1296.02 470.33
391 0 97.0683 13.506 1311 100.094 1295.06 469.278
392 0 98.1196 12.7497 1251 102.608 1295.42 467.283
393 1 48.0525 10.2596 493 95.5538 1295.79 488.7
394 0 50.0142 10.617 531 91.1281 1295.11 487.401
395 0 50.0549 11.5673 579 83.6908 1294.75 485.774
396 0 54.0434 10.9172 590 93.4475 1294.43 484.63
397 0 52.0452 11.4516 596 92.8826 1294.58 483.686
398 0 57.0369 11.0981 633 92.8784 1294.75 483.363
399 0 58.0611 11.3157 657 92.2968 1294.82 481.435
400 0 60.0632 11.0384 663 91.7813 1294.54 480.92
401 0 63.0732 10.7653 679 92.8601 1294.71 479.907
402 0 65.1096 11.7955 768 89.3516 1295.5 478.324
403 0 70.0887 11.9563 838 87.0692 1295.69 477.776
404 0 71.031 12.5297 890 95.8719 1296.14 479.617
405 0 74.0295 11.8061 874 88.7986 1295.47 477.832
406 0 82.0662 13.7816 1131 95.206 1294.6 480.966
407 0 83.1033 13.0681 1086 96.8462 1294.88 480.135
408 0 85.0981 13.8076 1175 95.1523 1294.8 478.437
409 0 88.0995 13.1783 1161 96.9595 1294.73 476.552
410 0 91.0736 13.0224 1186 97.8044 1294.99 475.191
411 1 49.0192 10.4449 512 94.2988 1296.59 497.756
412 0 50.0362 11.6316 582 92.622 1296.34 496.498
413 0 51.0383 12.2653 626 85.6438 1295.3 495.353
414 0 51.0189 12.2308 624 79.7452 1294.58 496.155
415 0 52.0173 12.0921 629 79.151 1294.48 494.41
416 0 54.0461 12.1563 657 79.2466 1294.59 493.721
417 0 56.031 12.1718 682 80.2786 1295.05 492.428
418 0 57.0233 12.4335 709 79.5049 1294.1 491.396
419 0 58.0455 12.5591 729 79.1221 1295.13 490.809
420 0 60.033 12.5764 755 77.8821 1294.94 489.944
421 0 62.034 12.5415 778 77.2712 1295.15 489.053
422 0 64.0585 12.9101 827 76.0846 1293.99 487.317
423 0 68.0968 12.9521 882 76.5193 1293.78 486.94
424 0 67.0739 12.5682 843 80.0463 1293.83 484.683
425 0 67.0739 12.3446 828 126.948 1293.84 484.751
426 0 72.0587 13.1004 944 85.6451 1293.79 482.62
427 0 77.0924 13.6589 1053 80.9554 1293.77 481.846
428 0 77.0842 13.5307 1043 83.7488 1294.22 481.754
429 0 79.0352 13.2726 1049 86.0582 1293.92 478.872
430 0 83.0576 13.906 1155 84.8961 1294.52 477.664
431 0 84.0999 13.6742 1150 86.5261 1293.85 475.603
432 0 88.0632 13.9786 1231 85.459 1293.9 474.811
433 0 90.0817 14.1871 1278 85.1808 1293.96 475.603
434 0 94.0854 13.9979 1317 85.5087 1294.61 473.175
435 0 98.0539 14.5736 1429 83.6417 1294.39 471.832
436 1 51.0102 11.1938 571 89.7811 1294.01 495.585
437 0 51.0538 11.2626 575 88.953 1295.07 493.367
438 0 55.1026 11.651 642 87.3037 1295.95 493.299
439 0 56.0244 12.4232 696 77.6667 1294.69 493.704
440 0 56.0093 11.998 672 77.4018 1294.34 493.153
441 0 58.0503 12.0757 701 79.4023 1294.63 490.957
442 0 60.0704 12.6352 759 78.9183 1293.8 489.95
443 0 61.0874 12.0974 739 80.6022 1293.65 488.797
444 0 63.0723 12.5095 789 79.142 1293.99 488.191
445 0 65.055 12.3434 803 79.1631 1293.8 486.791
446 0 68.0697 12.7663 869 79.1864 1294.76 485.956
447 0 70.0702 13.4294 941 76.5058 1293.4 484.846
448 0 73.0804 13.0267 952 77.7174 1294.47 484.871
449 0 72.0951 12.5945 908 81.1289 1293.81 484.048
450 0 75.1109 12.5415 942 80.1815 1294.4 484.496
451 0 78.0823 13.3193 1040 76.7038 1293.81 481.712
452 0 79.1772 12.4278 984 79.8404 1293.62 481.172
453 0 82.3226 12.3174 1014 79.2248 1293.9 480.736
454 0 83.1746 12.612 1049 80.3546 1294.64 479.012
455 0 87.2168 12.6123 1100 80.1482 1294.18 477.824
456 0 88.1185 12.5059 1102 82.2142 1294.84 476.275
457 0 89.1098 11.3119 1008 85.8909 1294.4 476.992
458 1 53.0435 11.4434 607 87.2554 1294.26 493.194
459 0 51.1126 11.2497 575 87.5374 1294.27 490.353
460 0 50.0642 10.4466 523 71.587 1295.51 487.235
461 0 54.1088 10.3126 558 71.3136 1295.31 487.866
462 0 54.0547 10.2489 554 72.2058 1294.51 487.529
463 0 52.0788 8.98637 468 74.0962 1294.8 483.699
464 0 52.0815 8.90911 464 110.767 1294.83 483.556
465 0 59.1071 9.42357 557 74.9785 1294.95 485.89
466 0 60.0957 9.15207 550 75.4945 1295.05 484.607
467 0 59.0398 8.50274 502 74.5319 1294.85 484.165
468 0 63.0599 10.3077 650 72.6892 1295.39 483.128
469 0 64.0413 9.57195 613 75.0294 1294.91 481.865
470 0 67.0765 9.77988 656 75.0899 1294.86 482.983
471 0 68.0502 10.7568 732 74.8484 1293.94 481.074
472 0 71.0689 10.6516 757 81.1664 1295.27 483.584
473 0 74.0567 10.1679 753 81.8765 1296.24 482.4
474 0 76.1102 10.6687 812 80.4495 1295.75 482.511
475 0 80.1649 11.3641 911 80.3524 1294.97 478.362
476 0 84.1114 11.3897 958 77.6921 1294.85 478.069
477 0 85.1001 10.9753 934 79.3276 1294.7 476.363
478 0 89.1331 11.2977 1007 77.8282 1294.93 475.534
479 1 45.0229 10.4169 469 76.3369 1295.76 497.053
480 0 48.0692 11.3586 546 74.5165 1294.9 495.436
481 0 50.0507 11.0488 553 73.6275 1294.98 495.174
482 0 53.0669 11.7776 625 82.2176 1295.86 493.462
483 0 54.045 11.4904 621 83.3591 1295.57 494.324
484 0 54.0501 11.2303 607 87.9885 1295.43 493.59
485 0 55.0703 11.7668 648 87.0262 1295.66 492.364
486 0 58.016 11.5658 671 87.7586 1295.93 490.912
487 0 55.0873 10.4743 577 81.5026 1295.32 493.154
488 0 56.0653 10.791 605 79.8314 1294.97 492.886
489 0 56.0543 10.9715 615 77.4602 1293.63 492.764
490 0 60.0697 11.1537 670 77.1896 1293.9 492.361
491 0 61.0353 11.0264 673 77.795 1294.81 492.235
492 0 64.0556 11.1778 716 77.2807 1294.83 492.325
493 0 65.0726 11.3719 740 78.4689 1295.34 488.645
494 0 69.0372 12.3412 852 75.6244 1294.92 489.286
495 0 69.0539 11.4114 788 78.4987 1295.34 485.685
496 0 72.0804 11.945 861 77.6225 1295.46 486.624
497 0 76.0924 12.0249 915 78.4951 1295.4 484.978
498 0 78.0308 12.3157 961 79.2726 1294.82 483.341
499 0 81.0494 11.6966 948 81.2405 1294.77 483.198
500 1 40.0445 11.3873 456 84.1096 1294.37 502.408
501 0 43.0284 10.8533 467 82.9144 1295.47 501.184
502 0 41.0729 10.6153 436 86.8578 1293.03 501.479
503 0 43.0247 11.505 495 85.8101 1293.68 500.493
504 0 45.0292 11.7257 528 84.1856 1293.12 499.576
505 0 46.0119 12.6054 580 83.3828 1293.22 498.526
506 0 47.0137 12.6984 597 80.1106 1293.7 497.707
507 0 48.0152 13.1417 631 78.412 1293.26 496.128
508 0 50.0245 12.7338 637 78.854 1292.36 497.028
509 0 51.0408 12.1472 620 80.2484 1293.02 496.618
510 0 51.0408 12.108 618 134.045 1294.04 496.595
511 0 52.0471 12.6232 657 80.5464 1292.79 495.928
512 0 53.0118 12.2237 648 80.696 1293.06 496.006
513 0 55.0539 12.8056 705 79.434 1293.14 493.214
514 0 59.0413 13.1264 775 77.4736 1293.55 493.775
515 0 59.1168 13.1942 780 77.6167 1294.27 491.905
516 0 61.0929 12.8493 785 79.0586 1293.23 492.341
517 0 64.1152 13.5537 869 76.6778 1293.36 492.1
518 0 64.1594 13.2327 849 78.2485 1293.49 490.567
519 0 66.0675 13.0473 862 78.8724 1293.75 490.331
520 0 69.0698 13.537 935 78.1497 1294.01 490.047
521 0 72.0806 14.1647 1021 76.5426 1293.35 488.158
522 0 73.0644 13.3444 975 78.3867 1293.81 487.728
523 0 76.0917 13.3523 1016 78.4242 1294.05 486.603
524 0 77.0751 13.2468 1021 79.7777 1293.63 485.386
525 0 79.1213 12.8916 1020 79.1647 1293.41 483.76
526 0 81.157 13.2706 1077 79.6035 1293.39 482.202
527 0 79.0844 11.9366 944 84.7797 1293.6 482.269
528 0 84.1356 12.2659 1032 84.1298 1293.2 479.289
529 0 87.1406 12.3708 1078 83.9007 1292.67 480.558
530 0 91.1316 12.5642 1145 84.7135 1292.71 478.298
531 0 95.1769 12.2929 1170 84.3239 1292.87 478.811
532 1 53.0243 11.7493 623 89.3403 1292.09 497.149
533 0 55.0276 12.4846 687 88.0393 1291.31 496.169
534 0 56.0426 12.9723 727 88.4856 1292.09 494.549
535 0 59.04 13.2961 785 93.1732 1292.36 496.437
536 0 61.1343 13.0696 799 94.4631 1293.35 495.27
537 0 63.1071 13.6118 859 93.163 1293.01 494.445
538 0 64.1274 13.0521 837 95.4958 1293.51 493.358
539 0 66.1193 13.1732 871 96.7623 1293.12 492.76
540 0 68.0698 13.4274 914 96.6357 1293.35 492.485
541 0 70.17 13.5671 952 96.7637 1292.68 490.028
542 0 70.1763 13.5801 953 169.535 1292.69 490.082
543 0 74.0874 13.0117 964 100.224 1292.76 488.633
544 0 77.09 13.2832 1024 95.7061 1292.28 487.874
545 0 76.1043 12.4303 946 92.259 1292.58 487.094
546 0 81.1194 13.1411 1066 96.8377 1292.5 486.659
547 0 82.1417 12.6367 1038 98.5694 1292.33 485.18
548 0 85.0955 13.3145 1133 97.226 1292.58 482.715
549 0 87.0963 12.6297 1100 99.7227 1292.71 480.775
550 0 91.0913 13.7664 1254 97.4553 1292.67 479.752
551 0 94.1349 13.4807 1269 98.6548 1293.24 478.715
552 0 94.1111 12.7615 1201 101.808 1292.57 478.108
553 0 100.108 12.966 1298 100.494 1293.83 475.361
554 0 101.148 12.8821 1303 93.9931 1293.45 472.619
555 0 103.176 12.9003 1331 95.695 1292.97 470.15
556 1 55.1121 10.524 580 86.4759 1291.96 496.034
557 0 56.0438 10.4918 588 83.4983 1292.56 494.988
558 0 59.0567 12.2425 723 107.051 1293.54 495.43
559 0 62.0745 12.9039 801 91.4707 1292.12 495.662
560 0 63.0416 12.0555 760 93.625 1292.27 496.047
561 0 65.0382 12.7771 831 92.8171 1292.87 494.379
562 0 66.095 12.9662 857 90.8716 1292.1 493.418
563 0 69.1534 13.0579 903 91.144 1292.29 492.247
564 0 67.0849 12.2382 821 94.5664 1292.4 491.84
565 0 72.0827 12.2776 885 94.5695 1291.92 491.313
566 0 72.0443 12.1453 875 96.4857 1291.76 490.794
567 0 75.0729 12.2681 921 96.5277 1291.39 487.775
568 0 77.062 12.0942 932 95.8305 1291.96 487.476
569 0 80.0615 12.303 985 95.8964 1291.39 487.409
570 0 84.1026 12.1281 1020 94.9451 1291.19 485.694
571 0 84.0412 12.2916 1033 96.3708 1291.18 484.795
572 0 88.0554 11.947 1052 96.8213 1291.37 482.553
573 0 90.0891 12.1546 1095 96.4091 1291.3 480.705
574 0 95.0565 12.6767 1205 93.2846 1291.25 478.741
575 0 96.0376 12.5263 1203 93.5968 1291.56 477.884
576 0 99.0516 12.438 1232 92.8636 1291.85 474.535
577 0 102.111 12.0947 1235 93.0777 1291.72 473.704
578 1 55.0842 10.493 578 96.5035 1291.73 496.867
579 0 57.0382 10.8874 621 94.4267 1291.91 497.143
580 0 59.0503 11.8035 697 91.8623 1291.71 494.727
581 0 59.0503 11.8374 699 138.069 1291.69 494.748
582 0 64.0296 12.1975 781 90.388 1291.33 491.941
583 0 67.0247 11.8016 791 90.1669 1291.08 490.107
584 0 67.0724 11.7634 789 92.379 1291.37 489.169
585 0 70.1406 12.09 848 91.4658 1291.5 489.241
586 0 73.0932 12.8466 939 87.9499 1291.56 486.9
587 0 75.0953 12.5307 941 89.508 1291.12 486.533
588 0 76.0893 12.2488 932 90.5794 1291.48 485.047
589 0 80.0984 12.5346 1004 89.5339 1292.26 485.325
590 0 83.0637 12.6289 1049 90.1239 1292.39 483.772
591 0 85.0761 13.1177 1116 89.4633 1292.4 484.692
592 0 89.072 13.7305 1223 88.1038 1292.23 483.702
593 0 92.165 13.172 1214 90.9415 1291.23 481.493
594 0 93.1537 12.8927 1201 93.1341 1291.85 480.649
595 0 98.098 13.8739 1361 88.6951 1290.69 478.772
596 0 100.119 12.7049 1272 90.8412 1291.44 475.432
597 0 102.19 12.9954 1328 87.7636 1291.29 474.221
598 1 51.0259 11.4452 584 81.3373 1291.16 502.791
599 0 51.0255 11.4845 586 81.8311 1291.79 502.164
600 0 53.0257 11.6547 618 76.9466 1291.6 500.254
601 0 54.0406 12.0835 653 78.2925 1291.42 500.83
602 0 56.0443 12.0976 678 79.2286 1292.29 499.619
603 0 56.0408 12.2589 687 80.8326 1292.1 499.523
604 0 56.059 11.7912 661 81.8941 1292.09 498.59
605 0 59.0399 12.5847 743 82.0229 1291.53 496.11
606 0 61.0762 12.1324 741 83.1174 1292.37 496.742
607 0 62.1301 12.2324 760 81.8803 1292.52 493.562
608 0 66.0867 13.3158 880 79.3909 1291.91 493.993
609 0 66.0541 13.3073 879 79.4061 1291.3 494.049
610 0 68.0497 13.1668 896 78.7466 1292.14 492.97
611 0 71.0543 12.9056 917 79.615 1292.6 491.594
612 0 72.0688 13.057 941 79.8374 1292.62 491.192
613 0 74.0726 13.2303 980 80.4888 1292.64 491.052
614 0 78.0424 13.3517 1042 80.6785 1291.97 488.725
615 0 79.0473 13.2326 1046 81.5784 1292.6 486.971
616 0 83.0502 13.0403 1083 82.2096 1292.25 486.035
617 0 83.0305 12.9711 1077 83.0297 1292.56 485.289
618 0 87.1099 12.7081 1107 83.9052 1292.15 481.724
619 0 88.0529 11.3909 1003 87.2024 1291.66 482.642
620 1 49.0344 11.1146 545 86.9725 1292.43 502.356
621 0 51.0434 11.6763 596 83.8708 1292.42 500.669
622 0 51.0371 11.8345 604 83.0315 1292.39 499.692
623 0 54.02 12.7175 687 80.3857 1292.71 498.817
624 0 52.0607 13.2538 690 84.171 1290.99 497.333
625 0 54.078 12.6669 685 89.7898 1292.04 497.829
626 0 57.0654 12.0213 686 91.0918 1292.34 496.367
627 0 57.0547 12.4267 709 92.086 1292.51 495.391
628 0 60.0659 12.4863 750 89.7333 1291.61 493.9
629 0 61.0633 12.5116 764 89.2853 1292.09 493.141
630 0 63.0583 11.5607 729 94.6859 1292.18 492.313
631 0 66.1121 12.9174 854 90.8267 1292.05 492.959
632 0 69.0906 12.8672 889 89.3003 1291.99 490.443
633 0 70.079 13.4562 943 87.5366 1293.15 489.434
634 0 71.0392 13.1899 937 89.6254 1292.96 488.734
635 0 73.0166 12.9834 948 90.2331 1293.34 487.813
636 0 74.0284 12.7384 943 91.5907 1293.2 485.017
637 0 78.1097 12.9561 1012 90.1176 1293.29 485.737
638 0 80.0463 12.6802 1015 91.7823 1292.59 484.854
639 0 81.0796 13.1599 1067 90.8388 1293.28 484.439
640 0 84.083 12.5114 1052 91.4477 1292.57 481.698
641 0 84.0883 12.2728 1032 93.218 1292.79 481.91
642 0 87.077 12.5521 1093 93.8317 1293.99 480.26
643 0 90.0778 12.9333 1165 93.0258 1293.08 478.121
644 0 91.1244 12.4774 1137 93.5207 1292.79 476.632
645 0 94.1346 11.9191 1122 94.4742 1292.82 476.286
646 1 49.074 11.0649 543 90.9098 1293.25 497.81
647 0 51.0841 11.1189 568 90.1232 1291.99 496.055
648 0 51.045 11.6564 595 91.5025 1291.82 495.183
649 0 54.04 12.6758 685 88.2774 1292.69 494.968
650 0 56.1043 12.3163 691 88 1292.09 492.819
651 0 58.0575 13.2283 768 81.444 1293.32 494.214
652 0 60.0834 12.8488 772 82.6749 1292.83 492.688
653 0 61.0906 12.2768 750 84.4027 1293.45 491.007
654 0 64.0538 12.9735 831 84.5704 1293.36 490.455
655 0 65.1386 12.5425 817 87.0404 1293.44 490.518
656 0 67.0636 13.2113 886 87.2957 1294.08 489.198
657 0 69.0774 13.0433 901 88.5683 1294.3 488.123
658 0 72.0793 13.0967 944 89.267 1293.57 486.572
659 0 73.1273 13.3739 978 89.9601 1293.93 484.719
660 0 73.1273 13.3876 979 138.637 1293.94 484.65
661 0 79.0523 13.1053 1036 92.472 1293.96 482.184
662 0 82.0988 13.228 1086 95.0737 1294.11 480.959
663 0 86.0812 13.313 1146 94.7138 1293.86 479.014
664 0 87.1778 12.8129 1117 96.8165 1294.44 477.1
665 0 89.1312 13.1828 1175 99.0902 1294.2 475.5
666 0 91.1249 12.9932 1184 97.6334 1293.68 475.149
667 0 95.0596 12.8656 1223 97.1627 1293.57 473.263
668 1 49.0225 10.7298 526 99.2719 1294.01 495.316
669 0 52.0115 11.3244 589 96.4329 1292.96 492.581
670 0 50.0983 11.4175 572 96.0612 1293.7 488.378
671 0 53.016 11.2985 599 80.1386 1293.58 489.392
672 0 55.0461 12.1534 669 79.006 1293.65 489.798
673 0 55.0716 11.4578 631 80.6624 1294.06 488.043
674 0 56.0566 11.2922 633 81.6556 1293.77 487.178
675 0 60.057 11.3892 684 80.1126 1293.35 486.7
676 0 61.0325 11.5348 704 82.392 1293.99 486.432
677 0 64.1473 12.3622 793 79.5271 1294.08 483.43
678 0 66.0963 12.1187 801 79.191 1293.31 485.311
679 0 67.0807 12.6415 848 88.2583 1293.89 483.749
680 0 71.1467 11.399 811 78.529 1292.63 482.261
681 0 73.2027 12.2263 895 76.6581 1293.34 482.165
682 0 74.0522 11.789 873 77.984 1293.1 481.04
683 0 74.0982 11.2553 834 79.6199 1293.23 481.454
684 0 77.0664 11.1333 858 80.3823 1292.95 479.161
685 0 78.0464 11.775 919 78.8477 1293.55 476.684
686 0 81.0634 12.0893 980 78.5347 1294.32 475.597
687 0 82.0917 11.8282 971 79.1988 1294.56 474.908
688 0 87.1018 11.4234 995 79.206 1293.84 472.636
689 0 87.0652 10.9343 952 81.5966 1293.71 471.413
690 0 92.1556 11.8712 1094 79.4333 1293.49 471.99
691 0 94.0561 11.525 1084 80.2325 1293.92 472.625
692 0 96.0422 12.557 1206 80.7761 1293.82 471.973
693 0 98.095 9.90877 972 85.6029 1293.59 473.306
694 0 102.108 11.4585 1170 83.247 1293.15 469.149
695 0 106.078 12.5002 1326 91.3605 1292.92 471.712
696 0 109.103 11.5671 1262 92.0642 1293.09 472.997
697 0 113.139 12.71 1438 91.0904 1292.81 469.296
698 0 116.114 12.2294 1420 95.4556 1292.27 467.223
699 1 65.085 10.9703 714 96.5896 1292.31 492.597
700 0 66.0818 11.2739 745 97.8752 1292.89 490.076
701 0 69.0332 11.7914 814 97.2629 1292.4 491.64
702 0 73.1104 12.3922 906 93.3046 1292.49 488.991
703 0 76.1086 13.5727 1033 92.2198 1292.78 486.148
704 0 76.0662 12.5417 954 95.1111 1292.19 486.765
705 0 78.0923 12.306 961 92.8668 1292.65 485.913
706 0 79.0919 11.5182 911 87.4588 1292.05 485.181
707 0 82.1169 11.6541 957 82.7388 1292.25 483.882
708 0 84.1089 11.3781 957 88.3124 1292.17 482.049
709 0 88.0977 11.9186 1050 90.0038 1291.59 481.111
710 0 89.0837 11.3826 1014 88.641 1292.06 482.482
711 0 92.0845 11.7718 1084 88.2002 1291.99 480.516
712 0 95.1169 11.4911 1093 88.4867 1291.61 480.417
713 0 99.0953 11.7765 1167 87.9109 1291.44 479.494
714 0 102.107 11.9972 1225 88.1518 1292.03 476.808
715 0 104.126 12.0143 1251 88.8201 1292.49 474.325
716 0 109.148 12.8174 1399 88.2302 1292.09 472.864
717 0 113.091 11.8047 1335 86.4165 1291.67 472.844
718 1 59.069 11.2919 667 81.6807 1291.16 498.673
719 0 55.0156 9.32464 513 79.4405 1292.44 491.641
720 0 58.0786 10.2792 597 81.526 1292.68 488.734
721 0 58.0478 10.2846 597 79.6616 1291.78 490.477
722 0 62.0687 8.74838 543 71.2063 1293.6 492.994
723 0 62.0874 8.79405 546 74.2051 1292.33 493.317
724 0 64.0259 8.80894 564 74.6436 1292.98 491.349
725 0 66.0706 8.62714 570 75.6246 1292.89 488.484
726 0 68.154 8.92098 608 73.7632 1293.71 488.995
727 0 70.0533 9.46422 663 74.7587 1292.85 485.56
728 0 73.0479 9.35003 683 75.1244 1292.66 485.915
729 0 74.1449 9.71072 720 76.5625 1292.52 481.611
730 0 74.1533 9.64219 715 115.557 1292.52 481.667
731 0 80.0462 9.81932 786 76.4682 1292.42 483.182
732 0 80.0626 9.05541 725 78.8566 1292.22 479.237
733 0 82.0428 8.9953 738 79.7669 1293.04 479.283
734 0 86.1599 9.44755 814 80.043 1293.12 475.816
735 0 88.071 10.0828 888 80.4178 1292.25 476.4
736 0 90.0934 8.57998 773 84.599 1292.99 471.677
737 0 94.1122 8.97864 845 84.7349 1291.98 471.214
738 0 96.0955 9.84437 946 83.8425 1292.42 467.774
739 0 96.1006 9.96872 958 85.4666 1292.44 465.377
740 0 98.0739 8.90145 873 85.7297 1292.72 463.8
741 0 103.154 10.1984 1052 83.5028 1291.43 462.807
742 0 108.085 10.538 1139 81.6558 1291.44 463.156
743 0 112.136 10.7103 1201 81.7735 1292.13 462.219
744 0 115.142 10.8214 1246 82.9205 1292.02 457.535
745 0 119.111 11.4264 1361 82.5503 1291.81 457.009
746 0 120.184 10.3342 1242 85.6723 1292.23 454.617
747 0 124.285 10.4599 1300 85.6708 1291.83 451.01
748 0 132.207 11.1567 1475 81.7973 1292.27 450.502
749 1 73.1127 9.61529 703 77.3129 1292.32 480.683
750 0 73.0961 10.0826 737 80.5346 1292.77 478.394
751 0 79.0835 10.9125 863 81.0626 1292.53 479.735
752 0 78.0723 9.46559 739 76.5724 1291.85 484.706
753 0 83.1305 10.8264 900 75.7856 1292.1 484.91
754 0 84.1248 10.0684 847 75.3176 1292.22 485.98
755 0 88.1209 11.0757 976 73.6004 1291.87 481.497
756 0 92.1155 10.4217 960 74.1479 1291.99 479.91
757 0 93.1899 10.8703 1013 74.6268 1293.35 479.055
758 0 98.1462 10.9734 1077 77.3324 1292.52 476.976
759 0 99.199 11.1493 1106 77.8535 1293.28 476.081
760 0 105.136 11.9464 1256 76.7134 1292.53 474.532
761 0 107.22 12.4883 1339 77.7737 1292.33 471.127
762 0 108.248 11.1781 1210 82.8678 1293.25 467.919
763 0 113.33 12.5122 1418 80.8484 1292.3 467.587
764 0 116.293 11.1357 1295 84.3915 1293.15 464.426
765 0 119.302 11.1147 1326 84.7896 1292.47 465.132
766 0 123.356 11.9653 1476 84.4749 1293.17 460.432
767 1 63.2311 11.6715 738 76.4512 1291.86 492.125
768 0 64.081 12.4062 795 76.5711 1292.42 491.403
769 0 67.1024 12.399 832 75.631 1293.62 492.213
770 0 68.0929 11.5577 787 74.4079 1292.34 488.924
771 0 70.0622 12.1606 852 74.8486 1292.7 489.43
772 0 71.0445 10.965 779 77.4621 1293.02 488.218
773 0 74.0877 11.1759 828 77.7669 1293.49 487.109
774 0 77.0636 12.0679 930 76.0495 1293.22 487.342
775 0 78.0392 11.6096 906 77.649 1294.26 485.234
776 0 81.0754 11.7792 955 76.2838 1293.84 483.369
777 0 83.0512 10.2587 852 78.7641 1293.64 483.735
778 0 87.1039 10.8147 942 77.327 1294.59 483.678
779 0 87.1039 10.8032 941 113.723 1296.57 483.717
780 0 92.172 10.8601 1001 78.2617 1294.07 479.782
781 0 92.1397 10.7771 993 77.5368 1293.1 477.571
782 0 96.2312 10.7761 1037 79.1292 1294.31 474.142
783 0 100.052 11.8638 1187 79.8467 1294.01 471.508
784 0 103.095 11.0869 1143 82.5582 1294.15 473.435
785 0 103.098 11.0187 1136 123.108 1295.15 473.585
786 0 110.138 11.5582 1273 81.6269 1294.06 466.554
787 0 114.161 12.167 1389 82.0014 1294.74 464.695
788 0 119.184 12.3255 1469 84.2757 1293.46 462.195
789 0 125.103 11.4305 1430 86.0622 1294.48 459.055
790 0 130.149 13.1541 1712 82.0035 1294.55 459.476
791 1 66.0735 10.7456 710 75.0606 1294.01 493.444
792 0 67.0674 10.5416 707 77.0467 1294.1 490.45
793 0 73.0703 12.4127 907 73.065 1294.47 490.007
794 0 72.0993 11.1513 804 77.0983 1294.29 488.026
795 0 76.1022 12.4175 945 74.837 1295.23 487.057
796 0 79.0999 12.756 1009 75.5312 1294.4 486.573
797 0 80.0884 12.3738 991 76.0747 1295 486.034
798 0 83.0796 12.5903 1046 77.9264 1294.71 482.759
799 0 86.0969 12.5208 1078 82.9824 1295.03 482.009
800 0 88.0844 13.033 1148 83.0488 1294.28 481.162
801 0 91.1926 12.7094 1159 84.8223 1294.43 478.632
802 0 95.1584 12.5055 1190 84.9076 1294.56 477.476
803 0 95.1854 12.5439 1194 84.9648 1294.27 476.329
804 0 101.361 12.8452 1302 84.3656 1294.89 476.26
805 0 103.243 13.0469 1347 83.4447 1294.98 474.671
806 0 103.172 12.7845 1319 85.7271 1294.38 473.886
807 0 109.184 12.9873 1418 83.3308 1294.16 475.066
808 0 112.263 13.7089 1539 83.0331 1293.6 473.421
809 0 115.161 13.5636 1562 84.8259 1294.18 469.85
810 0 115.249 12.7811 1473 87.6714 1293.65 467.923
811 0 120.158 12.7499 1532 87.1997 1293.79 467.113
812 0 125.31 13.335 1671 87.4416 1293.54 465.335
813 0 128.272 12.949 1661 88.4359 1293.56 462.238
814 0 132.305 12.3729 1637 91.2132 1294.41 461.254
815 0 136.278 13.2596 1807 91.694 1294.19 461.498
816 0 139.345 12.8817 1795 92.2719 1293.98 458.667
817 0 147.304 13.3873 1972 92.8245 1293.24 456.286
818 0 150.296 12.5486 1886 95.5514 1293.18 454.81
819 0 155.208 13.4336 2085 95.5261 1293.55 450.023
820 0 161.178 12.6382 2037 97.6765 1292.94 447.378
821 0 165.223 13.2124 2183 97.7531 1292.65 444.774
822 0 171.325 13.3897 2294 97.7206 1292.79 444.767
823 0 177.286 12.9847 2302 100.121 1293.07 440.551
824 0 182.311 13.1643 2400 99.8288 1292.58 435.839
825 0 190.364 13.5898 2587 98.2857 1293.15 436.578
826 1 94.1118 12.0282 1132 94.8507 1292.86 483.18
827 0 98.301 12.889 1267 95.2384 1292.78 480.665
828 0 99.3137 13.0596 1297 100.196 1293.07 479.823
829 0 102.246 12.9491 1324 105.119 1292.95 478.526
830 0 105.221 13.6855 1440 104.303 1292.87 478.459
831 0 108.193 14.0583 1521 103.216 1292.28 475.576
832 0 109.268 12.5472 1371 98.0904 1292.94 476.333
833 0 113.334 13.0323 1477 101.067 1292.46 475.474
834 0 115.296 12.611 1454 105.307 1292.93 472.647
835 0 119.291 12.415 1481 107.783 1292.95 469.698
836 0 119.291 12.3815 1477 155.764 1292.95 469.609
837 0 127.298 12.6632 1612 108.757 1293.45 465.196
838 0 132.31 13.3323 1764 107.685 1293.35 464.004
839 0 136.342 12.784 1743 110.633 1292.39 460.396
840 0 140.239 12.8067 1796 111.654 1292.89 458.676
841 0 146.321 13.4225 1964 109.97 1292.68 453.741
842 0 148.349 12.9762 1925 112.862 1292.93 451.567
843 0 153.303 13.183 2021 113.515 1292.34 448.624
844 0 159.323 13.0364 2077 110.584 1292.58 443.886
845 0 163.331 12.8267 2095 112.058 1292.66 443.048
846 0 169.314 13.1945 2234 112.163 1291.83 440.341
847 0 173.334 13.3961 2322 112.527 1292.17 436.863
848 1 89.1111 11.6596 1039 110.232 1292.51 479.574
849 0 92.088 12.2926 1132 104.945 1292.66 477.33
850 0 94.0868 11.9039 1120 107.434 1292.56 475.977
851 0 97.056 11.5706 1123 107.314 1292.97 475.112
852 0 100.072 11.3618 1137 108.803 1292.82 474.849
853 0 106.052 11.8149 1253 106.326 1292.85 470.629
854 0 107.082 11.3184 1212 106.571 1292.33 472.081
855 1 65.035 10.8711 707 107.274 1292.65 490.769
856 0 66.0539 10.9759 725 105.832 1291.17 490.801
857 0 62.0895 12.1438 754 105.145 1291.35 487.013
858 0 62.1161 12.3639 768 105.99 1290.89 484.401
859 0 64.1657 11.408 732 109.04 1291.41 482.784
860 0 70.1181 12.9353 907 101.729 1291.11 488.527
861 0 71.1358 12.6378 899 102.806 1290.16 488.158
862 0 74.0756 12.7842 947 103.844 1291.18 486.721
863 0 77.1227 12.3051 949 105.722 1291.85 484.099
864 0 79.1158 12.3743 979 106.38 1291.36 481.594
865 0 83.1494 13.0488 1085 104.69 1290.91 481.976
866 0 84.1602 12.8921 1085 103.545 1291.69 479.769
867 0 87.1055 12.7202 1108 103.502 1291.69 478.243
868 0 87.0684 12.5419 1092 104.973 1291.52 474.504
869 0 89.0742 12.2931 1095 104.75 1291.2 474.85
870 0 93.0786 12.5808 1171 104.42 1292.33 471.5
871 0 94.1111 12.294 1157 103.629 1292.36 469.417
872 0 96.1098 12.1736 1170 103.689 1292.45 467.823
873 0 104.244 15.4253 1608 93.0068 1291.8 458.44
874 0 102.177 14.054 1436 99.062 1291.84 460.277
875 0 104.199 13.3495 1391 101.613 1291.91 462.298
876 0 107.205 12.1543 1303 105.063 1291.77 462.691
877 0 400.974 11.4097 4575 106.701 1290.82 286.308
878 0 121.213 15.7904 1914 89.7738 1291.6 453.783
879 0 125.337 15.7575 1975 88.9894 1291.78 452.974
880 0 131.437 15.711 2065 89.9017 1291.72 448.073
881 0 137.572 15.7954 2173 91.8159 1292.53 448.29
882 0 143.453 15.5033 2224 97.3696 1291.9 445.964
883 0 146.545 15.5788 2283 98.187 1292.65 445.915
884 1 82.4627 12.7815 1054 172.858 1292.59 479.874
885 0 85.3874 12.9761 1108 98.9801 1291.58 479.064
886 0 88.3458 12.7114 1123 98.3695 1292.44 478.468
887 0 88.3458 12.6322 1116 163.935 1294.44 478.473
888 0 92.1156 12.1586 1120 92.0991 1292.49 479.433
889 0 92.1139 11.9852 1104 93.7844 1292.46 478.68
890 0 94.12 12.4522 1172 153.405 1292.46 477.247
891 0 100.147 13.4103 1343 91.6083 1292.37 475.605
892 0 102.115 13.5827 1387 91.858 1291.94 471.584
893 0 106.223 13.1516 1397 93.0601 1292.05 469.039
894 0 108.139 12.151 1314 97.7504 1292.09 467.03
895 0 108.139 12.1048 1309 161.553 1292.1 466.976
896 0 115.317 12.9296 1491 98.4829 1291.67 463.49
897 1 53.2173 10.8611 578 90.8893 1292.38 498.671
898 0 53.266 11.1704 595 95.674 1292.36 496.993
899 0 54.1833 12.2731 665 92.6391 1291.77 495.095
900 0 57.3056 12.2327 701 93.3096 1292.74 494.371
901 0 60.2149 12.7211 766 95.2768 1292.65 494.099
902 0 62.2623 12.8167 798 92.703 1293.52 494.073
903 0 61.2623 12.1119 742 95.6617 1291.77 493.301
904 0 60.2385 11.9525 720 97.3931 1292.8 493.392
905 0 62.2436 11.6478 725 96.2234 1292.67 490.941
906 0 64.2195 11.9278 766 95.1619 1292.62 490.535
907 0 65.0742 11.9095 775 100.274 1292.1 488.68
908 0 67.0552 12.2884 824 98.5267 1292.4 488.28
909 0 69.0883 12.5781 869 96.2658 1293.59 486.93
910 0 70.0622 12.5888 882 95.1633 1292.79 486.163
911 0 73.1516 12.6586 926 94.392 1293.06 485.55
912 0 75.1247 12.4992 939 94.5804 1291.92 483.67
913 0 76.152 12.8033 975 93.5456 1292.02 481.776
914 0 81.1408 13.2116 1072 92.5858 1292.1 481.014
915 0 80.1017 11.9473 957 94.5434 1292.55 481.556
916 0 84.0859 12.5229 1053 93.2146 1292.22 479.17
917 0 88.1647 12.6581 1116 92.7375 1292.31 476.235
918 0 90.2142 12.1821 1099 93.9645 1292.3 475.396
919 0 90.1643 12.0225 1084 93.5018 1292.78 472.181
920 0 94.3191 12.3835 1168 90.7842 1291.79 471.73
921 0 99.2382 12.727 1263 87.5582 1292.6 468.307
922 0 99.2215 12.7996 1270 142.662 1292.61 468.356
923 0 105.409 12.5796 1326 87.0483 1292.23 468.443
924 0 108.304 12.428 1346 87.0424 1291.94 466.308
925 1 49.1563 10.0496 494 77.5708 1291.85 496.644
926 0 52.1802 9.96546 520 72.825 1292.22 497.431
927 0 53.2817 11.1671 595 74.2908 1292.15 498.513
928 0 54.1056 11.8842 643 73.9362 1291.79 498.732
929 0 55.0611 11.4782 632 73.144 1292.63 499.464
930 0 58.0806 11.4324 664 73.7108 1291.95 497.453
931 0 60.1444 10.109 608 81.7533 1291.71 494.253
932 0 60.1601 9.55783 575 84.7044 1291.33 493.713
933 0 61.2093 10.946 670 84.0851 1290.73 495.272
934 0 61.2028 10.8328 663 133.528 1289.71 495.299
935 0 66.2586 11.5004 762 83.1614 1291.48 491.656
936 0 67.2238 10.9783 738 83.752 1290.6 490.747
937 0 69.2645 10.8281 750 84.356 1290.72 489.349
938 0 72.3999 11.105 804 82.9552 1290.43 489.842
939 0 74.4123 10.7778 802 84.7082 1290.35 488.162
940 0 74.2635 10.557 784 86.6862 1290.35 485.867
941 0 77.3449 11.3517 878 85.238 1290.14 485.927
942 0 80.4013 11.6789 939 85.1981 1289.78 485.297
943 0 83.4461 11.852 989 84.3549 1289.6 486.069
944 0 84.4684 12.6083 1065 84.5014 1289.8 482.423
945 0 88.4809 11.9687 1059 85.712 1290.26 482.403
946 0 89.4401 11.6503 1042 87 1289.91 480.05
947 0 92.3663 12.0823 1116 85.8835 1290.22 477.916
948 0 96.3855 11.7549 1133 83.6072 1290.62 477.263
949 0 98.3905 12.5012 1230 84.0805 1290.44 475.015
950 0 100.551 12.0138 1208 85.0497 1290.16 472.642
951 0 103.494 12.078 1250 92.6064 1290.97 471.09
952 0 107.521 12.1 1301 92.947 1290.9 471.237
953 0 110.586 12.3433 1365 93.4366 1291.66 469.577
954 0 114.466 12.2133 1398 94.2618 1291.01 467.742
955 0 117.445 12.7464 1497 94.1276 1291.71 463.431
956 1 64.2482 11.3311 728 81.1442 1291.28 491.058
957 0 64.3991 11.6461 750 81.996 1291.52 490.376
958 0 68.3028 11.9029 813 82.877 1291.34 488.177
959 0 71.2712 12.5156 892 84.5863 1291.14 487.356
960 0 74.384 12.7984 952 86.2805 1291.79 485.505
961 0 76.3351 12.694 969 86.16 1290.69 485.779
962 0 78.1322 12.1589 950 85.8179 1291.36 487.649
963 0 79.132 12.4728 987 85.3931 1291.71 486.647
964 0 80.0436 11.8311 947 85.7117 1291.32 486.592
965 0 81.0768 11.9393 968 85.906 1291.45 485.318
966 0 85.0669 12.4138 1056 85.036 1291.85 483.047
967 0 86.1453 11.7244 1010 87.5812 1291.56 480.303
968 0 91.1322 11.9058 1085 87.2406 1291.71 478.632
969 0 93.1512 11.7014 1090 88.6679 1291.86 475.937
970 0 93.1135 12.2216 1138 89.0958 1291.37 474.045
971 0 98.1698 12.1932 1197 88.5322 1291.85 473.599
972 0 101.203 12.5688 1272 87.9112 1292.03 472.597
973 0 102.075 12.3634 1262 88.4636 1292.21 472.411
974 0 106.123 12.2028 1295 87.4695 1292.21 470.798
975 0 108.051 12.2627 1325 87.3215 1291.69 470.928
976 0 113.134 12.0388 1362 87.2981 1292.16 467.264
977 0 114.122 12.5918 1437 87.1274 1292.36 465.738
978 0 117.162 12.0516 1412 89.1615 1292.78 463.513
979 0 122.158 12.9423 1581 96.5262 1292.86 461.151
980 0 124.086 12.2738 1523 99.6592 1293.06 459.738
981 0 131.141 12.4903 1638 98.8199 1292.92 457.442
982 0 135.145 13.282 1795 89.0318 1293.32 455.534
983 0 139.221 12.9435 1802 90.9706 1292.37 454.597
984 0 141.201 12.16 1717 95.7292 1292.6 449.627
985 0 147.189 13.1464 1935 93.4279 1292.5 447.326
986 0 151.274 13.4524 2035 93.0364 1291.78 446.423
987 0 154.271 13.3466 2059 95.408 1293.41 442.151
988 0 158.341 13.5593 2147 96.1188 1292.8 441.779
989 0 161.235 13.0927 2111 100.367 1292.4 436.292
990 0 168.412 13.3661 2251 98.3336 1291.64 435.39
991 1 88.3302 10.3362 913 90.9277 1292.87 477.002
992 0 91.3044 10.2624 937 91.1302 1292.69 476.507
993 0 94.2988 10.9015 1028 87.6459 1292.6 473.5
994 0 96.1423 11.1397 1071 85.5677 1292.19 475.84
995 0 99.1882 10.6061 1052 86.519 1292.64 471.874
996 0 100.165 11.0118 1103 87.6827 1292.14 470.472
997 0 106.077 11.5294 1223 86.4718 1292.98 469.701
998 0 108.112 11.0441 1194 88.0586 1292.84 466.612
999 0 110.134 10.5598 1163 89.3491 1293.01 464.225
1000 0 114.118 11.418 1303 87.8511 1292.92 461.632
1001 0 118.135 11.7408 1387 86.8529 1292.65 461.143
1002 0 121.111 10.7588 1303 88.9885 1292.72 459.34
1003 0 126.105 10.9988 1387 88.0577 1293.02 456.951
1004 0 130.078 11.1548 1451 88.1013 1293.5 453.884
1005 0 134.221 11.4289 1534 87.2634 1294.67 451.284
1006 0 138.13 11.1851 1545 87.9922 1293.76 450.017
1007 0 144.142 11.9466 1722 88.3095 1294.26 448.793
1008 1 74.0572 7.98032 591 79.3367 1293.46 485.993
1009 0 79.0667 9.73862 770 77.6338 1293.24 484.625
1010 0 81.0647 9.35056 758 80.562 1292.73 482.747
1011 0 82.0832 9.05179 743 81.4778 1293.04 481.175
1012 0 83.054 8.44029 701 81.806 1292.78 480.14
1013 0 86.0718 9.52693 820 79.778 1293.07 478.848
1014 0 88.0579 8.84645 779 82.3646 1292.7 477.126
1015 0 90.026 9.31953 839 80.6269 1292.63 477.703
1016 0 92.1561 10.0699 928 80.0356 1293.31 475.837
1017 0 93.0602 8.94045 832 82.6779 1293.09 474.359
1018 0 95.1473 9.11219 867 82.8881 1294.03 474.975
1019 0 98.163 9.30086 913 84.0756 1293.76 473.1
1020 0 100.067 9.51365 952 84.3613 1293.87 472.332
1021 0 102.058 9.3084 950 83.9516 1293.35 470.844
1022 0 104.333 8.93295 932 84.4818 1293.28 465.627
1023 0 108.531 10.1814 1105 83.2027 1294.04 463.436
1024 0 110.43 9.77087 1079 83.7664 1294.61 464.261
1025 0 111.418 9.48682 1057 85.0482 1293.39 459.651
1026 0 115.389 9.81899 1133 85.1474 1293.71 458.419
1027 0 120.536 10.2459 1235 83.5093 1293.22 457.714
1028 0 124.473 10.3476 1288 83.0536 1292.83 457.35
1029 0 128.593 11.0737 1424 82.5148 1292.4 454.341
1030 0 132.466 11.369 1506 82.2915 1292.42 452.968
1031 0 134.333 11.0025 1478 84.002 1292.58 450.806
1032 0 135.369 10.645 1441 85.7391 1292.68 449.55
1033 0 140.445 10.78 1514 85.6004 1292.36 446.687
1034 0 144.493 11.1493 1611 86.2756 1292.5 445.115
1035 0 147.48 11.5676 1706 86.4519 1292.14 442.851
1036 0 152.375 11.7539 1791 86.5332 1292.43 443.236
1037 0 155.456 11.4823 1785 88.5485 1292.97 439.197
1038 0 159.601 11.698 1867 88.2753 1292.37 438.401
1039 0 161.423 11.0455 1783 91.0729 1292.42 434.715
1040 0 166.445 11.6435 1938 91.4422 1292.23 431.634
1041 0 170.393 11.8021 2011 91.0502 1292.45 430.387
1042 0 175.402 11.7445 2060 91.0592 1292.28 428.81
1043 0 178.523 11.8136 2109 91.7326 1292.51 424.887
1044 0 183.45 11.1038 2037 93.0201 1292.72 421.737
1045 0 190.354 12.855 2447 89.0793 1292.11 423.765
1046 0 194.312 12.5571 2440 90.2541 1291.99 422.526
1047 0 190.493 9.85861 1878 94.295 1291.63 425.141
1048 0 188.55 8.91012 1680 97.0619 1291.7 422.345
1049 0 191.585 9.36922 1795 96.8139 1292.34 422.56
1050 0 192.469 8.72348 1679 96.4336 1292.09 424.936
1051 1 224.478 13.0347 2926 90.8961 1291.63 399.282
1052 0 230.599 12.706 2930 92.3058 1291.87 399.648
1053 0 240.631 14.1919 3415 89.4196 1292.16 398.138
1054 0 245.422 13.7355 3371 96.5266 1292.53 391.31
1055 0 252.467 13.2097 3335 96.0669 1292.82 387.032
1056 1 189.341 9.81826 1859 98.7924 1292.51 425.185
1057 0 196.646 11.2588 2214 95.4472 1293.09 420.556
1058 0 202.412 11.4568 2319 95.6149 1292.55 417.833
1059 0 210.546 11.8549 2496 95.6042 1292.27 418.109
1060 0 214.406 10.9838 2355 98.4331 1292.24 407.188
1061 0 221.462 11.4105 2527 98.4298 1292.5 403.844
1062 0 228.495 12.0484 2753 95.8801 1293.01 408.434
1063 0 233.413 11.6874 2728 98.0378 1292.55 402.075
1064 0 242.389 12.0839 2929 97.5845 1292.86 396.526
1065 0 249.521 12.3276 3076 99.1187 1292.35 395.867
1066 0 257.684 12.9694 3342 103.723 1292.43 390.393
1067 0 262.62 13.1292 3448 108.719 1292.74 384.175
1068 0 272.442 13.1918 3594 108.43 1292.95 384.077
1069 0 274.616 12.7888 3512 108.926 1292.85 381.44
1070 0 280.614 12.8896 3617 106.847 1293 372.125
1071 0 291.64 13.9247 4061 103.481 1293.23 375.689
1072 0 298.768 13.2377 3955 104.71 1292.88 375.598
1073 0 307.729 13.2324 4072 105.442 1293.16 368.659
1074 1 124.193 9.88781 1228 86.8217 1293.12 464.506
1075 0 124.603 11.0109 1372 90.0277 1293.84 463.444
1076 0 123.398 9.55447 1179 88.8482 1293.76 466.346
1077 0 129.516 10.8944 1411 87.6478 1294.03 465.19
1078 0 129.516 10.9021 1412 130.55 1294.02 465.124
1079 0 137.411 11.5784 1591 87.1666 1292.72 460.162
1080 0 140.429 11.472 1611 87.946 1293.61 457.575
1081 0 145.524 12.2798 1787 86.662 1293.94 452.948
1082 0 149.442 12.6337 1888 87.0466 1293.26 449.927
1083 0 152.546 12.6716 1933 88.2737 1293.74 451.551
1084 0 156.381 11.5039 1799 95.8171 1293 444.321
1085 0 161.419 12.8547 2075 94.0906 1293.08 446.486
1086 0 165.507 11.347 1878 98.0564 1292.75 444.024
1087 0 171.641 11.5998 1991 95.3847 1292.38 444.133
1088 0 180.859 11.7771 2130 93.9869 1292.79 441.289
1089 0 179.54 11.8748 2132 106.551 1292.33 442.662
1090 0 184.401 12.2017 2250 104.53 1292.99 435.38
1091 0 188.619 12.0348 2270 110.002 1292.66 435.234
1092 0 190.534 10.2711 1957 106.708 1292.46 437.534
1093 0 195.535 11.6654 2281 107.481 1293.18 433.077
1094 1 149.459 12.4716 1864 103.231 1292.85 457.496
1095 0 155.505 12.7391 1981 102.067 1292.99 454.414
1096 0 159.539 12.8182 2045 102.913 1292.55 451.379
1097 0 163.525 12.6586 2070 102.843 1292.95 449.936
1098 0 166.542 11.4446 1906 104.063 1292.74 446.344
1099 1 58.0914 11.1721 649 89.7504 1293.33 499.991
1100 0 61.1961 11.3569 695 96.3525 1294.04 498.931
1101 0 62.1805 10.9198 679 93.4728 1293.49 498.94
1102 0 62.2731 10.454 651 96.5008 1294.44 496.568
1103 0 66.1477 11.172 739 94.8999 1293.69 495.873
1104 0 68.1954 11.731 800 97.775 1293.29 496.012
1105 0 69.1377 11.8025 816 98.0931 1292.42 494.309
1106 0 70.175 11.0723 777 98.9202 1292.73 493.309
1107 0 73.2348 11.6611 854 96.8595 1292.72 490.158
1108 0 76.2237 12.6076 961 93.9074 1291.89 490.075
1109 0 77.2721 11.5436 892 96.4922 1292.23 489.193
1110 0 80.3498 12.3958 996 95.2831 1292.18 486.802
1111 0 83.3523 12.2612 1022 94.4726 1292.66 485.864
1112 0 86.1124 12.2979 1059 94.6752 1292.44 484.048
1113 0 88.2033 12.5619 1108 94.2392 1292 483.064
1114 0 92.1436 12.5348 1155 92.4303 1292.42 484.535
1115 0 94.2372 12.6383 1191 93.3039 1292.96 482.888
1116 0 96.1698 11.5213 1108 96.3366 1292.56 480.606
1117 1 49.0604 10.1711 499 86.2505 1293.01 504.986
1118 0 52.0725 11.1191 579 83.9793 1293.05 505.067
1119 0 52.0982 11.1904 583 85.247 1293.53 503.427
1120 0 55.1129 12.2657 676 82.8743 1293.3 502.7
1121 0 57.0654 11.3203 646 94.8111 1293.48 501.087
1122 0 60.0949 12.2473 736 91.0095 1293.77 500.37
1123 0 61.0317 11.9774 731 91.1642 1292.68 499.676
1124 0 63.0727 11.5581 729 92.1289 1293.4 498.159
1125 0 63.0727 11.8593 748 139.763 1294.43 497.73
1126 0 65.1127 10.9042 710 91.0887 1293.29 496.639
1127 0 66.0526 10.9307 722 89.6039 1292.65 495.839
1128 0 65.057 11.39 741 88.1876 1292.78 495.032
1129 0 70.0506 11.3775 797 87.453 1293.47 493.151
1130 0 73.2475 11.468 840 86.6702 1292.73 492.214
1131 0 73.2651 11.0011 806 88.4491 1293.02 488.39
1132 0 77.3425 11.1323 861 87.5343 1293.61 486.551
1133 0 79.3526 11.3544 901 87.5405 1292.84 485.097
1134 0 80.1615 11.1525 894 87.84 1293.3 483.942
1135 0 83.3525 11.0015 917 89.2257 1292.63 480.857
1136 0 87.4822 10.9622 959 88.0803 1292.33 481.742
1137 0 87.4667 10.5183 920 89.2337 1292.07 479.216
1138 0 91.4763 11.227 1027 88.2201 1292 475.869
1139 0 93.2859 10.3231 963 90.1298 1291.56 474.371
1140 1 45.1767 10.0716 455 83.0462 1292.73 501.499
1141 0 45.1767 10.0937 456 113.691 1293.72 501.496
1142 0 49.2436 11.4533 564 88.8599 1292.23 498.931
1143 0 49.0707 10.2505 503 79.7893 1293.01 501.372
1144 0 50.0165 11.0564 553 79.0597 1292.21 502.262
1145 0 51.0914 10.6672 545 81.211 1292.26 501.547
1146 0 52.0898 11.4994 599 80.6878 1292.08 502.21
1147 0 56.0618 11.0949 622 82.2444 1292.71 500.698
1148 0 57.1561 11.5823 662 81.6224 1291.98 500.675
1149 0 58.1072 10.8765 632 83.7326 1291.79 499.157
1150 0 60.0712 11.1701 671 74.4694 1291.76 499.414
1151 0 62.0756 11.9854 744 74.496 1291.78 497.19
1152 0 62.0746 10.5196 653 77.3017 1291.44 498.796
1153 0 67.0563 11.2592 755 77.1682 1292.45 496.131
1154 0 67.0917 11.0446 741 79.1444 1292.71 496.159
1155 0 69.059 11.9608 826 78.5484 1292.17 494.759
1156 0 72.0974 11.9699 863 79.3372 1292.15 494.745
1157 0 73.068 11.7836 861 81.1847 1292.35 491.893
1158 0 75.034 11.9013 893 81.9955 1292.09 491.031
1159 0 79.0728 12.0901 956 82.0314 1292.02 490.665
1160 0 79.1322 11.1206 880 85.4955 1291.58 488.777
1161 0 84.1405 12.1226 1020 82.4167 1291.89 488.12
1162 1 45.0307 11.0369 497 79.4125 1291.38 508.07
1163 0 43.0288 10.6673 459 80.878 1290.88 508.917
1164 0 45.0075 10.5094 473 81.7717 1291.25 506.292
1165 0 48.0761 10.2962 495 80.3475 1292.12 505.279
1166 0 50.104 11.6158 582 79.0739 1292.2 502.55
1167 0 50.1102 11.4348 573 79.8778 1292.95 502.326
1168 0 52.069 11.792 614 79.2476 1291.85 501.108
1169 0 53.059 11.1385 591 80.0102 1291.84 502.308
1170 0 55.0712 11.9482 658 78.538 1290.54 501.767
1171 0 55.1243 12.5172 690 78.158 1290.77 499.157
1172 0 57.0657 12.0913 690 78.4188 1291.19 499.197
1173 0 62.0292 12.22 758 76.3852 1290.67 498.532
1174 0 61.0726 12.7226 777 76.556 1290.94 497.103
1175 0 63.061 12.7178 802 76.7481 1291.12 496.236
1176 0 66.109 12.4643 824 76.9114 1291.5 494.534
1177 0 68.062 13.4877 918 75.5937 1291.75 492.561
1178 0 68.096 11.7775 802 79.288 1291 492.062
1179 0 72.1294 12.6024 909 78.3179 1291.87 491.187
1180 0 74.0992 11.9165 883 90.5595 1291.29 489.815
1181 0 77.0414 11.9806 923 89.4084 1292.06 487.65
1182 0 80.1697 11.5006 922 89.4653 1291.44 487.178
1183 0 83.1444 12.2438 1018 88.0157 1291.67 486.386
1184 0 84.103 11.9853 1008 87.8859 1292.47 486.159
1185 0 88.0778 12.3641 1089 88.3278 1291.67 483.854
1186 0 88.0819 11.2509 991 91.9526 1292.27 482.537
1187 0 92.1656 11.4142 1052 90.0741 1291.68 481.107
1188 1 47.071 10.3886 489 81.5644 1292.61 505.088
1189 0 47.0345 9.8651 464 83.0668 1291.81 503.8
1190 0 50.177 11.2003 562 81.0552 1292.78 502.164
1191 0 50.3286 11.5243 580 80.2517 1291.85 498.803
1192 0 52.1106 11.7826 614 76.0863 1291.19 501
1193 0 54.0807 12.0191 650 75.0985 1291.51 501.322
1194 0 55.0676 11.5313 635 76.515 1290.9 499.913
1195 0 58.0603 11.9359 693 75.5152 1290.66 498.408
1196 0 60.0466 11.7575 706 75.8598 1291.3 497.116
1197 0 59.0429 11.3646 671 78.1043 1291.4 495.981
1198 0 61.0806 11.8859 726 78.646 1290.99 495.926
1199 0 63.064 12.0195 758 77.7032 1291.67 494.789
1200 0 68.1254 12.3155 839 86.0322 1291.5 492.462
1201 0 69.1093 12.3862 856 86.4171 1291.15 491.318
1202 0 70.0991 11.4124 800 87.5788 1291.15 491.561
1203 0 71.0892 12.3225 876 80.6918 1290.31 490.108
1204 0 75.0736 12.1348 911 81.3655 1289.98 490.312
1205 0 75.07 12.0687 906 84.5055 1290.78 488.911
1206 0 77.0437 11.9153 918 85.037 1290.3 488.852
1207 0 80.0598 12.5906 1008 85.1022 1291.1 487.377
1208 0 84.0666 11.8715 998 86.976 1290.83 485.949
1209 0 86.106 12.1362 1045 88.1378 1291.16 484.343
1210 0 86.0888 12.0806 1040 97.5721 1290.78 484.439
1211 1 45.0156 10.8185 487 84.7536 1291.89 505.715
1212 0 46.0711 11.2869 520 84.0827 1292.3 503.021
1213 0 47.0745 10.8551 511 85.6145 1292.57 501.131
1214 0 49.0389 11.7458 576 83.2292 1291.72 502.583
1215 0 48.0208 11.8074 567 84.4356 1291.97 503.601
1216 0 50.1285 11.8894 596 83.4732 1291.43 503.151
1217 0 53.109 11.9377 634 82.8123 1291.89 502.839
1218 0 54.1476 12.2443 663 81.8854 1291.84 501.961
1219 0 56.0354 12.3315 691 81.9247 1291.51 501.206
1220 0 58.0371 11.8373 687 82.9068 1291.3 500.739
1221 0 61.1104 12.8129 783 80.5134 1292.18 498.171
1222 0 61.1104 12.8947 788 118.609 1293.18 498.19
1223 0 65.1385 12.6346 823 81.8165 1291.46 496.712
1224 0 66.0395 12.2957 812 82.6281 1291.24 495.484
1225 0 69.028 12.8209 885 81.8847 1291.66 492.992
1226 0 68.0451 12.139 826 84.2712 1292.03 492.407
1227 0 72.0518 12.9629 934 81.9422 1291.09 490.344
1228 0 75.0464 11.4063 856 85.3878 1292.12 490.039
1229 0 76.0826 12.723 968 84.1322 1292.13 489.049
1230 0 79.1184 11.5649 915 86.3956 1292 487.781
1231 0 81.0696 11.6567 945 87.3344 1290.99 487.341
1232 0 83.0339 11.3207 940 89.1415 1291.37 486.164
1233 0 84.1268 11.2212 944 89.9841 1291.47 484.341
1234 0 86.0852 12.3134 1060 89.217 1291.55 483.965
1235 0 90.0877 11.6553 1050 93.2048 1291.12 480.367
1236 0 91.1064 10.9542 998 96.3808 1290.89 480.191
1237 1 50.025 10.4548 523 93.5143 1291.51 502.277
1238 0 50.0699 10.4654 524 95.355 1292.64 501.197
1239 0 50.029 10.5539 528 96.2386 1293.69 501.032
1240 0 52.0373 11.0498 575 97.5391 1293.82 499.713
1241 0 55.0106 10.9797 604 98.4536 1291 500.003
1242 0 58.0506 11.2144 651 101.608 1290.27 498.859
1243 0 58.0401 11.5954 673 102.651 1291.35 497.352
1244 0 61.0321 11.6496 711 101.525 1290.66 497.326
1245 0 63.0513 11.6889 737 101.848 1291.39 496.35
1246 0 63.0202 12.3294 777 101.404 1290.74 495.239
1247 0 64.0757 11.2523 721 105.028 1290.69 493.605
1248 0 67.0426 12.1117 812 103.856 1291.33 492.257
1249 0 70.0598 11.9898 840 103.327 1291.65 491.593
1250 0 74.0776 11.9604 886 102.348 1291.33 492.081
1251 0 74.0495 12.1675 901 103.224 1291.71 492.756
1252 0 74.0362 12.1967 903 104.122 1291.94 490.516
1253 0 78.0444 12.3263 962 103.634 1291.86 489.12
1254 0 81.0266 11.9467 968 104.949 1292.19 488.465
1255 1 41.0343 10.6253 436 103.741 1292.64 506.805
1256 0 43.0458 11.0812 477 101.084 1292.33 506.312
1257 0 43.0429 10.8496 467 100.555 1292.98 506.546
1258 0 45.0409 12.0113 541 96.4048 1293.79 504.115
1259 0 45.0356 11.9461 538 91.7565 1292.39 505.485
1260 0 45.0238 10.972 494 94.913 1292.57 506.907
1261 0 43.0058 10.8823 468 97.1175 1291.78 506.479
1262 0 44.0135 10.8376 477 97.4885 1291.98 505.723
1263 0 47.006 11.1475 524 95.6489 1292.13 506.277
1264 0 49.0661 11.3113 555 96.0144 1292.88 503.946
1265 0 49.0273 11.1366 546 96.1355 1292.36 504.278
1266 0 50.03 10.7336 537 97.1359 1292.1 505.019
1267 0 52.0302 11.3588 591 95.3384 1292.37 503.118
1268 0 55.0278 10.2312 563 95.3606 1292.37 504.153
1269 0 54.0419 11.195 605 96.1917 1292.15 501.592
1270 0 57.052 11.621 663 94.3741 1292.64 500.457
1271 0 61.0422 12.1883 744 91.5188 1293.33 498.702
1272 0 59.0326 11.2988 667 96.2399 1292.66 497.298
1273 0 62.0814 12.0648 749 93.1068 1292.8 497.82
1274 0 66.0308 12.3276 814 92.9152 1292.58 495.55
1275 0 68.0397 12.3457 840 92.6524 1292.5 495.027
1276 0 68.0158 11.8061 803 94.142 1291.75 494.331
1277 0 72.0714 11.8632 855 92.3918 1292.32 493.466
1278 0 72.0556 12.1573 876 93.3482 1292.27 492.564
1279 0 74.0538 11.6807 865 94.6451 1292.36 492.719
1280 0 75.1039 11.5839 870 93.7678 1292.04 489.215
1281 0 79.0597 11.8897 940 95.4181 1292.14 486.337
1282 0 80.0703 12.0394 964 94.8226 1292.48 487.602
1283 1 43.0642 11.4248 492 99.1565 1293.2 504.608
1284 0 45.0329 11.9246 537 97.2421 1292.93 504.16
1285 0 45.0198 11.9503 538 97.8067 1292.63 503.403
1286 0 48.0313 12.1795 585 94.6222 1293.33 502.027
1287 0 49.1867 12.0154 591 96 1292.13 502.051
1288 0 49.1999 13.0691 643 95.0264 1292.55 501.328
1289 0 50.1646 12.5587 630 96.1857 1292.57 501.111
1290 0 53.1109 12.0691 641 96.7847 1293.2 500.686
1291 0 52.0604 12.9273 673 96.0372 1292.82 498.979
1292 0 55.1452 12.5124 690 95.287 1292.68 497.62
1293 0 56.0676 12.4671 699 96.0815 1292.49 496.705
1294 0 58.1066 12.5287 728 96.7239 1292.5 496.141
1295 0 58.0984 12.2034 709 98.1199 1292.15 494.911
1296 0 59.0781 12.4919 738 97.7818 1290.97 495.186
1297 0 61.0346 12.7633 779 96.5648 1291.9 494.311
1298 0 63.0517 12.577 793 96.8108 1291.32 493.768
1299 0 65.0591 13.1573 856 96.2407 1291.45 492.902
1300 0 65.0229 12.9954 845 97.7704 1292.04 492.994
1301 0 68.0376 13.0222 886 97.6061 1291.36 490.369
1302 0 71.071 13.1277 933 96.3676 1291.91 491.766
1303 0 72.0976 14.3139 1032 94.3043 1291.37 489.869
1304 0 75.0576 13.3764 1004 97.2112 1292.07 488.695
1305 0 77.0593 13.1068 1010 97.1158 1291.88 489.431
1306 0 78.0234 14.0983 1100 94.7 1292.39 487.048
1307 0 80.0277 13.9702 1118 95.0331 1292.32 485.122
1308 0 84.0823 13.9506 1173 94.3828 1291.53 483.174
1309 0 86.0753 13.6625 1176 93.96 1291.19 482.93
1310 0 86.0822 13.3129 1146 95.9878 1291.75 481.439
1311 0 91.0602 13.3538 1216 94.6727 1292.3 482.12
1312 0 96.1491 13.0943 1259 94.0087 1291.08 480.102
1313 0 96.0738 13.8331 1329 92.2325 1291.37 478.977
1314 0 97.0913 12.7509 1238 94.7439 1291.57 478.111
1315 0 99.1231 13.5286 1341 92.0604 1292.13 475.746
1316 0 98.1104 13.2096 1296 93.3125 1291.39 476.728
1317 0 105.132 13.2976 1398 90.8634 1292.42 474.567
1318 0 109.113 12.5374 1368 91.886 1291.81 472.688
1319 0 109.078 12.7523 1391 89.7333 1292 470.157
1320 0 116.135 13.4757 1565 85.7444 1291.94 469.928
1321 0 114.156 13.2363 1511 70.5453 1292.55 469.06
1322 0 122.141 13.0832 1598 84.4806 1291.75 465.356
1323 0 123.172 12.9737 1598 85.7247 1291.09 462.902
1324 0 128.202 12.3555 1584 86.0284 1291.75 460.025
1325 0 133.152 12.7674 1700 84.6882 1291.74 460.202
1326 0 137.176 12.8594 1764 84.335 1291.74 457.376
1327 0 140.148 13.1218 1839 82.54 1293.74 454.6
1328 0 144.132 13.0505 1881 83.6709 1292.67 453.839
1329 0 150.275 13.1359 1974 83.3055 1292.23 450.789
1330 1 275.365 12.5724 3462 84.7914 1291.7 393.396
1331 0 284.242 13.0804 3718 83.7848 1290.99 387.697
1332 1 72.0678 11.7112 844 81.9893 1292.12 490.622
1333 0 73.117 11.42 835 87.2599 1291.73 490.471
1334 0 76.0717 11.7784 896 88.8426 1291.1 488.662
1335 0 78.0792 12.641 987 78.8166 1291.77 488.46
1336 0 78.1282 10.6876 835 85.2395 1292.52 486.455
1337 0 81.0792 11.7046 949 83.2972 1292.32 488.529
1338 0 84.0752 11.6324 978 84.8753 1291.95 487.214
1339 0 86.1029 11.765 1013 87.2537 1291.15 483.12
1340 0 90.0663 12.2132 1100 86.5 1291.58 485.157
1341 0 93.1146 11.6845 1088 89.3208 1291.8 482.841
1342 0 96.1541 12.7088 1222 87.8748 1291.55 482.403
1343 0 99.1659 12.6959 1259 90.7474 1291.54 479.784
1344 0 102.203 12.7492 1303 92.0138 1291.55 479.802
1345 0 105.262 12.6541 1332 93.4745 1291.7 478.559
1346 0 107.225 12.4225 1332 95.9182 1291.49 474.309
1347 0 112.296 12.9568 1455 96.9993 1290.8 471.082
1348 0 117.299 12.3701 1451 97.2529 1291.54 469.359
1349 1 54.022 11.1806 604 84.7136 1292.05 502.662
1350 0 56.0759 11.3418 636 84.4607 1291.33 501.925
1351 0 57.0423 11.2899 644 80.5202 1291.64 500.102
1352 0 55.0416 10.0288 552 85.1667 1291.85 501.935
1353 0 58.0668 10.2468 595 84.5143 1291.71 500.909
1354 0 60.1984 10.482 631 84.2647 1291.49 500.756
1355 0 64.1025 10.3896 666 84.8033 1292.33 500.123
1356 0 65.1236 10.8409 706 84.6643 1291.98 498.455
1357 0 66.0932 10.8786 719 85.7385 1291.55 497.202
1358 0 69.0604 11.0049 760 86.2408 1292.44 495.701
1359 0 71.0675 10.9473 778 86.4164 1292.06 494.726
1360 0 73.042 10.5282 769 87.9701 1291.41 492.62
1361 0 75.122 11.6344 874 86.9279 1291.26 493.448
1362 0 78.1184 11.8154 923 86.6284 1292.18 492.002
1363 0 79.0483 11.0439 873 88.6678 1291.76 491.793
1364 0 82.1099 12.191 1001 86.5594 1291.95 489.27
1365 0 86.1178 11.7746 1014 87.7466 1292.21 488.854
1366 0 87.1014 11.9286 1039 88.2146 1291.76 487.37
1367 0 90.1319 11.583 1044 88.16 1291.65 486.814
1368 0 92.1648 11.5445 1064 88.7622 1291.09 485.224
1369 0 95.1238 11.1854 1064 89.8177 1291.42 484.02
1370 0 99.1566 12.1122 1201 87.9018 1290.87 481.347
1371 0 102.118 11.5846 1183 89.4396 1291.25 480.85
1372 0 106.101 12.243 1299 88.331 1292.14 477.221
1373 0 108.109 12.1544 1314 90.5875 1292.13 477.248
1374 1 60.0517 11.9064 715 95.8098 1292.57 500.62
1375 0 64.0852 12.0309 771 97.4138 1289.91 499.651
1376 0 63.0863 12.3323 778 99.2159 1289.52 497.32
1377 0 64.1127 12.1505 779 93.9358 1290.08 497.783
1378 0 67.0287 12.3977 831 94.8797 1290.15 497.464
1379 0 64.0685 11.3004 724 98.4779 1290.55 497.181
1380 0 66.0393 11.9777 791 101.745 1289.83 496.807
1381 0 66.0652 11.8671 784 105.133 1289.79 497.309
1382 0 68.0405 12.1251 825 105.285 1289.5 497.118
1383 0 68.0709 11.6349 792 105.292 1289.32 496.154
1384 0 72.077 12.2508 883 99.2639 1290.39 496.157
1385 0 73.1549 12.3027 900 97.4033 1290.52 493.187
1386 0 75.1277 12.4455 935 95.7005 1290.08 493.456
1387 0 77.1104 12.2292 943 94.912 1289.31 493.084
1388 0 79.1736 12.0621 955 94.1309 1289.65 491.174
1389 0 80.098 12.1476 973 93.2908 1289.13 489.526
1390 0 83.1825 12.2261 1017 92.1318 1289.28 489.4
1391 0 83.1082 12.5018 1039 93.2089 1289.4 488.694
1392 0 86.1352 12.3991 1068 93.7294 1290.56 488.019
1393 0 86.1127 12.5533 1081 94.5365 1290.35 486.29
1394 0 88.0847 12.7264 1121 95.7279 1290.28 486.045
1395 0 90.1017 12.8965 1162 95.9165 1290.06 484.46
1396 0 93.136 12.9381 1205 96.4622 1289.49 483.29
1397 0 96.1465 13.105 1260 97.0349 1289.78 482.536
1398 0 96.106 13.1521 1264 99.2207 1289.24 480.392
1399 0 100.116 13.0448 1306 99.477 1289.48 478.945
1400 0 101.092 13.3641 1351 100.819 1289.07 478.135
1401 0 102.101 12.7717 1304 104.4 1289.53 476.502
1402 0 104.115 13.0145 1355 105.6 1289.52 475.878
1403 0 106.145 12.6808 1346 107.117 1289.68 473.838
1404 0 109.114 12.8489 1402 106.432 1289.6 473.039
1405 0 115.152 13.1479 1514 105.317 1290.02 470.023
1406 1 64.055 10.569 677 106.347 1289.39 494.626
1407 0 66.0733 11.0786 732 107.112 1289.82 495.187
1408 0 68.0926 11.7046 797 98.2158 1290.6 491.996
1409 0 71.0789 11.8741 844 93.5178 1289.21 493.745
1410 0 73.0759 12.576 919 93.6322 1289.37 493.529
1411 0 73.0778 11.6862 854 94.9883 1289.12 493.374
1412 0 75.0817 10.7083 804 97.7873 1290.16 493.134
1413 0 78.0629 12.1569 949 95.1243 1289.77 491.521
1414 0 82.0951 11.8765 975 94.4513 1290.14 491.876
1415 0 83.0825 11.9038 989 96.0091 1291.12 487.756
1416 0 85.0677 12.1198 1031 95.0854 1290.19 487.937
1417 0 89.1445 11.9132 1062 95.5348 1290.77 486.867
1418 0 91.1162 11.5567 1053 95.0589 1290.37 486.752
1419 0 95.1042 11.3875 1083 95.5162 1291.01 484.591
1420 1 49.0847 11.0014 540 94.15 1290.82 505.724
1421 0 49.1195 10.281 505 90.7168 1289.91 505.061
1422 0 53.0523 11.6866 620 86.9016 1290.1 503.453
1423 0 54.0684 11.5964 627 85.799 1289.86 501.405
1424 0 52.0584 9.58539 499 91.0962 1290.21 504.938
1425 0 54.0274 10.143 548 92.7318 1290.28 502.502
1426 0 55.1043 10.8703 599 90.0184 1290.43 501.758
1427 0 55.0884 10.6011 584 91.1935 1290.34 501.058
1428 0 59.0572 11.074 654 90.1269 1290.41 499.894
1429 0 61.0412 10.6977 653 90.9908 1289.73 499.522
1430 0 62.027 10.5438 654 93.1514 1290.61 498.576
1431 0 64.0214 10.6839 684 92.0512 1290.77 498.471
1432 0 67.0592 11.5122 772 89.5738 1290.05 496.628
1433 0 70.0685 11.2033 785 90.8586 1290.94 495.544
1434 0 70.0971 11.4127 800 91.985 1290.1 495.389
1435 0 73.072 11.9198 871 91.6774 1290.02 495.218
1436 0 74.0964 12.0924 896 93.3806 1290.39 492.103
1437 0 79.0861 11.2536 890 93.0933 1290.75 491.371
1438 0 81.0689 11.373 922 91.7028 1291.57 489.174
1439 0 82.0758 11.0264 905 92.7779 1291.7 486.581
1440 0 86.0838 11.8257 1018 89.836 1291.23 488.029
1441 0 90.0466 11.6939 1053 90.8841 1290.84 484.37
1442 1 49.0196 10.2612 503 93.9622 1291.91 503.877
1443 0 51.0194 11.3094 577 91.3536 1292.26 504.267
1444 0 49.0381 11.1546 547 92.2815 1292.11 502.671
1445 0 52.0428 10.7027 557 89.3411 1291.12 502.323
1446 0 52.0551 11.7568 612 88.3627 1290.49 500.011
1447 0 52.0873 10.6744 556 90.5971 1290.12 501.451
1448 0 54.0796 10.9838 594 89.8636 1291.83 501.04
1449 0 55.0679 10.9138 601 90.0366 1291.74 500.659
1450 0 58.0632 11.3497 659 88.8179 1291.78 500.436
1451 0 59.097 11.0666 654 90.3502 1291.28 499.141
1452 0 61.0073 10.9003 665 90.2737 1292.75 498.356
1453 0 63.0313 11.8354 746 88.7668 1291.47 496.228
1454 0 65.054 11.2983 735 89.8014 1292.47 495.234
1455 0 68.0446 11.8305 805 90.0199 1291.63 493.78
1456 0 70.0483 12.1345 850 88.8682 1291.64 493.353
1457 0 71.0291 11.1926 795 92.1157 1291.78 493.274
1458 0 74.0807 11.8789 880 90.7477 1291.95 491.524
1459 0 78.0434 11.9933 936 90.5684 1291.48 490.944
1460 0 80.0659 12.5646 1006 89.3032 1291.63 490.014
1461 0 83.0525 12.3777 1028 91.3084 1291.87 487.998
1462 0 84.0829 11.9882 1008 92.7024 1292.03 486.392
1463 0 89.1294 11.9601 1066 91.6538 1291.41 486.425
1464 0 91.0987 11.7455 1070 92.8308 1291.34 483.661
1465 1 50.049 11.1491 558 95.3674 1292.06 502.421
1466 0 54.0842 11.667 631 94.832 1290.99 500.764
1467 0 54.0782 12.1676 658 92.693 1291.09 500.919
1468 0 55.1124 12.1025 667 93.1469 1290.85 498.168
1469 0 56.1391 12.1484 682 92.3548 1291.17 497.856
1470 0 57.0605 12.9336 738 87.0786 1292.38 498.501
1471 0 59.0892 12.0327 711 84.4444 1290.38 498.297
1472 0 62.133 12.4732 775 81.4026 1290.73 497.283
1473 0 61.0381 12.3202 752 83.0213 1289.8 497.263
1474 0 64.1025 12.2148 783 83.1635 1291.01 496.618
1475 0 65.1062 11.9804 780 83.9269 1290.29 494.546
1476 0 65.1201 12.0854 787 83.2478 1290.25 492.443
1477 0 70.0375 12.9216 905 81.0751 1289.8 492.115
1478 0 71.0518 12.8357 912 81.6634 1290.33 489.6
1479 0 74.0712 13.0685 968 80.5413 1290.52 488.824
1480 0 76.1266 12.6631 964 80.4969 1290.88 487.217
1481 0 78.08 12.2567 957 80.8088 1290.86 486.269
1482 0 81.065 13.1746 1068 77.764 1291.19 485.493
1483 0 81.1174 12.1182 983 80.9532 1290.58 484.396
1484 0 83.1058 11.4553 952 77.6324 1291.51 478.498
1485 0 86.075 12.2335 1053 76.9487 1290.56 478.901
1486 0 89.1436 12.407 1106 81.1863 1290.57 479.267
1487 0 93.1179 12.7902 1191 80.9706 1290.34 479.256
1488 0 96.1085 12.3194 1184 83.3995 1290.1 477.911
1489 1 49.0476 11.1728 548 82.9416 1289.92 500.566
1490 0 50.0459 10.1507 508 76.3268 1290.4 500.236
1491 0 53.0372 11.2563 597 77.7169 1291.44 501.055
1492 0 53.1137 12.2002 648 79.1759 1291.6 499.63
1493 0 55.0836 11.4735 632 81.4652 1291.89 497.93
1494 0 56.0524 11.5071 645 80.5783 1291.28 496.496
1495 0 59.064 11.5637 683 78.8477 1291.57 496.704
1496 0 61.0825 13.0479 797 74.8996 1291.67 495.9
1497 0 63.0831 11.8098 745 77.4215 1290.68 496.757
1498 0 64.033 12.2281 783 77.1022 1289.85 495.337
1499 0 66.0439 11.6892 772 78.6904 1291.8 493.482
1500 0 66.0439 11.6135 767 135.154 1291.8 493.576
1501 0 69.0893 12.9253 893 76.224 1292.09 490.303
1502 0 70.0966 12.226 857 76.8938 1292.05 490.128
1503 0 73.1073 12.7074 929 75.6964 1290.44 488.854
1504 0 73.1001 12.2298 894 76.9564 1290.73 486.663
1505 0 78.0692 12.7707 997 74.6299 1290.24 483.809
1506 0 80.1132 12.5198 1003 74.3918 1290.67 484.121
1507 0 82.1562 12.038 989 75.7624 1290.07 481.97
1508 0 85.0773 12.1301 1032 75.6037 1290.16 480.915
1509 0 88.0842 11.4663 1010 77.0059 1290.61 479.872
1510 0 91.0985 12.2944 1120 75.3411 1292.22 480.334
1511 0 92.1184 11.7458 1082 77.0222 1291.81 478.113
1512 0 97.1231 11.6038 1127 77.0355 1291.85 475.893
1513 1 52.0389 10.4922 546 75.5897 1292.3 498.515
1514 0 54.0263 11.2723 609 73.6683 1292.49 497.25
1515 0 55.1471 11.6597 643 73.4401 1290.76 493.762
1516 0 57.1617 12.3334 705 73.6085 1291.69 497.298
1517 0 58.1364 12.0923 703 74.1223 1291.64 495.414
1518 0 60.1103 12.6601 761 73.2378 1291.4 494.34
1519 0 61.2305 11.3016 692 72.0058 1291.32 494.324
1520 0 64.067 12.2684 786 70.7952 1291.53 493.366
1521 0 66.1963 12.4025 821 70.218 1291.43 492.078
1522 0 68.1293 11.9332 813 71.0258 1291.66 492.018
1523 0 70.1043 12.2817 861 70.6098 1291.83 490.711
1524 0 72.1019 12.621 910 70.7934 1291.33 489.492
1525 0 76.1449 12.2398 932 70.8122 1292.26 488.652
1526 0 77.1287 11.604 895 73.1006 1292.05 486.925
1527 0 78.0647 11.7339 916 73.0502 1292.47 486.479
1528 0 83.1413 12.6171 1049 71.2069 1292.41 485.714
1529 0 84.1145 11.6983 984 73.5437 1292.48 485.362
1530 0 88.2809 12.5735 1110 71.655 1291.98 484
1531 0 90.2374 12.2898 1109 73.2002 1291.78 481.307
1532 0 93.0739 11.7863 1097 72.4959 1293.39 479.217
1533 1 47.044 10.267 483 74.9689 1293.3 502.3
1534 0 50.0315 11.2729 564 71.9876 1290.93 501.296
1535 0 51.082 10.7866 551 73.6152 1290.62 500.679
1536 0 53.0453 11.1414 591 72.9865 1291.65 500.433
1537 0 55.0529 11.8977 655 72.1206 1291.55 497.945
1538 0 52.0166 10.7658 560 76.7857 1293.2 498.212
1539 0 53.0621 10.9117 579 77.0294 1292.62 497.515
1540 0 54.1129 10.4411 565 77.954 1292.8 496.943
1541 0 56.161 10.6123 596 77.3607 1292.64 496.478
1542 0 56.1343 10.4392 586 79.0205 1292.64 495.91
1543 0 60.1678 10.8862 655 77.8779 1292.8 495.759
1544 0 62.0536 10.4265 647 78.8362 1292.97 496.175
1545 0 62.0512 11.007 683 79.8272 1292.52 493.966
1546 0 68.0698 11.2091 763 77.692 1292.12 493.277
1547 0 70.0744 12.0443 844 77.6777 1292.86 493.11
1548 0 71.0896 12.0974 860 80.2733 1292.69 491.765
1549 0 73.083 11.6169 849 82.8174 1292.93 490.399
1550 0 74.0308 11.7924 873 84.0997 1292.66 487.955
1551 0 78.0602 10.9915 858 84.8427 1292.81 487.611
1552 0 81.093 12.3685 1003 83.5703 1293.15 486.683
1553 0 83.0564 12.4734 1036 84.5695 1292.71 485.625
1554 0 86.0717 11.9784 1031 86.6751 1292.39 484.857
1555 0 89.0661 12.3391 1099 87.485 1291.9 481.267
1556 1 52.0297 12.0508 627 89.9761 1292.46 498.635
1557 0 54.0273 12.0495 651 87.6344 1292.61 498.481
1558 0 53.1201 12.0858 642 86.148 1291.39 498.793
1559 0 55.0936 12.1611 670 82.3642 1291.64 497.909
1560 0 57.1168 12.4132 709 82.5035 1291.47 497.859
1561 0 59.1197 12.2463 724 83.0304 1290.5 496.345
1562 0 59.1218 13.3792 791 82.6498 1291.58 494.707
1563 0 60.1654 12.6983 764 84.8154 1291.1 494.906
1564 0 62.2293 12.5986 784 84.8903 1291.55 493.758
1565 0 64.1514 12.3458 792 85.755 1290.38 492.922
1566 0 66.1371 12.7009 840 85.3583 1290.69 492.082
1567 0 69.1032 12.503 864 85.8993 1291.26 490.78
1568 0 70.1725 13.4383 943 84.9746 1291.38 490.175
1569 0 74.0875 13.2141 979 86.3095 1290.8 489.286
1570 0 75.0757 13.3465 1002 86.7764 1291.15 488.103
1571 0 76.0786 13.3678 1017 88.1367 1290.46 487.215
1572 0 80.0831 13.3736 1071 87.225 1290.78 486.446
1573 0 82.1399 14.0736 1156 86.3728 1291.58 484.086
1574 0 85.1294 13.8025 1175 86.0145 1291.03 484.355
1575 0 88.1506 13.6358 1202 87.1689 1291.05 482.965
1576 1 47.0365 10.8427 510 92.8373 1290 501.51
1577 0 49.0076 11.0595 542 96.2306 1291.13 501.133
1578 0 49.0076 11.1411 546 160.185 1293.18 501.024
1579 0 52.0701 12.2143 636 98.7343 1291.03 496.799
1580 0 54.0114 13.0528 705 91.2652 1289.99 498.464
1581 0 56.0242 12.6374 708 88.3828 1291.98 497.815
1582 0 57.0422 12.6222 720 90.0208 1291.84 497.333
1583 0 59.0816 12.2035 721 90.9445 1291.79 495.825
1584 0 60.034 13.4591 808 89.4653 1292.37 495.34
1585 0 62.0992 13.1564 817 90.6279 1292.53 495.177
1586 0 63.0342 13.4213 846 91.4078 1292.56 495.052
1587 0 61.0773 11.8702 725 95.0179 1292.58 495.903
1588 0 64.0812 12.4373 797 93.7189 1291.38 493.625
1589 0 67.0422 12.0521 808 93.4455 1291.8 494.203
1590 0 68.0876 12.7042 865 93.9121 1291.52 491.964
1591 0 68.0146 12.6884 863 94.5956 1291.6 492.071
1592 0 70.0555 12.5615 880 95.2068 1290.84 491.553
1593 0 75.1188 13.1525 988 93.5607 1291.59 488.71
1594 0 77.0887 12.6997 979 95.4505 1291.28 487.749
1595 0 80.0981 12.9716 1039 94.129 1291.7 488.45
1596 0 82.0496 12.9068 1059 95.5779 1291.2 485.173
1597 0 85.0898 12.1754 1036 98.1496 1290.7 483.659
1598 0 85.0669 12.355 1051 98.5452 1291.22 482.653
1599 0 91.1689 12.4714 1137 96.051 1291.45 481.225
1600 0 93.0906 12.8047 1192 96.9698 1290.86 477.815
1601 1 52.0297 11.3973 593 96.0253 1291.45 500.035
1602 0 53.0382 11.8782 630 93.8762 1292.14 498.7
1603 0 53.0756 12.096 642 89.796 1291.69 498.288
1604 0 55.0815 12.4361 685 89.6818 1291.77 497.139
1605 0 56.1376 12.7187 714 88.2283 1291.91 496.564
1606 0 60.0993 13.3945 805 85.318 1291.6 495.109
1607 0 61.0698 12.5266 765 87.3346 1291.47 496.537
1608 0 63.0629 12.1149 764 85.3979 1291.63 495.906
1609 0 63.0946 12.5526 792 85.1654 1291.03 495.355
1610 0 66.0853 12.6654 837 83.5376 1291.16 495.137
1611 0 69.0902 12.8962 891 82.8833 1290.85 493.616
1612 0 69.0431 12.5284 865 84.4173 1290.14 491.11
1613 0 71.0507 12.8359 912 84.0088 1290.29 489.057
1614 0 75.0574 13.3764 1004 81.4661 1290.45 489.601
1615 0 77.1461 13.3124 1027 82.0263 1290.82 485.049
1616 0 79.0558 13.3197 1053 82.8908 1291.79 485.598
1617 0 78.0955 12.9585 1012 84.8834 1291.04 484.574
1618 0 81.1138 13.3639 1084 92.1716 1290.55 485.35
1619 0 85.1081 13.665 1163 83.877 1290.94 484.628
1620 0 88.1435 13.3873 1180 84.9085 1290.39 481.358
1621 0 88.0854 13.6231 1200 87.5942 1290.3 480.188
1622 0 89.1097 12.8606 1146 91.322 1290.51 480.627
1623 0 92.13 12.8188 1181 94.7485 1290.13 475.815
1624 0 96.1101 12.5897 1210 94.857 1291.1 476.283
1625 0 100.161 12.9591 1298 93.8259 1289.92 474.433
1626 0 101.119 12.4507 1259 96.3638 1290.37 471.982
1627 1 56.094 12.2295 686 97.8192 1289.57 495.006
1628 0 58.1478 12.2447 712 97.9087 1290.29 494.044
1629 0 58.123 12.5424 729 93.4746 1289.86 493.219
1630 0 62.0971 12.722 790 85.1949 1289.57 494.176
1631 0 62.0971 12.8025 795 139.591 1289.55 494.169
1632 0 63.0854 12.5703 793 85.8789 1289.84 491.121
1633 0 66.1233 12.9455 856 84.0935 1289.57 490.958
1634 0 69.1498 12.3789 856 84.1565 1290.27 489.071
1635 0 71.1305 12.8496 914 82.1948 1289.36 487.407
1636 0 74.0881 12.9171 957 81.1202 1290.44 485.213
1637 0 77.0385 12.9805 1000 80.388 1289.99 484.038
1638 0 79.1383 12.7119 1006 80.2972 1289.07 484.303
1639 0 82.0988 12.5337 1029 78.8008 1289.64 482.739
1640 0 84.1311 12.5756 1058 77.9282 1289.77 479.304
1641 0 84.0919 12.415 1044 78.1667 1289.57 477.62
1642 0 88.0582 11.9466 1052 78.25 1289.87 476.234
1643 0 91.0814 12.2528 1116 77.9982 1290.94 476.131
1644 0 92.1583 11.8166 1089 78.4518 1290.09 475.183
1645 1 49.0589 10.3345 507 76.716 1290.03 499.16
1646 0 49.0197 10.302 505 82.901 1290.41 499.109
1647 0 51.0503 11.3809 581 76.5525 1290.19 497.676
1648 0 52.037 11.4342 595 74.3765 1290.52 498.541
1649 0 54.0638 11.098 600 72.8433 1291.55 497.958
1650 0 55.0516 11.4256 629 72.7106 1291.93 497.548
1651 0 56.0157 11.2647 631 73.4231 1292.1 496.249
1652 0 60.0948 11.5983 697 71.8551 1292.41 494.766
1653 0 58.0533 11.2311 652 73.6932 1292.25 493.937
1654 0 62.0713 11.5351 716 72.9902 1292.66 492.189
1655 0 63.0324 11.4068 719 73.3644 1292.31 493.732
1656 0 66.0788 12.0462 796 72.3957 1291.97 492.084
1657 0 66.0712 12.0022 793 71.7768 1291.57 490.523
1658 0 72.0602 12.2259 881 69.9194 1291.57 489.292
1659 0 73.0932 12.614 922 70.5141 1292.19 489.923
1660 0 75.0793 12.5734 944 71.2235 1291.01 488.803
1661 0 77.0888 12.8683 992 71.5998 1291.99 486.558
1662 0 80.0434 13.0304 1043 72.7085 1291.35 485.495
1663 0 83.0846 13.059 1085 72.1429 1291.36 482.851
1664 0 83.0545 12.7145 1056 74.5852 1290.41 482.258
1665 0 88.1161 13.3687 1178 73.1384 1290.93 480.698
1666 0 90.0594 13.0136 1172 73.698 1290.21 479.079
1667 1 46.0334 10.4055 479 78.7871 1289.62 500.564
1668 0 47.0273 11.2275 528 78.267 1289.1 497.644
1669 0 49.0311 10.9726 538 83.0335 1288.87 497.214
1670 0 50.1935 11.5154 578 71.519 1289.11 498.524
1671 0 49.1401 11.9454 587 71.7359 1289.32 498.315
1672 0 48.0935 11.3529 546 75.5146 1289.42 499.951
1673 0 51.0928 11.1953 572 75.1101 1289.68 498.977
1674 0 51.0442 10.9121 557 76.553 1289.25 498.456
1675 0 54.1049 11.3298 613 76.0294 1289.7 496.995
1676 0 56.1384 11.4895 645 76.3876 1289.57 497.262
1677 0 58.0922 11.344 659 76.9393 1289.77 497.2
1678 0 60.102 11.1976 673 76.5082 1289.75 497.275
1679 0 61.0822 11.4272 698 78.0344 1290.34 494.62
1680 0 65.0598 12.3271 802 74.9701 1290.33 493.34
1681 0 67.0837 12.0148 806 75.8995 1289.64 492.711
1682 0 68.108 11.8782 809 76.5488 1290.8 490.639
1683 0 71.0847 11.6199 826 76.4189 1290.09 489.725
1684 0 72.0552 11.5883 835 77.491 1289.86 489.222
1685 0 76.0698 12.0679 918 76.5959 1289.18 487.769
1686 0 77.091 12.5177 965 75.485 1290.49 487.794
1687 0 79.1068 11.9964 949 77.1465 1290.8 485.053
1688 0 82.0749 12.2815 1008 77.123 1290.01 484.037
1689 0 83.1112 12.0682 1003 77.8804 1290.68 483.416
1690 0 88.0946 12.0552 1062 76.517 1290.35 483.645
1691 0 89.0739 11.0919 988 77.7874 1290.64 483.493
1692 0 93.1054 11.7609 1095 76.3342 1290.96 479.96
1693 0 96.1217 11.5687 1112 77.4272 1290.69 478.19
1694 1 54.0523 10.7489 581 79.5164 1290.02 499.27
1695 0 55.092 10.9998 606 82.4736 1290.31 493.302
1696 0 52.038 9.89661 515 79.9437 1290.16 489.161
1697 0 53.0888 10.8686 577 78.974 1291.16 488.255
1698 0 56.0522 11.2574 631 77.2631 1290.69 488.669
1699 0 56.1006 10.6594 598 80.214 1290.14 485.778
1700 0 61.037 10.9933 671 77.9553 1290.78 486.316
1701 0 61.1372 10.5173 643 78.8942 1291.4 483.493
1702 0 60.0561 9.45783 568 81.1849 1290.72 480.129
1703 0 69.0366 10.8204 747 77.0736 1290.27 482.934
1704 0 75.0575 12.0441 904 80.1195 1289.96 486.811
1705 0 76.0167 11.6159 883 80.5912 1290.93 485.283
1706 0 79.0264 10.9963 869 82.0702 1290.22 485.109
1707 0 81.0334 11.6495 944 81.1208 1290.23 480.674
1708 0 84.1381 10.9938 925 81.2735 1291.11 480.836
1709 1 45.1489 10.3436 467 75.3961 1292.26 502.848
1710 0 47.1009 10.7217 505 74.3069 1291.59 502.37
1711 0 47.0829 11.1718 526 74.0361 1291.53 500.241
1712 0 47.0829 11.1293 524 128.177 1291.51 500.261
1713 0 53.0917 12.4878 663 74.1267 1291.84 499.621
1714 0 53.113 12.6899 674 74.4777 1292.62 497.963
1715 0 55.1278 12.4801 688 74.5596 1291.85 497.541
1716 0 56.0457 12.8288 719 74.0292 1292.21 496.615
1717 0 56.2095 12.5957 708 75.0254 1291.77 496.219
1718 0 59.0418 12.7029 750 73.988 1292.09 495.919
1719 0 59.0827 12.6602 748 75.1096 1291.4 494.23
1720 0 60.1477 12.3197 741 76.4453 1291.87 494.17
1721 0 62.0667 13.0021 807 75.8352 1291.77 491.217
1722 0 64.1502 12.8293 823 76.9648 1291.35 491.023
1723 0 66.1279 13.4588 890 76.918 1290.8 490.171
1724 0 66.0828 13.0442 862 82.9049 1291.24 488.128
1725 0 67.1235 12.991 872 84.0894 1290.66 485.786
1726 0 69.0672 13.581 938 82.0416 1291 486.385
1727 0 71.0745 12.7472 906 85.4084 1289.31 487.138
1728 0 71.1111 12.3891 881 88.0068 1289.42 486.778
1729 0 74.0587 12.4766 924 89.8658 1290.14 484.539
1730 0 76.0749 12.2117 929 91.5533 1289.88 482.045
1731 0 76.107 12.3247 938 92.791 1289.84 479.727
1732 0 78.0736 11.9503 933 96.4041 1289.92 475.817
1733 0 81.0437 12.228 991 96.6741 1290.89 474.742
1734 0 82.0632 12.5269 1028 97.0671 1290.88 473.249
1735 0 86.1552 12.1525 1047 98.1566 1290.42 472.092
1736 1 45.0682 10.6727 481 92.5967 1290.3 493.917
1737 0 47.101 10.9552 516 92.4864 1290.08 493.046
1738 0 49.0798 11.6137 570 91.7526 1290.77 492.639
1739 0 47.0369 11.8205 556 94.7896 1290.59 493.477
1740 0 49.0338 11.7674 577 95.4974 1290.49 492.336
1741 0 52.0147 11.689 608 95.5214 1290.73 493.067
1742 0 53.0243 11.5042 610 97.9738 1291.1 493.602
1743 0 54.03 12.0859 653 97.1501 1290.63 493.02
1744 0 54.0518 12.377 669 98.3154 1290.59 491.16
1745 0 57.0649 12.3894 707 98.8373 1289.58 490.294
1746 0 59.0492 12.8198 757 98.7569 1289.85 490.4
1747 0 59.0354 12.4163 733 101.27 1289.65 488.921
1748 0 62.0807 12.9026 801 99.8752 1289.8 488.15
1749 0 63.0188 12.8216 808 100.783 1289.95 487.33
1750 0 65.1197 13.1911 859 99.3073 1289.84 485.893
1751 0 68.0407 12.8453 874 100.374 1289.93 485.468
1752 0 70.0607 12.8317 899 100.765 1290.12 483.036
1753 0 71.1039 12.8263 912 101.064 1290.26 483.562
1754 0 74.0747 12.9464 959 101.142 1290.01 481.345
1755 0 76.0643 13.1862 1003 100.733 1290.98 481.335
1756 0 78.0869 13.6771 1068 99.9981 1291.21 479.707
1757 0 81.1622 12.9617 1052 101.548 1291.44 478.247
1758 0 81.1064 12.9706 1052 101.797 1290.15 476.9
1759 0 85.1248 13.4861 1148 98.8502 1290.2 476.468
1760 0 88.0876 13.8044 1216 97.8421 1290.49 473.776
1761 0 91.1296 13.4643 1227 99.141 1291.11 470.307
1762 0 95.1484 13.3265 1268 99.1672 1290.32 471.322
1763 0 96.1565 13.374 1286 100.145 1290.37 468.851
1764 0 98.0622 13.4099 1315 100.208 1290.6 467.107
1765 0 102.168 13.468 1376 99.697 1291.07 465.988
1766 0 105.177 14.1 1483 98.1011 1290.73 462.832
1767 0 108.078 13.5181 1461 99.4846 1291.25 461.909
1768 0 112.248 13.7731 1546 98.9353 1291.51 461.206
1769 0 115.289 14.0343 1618 99.2182 1291.17 459.172
1770 0 119.268 13.1134 1564 105.997 1290.58 456.343
1771 0 124.182 12.7636 1585 100.903 1290.63 458.061
1772 0 128.248 12.6473 1622 103.872 1291.21 456.544
1773 1 63.0649 12.0669 761 84.6176 1290.82 486.536
1774 0 64.0454 11.3982 730 87 1291.11 486.063
1775 0 66.0638 11.8976 786 86.5954 1290.68 485.201
1776 0 68.0355 11.9937 816 86.9828 1291.37 484.292
1777 0 69.0712 11.8718 820 88.8049 1290.41 480.702
1778 0 71.0836 11.4654 815 89.9399 1290.64 480.391
1779 0 75.0376 12.1539 912 87.7697 1291.04 481.371
1780 0 78.0724 11.8864 928 88.5787 1291.39 480.177
1781 0 78.0888 11.3076 883 90.9309 1291.11 476.655
1782 0 80.0448 11.8184 946 89.3097 1291.46 476.796
1783 0 82.1399 12.0283 988 88.5739 1291.28 475.301
1784 0 85.1591 11.1556 950 91.2421 1291.15 475.253
1785 0 87.1456 11.4865 1001 90.6434 1291.17 474.856
1786 0 90.161 11.1911 1009 93.3211 1291.24 473.451
1787 0 92.1543 11.1552 1028 93.9329 1290.3 471.341
1788 0 95.133 11.342 1079 97.0028 1290.44 469.369
1789 1 48.0455 10.4901 504 95.129 1290.24 491.395
1790 0 54.0559 11.3956 616 93.6071 1289.88 492.008
1791 0 55.0487 10.8631 598 81.2074 1290.54 491.408
1792 0 57.0867 11.4387 653 79.66 1291.7 490.56
1793 0 57.0843 11.4567 654 120.674 1293.72 490.474
1794 0 60.0395 10.593 636 82.0755 1290.73 488.186
1795 0 62.059 11.3118 702 81.0741 1290.8 487.17
1796 0 63.1315 10.9137 689 82.5515 1290.41 486.184
1797 0 66.1138 11.6466 770 95.1039 1290.37 484.351
1798 0 67.0603 11.0647 742 95.779 1290.66 484.222
1799 0 72.1236 10.7732 777 94.6088 1291.29 482.284
1800 0 73.124 11.1181 813 94.2152 1289.92 483.353
1801 0 75.065 11.4035 856 93.9614 1291.21 482.338
1802 0 78.0896 11.5765 904 93.6648 1290.74 481.649
1803 0 81.1241 12.0186 975 92.4923 1291.29 479.098
1804 0 81.239 11.8539 963 83.8899 1289.72 478.668
1805 0 85.174 11.9872 1021 83.6993 1290.01 477.113
1806 0 87.1553 12.8965 1124 82.1931 1289.75 477.705
1807 0 90.1356 12.4368 1121 83.7199 1290.27 475.901
1808 0 93.2191 11.3925 1062 97.8569 1288.98 474.047
1809 0 94.2093 11.7292 1105 99.7176 1289.58 470.202
1810 0 101.318 12.3768 1254 97.5407 1289.44 470.318
1811 0 100.287 11.6964 1173 99.0674 1289.91 468.683
1812 1 55.0737 10.8763 599 89.6661 1288.75 493.79
1813 0 57.1244 11.6763 667 95.6237 1290.51 493.186
1814 0 60.0792 12.4336 747 90.5448 1290.93 490.843
1815 0 58.0998 9.75908 567 81.7266 1290.16 492.769
1816 0 61.0758 10.4297 637 79.8587 1290.68 492.619
1817 0 64.098 10.9208 700 79.3457 1289.86 492.697
1818 0 64.2323 10.8045 694 81.2651 1290.29 488.473
1819 0 67.192 10.7602 723 81.3015 1289.78 489.787
1820 0 69.2355 11.3815 788 81.8477 1290.64 487.904
1821 0 73.166 11.7131 857 81.3291 1290.58 487.317
1822 0 72.0977 11.3041 815 84.2503 1289.96 485.535
1823 0 75.1521 11.3503 853 84.7128 1290.43 484.605
1824 0 78.2958 12.2357 958 83.9436 1290.8 483.684
1825 0 80.2038 12.3062 987 85.5978 1291.14 482.503
1826 0 81.249 12.1971 991 87.4369 1290.6 482.782
1827 0 83.0784 12.3137 1023 88.9912 1290.59 482.32
1828 0 86.06 11.8871 1023 90.1965 1290.31 479.539
1829 0 88.054 12.2879 1082 90.329 1290.59 479.284
1830 0 90.0968 12.3756 1115 91.5058 1290.07 476.891
1831 0 93.065 12.5611 1169 93.5175 1290.63 474.418
1832 0 96.0941 12.7479 1225 94.0645 1290.16 475.232
1833 0 100.072 13.0006 1301 94.2098 1290.04 473.688
1834 0 103.139 13.4188 1384 94.1712 1290.32 473.022
1835 0 104.053 13.3682 1391 96.5802 1290.62 468.96
1836 0 105.087 12.7514 1340 100.816 1290.49 469.635
1837 0 109.093 13.3372 1455 99.7766 1290.17 469.219
1838 0 113.064 13.5233 1529 98.8679 1291.18 466.785
1839 0 117.25 13.2964 1559 97.966 1290.89 464.431
1840 0 124.127 13.8971 1725 96.8655 1290.35 460.616
1841 0 127.123 14.9934 1906 95.4738 1290.84 458.831
1842 0 129.074 14.666 1893 94.1336 1290.19 455.574
1843 0 135.132 14.7412 1992 92.5833 1289.8 456.538
1844 0 136.112 14.3705 1956 94.6585 1289.92 452.092
1845 0 141.125 14.4978 2046 98.9707 1290.43 450.375
1846 0 145.187 14.3746 2087 98.9205 1290.55 448.453
1847 0 150.164 15.2233 2286 97.1977 1290.51 444.523
1848 0 153.172 14.3172 2193 100.63 1289.85 445.826
1849 1 84.1049 11.6046 976 96.6219 1290.51 482.553
1850 0 87.1648 12.5968 1098 100.739 1290.88 479.148
1851 0 91.1133 12.8741 1173 99.7059 1291.57 477.878
1852 0 92.1251 13.9484 1285 100.236 1290.79 477.6
1853 0 96.1943 13.6703 1315 98.0327 1291.02 474.01
1854 0 99.1321 13.5879 1347 98.4187 1290.61 474.269
1855 0 99.0722 13.9999 1387 99.2682 1290.91 473.222
1856 0 104.069 14.1444 1472 98.9545 1290.13 471.906
1857 0 107.154 14.0265 1503 98.3267 1291.02 470.876
1858 0 109.107 13.9221 1519 98.8413 1291.21 468.698
1859 0 112.142 14.4549 1621 97.7619 1290.52 466.92
1860 0 115.104 14.387 1656 98.3279 1291.55 466.49
1861 0 120.068 14.2502 1711 98.6815 1290.82 463.479
1862 0 124.124 15.2509 1893 96.3714 1291.33 463.343
1863 0 126.252 14.3047 1806 99.0277 1290 458.696
1864 0 131.184 14.6817 1926 97.9984 1290.37 455.386
1865 0 135.152 14.4134 1948 98.7038 1291.05 455.42
1866 1 69.0897 11.9265 824 95.6481 1290.42 487.973
1867 0 73.0563 12.5246 915 94.8142 1290.4 487.588
1868 0 76.124 13.8721 1056 97.0464 1290.93 488.833
1869 0 77.1198 13.0057 1003 99.3998 1290.77 487.493
1870 0 80.0902 13.31 1066 98.546 1290.25 486.196
1871 0 81.1222 12.7092 1031 90.13 1290.8 485.329
1872 0 83.1145 13.8243 1149 88.2219 1290.8 483.333
1873 0 86.0825 13.9401 1200 90.1725 1290.46 481.765
1874 0 90.1665 13.9631 1259 98.7665 1290.78 479.705
1875 0 90.1101 14.2159 1281 99.1944 1290.78 479.064
1876 0 94.1896 14.1098 1329 99.231 1290.74 477.006
1877 0 97.0986 14.0991 1369 99.2242 1290.45 475.779
1878 0 101.079 14.2463 1440 98.8542 1290.74 474.458
1879 0 104.138 14.7401 1535 97.5218 1291.48 472.688
1880 1 47.0364 12.6498 595 97.995 1291.16 499.891
1881 0 51.0863 13.5261 691 93.6426 1291.28 499.159
1882 0 52.0703 13.1361 684 95.8304 1291.29 498.996
1883 0 54.111 14.267 772 94.2358 1292.22 497.734
1884 0 55.0782 14.2343 784 97.051 1291.56 496.309
1885 0 57.1314 13.9853 799 97.0413 1291.63 496.141
1886 0 60.1312 14.4684 870 95.6276 1292.05 494.276
1887 0 60.0801 14.0646 845 98.5456 1291.21 493.249
1888 0 60.0801 14.0646 845 161.619 1291.21 493.249
1889 0 65.0648 14.939 972 96.2119 1290.87 491.963
1890 0 68.071 14.6465 997 99.0502 1290.82 490.804
1891 0 70.0367 14.5352 1018 101.486 1290.89 489.862
1892 0 71.0378 15.1609 1077 102.635 1290.71 489.906
1893 0 73.1027 15.1157 1105 104.465 1291.7 489.356
1894 0 77.0619 15.2085 1172 104.056 1290.9 487.997
1895 0 78.0601 15.0909 1178 105.912 1291.45 486.983
1896 0 81.0993 16.1777 1312 104.019 1291.25 486.098
1897 0 81.0379 14.9313 1210 108.631 1291.23 485.297
1898 0 86.079 15.2534 1313 106.997 1290.74 483.114
1899 0 89.0861 15.9172 1418 105.275 1291.61 482.807
1900 0 92.0902 16.1146 1484 104.877 1291.35 481.556
1901 0 93.0571 15.4636 1439 107.286 1290.79 479.975
1902 0 96.0682 16.2072 1557 106.654 1291.35 478.507
1903 0 100.075 16.2578 1627 106.378 1291.23 475.506
1904 0 105.103 17.069 1794 103.46 1291 475.064
1905 0 106.135 16.8559 1789 105.412 1290.7 473.567
1906 0 112.066 16.7313 1875 103.83 1290.59 471.42
1907 0 114.06 16.202 1848 105.943 1289.89 469.248
1908 0 119.143 17.2901 2060 103.207 1289.58 465.83
1909 0 122.177 16.3533 1998 105.82 1289.84 466.092
1910 1 65.0252 14.5174 944 114.81 1290.3 492.716
1911 0 70.0434 14.9479 1047 112.603 1290.29 492.117
1912 0 72.0809 15.1358 1091 123.428 1289.88 489.446
1913 0 74.0569 15.272 1131 115.475 1290.32 488.297
1914 0 76.0373 15.2951 1163 117.217 1290.19 487.382
1915 0 77.0509 15.2237 1173 119.248 1290.43 486.057
1916 0 80.0515 15.3776 1231 118.055 1289.56 485.684
1917 0 82.072 14.8772 1221 120.296 1290.41 483.681
1918 0 85.081 15.4559 1315 118.97 1290.48 482.521
1919 0 90.0846 15.9295 1435 116.209 1289.5 481.422
1920 0 91.087 15.7322 1433 118.214 1290.51 480.748
1921 0 95.0719 15.2832 1453 120.044 1289.6 477.983
1922 0 97.0587 15.1043 1466 120.768 1289.79 476.863
1923 0 100.06 15.6206 1563 119.166 1289.29 474.905
1924 0 104.07 15.8451 1649 118.703 1289.86 474.727
1925 0 108.096 16.2079 1752 119.567 1289.37 470.995
1926 1 56.0959 14.0117 786 127.346 1289.38 495.691
1927 0 58.0765 14.6014 848 127.667 1290.04 493.606
1928 0 59.0368 15.2447 900 126.928 1290.01 492.35
1929 0 62.0553 15.0672 935 127.359 1289.68 491.256
1930 0 65.1168 14.8349 966 128.41 1289.52 490.672
1931 0 66.0962 15.2656 1009 128.349 1289.56 490.372
1932 0 70.1251 15.615 1095 125.359 1289.61 489.013
1933 0 71.0511 15.2426 1083 129.755 1289.48 487.277
1934 0 74.0648 15.2974 1133 128.958 1289.95 486.241
1935 0 77.0949 15.2799 1178 129.374 1289.81 484.555
1936 0 80.0634 16.0498 1285 126.695 1289.28 482.984
1937 0 82.1021 16.3577 1343 126.096 1288.98 482.14
1938 0 84.0779 15.6165 1313 129.26 1289.36 481.264
1939 0 87.0659 15.2528 1328 131.17 1289.58 479.633
1940 0 88.0753 15.9636 1406 129.989 1289.88 478.061
1941 0 93.0331 15.6288 1454 130.098 1289.19 477.598
1942 0 94.0885 15.4642 1455 131.328 1289.5 475.587
1943 0 98.0943 15.5667 1527 129.931 1289.56 473.417
1944 0 103.084 16.1421 1664 127.118 1289.72 471.953
1945 0 106.104 15.8713 1684 126.476 1289.58 471.242
1946 0 111.084 15.9969 1777 126.362 1290.3 467.85
1947 0 116.118 15.8976 1846 126.001 1290.14 465.466
1948 0 118.14 15.6425 1848 127.728 1290.03 462.306
1949 0 124.066 15.5079 1924 125.853 1289.45 460.489
1950 1 59.0846 14.9955 886 124.421 1289.63 491.335
1951 0 62.0922 14.3013 888 125.495 1289.2 490.544
1952 0 63.0228 14.947 942 125.107 1289.59 489.839
1953 0 64.0522 14.8785 953 124.812 1289.62 489.418
1954 0 66.0534 14.564 962 125.518 1290.1 487.532
1955 0 67.0482 14.7655 990 125.657 1289.68 486.236
1956 0 71.0588 15.2268 1082 122.795 1289.73 484.015
1957 0 73.058 14.9744 1094 123.775 1289.22 482.493
1958 0 76.0737 14.946 1137 123.501 1290.03 480.264
1959 0 78.0442 15.1965 1186 123.176 1289.22 479.215
1960 0 80.0691 15.1994 1217 122.498 1289.72 478.924
1961 0 83.1847 15.0869 1255 121.993 1288.95 477.775
1962 0 85.1321 15.1764 1292 122.478 1289.33 475.204
1963 0 88.2211 15.2231 1343 121.507 1288.66 473.106
1964 0 93.0849 15.4053 1434 119.146 1289.44 473.102
1965 0 96.1272 15.1362 1455 119.458 1288.81 469.436
1966 0 101.091 15.5701 1574 117.814 1288.9 468.701
1967 1 50.0572 10.7477 538 124.664 1288.88 492.336
1968 0 51.0767 12.3735 632 120.69 1290.02 492.438
1969 0 54.0592 12.4123 671 119.218 1289.91 493.422
1970 0 56.0541 12.5771 705 119.055 1290.1 492.096
1971 0 57.0919 12.8214 732 119.314 1289.76 490.854
1972 0 58.041 12.5429 728 121.255 1289.24 489.841
1973 0 57.0512 12.7605 728 121.471 1289.51 487.181
1974 0 61.0541 13.2342 808 118.134 1289.34 488.066
1975 0 65.0826 12.7223 828 117.874 1290.15 485.953
1976 0 66.1067 12.9336 855 117.11 1289.77 485.554
1977 0 69.0996 13.3286 921 115.211 1290.4 483.381
1978 0 69.0566 12.859 888 117.345 1289.53 481.876
1979 0 72.0814 13.2628 956 115.068 1290.51 480.54
1980 0 75.1068 13.1147 985 114.81 1289.57 479.182
1981 0 77.0423 12.9409 997 116.554 1289.85 477.193
1982 0 79.0544 12.5863 995 115.793 1289.53 476.418
1983 0 84.1132 12.4119 1044 114.123 1289.49 474.014
1984 0 84.0322 12.4833 1049 113.351 1289.73 473.481
1985 1 46.1224 9.01948 416 97.8341 1288.67 493.481
1986 0 48.0687 10.1729 489 93.8793 1287.59 495.384
1987 0 53.095 11.0933 589 98.6689 1287.61 498.311
1988 0 54.1281 11.8977 644 96.4193 1287.31 496.978
1989 0 56.0739 11.7523 659 92.5448 1287.84 497.361
1990 0 56.094 11.8016 662 94.065 1287.82 496.444
1991 0 58.1253 12.0602 701 93.7461 1287.66 496.178
1992 0 62.1037 12.1088 752 93.7793 1287.35 494.356
1993 0 62.1213 12.0249 747 95.5154 1287.64 492.261
1994 0 63.1118 11.9787 756 95.8439 1287.87 491.307
1995 0 66.1394 12.7609 844 94.9609 1287.45 489.946
1996 0 69.1904 12.4295 860 96.8686 1287.27 489.346
1997 0 68.1695 11.9262 813 101.116 1287.14 488.215
1998 0 72.0688 12.0579 869 100.792 1288.35 486.466
1999 0 75.094 12.0649 906 100.842 1287.83 486.064
2000 0 76.1729 12.2747 935 102.043 1287.25 484.328
2001 0 79.1464 12.8243 1015 100.647 1287.76 483.194
2002 0 81.0979 12.3431 1001 102.837 1287.54 481.252
2003 0 82.0789 12.3296 1012 104.445 1287.97 479.489
2004 0 83.0768 12.5787 1045 104.917 1287.67 479.303
2005 0 84.0697 12.4777 1049 106.995 1288.3 478.54
2006 0 87.0591 12.9797 1130 106.624 1287.83 477.441
2007 0 88.1302 12.3681 1090 109.21 1287.46 476.813
2008 0 91.0976 13.0739 1191 107.529 1287.91 473.832
2009 0 95.0755 13.3894 1273 106.325 1288.05 474.427
2010 0 96.1294 12.7848 1229 109.254 1288.41 470.295
2011 0 98.1241 13.0753 1283 109.097 1289.11 469.585
2012 0 101.098 12.8291 1297 110.056 1288.08 468.628
2013 0 104.07 12.5204 1303 109.548 1288.04 465.471
2014 0 110.152 12.9276 1424 107.07 1288.04 462.999
2015 0 116.189 12.7034 1476 106.657 1288.33 461.976
2016 0 122.163 11.3946 1392 116.652 1288.5 460.073
2017 0 120.32 11.0788 1333 114.511 1288.78 459.275
2018 1 69.124 10.4884 725 109.817 1288.3 484.866
2019 0 72.1652 10.767 777 108.721 1288.95 485.104
2020 0 75.0955 11.0526 830 107.996 1288.35 481.946
2021 0 74.1362 10.4268 773 110.185 1288.62 481.887
2022 0 76.1137 10.5237 801 110.688 1288.78 481.047
2023 0 82.1166 10.1685 835 110.247 1288.74 481.448
2024 0 82.1377 10.2998 846 111.293 1289.04 479.177
2025 0 88.154 9.38131 827 111.521 1288.78 478.733
2026 0 89.1713 9.89107 882 111.379 1288.69 476.652
2027 0 91.1839 10.5282 960 110.503 1288.55 475.043
2028 0 99.1578 9.19746 912 112.078 1288.91 474.351
2029 0 99.1543 9.89367 981 110.299 1288.65 472.723
2030 0 101.106 10.662 1078 109.638 1288.54 469.476
2031 0 98.1666 10.6248 1043 111.133 1288.66 468.058
2032 0 104.148 10.754 1120 109.18 1288.9 466.988
2033 0 109.145 11.1045 1212 107.669 1288.42 467.747
2034 1 53.0537 9.89564 525 100.358 1289.92 495.629
2035 0 49.0546 9.8054 481 86.7963 1289.76 493.867
2036 0 58.164 9.55917 556 97.446 1288.23 494.549
2037 0 63.1493 10.6414 672 92.0595 1289.33 492.927
2038 0 63.1587 10.2757 649 92.6071 1288.98 492.971
2039 0 66.2164 10.3298 684 91.3392 1288.74 490.898
2040 0 66.1774 10.1545 672 92.0744 1288.79 490.911
2041 0 69.1616 10.2803 711 91.6245 1288.82 489.322
2042 0 69.1198 10.1707 703 90.6657 1288.5 490.637
2043 0 74.1261 10.617 787 88.8437 1289.1 487.53
2044 0 76.2327 10.6385 811 87.1776 1288.78 488.111
2045 0 77.1507 10.5508 814 89.2629 1289.89 485.856
2046 0 77.1572 10.7054 826 90.1465 1288.95 484.765
2047 0 80.1289 10.9948 881 88.3258 1289.2 484.664
2048 0 84.2252 11.1368 938 88.2527 1289.11 483.896
2049 0 84.1067 10.2846 865 90.8509 1289.71 482.546
2050 0 87.1076 10.4928 914 90.314 1289.1 482.647
2051 0 90.185 10.545 951 91.6057 1288.98 480.576
2052 0 89.1473 10.4322 930 92.6441 1289.48 479.962
2053 0 92.0751 10.5675 973 84.2919 1288.6 480.549
2054 0 95.0752 11.2753 1072 83.902 1289.05 478.594
2055 0 95.0911 10.3375 983 89.5951 1288.91 475.527
2056 0 98.1146 11.0279 1082 90.9686 1289.84 474.797
2057 0 102.281 11.5955 1186 89.8322 1288.68 472.938
2058 1 54.2565 10.2661 557 86.1508 1288.68 497.298
2059 0 56.1475 10.419 585 85.4803 1288.5 497.824
2060 0 56.158 10.7376 603 85.4494 1289.21 495.393
2061 0 59.1197 11.1638 660 84.7955 1288.35 495.111
2062 0 59.185 11.6921 692 84.9104 1288.02 494.396
2063 0 63.1382 11.752 742 83.4757 1288.24 494.752
2064 0 63.1296 11.3893 719 82.6398 1288.71 494.544
2065 0 66.1241 11.9321 789 83.9062 1288.84 495.475
2066 0 69.1703 13.0114 900 99.5556 1289.04 492.183
2067 0 71.1052 11.5885 824 97.9005 1289.04 492.671
2068 0 73.1582 11.8647 868 97.4044 1289.39 492.217
2069 0 77.299 12.6263 976 99.957 1288.36 489.327
2070 0 77.2672 12.7091 982 100.455 1289.37 488.057
2071 0 78.2186 12.8742 1007 100.077 1288.75 487.244
2072 0 83.1774 13.1526 1094 92.8016 1288.97 486.762
2073 0 84.3096 12.7388 1074 93.8045 1289.14 484.907
2074 0 84.0934 11.5586 972 86.4599 1289.23 481.135
2075 0 87.0791 11.5986 1010 86.2366 1288.9 479.741
2076 0 88.0722 11.2521 991 85.9243 1289.3 477.792
2077 0 92.1285 11.5925 1068 86.5431 1288.76 476.446
2078 0 93.1349 10.9304 1018 88.1965 1289.43 476.712
2079 0 97.1514 11.8475 1151 87.2068 1288.83 476.701
2080 0 99.0978 12.0083 1190 89.1387 1288.51 474.067
2081 0 100.073 12.1711 1218 90.2291 1288.33 473.971
2082 0 104.099 12.1327 1263 90.209 1288.65 473.936
2083 0 106.111 11.8838 1261 91.4021 1288.77 472.817
2084 0 110.129 12.3491 1360 90.625 1288.26 470.965
2085 0 113.168 12.5036 1415 90.0615 1288.48 469.083
2086 0 116.459 12.2876 1431 92.0119 1288.55 466.366
2087 0 116.459 12.2447 1426 136 1288.55 466.296
2088 0 123.606 12.6774 1567 94.2157 1288.79 460.107
2089 0 126.371 12.8985 1630 94.1031 1288.97 457.294
2090 0 131.291 13.1312 1724 93.5261 1289.36 457.37
2091 0 134.423 13.2641 1783 93.7543 1289.09 457.075
2092 0 138.589 13.6591 1893 94.6926 1288.74 451.956
2093 0 143.483 12.6495 1815 96.4231 1288.21 452.201
2094 0 148.488 12.9236 1919 97.0042 1288.38 449.287
2095 1 79.3984 12.2924 976 100.492 1288.53 480.917
2096 0 83.229 12.5437 1044 98.9052 1289.52 483.147
2097 0 85.3312 12.5745 1073 101.064 1288.25 478.188
2098 0 86.3642 13.2231 1142 101.762 1288.96 475.92
2099 0 87.2408 13.9384 1216 102.82 1288.34 476.604
2100 0 92.2814 13.6972 1264 103.746 1288.76 473.391
2101 0 94.1384 14.2131 1338 102.552 1288.38 474.179
2102 0 94.151 13.8713 1306 105.113 1288.7 472.063
2103 0 97.1778 14.0155 1362 104.405 1289.35 469.097
2104 0 100.167 13.4975 1352 104.246 1289.8 466.043
2105 0 100.063 12.712 1272 105.567 1289.46 469.048
2106 0 104.18 13.2272 1378 103.542 1288.89 467.244
2107 0 108.256 13.2002 1429 103.429 1288.93 463.533
2108 0 112.209 13.6085 1527 102.278 1288.69 461.308
2109 0 113.222 13.0452 1477 104.534 1288.91 460.054
2110 0 119.285 13.4636 1606 102.41 1289.77 458.044
2111 0 121.181 13.418 1626 102.788 1289.57 456.419
2112 0 124.305 13.0807 1626 104.558 1289.51 453.392
2113 0 128.278 13.3148 1708 103.902 1289.18 451.314
2114 1 65.1401 11.2373 732 104.359 1288.3 481.093
2115 0 68.1006 11.5564 787 101.605 1288.4 480.922
2116 0 71.0748 12.6486 899 102.66 1288.12 483.342
2117 0 74.036 12.8721 953 102.013 1288.93 482.07
2118 0 74.036 12.8316 950 170.939 1289.95 482.043
2119 0 79.0794 12.949 1024 97.4746 1288.22 484.084
2120 0 80.0586 12.5783 1007 98.8669 1288.12 483.049
2121 0 83.0801 12.6986 1055 98.3441 1288.82 480.306
2122 0 85.0472 12.8635 1094 98.745 1289.02 478.92
2123 0 88.0631 13.2859 1170 97.3291 1288.94 478.234
2124 0 89.0789 12.3598 1101 101.153 1288.37 476.477
2125 0 89.0838 12.101 1078 101.342 1288.02 474.07
2126 0 93.0695 12.0663 1123 101.009 1289.21 472.015
2127 0 97.0862 12.4219 1206 99.5423 1288.99 471.355
2128 0 100.141 12.5124 1253 98.7143 1289.64 471.239
2129 0 103.046 12.6254 1301 97.8009 1288.92 468.784
2130 0 106.082 12.0002 1273 98.447 1289.77 467.874
2131 0 107.079 12.2153 1308 97.9557 1289.27 465.401
2132 1 60.0172 11.1468 669 96.6323 1289.05 486.954
2133 0 61.0352 11.436 698 92.9713 1289.05 487.087
2134 0 62.0499 11.7808 731 95.6566 1289.16 486.691
2135 0 67.018 12.6086 845 93.2698 1289.5 486.658
2136 0 69.0398 12.5145 864 92.8495 1288.71 485.547
2137 0 73.0595 11.9081 870 93.5908 1289.33 485.136
2138 0 75.0902 12.2786 922 93.1399 1289.05 484.736
2139 0 77.0969 11.8941 917 93.7546 1288.83 482.432
2140 0 81.1111 12.5384 1017 90.9154 1289.36 481.764
2141 0 84.1298 12.243 1030 91.3126 1288.7 480.402
2142 0 85.1153 12.2305 1041 92.9299 1288.76 478.224
2143 0 89.0979 12.4021 1105 91.9656 1288.71 477.719
2144 0 92.1126 13.1035 1207 90.3082 1289.07 476.283
2145 0 93.1649 12.333 1149 92.0296 1288.89 475.015
2146 0 94.1298 11.6541 1097 93.2954 1288.99 473.024
2147 0 98.1809 12.3853 1216 91.7196 1288.77 471.423
2148 1 50.0868 10.7613 539 80.5102 1290.46 495.497
2149 0 50.0679 10.7853 540 77.013 1290.76 496.293
2150 0 51.0583 10.9091 557 77.5206 1291.17 493.268
2151 0 55.0677 11.6765 643 75.1026 1290.98 492.387
2152 0 55.0117 12.5064 688 75.8866 1290.28 491.891
2153 0 56.1074 11.5671 649 77.7396 1290.46 492.159
2154 0 59.1257 12.059 713 76.2482 1289.79 491.71
2155 0 60.053 12.8886 774 75.3165 1288.31 491.164
2156 0 61.0479 11.9906 732 77.9945 1289.28 490.213
2157 0 65.0624 12.3266 802 77.0224 1289.33 488.141
2158 0 65.0526 12.1594 791 78.555 1288.78 488.425
2159 0 67.0708 12.4048 832 78.1382 1289.8 487.341
2160 0 70.1159 12.5364 879 78.0478 1289.91 485.768
2161 0 72.0782 12.5558 905 78.3326 1289.44 484.95
2162 0 73.1002 12.9275 945 78.4032 1288.65 483.397
2163 0 75.0891 12.9047 969 78.2054 1288.72 483.122
2164 0 78.0565 13.5799 1060 77.8076 1289.19 481.799
2165 0 79.0743 12.7981 1012 80.2984 1290 480.359
2166 0 82.0851 12.6698 1040 80.4356 1289.68 479.066
2167 0 83.1361 12.4615 1036 81.2596 1289.96 478.858
2168 0 85.0956 12.8209 1091 80.1925 1289.7 476.691
2169 0 87.0789 11.748 1023 83.6774 1290.12 478.981
2170 0 89.0777 12.1467 1082 82.4381 1289.55 477.286
2171 0 91.0472 11.7412 1069 84.0009 1289.4 474.973
2172 0 96.0389 12.7761 1227 81.9552 1289.16 474.082
2173 0 96.0374 11.4851 1103 85.3554 1289.63 473.786
2174 0 100.126 12.3045 1232 83.1867 1289.03 472.239
2175 0 102.15 12.5698 1284 83.3271 1289.79 470.298
2176 0 106.117 12.4768 1324 83.4872 1289.6 469.228
2177 0 109.144 12.6163 1377 83.4415 1290.08 469.64
2178 0 111.145 12.2992 1367 85.6452 1289.58 467.136
2179 0 115.202 11.8227 1362 86.3664 1290.78 463.952
2180 0 119.261 12.2085 1456 85.5014 1290.14 463.115
2181 0 123.201 12.5081 1541 85.2615 1289.8 461.428
2182 0 127.16 12.3938 1576 85.795 1290.34 458.963
2183 0 131.197 12.9957 1705 85.4545 1291.5 458.805
2184 0 134.198 12.8169 1720 86.4151 1290.85 458.332
2185 0 138.207 12.8792 1780 86.4893 1290.7 454.524
2186 0 144.163 12.9021 1860 86.9296 1290.98 450.935
2187 0 150.224 13.3734 2009 86.7108 1291.27 448.729
2188 0 152.198 12.8385 1954 89.3536 1291.61 445.407
2189 0 160.252 13.6535 2188 93.2765 1291.25 441.934
2190 0 164.249 13.4308 2206 96.3164 1291.52 438.739
2191 0 171.281 13.2706 2273 95.1227 1291.07 436.581
2192 1 99.1519 11.5883 1149 90.0862 1290.33 471.927
2193 0 103.123 12.3736 1276 90.2594 1291.5 470.016
2194 0 106.171 11.9995 1274 92.1366 1291.57 465.006
2195 0 105.161 12.7329 1339 95.6662 1292.09 461.792
2196 0 108.144 12.0487 1303 95.8112 1291.67 466.918
2197 0 110.261 11.2189 1237 98.9014 1291.07 464.532
2198 0 115.18 11.6513 1342 97.6028 1291.43 462.198
2199 0 117.208 12.209 1431 96.8679 1291.31 458.536
2200 0 122.129 11.8645 1449 96.8413 1291.12 455.625
2201 0 126.234 12.4372 1570 96.6268 1291.2 454.801
2202 0 131.236 11.9784 1572 98.5738 1291.02 452.167
2203 0 134.384 12.0773 1623 98.6815 1290.15 450.294
2204 1 59.0467 9.83967 581 90.9226 1291.06 489.227
2205 0 66.0756 12.1225 801 95.985 1291.54 493.757
2206 0 67.0518 12.6917 851 96.4266 1291.61 492.89
2207 0 70.0367 12.6791 888 96.652 1291.71 491.708
2208 0 71.1264 12.6114 897 98.4861 1291.13 490.111
2209 0 71.0679 12.284 873 90.4845 1291.23 491.802
2210 0 74.0815 12.4323 921 91.7416 1292.19 489.868
2211 0 76.0612 12.2796 934 93.0932 1292.22 489.266
2212 0 76.0487 12.2948 935 95.4342 1291.97 486.99
2213 0 78.0574 12.6061 984 95.4177 1291.56 486.769
2214 0 82.084 12.9989 1067 94.6392 1291.87 486.376
2215 0 87.1263 13.4632 1173 102.584 1290.77 483.375
2216 0 89.0745 12.6523 1127 105.369 1290.89 482.251
2217 0 90.0578 13.2693 1195 104.63 1290.87 481.743
2218 0 93.0661 13.066 1216 105.913 1290.49 480.227
2219 0 94.1291 13.2053 1243 106.905 1291.37 478.78
2220 0 96.1132 13.1824 1267 107.552 1290.64 478.956
2221 0 100.123 12.994 1301 108.091 1291.07 478.585
2222 0 103.242 13.5701 1401 106.869 1290.53 477.047
2223 0 105.213 13.8766 1460 106.432 1290.68 476.612
2224 0 108.203 13.0403 1411 109.586 1290.75 475.449
2225 0 108.377 13.1393 1424 110.456 1290.59 473.154
2226 0 112.254 13.5585 1522 107.509 1288.57 471.166
2227 0 113.103 12.9528 1465 93.3413 1288.2 470.675
2228 0 117.121 12.6365 1480 95.2453 1288.81 468.682
2229 0 120.071 12.0512 1447 95.5287 1288.97 463.544
2230 0 123.087 11.6909 1439 96.9215 1288.45 463.526
2231 0 128.094 11.8351 1516 96.2335 1288.97 463.148
2232 0 133.125 11.8234 1574 96.986 1289.09 462.71
2233 1 69.0844 10.2918 711 92.0844 1288.33 493.689
2234 0 72.0594 11.4628 826 90.2482 1289.88 492.834
2235 0 73.0559 11.9224 871 89.3972 1290.65 491.553
2236 0 74.0537 11.073 820 85.2695 1290 487.768
2237 0 76.0714 12.2648 933 88.7588 1288.23 490.819
2238 0 75.0937 10.8797 817 93.2375 1288.81 493.197
2239 0 78.0928 11.5888 905 90.863 1288.32 490.334
2240 0 83.1763 11.5297 959 88.6486 1287.99 488.484
2241 0 82.0928 10.549 866 90.9561 1288.1 488.679
2242 0 87.0607 11.1531 971 89.2255 1288.77 486.957
2243 0 88.1278 11.3131 997 89.5727 1288.68 485.108
2244 0 91.2196 11.138 1016 88.7126 1288.61 485.148
2245 0 95.071 11.1601 1061 88.1235 1288.73 483.067
2246 0 98.1289 11.6479 1143 87.7542 1289.37 478.935
2247 0 102.066 11.3456 1158 87.2245 1289.1 478.23
2248 0 102.164 11.5012 1175 87.9949 1289.66 475.096
2249 0 109.185 12.0438 1315 85.676 1290.1 473.325
2250 0 110.104 11.2349 1237 87.207 1289.29 470.606
2251 0 116.11 12.204 1417 85.0889 1289.6 469.499
2252 0 119.168 12.1089 1443 86.4685 1289.01 466.25
2253 0 123.202 12.167 1499 87.6851 1290.43 460.833
2254 0 128.187 13.0122 1668 84.9772 1290.23 460.325
2255 0 132.288 13.5463 1792 83.6239 1290.83 459.242
2256 1 72.1639 11.1136 802 82.1983 1290.19 489.829
2257 0 75.0993 12.0241 903 79.9524 1290.79 489.204
2258 0 77.1278 11.9282 920 80.4294 1290.87 488.749
2259 0 80.0838 12.6867 1016 78.4528 1289.73 488.56
2260 0 82.1846 12.7153 1045 80.2718 1289.7 487.271
2261 0 83.0653 12.8453 1067 77.8463 1289.73 486.225
2262 0 87.0901 12.6536 1102 77.5826 1289.18 484.134
2263 0 88.1849 12.315 1086 78.1317 1289.81 484.745
2264 0 93.1885 13.2205 1232 76.3888 1289.55 482.756
2265 0 96.1095 13.391 1287 76.3256 1288.98 480.609
2266 0 99.1845 12.7943 1269 77.6296 1288.88 478.916
2267 0 101.129 12.9834 1313 77.7327 1289.18 478.257
2268 0 106.153 12.6704 1345 77.9955 1289.21 475.143
2269 1 55.0624 12.1862 671 80.2414 1289.82 499.72
2270 0 59.1174 12.01 710 79.5099 1288.95 497.473
2271 0 60.0287 12.9105 775 79.5045 1289.11 497.601
2272 0 61.0495 12.8748 786 78.0433 1289.18 495.958
2273 0 64.1178 13.2257 848 76.4729 1289.53 496.904
2274 0 63.0581 13.0832 825 76.9782 1288.43 495.956
2275 0 68.0815 13.5279 921 74.7166 1288.87 494.734
2276 0 70.0813 13.0563 915 75.6667 1288.68 492.839
2277 0 73.0832 13.3957 979 74.4556 1288.59 491.638
2278 0 72.0608 12.6699 913 77.9179 1289.9 490.583
2279 0 76.0667 12.5942 958 77.499 1288.93 490.5
2280 0 79.0554 13.8004 1091 75.2346 1288.56 488.594
2281 0 80.0354 13.4316 1075 76.6335 1288.68 486.386
2282 0 84.0478 14.111 1186 75.0911 1289.09 485.112
2283 0 85.072 14.1645 1205 75.8979 1288.93 484.973
2284 0 88.0856 13.4074 1181 77.9585 1289.69 483.35
2285 0 87.1094 13.1903 1149 80.1079 1289.78 483.948
2286 0 92.096 13.1385 1210 80.3364 1288.56 480.917
2287 0 92.1397 12.4051 1143 82.8084 1288.72 481.531
2288 0 98.1726 13.1707 1293 80.7123 1289.54 478.818
2289 0 100.17 12.7184 1274 82.8674 1289.54 477.533
2290 1 55.1584 10.914 602 86.2508 1289.5 494.59
2291 0 55.1133 11.5217 635 83.9732 1289.3 492.696
2292 0 57.0752 11.9842 684 83.3377 1289.14 491.917
2293 0 62.1547 13.4825 838 84.1396 1289.23 498.658
2294 0 63.3634 12.7045 805 85.7143 1289.53 499.176
2295 0 65.1319 12.682 826 82.7349 1289.55 499.712
2296 0 67.102 13.2783 891 81.789 1289.19 495.125
2297 0 68.0963 12.4089 845 83.5136 1289.26 494.935
2298 0 71.0765 12.9579 921 81.6884 1289.08 493.479
2299 0 70.1633 12.8985 905 83.6873 1289.96 492.411
2300 0 74.1525 12.5957 934 82.5578 1289.74 492.632
2301 0 78.163 13.1776 1030 80.7369 1289.57 491.016
2302 0 79.2272 12.887 1021 79.8707 1290.34 489.64
2303 0 81.1926 13.314 1081 79.5014 1289.5 487.315
2304 0 82.1181 12.7621 1048 79.9781 1290.29 487.263
2305 0 87.1312 12.8542 1120 78.5491 1289.59 485.227
2306 0 88.1193 12.6873 1118 78.5 1289.04 485.006
2307 0 90.1158 12.7392 1148 78.0131 1289.5 484.477
2308 0 93.1538 13.1181 1222 76.2308 1289.61 482.116
2309 0 94.164 12.6375 1190 76.5151 1289.94 481.42
2310 0 99.0671 12.7691 1265 75.1668 1290.22 481.111
2311 0 101.089 12.1972 1233 75.5718 1289.93 477.182
2312 0 102.103 11.5766 1182 71.3198 1290.26 473.354
2313 0 106.202 11.6382 1236 70.4604 1290.04 474.964
2314 0 109.076 11.8083 1288 70.2609 1289.62 473.984
2315 0 110.11 11.2978 1244 70.7942 1290.17 469.789
2316 0 114.107 11.9011 1358 69.9772 1289.97 467.868
2317 0 113.139 9.99653 1131 73.5721 1289.36 460.096
2318 1 57.0425 10.5185 600 62.6717 1289.64 491.822
2319 0 58.0247 10.4611 607 66.4942 1289.07 489.193
2320 0 61.1005 11.1456 681 66.8693 1289.71 486.054
2321 0 64.0534 11.8651 760 67.6987 1288.21 485.692
2322 0 66.0986 10.6205 702 68.9829 1287.98 483.541
2323 0 69.0885 11.8833 821 67.4811 1288.68 482.396
2324 0 75.0643 10.7375 806 68.7841 1288.86 482.163
2325 0 72.0704 11.4055 822 70.4112 1289.36 479.276
2326 0 76.0933 11.8144 899 70.0211 1289.08 474.968
2327 0 79.0598 12.0921 956 69.1464 1289.77 474.924
2328 0 83.0725 11.508 956 70.4174 1289.33 471.42
2329 0 84.0701 11.4785 965 71.6435 1289.92 470.755
2330 0 86.0975 11.3128 974 72.9682 1290.38 468.398
2331 0 90.0939 11.6101 1046 71.9885 1290.63 466.826
2332 0 93.1067 12.1366 1130 71.3292 1289.72 465.213
2333 0 98.0579 12.3702 1213 71.0594 1289.22 467.152
2334 0 100.099 12.0781 1209 72.3639 1289.45 464.372
2335 0 101.076 11.4666 1159 74.7118 1289.61 460.64
2336 0 108.177 11.9619 1294 73.711 1291.13 460.753
2337 0 113.144 12.4885 1413 72.7707 1290.49 459.414
2338 0 115.094 11.3559 1307 75.3803 1290.62 458.567
2339 0 123.159 12.22 1505 72.6146 1291.38 457.816
2340 1 67.1668 9.8114 659 66.2838 1291.92 488.652
2341 0 69.074 11.5528 798 66.2594 1291.54 491.237
2342 0 72.0675 11.8084 851 65.5523 1291.7 491.744
2343 0 74.2053 12.1689 903 65.8306 1291.6 489.89
2344 0 78.0355 12.7762 997 64.6319 1291.84 489.202
2345 0 78.0197 12.0611 941 67.389 1291.36 488.789
2346 0 82.0847 11.878 975 67.3938 1291.44 486.911
2347 0 85.1124 11.8432 1008 67.7857 1290.54 486.719
2348 0 87.0456 11.9707 1042 68.5125 1290.67 484.368
2349 0 91.1313 12.4216 1132 68.5 1289.54 484.486
2350 0 94.0644 12.3532 1162 68.8072 1289.57 482.834
2351 0 95.1308 11.4264 1087 71.5106 1289.1 481.599
2352 0 98.1671 12.2444 1202 70.4002 1289.47 481.661
2353 0 100.12 12.4751 1249 71.1153 1289.04 479.868
2354 0 105.098 12.8166 1347 71.1128 1288.22 477.993
2355 0 107.045 12.2379 1310 72.6267 1289.16 478.419
2356 0 111.101 12.2411 1360 73.1721 1288.9 475.204
2357 0 112.127 11.9597 1341 74.9023 1288.64 472.726
2358 0 120.107 13.005 1562 76.8803 1288.48 472.57
2359 0 120.197 11.8139 1420 77.062 1288.33 467.516
2360 0 124.27 11.4348 1421 77.3343 1288.8 466.534
2361 0 129.117 11.9504 1543 79.348 1288.42 466.638
2362 0 131.127 12.1638 1595 79.5097 1288.28 464.071
2363 0 137.188 12.6177 1731 78.0757 1287.67 462.276
2364 0 140.211 12.3385 1730 79.5358 1287.93 458.505
2365 0 144.263 12.3316 1779 80.3766 1287.33 456.154
2366 0 149.228 12.7121 1897 79.9315 1287.13 452.291
2367 0 152.355 12.3133 1876 81.9584 1286.3 450.451
2368 0 156.486 12.0074 1879 83.5237 1286.67 446.982
2369 0 164.427 12.8933 2120 81.7915 1287.21 447.358
2370 0 168.33 13.0874 2203 82.9655 1286.73 441.216
2371 0 172.426 11.9413 2059 86.3303 1287.38 442.111
2372 0 179.274 13.0582 2341 83.9915 1286.81 441.272
2373 1 97.2076 11.2748 1096 82.4726 1286.77 481.327
2374 0 99.1553 11.8904 1179 81.5572 1286.75 481.205
2375 0 100.094 12.2185 1223 81.9951 1286.93 479.589
2376 0 103.111 12.7145 1311 82.5263 1286.78 474.606
2377 0 106.101 12.3751 1313 82.7136 1287.06 472.849
2378 0 109.163 13.3653 1459 82.4921 1286.71 469.976
2379 0 113.199 13.4719 1525 81.0649 1287.27 470.704
2380 0 106.124 12.3628 1312 82.9931 1287.32 460.213
2381 0 112.165 12.1071 1358 82.8262 1287.39 459.45
2382 0 116.164 12.5771 1461 81.9555 1286.46 456.381
2383 0 121.184 12.6502 1533 81.1259 1286.96 455.619
2384 0 121.204 13.0606 1583 80.7448 1286.69 454.416
2385 0 129.13 12.8243 1656 79.5459 1287.03 451.072
2386 0 137.31 13.5824 1865 76.5555 1287.23 452.924
2387 0 139.221 13.0943 1823 77.0357 1287.24 448.916
2388 0 148.291 12.8936 1912 76.8284 1287.19 445.118
2389 1 84.2035 10.154 855 79.6164 1286.71 484.27
2390 0 89.1779 12.1106 1080 75.9176 1287.18 483.181
2391 0 90.1955 11.4418 1032 75.9942 1288.16 482.372
2392 0 92.2431 11.8274 1091 74.0028 1287.5 482.774
2393 0 96.2021 12.4634 1199 74.3361 1287.33 479.811
2394 0 99.1474 12.315 1221 75.303 1287.71 477.368
2395 0 101.2 11.9269 1207 76.6984 1287.7 475.075
2396 0 107.12 12.2013 1307 76.2471 1287.01 474.357
2397 0 110.066 12.4471 1370 76.8073 1287.02 471.493
2398 0 112.071 12.7508 1429 76.5346 1286.72 470.257
2399 0 116.058 12.847 1491 77.672 1287.78 469.279
2400 0 120.075 13.1584 1580 77.043 1287.28 466.101
2401 0 123.085 12.8367 1580 77.2437 1287.27 466.654
2402 0 127.11 13.5473 1722 76.0296 1287.04 463.718
2403 0 130.155 13.1382 1710 77.4298 1287.67 462.961
2404 0 135.117 13.1071 1771 77.825 1287.9 459.216
2405 0 141.124 13.8531 1955 77.1581 1288.47 455.308
2406 0 148.256 13.8477 2053 81.9654 1288.47 454.606
2407 0 153.292 13.3862 2052 84.3499 1289.1 449.242
2408 0 156.272 12.811 2002 85.6399 1288.65 450.12
2409 0 163.385 12.9326 2113 84.2541 1289.43 444.77
2410 0 168.265 12.516 2106 78.2293 1288.33 442.365
2411 1 96.1111 10.0925 970 75.2 1288.77 478.426
2412 0 98.0816 12.041 1181 76.0415 1288.2 478.185
2413 0 101.163 11.9609 1210 74.9207 1288.63 475.783
2414 0 100.111 10.6382 1065 74.6338 1288.48 480.128
2415 0 104.162 10.0229 1044 76.5623 1289.08 478.589
2416 0 107.131 10.5385 1129 77.5518 1288.46 475.756
2417 0 107.081 10.6181 1137 79.2357 1289.3 475.934
2418 0 114.081 11.5707 1320 77.1742 1289.15 471.616
2419 0 118.178 10.8819 1286 78.5972 1290.14 469.787
2420 0 119.153 10.625 1266 81.1043 1289.19 468.953
2421 0 128.196 11.8022 1513 80.2631 1289.42 465.348
2422 0 131.32 12.2754 1612 81.1694 1289.13 463.653
2423 0 135.235 12.4154 1679 82.8267 1289.27 460.054
2424 1 76.103 11.3005 860 76.7767 1288.47 493.202
2425 0 79.0793 11.5959 917 77.4602 1288.66 489.754
2426 0 82.119 12.4697 1024 76.2949 1288.67 486.411
2427 0 84.0798 12.5952 1059 76.492 1288.92 484.902
2428 0 84.1535 13.1426 1106 83.0479 1290.64 484.426
2429 0 86.0857 12.4759 1074 86.2635 1290.73 485.399
2430 0 88.1567 12.5118 1103 87.5195 1291.24 484.515
2431 0 91.1802 12.7879 1166 87.7015 1290.63 482.822
2432 0 94.093 13.5504 1275 88.0565 1291.26 479.731
2433 0 96.162 12.5413 1206 91.3118 1290.1 479.498
2434 0 98.167 13.0594 1282 90.9392 1290.78 478.988
2435 0 102.163 13.2044 1349 90.5612 1290.22 477.142
2436 0 105.16 13.3225 1401 89.3626 1290.09 475.308
2437 0 107.247 13.1192 1407 92.9367 1289.12 472.278
2438 0 111.218 13.6219 1515 91.765 1289.8 471.747
2439 0 111.151 12.6944 1411 95.3586 1289.06 470.979
2440 0 115.211 12.7071 1464 93.9023 1289.86 468.171
2441 0 117.254 12.9804 1522 90.9901 1290.38 465.646
2442 0 122.209 12.9286 1580 97.3373 1289.56 457.974
2443 0 124.381 12.1884 1516 93.783 1289.72 455.167
2444 0 128.286 12.6124 1618 92.3146 1288.79 452.431
2445 0 133.363 13.2721 1770 90.1209 1289.01 449.632
2446 1 74.2004 10.283 763 85.3224 1289.14 480.911
2447 0 77.2091 10.7759 832 85.7176 1289.46 478.641
2448 0 79.1298 10.1732 805 79.036 1289.22 476.643
2449 0 80.2691 10.5271 845 76.8308 1288.99 477.022
2450 0 83.2706 10.9162 909 78.8031 1288.22 477.617
2451 0 86.153 11.3635 979 82.0419 1289.07 475.498
2452 0 90.209 11.6729 1053 85.3742 1288.69 471.956
2453 0 94.2189 11.7598 1108 84.5912 1289.53 471.971
2454 0 94.3663 11.8581 1119 85.4718 1289.03 469.705
2455 0 98.3696 11.5178 1133 86.7661 1288.98 467.805
2456 0 101.29 12.0052 1216 85.6916 1288.74 466.176
2457 0 103.25 11.4673 1184 87.2204 1289.34 464.191
2458 0 107.274 13.1066 1406 88.123 1288.27 473.503
2459 0 108.191 11.8957 1287 89.3613 1288.83 472.636
2460 0 112.156 11.6445 1306 90.0398 1288.73 467.778
2461 0 114.155 12.1939 1392 88.2019 1287.7 467.64
2462 0 117.108 12.4159 1454 87.5757 1288.93 465.804
2463 0 120.098 12.1817 1463 87.9029 1288.41 463.278
2464 0 122.168 12.1717 1487 88.4674 1288.76 459.419
2465 0 124.268 12.0546 1498 89.0995 1288.21 457.244
2466 0 127.142 11.9945 1525 89.1226 1288.66 455.214
2467 0 133.23 12.6173 1681 87.5848 1288.48 455.446
2468 0 137.181 12.232 1678 88.053 1288.47 451.572
2469 0 140.148 12.5224 1755 87.4809 1288.32 449.64
2470 0 140.198 12.197 1710 89.5158 1288.84 445.032
2471 0 147.119 12.8331 1888 87.5212 1288.16 443.799
2472 0 150.161 12.0804 1814 89.7789 1288.81 443.24
2473 0 156.104 11.7293 1831 90.3173 1288.63 440.372
2474 0 164.17 12.688 2083 87.8276 1288.87 436.342
2475 0 170.164 12.6525 2153 87.9717 1288.26 435.476
2476 0 174.443 12.6402 2205 88.5374 1288.91 429.932
2477 0 179.303 12.543 2249 89.044 1289.36 429.424
2478 0 186.197 12.4384 2316 88.9823 1288.49 427.661
2479 0 189.185 12.3741 2341 90.0013 1289.1 421.775
2480 0 197.266 12.9419 2553 89.0874 1288.63 422.594
2481 0 199.23 12.6537 2521 89.6842 1289.65 416.926
2482 0 206.194 12.7065 2620 90.0355 1288.92 412.362
2483 0 213.272 13.6211 2905 87.537 1289.3 412.827
2484 0 221.263 13.3777 2960 88.372 1289.46 408.402
2485 0 228.279 12.6205 2881 91.3082 1289.64 405.181
2486 1 172.3 11.7759 2029 90.1474 1289.4 433.575
2487 0 178.186 12.9247 2303 89.3326 1289.17 431.667
2488 0 183.236 12.6995 2327 90.0563 1288.82 425.826
2489 0 190.355 13.1859 2510 87.1669 1289.37 427.417
2490 0 193.226 13.197 2550 88.2694 1289.3 423.974
2491 0 200.186 13.3026 2663 89.2178 1289.12 420.749
2492 0 206.319 12.9993 2682 90.7573 1289.31 415.789
2493 0 210.27 12.9405 2721 93.0055 1288.87 411.282
2494 0 218.287 13.1341 2867 93.1217 1288.67 408.211
2495 0 224.433 13.1487 2951 94.7004 1288.79 401.712
2496 0 229.537 12.9652 2976 95.1391 1288.9 396.293
2497 0 237.38 13.2488 3145 94.4168 1289.44 397.659
2498 0 243.459 12.6551 3081 96.5936 1289.25 390.805
2499 0 248.289 12.5942 3127 95.9955 1288.61 391.246
2500 0 260.51 13.201 3439 93.8872 1289.38 384.756
2501 0 269.479 13.4296 3619 95.5228 1289.34 388.169
2502 1 282.403 18.0593 5100 83.8716 1289.72 371.809
2503 0 284.434 13.7642 3915 95.5579 1289.66 381.665
2504 0 291.343 13.2902 3872 96.6999 1289.6 378.017
2505 1 304.321 13.8078 4202 96.4679 1289.07 365.546
2506 1 81.119 9.67715 785 74.2662 1289.65 482.859
2507 0 84.137 10.9227 919 74.7584 1289.15 483.672
2508 0 88.1471 11.6964 1031 76.2338 1288.03 482.936
2509 0 90.2235 11.5934 1046 75.5373 1287.78 482.058
2510 0 91.2327 11.7063 1068 79.1779 1287.96 479.089
2511 0 94.2325 11.7263 1105 78.6652 1288.83 476.704
2512 0 94.1839 8.82316 831 73.3646 1289.76 485.274
2513 0 94.2022 9.01252 849 73.2014 1290.05 485.238
2514 0 94.1376 8.81688 830 74.4217 1289.86 483.935
2515 0 103.19 9.20631 950 73.3874 1289.47 477.674
2516 0 106.246 9.73214 1034 72.9797 1289.65 474.791
2517 1 117.131 13.7111 1606 65.9296 1289.42 461.835
2518 0 119.256 13.8357 1650 66.2982 1289.56 463.273
2519 0 118.168 11.5344 1363 72.7623 1288.44 466.376
2520 0 120.185 10.2509 1232 75.4123 1289.15 468.941
2521 0 122.268 10.6978 1308 75.5199 1289.34 464.292
2522 0 127.277 10.6225 1352 76.1612 1289.96 464.547
2523 0 133.179 12.1716 1621 74.9482 1289.05 454.454
2524 0 138.246 14.1125 1951 72.1779 1288.1 449.667
2525 0 142.408 15.3642 2188 71.7043 1286.63 450.515
2526 0 145.288 15.7137 2283 74.1082 1286.55 445.148
2527 1 82.1885 11.0843 911 81.3063 1287.17 478.297
2528 0 86.192 12.1821 1050 78.4038 1287.8 480.76
2529 0 89.1496 13.3932 1194 77.696 1287.13 480.039
2530 0 91.1941 13.2355 1207 78.7581 1288.31 475.401
2531 0 94.0671 12.5655 1182 82.236 1287.01 476.263
2532 0 95.0831 12.6836 1206 82.7123 1287.09 473.74
2533 0 96.0959 12.6644 1217 84.6475 1286.16 473.998
2534 0 99.0746 13.0811 1296 84.6929 1287.07 472.746
2535 0 100.133 12.7331 1275 85.7027 1286.55 473.119
2536 0 103.168 12.4264 1282 86.2683 1287.37 472.2
2537 0 104.267 12.8229 1337 86.825 1287.37 470.105
2538 0 108.113 12.6812 1371 87.9482 1287.74 468.923
2539 0 112.212 12.6902 1424 87.1973 1287.13 465.746
2540 0 115.141 13.288 1530 87.236 1287.14 464.909
2541 0 117.171 12.23 1433 90.8283 1287.6 462.849
2542 0 118.23 11.9597 1414 92.2157 1288.35 461.269
2543 0 123.115 12.5574 1546 92.1785 1287.93 459.299
2544 0 124.189 12.2072 1516 95.0924 1287.7 453.412
2545 0 127.218 11.8694 1510 96.1821 1288.17 451.196
2546 0 133.334 12.7724 1703 92.5966 1288.04 450.786
2547 1 75.0904 11.0933 833 90.922 1287.45 477.994
2548 0 79.1941 11.9453 946 90.7452 1287.58 480.55
2549 0 81.0936 12.2328 992 90.6099 1286.81 479.764
2550 0 85.2609 12.796 1091 88.9138 1287.91 477.305
2551 0 85.1785 12.4797 1063 87.8184 1287.33 480.66
2552 0 88.2227 11.7543 1037 89.891 1287.84 478.296
2553 0 88.1219 12.0288 1060 88.85 1288.95 478.819
2554 0 92.0925 12.0205 1107 89.327 1289.88 476.162
2555 0 95.114 12.3956 1179 88.4241 1290.12 473.751
2556 0 97.1253 12.1493 1180 89.9864 1289.61 472.024
2557 0 102.095 12.4786 1274 90.0879 1289.46 469.908
2558 0 104.071 12.059 1255 90.9984 1288.3 468.69
2559 0 107.215 12.5636 1347 89.363 1288.44 467.112
2560 0 112.1 13.363 1498 86.1235 1287.53 464.395
2561 0 116.135 13.9579 1621 85.0679 1288.57 461.362
2562 0 118.118 13.5035 1595 86.669 1287.95 461.992
2563 0 121.097 13.1961 1598 87.1314 1288.25 460.467
2564 0 123.032 13.5087 1662 86.4591 1287.68 460.158
2565 0 125.055 12.9862 1624 88.6435 1288.07 457.374
2566 0 128.114 13.2538 1698 86.9511 1288.52 455.775
2567 0 132.128 13.1539 1738 87.0029 1288.91 454.522
2568 0 136.125 13.1423 1789 87.6484 1288.21 450.937
2569 0 141.129 13.2786 1874 86.6724 1287.9 449.485
2570 0 144.147 13.1671 1898 87.8994 1287.47 448.675
2571 0 148.112 13.0442 1932 88.5595 1287.6 446.624
2572 0 154.259 13.3672 2062 88.0626 1288.13 444.594
2573 0 154.173 12.9595 1998 90.6747 1288.93 442.649
2574 0 161.172 13.9602 2250 90.4333 1288.65 438.164
2575 0 165.176 13.973 2308 92.6096 1288.91 437.772
2576 0 170.219 13.4944 2297 95.5786 1288.04 431.99
2577 0 176.22 14.374 2533 92.9439 1288.8 432.146
2578 0 178.133 13.939 2483 95.2682 1287.72 430.158
2579 0 185.255 14.1319 2618 97.2124 1289.28 418.198
2580 0 186.304 13.5477 2524 102.5 1288.75 411.767
2581 0 197.152 14.7856 2915 99.4415 1288.56 416.211
2582 0 203.157 14.0483 2854 101.833 1289.9 411.918
2583 0 211.215 14.6391 3092 100.404 1289.08 410.549
2584 0 212.378 14.6578 3113 100.257 1289.57 398.497
2585 0 215.161 14.5426 3129 100.079 1289.41 388.804
2586 1 53.0851 10.6621 566 66.7385 1289.05 497.572
2587 0 51.0828 9.61185 491 69.9613 1288.57 496.591
2588 0 54.0804 10.0221 542 68.9742 1288.1 496.841
2589 0 54.0724 10.6524 576 68.1892 1288.45 497.219
2590 0 54.0317 10.4198 563 68.8721 1288.53 495.272
2591 0 56.0604 10.2746 576 69.2726 1288.01 493.243
2592 0 59.0607 10.6331 628 67.6704 1288.89 494.47
2593 0 63.0557 10.6255 670 65.9642 1288.8 492.688
2594 0 63.0936 10.8886 687 66.1732 1289.08 491.245
2595 0 64.1419 10.4456 670 67.6418 1289.3 490.051
2596 0 65.1373 10.0864 657 68.5586 1289.02 489.542
2597 0 69.1592 10.5264 728 67.5316 1289.06 486.503
2598 0 69.067 10.1206 699 68.3276 1289.05 487.223
2599 1 17.0537 5.57065 95 62.0947 1289.18 513.695
2600 0 16.0795 5.59718 90 62.6111 1288.46 514.4
2601 0 18.036 6.9306 125 60.72 1288.41 513.536
2602 0 11.0181 5.89938 65 59.9692 1289.25 515.877
2603 0 19.1297 5.33202 102 60.4608 1288.75 512.196
2604 0 18.0538 5.76057 104 59.5481 1288.5 513.952
2605 0 19.0136 6.2061 118 59.0847 1288.97 512.686
2606 0 17.1032 5.2037 89 59.0674 1288.66 512.393
2607 0 17.0168 4.70123 80 59.175 1288.96 512.788
2608 0 19.031 7.56661 144 55.4931 1288.31 513.674
2609 0 17.0174 5.87635 100 58.3 1289.01 513.52
2610 0 17.087 6.49616 111 49.2162 1288.8 512.45
2611 0 17.0145 5.64225 96 50.5938 1288.95 511.812
2612 1 99.1631 9.90287 982 65.498 1289.59 468.229
2613 0 100.148 8.04812 806 68.6787 1290.21 467.043
2614 0 104.064 9.15782 953 68.7408 1289.52 463.527
2615 0 108.116 10.1095 1093 67.634 1290.13 466.393
2616 1 62.068 8.70014 540 63.5759 1290.39 487.189
2617 0 64.1415 9.82204 630 70.1714 1290.82 489.279
2618 0 65.1244 10.8101 704 67.3224 1288.98 490.974
2619 0 68.1473 11.4898 783 66.6616 1289.34 489.7
2620 0 68.0952 11.0581 753 68.9973 1289.15 488.339
2621 0 69.0671 11.221 775 70.2542 1289.61 488.921
2622 0 70.1114 11.2535 789 71.8923 1289.34 487.731
2623 0 72.0555 11.5328 831 72.7196 1289.8 487.391
2624 0 74.085 11.7838 873 72.9416 1288.84 484.887
2625 0 76.0542 11.2946 859 76.7788 1288.89 485.718
2626 0 78.0706 10.593 827 77.8694 1289.05 484.491
2627 0 80.0649 11.6281 931 77.9248 1288.82 483.762
2628 0 79.0753 10.7998 854 81.0176 1288.24 481.837
2629 0 84.1076 11.6399 979 79.762 1288.31 481.572
2630 0 86.0955 11.8241 1018 80.2004 1288.09 481.096
2631 0 89.0653 11.7105 1043 81.4803 1288.27 479.243
2632 0 91.0992 11.8113 1076 82.5706 1288.4 478.613
2633 0 93.073 11.8939 1107 84.28 1289.45 477.274
2634 0 96.0632 12.0442 1157 84.2299 1289.07 475.045
2635 0 101.105 13.2635 1341 81.7942 1289.07 472.639
2636 0 104.07 12.8472 1337 92.1563 1289.36 471.877
2637 0 106.119 13.0325 1383 92.3471 1290.09 468.633
2638 0 110.198 13.3759 1474 91.2564 1289.43 468.863
2639 0 112.16 13.0261 1461 92.5373 1289.95 465.703
2640 0 113.172 13.1393 1487 93.3766 1289.43 464.752
2641 0 117.204 13.1651 1543 94.129 1289.2 462.836
2642 0 118.147 13.187 1558 95.4127 1289.63 461.205
2643 1 67.1233 10.1753 683 88.1493 1288.69 491.164
2644 0 68.1617 11.3407 773 87.0116 1288.96 489.044
2645 0 70.0672 11.1322 780 83.2359 1289.6 488.142
2646 0 73.5179 11.6434 856 82.7453 1289.08 486.874
2647 0 74.4804 12.124 903 89.278 1289.12 485.647
2648 0 76.3979 12.6312 965 91.229 1289.6 484.93
2649 0 79.4304 12.7407 1012 90.3883 1288.76 483.151
2650 0 79.3998 11.7758 935 93.7615 1288.59 481.343
2651 0 80.451 12.8277 1032 92.1812 1289.62 480.121
2652 0 82.1801 12.4726 1025 90.9093 1289.54 477.486
2653 0 83.1711 12.324 1025 91.9795 1290.3 475.297
2654 0 81.2258 12.3114 1000 94.673 1289.87 473.281
2655 0 83.1997 12.6443 1052 95.0542 1289.02 472.653
2656 0 87.2177 12.8873 1124 93.3861 1289.09 471.404
2657 0 87.2304 12.3008 1073 95.137 1289.52 469.527
2658 0 93.1748 12.2458 1141 91.1025 1289.64 474.804
2659 0 91.2336 11.9254 1088 93.512 1289.54 472.911
2660 0 93.1911 11.7393 1094 95.6188 1289.45 471.73
2661 0 96.1544 12.3135 1184 94.6115 1290.03 471.28
2662 0 98.2763 11.5898 1139 97.748 1290.67 467.313
2663 0 101.373 11.2358 1139 98.9824 1290.3 465.752
2664 0 106.323 12.3492 1313 97.8561 1290.07 461.861
2665 1 52.2379 9.09302 475 97.701 1291.01 483.017
2666 0 59.4098 10.0488 597 92.4037 1289.42 479.171
2667 0 59.3915 10.1698 604 142.854 1287.4 479.387
2668 0 64.1029 10.9979 705 94.2496 1288.25 480.118
2669 0 66.124 11.1609 738 94.3957 1288.73 481.978
2670 0 68.2329 10.728 732 95.9713 1289.58 482.396
2671 0 67.2286 11.4832 772 96.4547 1289.64 479.123
2672 0 67.0359 9.84547 660 86.4576 1289.98 479.018
2673 0 71.1006 10.2671 730 86.2 1290.07 481.181
2674 0 70.0444 9.35121 655 89.5145 1290.22 477.111
2675 0 73.1864 10.5347 771 88.5422 1290.65 475.44
2676 0 73.0881 9.90586 724 90.1409 1289.94 475.597
2677 0 75.051 10.6061 796 90.3593 1290.71 472.469
2678 0 81.0492 11.1414 903 89.6202 1289.93 473.45
2679 0 80.0544 11.3048 905 91.1602 1290.22 470.182
2680 0 80.0913 11.4494 917 91.2345 1289.14 469.964
2681 0 86.0871 9.96664 858 93.8904 1289.52 472.967
2682 0 83.1467 11.4857 955 93.6534 1289.2 468.349
2683 0 82.1082 11.3996 936 94.4626 1289.3 466.038
2684 1 98.1111 11.8233 1160 97.3784 1288.89 472.62
2685 0 100.052 11.8938 1190 97.6025 1288.34 471.146
2686 0 102.079 11.6478 1189 98.2397 1287.91 469.084
2687 0 106.071 11.8789 1260 96.7064 1288.47 467.676
2688 0 107.052 12.2276 1309 96.2032 1288.76 465.865
2689 0 111.083 12.189 1354 94.3648 1288.23 465.864
2690 0 116.144 12.3382 1433 93.4403 1287.78 464.486
2691 0 118.064 11.9511 1411 94.9291 1288.32 462.927
2692 0 122.116 12.0787 1475 94.0529 1288.24 460.706
2693 0 127.079 11.9768 1522 94.5348 1289.73 457.359
2694 0 131.154 12.7255 1669 92.3829 1289.55 456.398
2695 0 133.158 11.8807 1582 93.8205 1289.07 454.993
2696 0 140.078 12.0504 1688 93.1487 1288.1 451.282
2697 0 143.155 11.9521 1711 93.2934 1288.7 448.606
2698 0 146.08 11.8839 1736 93.7431 1288.85 443.437
2699 0 142.096 10.8236 1538 92.6294 1288.97 438.7
2700 1 76.051 10.1774 774 81.8127 1290.18 470.134
2701 0 83.0787 9.88219 821 78.0414 1290.02 469.406
2702 0 87.06 11.1762 973 76.5211 1288.96 469.954
2703 0 89.1087 10.6275 947 88.5628 1290.11 469.476
2704 0 88.0921 9.9782 879 94.1308 1289.83 464.097
2705 0 92.0533 10.9936 1012 92.1986 1289.34 463.514
2706 0 95.0972 10.8731 1034 93.5967 1289.73 461.613
2707 0 95.0435 11.3106 1075 94.0865 1290.14 459.998
2708 1 108.079 11.9542 1292 92.1587 1290.37 465.446
2709 0 110.104 12.0522 1327 93.104 1289.36 461.691
2710 0 113.132 11.8887 1345 95.3576 1289.34 459.208
2711 0 118.276 11.9973 1419 98.4771 1289.37 457.948
2712 0 123.335 12.8107 1580 96.3816 1288.87 456.965
2713 0 126.318 12.5635 1587 96.5255 1288.93 454.752
2714 1 72.2731 9.35342 676 92.8609 1289.88 483.466
2715 0 76.2865 10.6441 812 89.8399 1289.66 482.608
2716 0 78.103 11.7921 921 86.683 1290.01 481.225
2717 0 80.1156 12.145 973 85.1295 1289.57 482.198
2718 0 81.259 12.4417 1011 84.3858 1289.2 481.564
2719 0 86.3482 12.9013 1114 83.4426 1289.32 479.566
2720 0 88.3112 13.1014 1157 82.6966 1289.53 477.162
2721 0 88.1955 12.2455 1080 85.4778 1288.78 475.754
2722 0 92.2446 12.4452 1148 84.7308 1289.6 475.58
2723 0 95.3677 12.5934 1201 84.4871 1289.13 474.157
2724 0 99.317 12.5457 1246 84.9222 1289.22 472.032
2725 0 102.31 12.247 1253 86.4006 1289.36 469.697
2726 0 103.235 12.302 1270 87.9929 1290.24 468.487
2727 0 107.32 12.9985 1395 85.9204 1289.61 468.1
2728 0 111.38 11.8243 1317 93.0942 1289.6 463.663
2729 1 59.0729 9.66602 571 92.9755 1288.39 487.725
2730 0 60.0504 9.55864 574 93.7875 1289.79 483.284
2731 0 62.1714 11.0662 688 88.5305 1290.18 480.531
2732 0 65.0339 11.6247 756 89.1958 1291.19 483.589
2733 0 67.253 12.4307 836 86.1854 1290.34 485.154
2734 0 70.2382 12.7139 893 90.1019 1290.51 487.554
2735 0 73.2831 12.4858 915 90.576 1290.73 486.796
2736 0 75.2888 13.0166 980 90.8765 1289.97 485.797
2737 0 77.388 13.1803 1020 88.8304 1290.11 485.084
2738 0 79.3017 12.5344 994 90.7093 1289.61 483.024
2739 0 81.2595 13.0077 1057 89.7351 1290.17 482.049
2740 0 81.2667 12.6374 1027 93.4041 1289.51 480.033
2741 0 85.1621 13.2805 1131 88.3607 1289.9 481.117
2742 0 88.3585 12.653 1118 91.186 1290.08 478.998
2743 0 88.4078 12.431 1099 92.232 1289.03 477.263
2744 0 92.4199 13.2439 1224 89.6095 1289.85 474.444
2745 0 93.3503 12.9726 1211 91.1007 1289.72 470.501
2746 0 94.1589 12.5426 1181 90.7214 1290.33 471.645
2747 0 99.177 12.5634 1246 89.5361 1289.53 468.45
2748 0 97.1107 11.7804 1144 88.2203 1290.09 474.274
2749 0 99.1347 12.0745 1197 88.4428 1290.69 472.47
2750 0 102.158 11.4626 1171 89.146 1290.37 471.203
2751 0 102.112 11.0761 1131 91.176 1290.06 467.691
2752 0 107.146 11.4237 1224 89.2753 1290.05 467.022
2753 0 111.176 11.6572 1296 87.9205 1290.21 467.306
2754 1 61.0886 10.1165 618 91.3608 1289.58 487.532
2755 0 62.074 10.7775 669 89.8804 1291.06 487.544
2756 0 68.1873 11.3071 771 86.441 1290.5 487.495
2757 0 66.3992 9.69891 644 80.0404 1289.86 479.797
2758 0 72.4415 13.1554 953 79.5257 1290.34 485.833
2759 0 74.3352 12.2822 913 82.9858 1290.53 485.786
2760 0 77.2322 12.6761 979 79.3493 1290.58 484.251
2761 0 77.2118 12.4592 962 80.5967 1290.23 483.973
2762 0 80.332 13.1081 1053 80.0142 1290.46 482.853
2763 0 82.3447 13.3828 1102 79.6343 1290.21 481.988
2764 0 86.317 13.0333 1125 80.7351 1290.85 480.21
2765 0 88.1802 12.758 1125 82.6053 1290.48 478.467
2766 0 91.2445 13.4693 1229 79.5232 1290.1 478.636
2767 0 92.2415 13.1069 1209 80.6063 1289.59 475.672
2768 0 96.2952 13.469 1297 79.5204 1290.06 474.857
2769 0 97.2365 12.9478 1259 81.6092 1290.31 473.602
2770 0 99.0581 13.1741 1305 81.8437 1289.01 471.953
2771 0 102.091 13.7329 1402 80.9708 1288.59 470.299
2772 0 106.148 13.6319 1447 80.5529 1289.08 469.968
2773 0 107.193 12.9766 1391 82.8282 1288.91 467.405
2774 0 110.043 13.0131 1432 88.3373 1289.15 465.974
2775 0 113.172 13.2718 1502 86.8835 1288.28 465.619
2776 0 118.231 14.2771 1688 81.3975 1288.91 462.278
2777 0 123.217 13.4478 1657 81.3995 1289.11 460.96
2778 1 68.0571 11.27 767 86.824 1288.08 491.261
2779 0 68.0844 11.5298 785 84.4089 1288.54 486.363
2780 0 72.0776 12.112 873 82.0974 1287.93 487.792
2781 0 73.0372 12.0076 877 86.1254 1287.48 483.848
2782 0 75.0358 12.3941 930 85.6473 1287.52 484.558
2783 0 77.0831 12.5449 967 87.4498 1288.66 481.764
2784 0 80.1059 12.4335 996 90.7349 1288.18 480.49
2785 0 83.0454 12.1259 1007 88.7924 1288 478.388
2786 0 86.1004 12.5203 1078 88.9712 1288.39 478.935
2787 0 87.1345 12.211 1064 91.1898 1288.57 477.928
2788 0 91.1129 12.512 1140 90.35 1288.03 476.611
2789 0 92.0964 12.4435 1146 93.2435 1288.5 475.072
2790 0 95.0867 12.2835 1168 93.6721 1287.89 472.479
2791 0 96.0685 12.3037 1182 95.1709 1288.65 470.43
2792 0 101.121 13.0438 1319 92.2479 1288.67 470.986
2793 0 102.055 13.3654 1364 93.7793 1288.86 467.249
2794 0 105.159 13.104 1378 95.0443 1288.3 465.597
2795 0 106.06 12.8418 1362 95.4295 1288.93 463.543
2796 0 109.128 12.9939 1418 96.574 1288.88 462.812
2797 0 109.141 12.8641 1404 98.1909 1288.74 458.707
2798 0 114.12 12.7936 1460 98.5206 1289.27 457.564
2799 0 119.124 13.5992 1620 96.166 1289.06 458.453
2800 0 124.101 14.2062 1763 93.7731 1289.02 458.007
2801 0 128.132 13.6734 1752 95.5263 1288.36 456.33
2802 0 130.097 13.7667 1791 95.5879 1289.17 453.91
2803 0 134.108 13.4369 1802 97.1293 1288.67 449.388
2804 0 139.104 13.5222 1881 96.597 1287.68 453.142
2805 0 145.108 14.0447 2038 95.895 1288.29 450.049
2806 1 86.248 11.1191 959 96.2847 1288.93 482.843
2807 0 88.2045 11.9835 1057 96.0047 1289.24 480.456
2808 0 91.1525 12.32 1123 95.7195 1288.97 479.052
2809 0 96.281 13.0971 1261 94.8303 1289.55 479.308
2810 0 98.2561 13.2714 1304 96.1403 1288.74 478.137
2811 0 100.235 13.1091 1314 96.6332 1288.87 475.789
2812 0 103.257 13.6165 1406 96.7923 1288.83 473.937
2813 0 105.329 13.7569 1449 96.3444 1288.47 472.959
2814 0 108.212 14.0742 1523 97.0223 1288.68 473.196
2815 0 112.3 13.8112 1551 98.392 1289.14 470.6
2816 0 114.306 13.5075 1544 99.8277 1289.26 467.59
2817 0 117.324 13.8505 1625 99.56 1288.57 467.202
2818 0 120.15 13.9992 1682 92.6451 1288.23 467.295
2819 0 121.161 13.7585 1667 95.2328 1287.98 466.112
2820 0 126.135 13.8185 1743 96.152 1288.2 464.827
2821 0 130.203 15.0151 1955 93.3985 1288.08 462.91
2822 0 133.206 13.9483 1858 97.5221 1288.23 461.934
2823 0 138.28 13.9861 1934 98.2844 1288.04 457.936
2824 1 75.1434 10.6862 803 95.2279 1289.01 489.833
2825 0 77.1421 11.5112 888 93.4032 1289.08 489.185
2826 0 80.0901 12.2986 985 93.3452 1288.88 486.243
2827 0 82.0829 13.1574 1080 84.1343 1288.81 486.314
2828 0 82.0793 10.9528 899 86.416 1288.25 479.039
2829 0 84.1143 10.2955 866 89.8868 1288.15 475.393
2830 0 87.1348 10.7649 938 87.8454 1288.75 476.84
2831 0 90.1013 11.6979 1054 87.9526 1287.75 475.009
2832 0 92.0475 11.2768 1038 90.0809 1288.57 472.472
2833 0 96.146 11.3369 1090 89.3872 1288.84 471.508
2834 0 95.2029 11.4702 1092 91.6603 1288.28 470.125
2835 0 99.1103 11.8858 1178 90.6936 1288.34 469.195
2836 0 101.085 11.792 1192 90.896 1288.23 468.226
2837 0 106.275 12.1948 1296 88.9807 1288.81 468.828
2838 0 108.278 11.258 1219 92.4167 1288.58 464.469
2839 0 110.237 11.829 1304 92.161 1288.26 464.75
2840 0 115.296 11.9172 1374 91.5204 1288.35 462.911
2841 0 117.159 11.7021 1371 93.2874 1288.08 458.774
2842 0 123.144 12.2459 1508 93.992 1288.31 458.611
2843 0 127.135 12.5693 1598 88.4512 1287.36 456.781
2844 0 133.24 13.8247 1842 92.7291 1288.03 460.087
2845 1 75.1166 10.9962 826 88.1332 1287.23 490.808
2846 0 77.1672 11.5334 890 86.9258 1287 488.37
2847 0 79.1208 11.7795 932 85.5236 1287.04 486.436
2848 0 80.2171 11.7556 943 84.8462 1289.41 484.594
2849 0 82.1648 11.769 967 85.5357 1289.04 485.39
2850 0 85.2529 11.9175 1016 86.1122 1289.5 482.818
2851 0 89.1702 12.3808 1104 85.0942 1288.73 481.866
2852 0 89.1916 11.6715 1041 87.3698 1289.25 480.061
2853 0 93.2174 12.4655 1162 84.9604 1289.47 480.077
2854 0 96.2214 12.3257 1186 82.7825 1288.86 478.733
2855 0 97.3222 11.9603 1164 83.9845 1288.72 476.171
2856 0 101.294 12.0342 1219 84.1444 1289.37 473.266
2857 0 105.381 12.9814 1368 81.9481 1289.08 473.167
2858 0 108.313 13.1009 1419 92.2114 1289.43 470.736
2859 0 110.508 12.8588 1421 92.3533 1290.01 467.962
2860 0 115.491 13.1526 1519 89.6669 1289.95 464.926
2861 0 118.386 12.2481 1450 92.4331 1290.32 464.163
2862 0 120.375 13.2503 1595 91.4677 1289.67 460.972
2863 0 125.41 13.4599 1688 90.9698 1290.27 456.495
2864 0 127.327 12.7467 1623 91.8546 1289.84 456.335
2865 0 133.663 12.9356 1729 90.2672 1289.61 456.311
2866 0 138.26 12.8092 1771 85.9831 1288.68 455.378
2867 0 142.207 12.4256 1767 85.8308 1288.71 449.665
2868 1 80.0777 10.315 826 74.362 1288.56 487.384
2869 0 82.1662 10.9169 897 74.7893 1288.66 482.886
2870 0 85.0673 11.1206 946 76.0233 1288.57 482.645
2871 0 84.0747 10.122 851 77.3337 1289.22 483.519
2872 0 89.1435 10.9711 978 76.1892 1288.99 481.849
2873 0 93.0805 10.7219 998 75.7585 1288.62 481.687
2874 0 93.0969 10.5696 984 77.1646 1288.94 478.885
2875 0 96.0662 10.9924 1056 77.0133 1288.09 476.634
2876 0 98.1413 11.0453 1084 78.6956 1288.23 475.183
2877 0 102.176 11.4998 1175 76.3336 1288.74 473.033
2878 0 105.114 11.1117 1168 78.167 1288.87 471.422
2879 0 109.114 11.8408 1292 76.8026 1288.43 470.526
2880 0 111.12 11.8791 1320 76.4955 1288.88 468.724
2881 0 114.196 11.2701 1287 78.8089 1287.72 467.496
2882 0 116.207 11.1181 1292 80.2663 1288.41 465.518
2883 0 121.121 12.0045 1454 78.9402 1288.82 463.104
2884 0 126.129 13.8747 1750 85.1531 1289.23 458.805
2885 0 126.197 11.0937 1400 93.4036 1288.49 458.4
2886 0 130.216 12.0722 1572 91.6368 1289.41 456.936
2887 0 135.199 11.9675 1618 93.9666 1288.92 456.993
2888 0 136.11 11.6671 1588 97.512 1288.91 454.921
2889 0 141.09 11.9143 1681 96.273 1288.05 450.633
2890 0 145.278 12.5483 1823 94.2523 1288.15 451.975
2891 0 149.105 11.8842 1772 95.0497 1287.95 448.685
2892 0 155.232 12.4459 1932 87.3328 1287.95 440.44
2893 0 156.225 11.9187 1862 97.1165 1287.85 437.082
2894 1 85.0818 9.94338 846 88.4421 1288.28 477.216
2895 0 85.1522 10.5811 901 92.4772 1287.92 475.277
2896 0 86.1526 10.3421 891 91.3771 1288.14 475.912
2897 0 87.1191 9.95189 867 93.6736 1287.43 479.375
2898 0 85.0704 10.0152 852 97.6784 1287.4 477.516
2899 0 89.2282 10.7141 956 95.6684 1287.78 478.676
2900 0 91.2143 10.7549 981 94.5688 1287.85 476.645
2901 0 94.3062 10.5189 992 92.3256 1288.18 475.141
2902 0 95.247 10.1001 962 92.2775 1287.9 471.532
2903 0 100.135 10.1463 1016 89.9055 1287.36 469.137
2904 0 101.267 10.4674 1060 88.9924 1287.81 466.809
2905 0 104.247 10.8588 1132 86.6776 1288.02 465.537
2906 0 106.333 10.4483 1111 86.5734 1288.15 463.789
2907 0 107.25 9.93943 1066 87.3518 1288.08 462.722
2908 0 113.202 10.8214 1225 85.658 1288.43 462.127
2909 0 114.365 11.0261 1261 82.6558 1288.12 461.48
2910 0 117.264 11.1969 1313 84.7053 1288.1 460.455
2911 0 119.319 10.8114 1290 86.9822 1288.03 459.768
2912 0 119.254 9.65169 1151 92.6212 1288.56 455.841
2913 0 125.329 10.8913 1365 90.6513 1288.21 456.152
2914 1 73.2194 10.0383 735 81.1565 1288.66 484.816
2915 0 73.3366 9.55866 701 84.5036 1288.81 484.325
2916 0 75.1218 9.7708 734 88.9673 1289.56 485.029
2917 0 78.1983 10.3455 809 86.6786 1288.07 485.316
2918 0 80.1901 10.7993 866 85.7748 1288.07 483.833
2919 0 80.2661 9.76751 784 89.9426 1287.55 481.768
2920 0 80.2391 10.0699 808 90.3713 1287.67 476.739
2921 0 83.3834 10.2898 858 89.9709 1287.4 476.814
2922 0 86.2748 10.0725 869 91.0679 1287.73 476.663
2923 0 88.2712 10.6037 936 90.8707 1286.94 478.465
2924 0 91.2124 11.3252 1033 92.4995 1287.89 475.783
2925 0 92.3078 10.8767 1004 95.3167 1287.5 476.34
2926 0 95.2609 11.1378 1061 96.6079 1287.98 473.681
2927 0 97.2593 11.711 1139 96.5435 1287.89 472.473
2928 0 100.163 11.0819 1110 99.0568 1288.04 472.788
2929 1 49.066 9.66045 474 90.2679 1288.49 500.926
2930 0 51.3048 10.5643 542 91.6255 1288.78 497.792
2931 0 52.2148 10.4951 548 93.1734 1288.1 496.192
2932 0 52.0808 10.4837 546 92.4872 1287.96 497.696
2933 0 56.1124 11.0671 621 90.4557 1287.81 499.51
2934 0 55.0702 10.9133 601 92.3927 1287.94 497.483
2935 0 56.0368 10.8322 607 92.715 1287.58 497.097
2936 0 60.0768 10.7363 645 105.518 1288.59 495.769
2937 0 61.1386 10.8279 662 106.598 1288.39 494.409
2938 0 62.075 10.5195 653 106.515 1288.44 495.299
2939 0 62.0793 10.8732 675 107.641 1288.24 492.353
2940 0 65.0582 10.4214 678 106.798 1288.91 492.465
2941 0 67.0958 10.2242 686 107.844 1288.15 491.614
2942 0 66.0978 10.7719 712 107.337 1288.43 491.954
2943 0 70.0781 11.3017 792 105.297 1288.39 492.487
2944 0 72.0922 11.194 807 107.555 1288.38 490.204
2945 0 73.0782 10.7693 787 107.55 1288.76 488.767
2946 0 75.0777 11.3616 853 104.528 1288.97 489.532
2947 0 75.127 11.5671 869 105.28 1288.63 487.094
2948 0 77.0697 11.2366 866 106.346 1288.56 486.366
2949 0 79.0966 11.2141 887 106.474 1288.49 486.241
2950 0 83.0494 11.8725 986 103.077 1288.36 485.458
2951 0 83.09 11.987 996 102.887 1287.96 484.849
2952 0 83.139 12.0641 1003 103.737 1287.57 483.676
2953 0 87.2926 12.8304 1120 102.169 1287.49 481.538
2954 0 87.1262 11.7186 1021 107.869 1288.01 478.166
2955 0 89.2316 11.7111 1045 106.925 1287.78 479.641
2956 0 92.2436 12.2935 1134 105.004 1287.62 476
2957 0 95.3336 12.8391 1224 104.092 1288.27 476.032
2958 0 97.2391 12.567 1222 103.256 1287.61 473.64
2959 0 99.3362 12.3923 1231 102.153 1287.63 473.762
2960 0 103.328 12.4845 1290 102.36 1287.73 471.854
2961 0 105.186 12.9295 1360 101.158 1287.52 470.77
2962 0 109.178 12.7773 1395 101.15 1287.32 470.832
2963 0 110.123 13.2398 1458 99.8477 1288.26 471.389
2964 0 113.183 12.6874 1436 100.856 1287.63 469.358
2965 0 119.119 13.2053 1573 98.7298 1288.31 467.409
2966 1 66.148 12.3057 814 95.8649 1287.73 494.794
2967 0 67.2446 12.6107 848 102.386 1288.88 490.382
2968 0 69.1203 13.122 907 100.725 1288.27 490.524
2969 0 71.0749 13.9993 995 88.1487 1287.88 488.843
2970 0 72.0891 13.3585 963 99.2627 1288.49 488.721
2971 0 74.1107 13.5878 1007 99.8123 1289.66 487.223
2972 0 77.036 13.5521 1044 99.0565 1288.58 486.784
2973 0 78.0526 13.5422 1057 99.3633 1288.72 485.075
2974 0 79.0904 13.3897 1059 100.095 1288.09 483.803
2975 0 83.1743 13.7663 1145 97.6393 1289.37 482.106
2976 0 83.0681 12.7125 1056 101.667 1288.52 482.062
2977 0 86.0983 13.6007 1171 99.731 1289.07 480.4
2978 0 89.0583 13.4294 1196 99.8269 1288.64 479.25
2979 0 90.0762 13.422 1209 100.323 1289.06 477.755
2980 0 94.0396 13.7814 1296 98.7631 1288.63 476.022
2981 0 94.1167 13.6214 1282 96.6076 1289.19 471.939
2982 0 96.0881 13.4876 1296 98.3711 1288.68 471.965
2983 0 100.078 13.9591 1397 96.1016 1289 469.73
2984 0 100.118 13.9037 1392 96.9705 1288.98 466.255
2985 0 105.076 13.7805 1448 95.9952 1288.95 465.42
2986 0 110.084 14.1255 1555 94.0855 1288.15 464.082
2987 0 110.089 13.4346 1479 96.19 1289.31 464.517
2988 0 115.034 13.396 1541 95.1356 1289.3 460.771
2989 1 65.0514 9.91524 645 99.769 1288.98 482.846
2990 0 68.0604 11.5926 789 97.1115 1289.67 485.177
2991 0 74.1498 13.3648 991 93.4006 1288.87 485.398
2992 0 76.124 13.0576 994 94.8702 1289.25 484.811
2993 0 77.0423 13.8625 1068 92.5028 1288.09 486.723
2994 0 79.0427 13.9292 1101 92.7702 1288.94 484.728
2995 0 77.0494 12.4855 962 91.1268 1288.48 476.166
2996 0 78.0298 11.7007 913 93.9792 1288.43 472.502
2997 0 81.0764 11.8407 960 93.0896 1288.35 472.467
2998 0 83.0308 12.405 1030 91.3981 1288.51 470.83
2999 0 83.0488 12.4144 1031 91.4636 1288.29 469.167
3000 0 87.0909 12.6075 1098 89.0965 1288.76 468.548
3001 0 86.0526 13.3988 1153 88.6357 1288.75 466.852
3002 0 86.0632 12.4443 1071 90.9991 1288.56 463.996
3003 0 88.0836 13.1125 1155 89.2208 1288.92 462.586
3004 0 91.0567 13.53 1232 88.5024 1288.02 460.397
3005 0 98.0609 13.2775 1302 87.3426 1288.85 461.072
3006 0 101.084 12.8112 1295 88.4054 1288.99 458.449
3007 0 106.05 12.3903 1314 87.8174 1289.06 458.631
3008 0 109.076 12.34 1346 87.1233 1289.22 453.909
3009 0 116.035 12.0998 1404 86.4487 1289.5 452.269
3010 1 71.0664 9.1323 649 77.1032 1289.31 482.344
3011 0 74.0938 11.445 848 78.3384 1289.24 485.478
3012 0 77.1343 11.8235 912 75.9649 1288.13 484.876
3013 0 77.0254 11.1132 856 79.0759 1288.58 482.244
3014 0 82.064 12.405 1018 76.4126 1288.29 482.638
3015 0 83.0978 12.2506 1018 76.946 1288.08 482.756
3016 0 85.042 11.7001 995 78.8663 1288.54 478.9
3017 0 87.0341 11.9953 1044 79.5412 1288.5 478.473
3018 0 90.0922 11.5326 1039 80.9163 1288.87 476.087
3019 0 93.044 12.1233 1128 79.4654 1288.5 477.289
3020 0 98.0532 12.0649 1183 91.4252 1288.49 475.686
3021 0 99.0508 11.8828 1177 92.8224 1288.33 472.742
3022 0 102.067 11.8549 1210 93.1967 1288.4 469.707
3023 0 105.146 12.2306 1286 92.4565 1287.78 470.021
3024 0 109.101 12.933 1411 90.4571 1288.12 469.666
3025 0 111.091 12.9174 1435 90.2355 1287.84 468.224
3026 0 116.119 12.246 1422 90.9578 1287.82 466.447
3027 0 120.111 12.0972 1453 89.3531 1287.71 463.234
3028 0 123.11 11.6725 1437 90.4168 1288.41 461.29
3029 0 127.124 11.4062 1450 89.24 1287.79 459.248
3030 1 75.0351 9.36895 703 75.192 1288.84 487.486
3031 0 76.0817 10.7253 816 71.7745 1289.49 487.222
3032 0 78.0679 10.8751 849 71.8504 1290.32 486.306
3033 0 84.0922 11.4993 967 83.4467 1287.71 483.172
3034 0 84.0976 10.8683 914 84.4223 1287.75 483.306
3035 0 89.1825 10.9999 981 84.1366 1287.09 481.27
3036 0 90.1633 10.5808 954 85.7463 1288.44 479.655
3037 0 91.103 10.9766 1000 84.593 1288.31 477.897
3038 0 94.093 11.3824 1071 82.8982 1288.61 476.886
3039 0 97.1039 11.6164 1128 83.4468 1288.83 475.726
3040 0 100.067 11.2025 1121 83.5602 1289.08 474.1
3041 0 102.095 11.0779 1131 84.6393 1289.34 472.765
3042 0 103.156 11.4778 1184 84.7171 1289.02 471.165
3043 0 107.118 11.8094 1265 83.5771 1289.49 470.269
3044 0 109.113 11.3002 1233 84.6148 1288.93 467.8
3045 0 112.085 10.9738 1230 82.5528 1288.66 468.83
3046 0 114.044 10.7502 1226 83.0522 1288.36 466.775
3047 0 118.168 10.7051 1265 83.9336 1288.19 463.98
3048 0 123.105 11.1043 1367 82.8661 1287.96 463.517
3049 0 124.114 10.9012 1353 83.099 1288.79 459.515
3050 0 127.125 10.0924 1283 85.0335 1289.76 455.225
3051 1 71.09 9.43874 671 71.9538 1289.38 487.599
3052 0 74.0974 10.8776 806 69.866 1289.43 488.354
3053 0 75.1232 10.6625 801 70.8689 1289.19 485.612
3054 0 76.1205 10.2075 777 70.9936 1288.9 484.405
3055 0 78.1647 10.0301 784 73.2513 1289.1 485.409
3056 0 81.1484 11.0908 900 72.1489 1289.83 483.711
3057 0 84.185 11.0471 930 72.1753 1289.22 482.705
3058 0 86.1147 10.4396 899 73.941 1289.2 481.156
3059 0 86.2015 10.8235 933 75.4673 1289.19 480.842
3060 0 88.1824 11.4989 1014 74.8649 1289.13 479.774
3061 0 91.1166 11.2493 1025 76.6351 1289.36 477.747
3062 0 94.1233 11.1343 1048 76.9513 1289.86 476.244
3063 0 96.098 11.2385 1080 78.287 1289.5 474.259
3064 0 100.125 11.3459 1136 78.9322 1288.72 471.05
3065 0 106.16 12.3681 1313 80.3618 1288.62 473.352
3066 0 106.113 11.2993 1199 80.8841 1289.81 470.735
3067 0 110.239 11.3571 1252 84.0272 1288.78 468.212
3068 0 114.262 12.1738 1391 82.9763 1289.66 467.782
3069 1 66.0528 10.4462 690 78.8754 1289.44 493.919
3070 0 66.1763 11.1218 736 79.0842 1289.32 490.935
3071 0 69.1454 12.1917 843 75.4318 1290.06 491.255
3072 0 71.1621 10.8344 771 76.1427 1289.22 489.704
3073 0 73.1598 12.9989 951 72.9884 1288.71 488.321
3074 0 75.1041 12.0899 908 75.3932 1288.25 488.161
3075 0 76.039 11.9807 911 77.6103 1289.44 486.993
3076 0 78.0582 12.7341 994 75.6066 1289.46 486.545
3077 0 80.0704 13.0635 1046 75.5392 1289.5 485.362
3078 0 83.0986 12.5875 1046 76.2036 1288.88 484.494
3079 0 85.0432 13.0404 1109 75.6411 1289.52 483.301
3080 0 87.1163 12.1332 1057 78.3775 1288.93 480.872
3081 0 90.0491 12.5487 1130 78.115 1289.1 480.69
3082 0 90.0449 12.6937 1143 78.6527 1289.02 478.982
3083 0 90.0449 12.6492 1139 133.907 1289.03 478.893
3084 0 99.0393 12.9646 1284 77.303 1289.14 477.609
3085 0 99.1108 12.7938 1268 77.9882 1289.19 474.934
3086 0 104.138 13.1844 1373 76.5841 1289.37 474.012
3087 0 106.114 12.8635 1365 78.3912 1289.6 472.302
3088 0 108.122 12.5598 1358 79.039 1289.16 470.934
3089 0 114.101 12.6642 1445 78.7218 1289.5 468.44
3090 0 116.094 12.1023 1405 79.6811 1289.65 468.305
3091 1 66.0553 11.778 778 77.7121 1289.05 495.712
3092 0 65.0526 11.483 747 77.4953 1289.26 491.744
3093 0 68.0458 11.889 809 81.0754 1288.48 489.316
3094 0 70.0887 11.8849 833 77.3349 1289.4 488.879
3095 0 72.0762 11.9734 863 77.9316 1289.39 488.827
3096 0 74.0393 12.1422 899 78.1424 1289.79 486.979
3097 0 74.0728 12.2177 905 78.3271 1289.75 486.766
3098 0 77.0648 12.3143 949 78.8546 1289.52 484.747
3099 0 80.1243 12.8301 1028 77.2364 1289.87 483.987
3100 0 82.0943 12.6318 1037 78.5082 1289.8 483.554
3101 0 84.0798 12.8212 1078 79.102 1289.3 480.783
3102 0 87.047 13.3606 1163 81.681 1290.61 481.649
3103 0 90.0822 13.3101 1199 79.6097 1290.02 478.922
3104 0 92.068 12.7189 1171 82.3544 1289.74 477.239
3105 0 94.0416 12.9942 1222 82.5736 1289.05 475.371
3106 0 96.1018 12.622 1213 84.8821 1290.18 473.275
3107 0 100.067 13.1112 1312 83.9558 1289.52 471.248
3108 0 103.109 12.8408 1324 84.8421 1289.74 469.978
3109 0 106.066 13.0108 1380 84.6884 1288.74 468.943
3110 0 108.049 12.6609 1368 86.7756 1289.53 466.539
3111 0 113.129 14.0194 1586 82.7194 1289.09 463.937
3112 0 117.063 13.4885 1579 85.2065 1289.52 463.371
3113 0 117.107 12.9967 1522 88.9869 1289.11 461.714
3114 0 121.116 12.2609 1485 91.0875 1288.86 464.147
3115 0 123.106 12.4365 1531 91.9909 1288.43 463.161
3116 0 128.152 12.7427 1633 95.008 1288.64 459.672
3117 0 135.114 14.5358 1964 98.9053 1288.03 454.813
3118 0 139.189 14.1175 1965 100.302 1287.79 451.672
3119 0 144.235 14.2545 2056 100.44 1288.11 449.448
3120 1 61.1574 11.0207 674 91.0742 1287.41 492.104
3121 0 66.1132 12.2971 813 91.2263 1287.98 488.658
3122 0 66.1014 11.9211 788 89.1485 1287.95 488.466
3123 0 67.0577 12.0642 809 87.7145 1289.19 491.711
3124 0 71.0947 11.8434 842 88.481 1289.45 491.049
3125 0 72.0464 11.5897 835 89.3976 1289.67 489.132
3126 0 77.0382 12.8248 988 87.2368 1289.39 488.548
3127 0 76.0622 12.2794 934 90.1799 1290.04 487.686
3128 0 81.0325 12.7973 1037 88.4976 1289.52 486.403
3129 0 83.0668 12.4358 1033 90.0048 1289.21 485.469
3130 0 86.0144 13.0095 1119 90.588 1289.41 484.256
3131 0 90.1268 13.8472 1248 88.476 1290.18 481.192
3132 0 91.0783 13.1206 1195 92.2427 1289.74 480.574
3133 0 94.0569 13.2898 1250 96.728 1289.21 478.591
3134 0 102.182 12.0472 1231 98.9488 1288.73 477.792
3135 0 102.122 12.6613 1293 99.6636 1289.16 474.746
3136 1 48.1642 12.1252 584 91.714 1288.61 501.555
3137 0 51.1303 12.3606 632 92.3022 1288.69 500.172
3138 0 52.1626 12.9211 674 95.6454 1287.93 498.593
3139 0 54.2136 12.6905 688 94.7485 1288.7 495.978
3140 0 54.0591 12.9673 701 91.5792 1289.25 498.494
3141 0 57.0258 12.6434 721 91.7365 1289.81 498.309
3142 0 58.0376 12.5953 731 93.2503 1289.44 497.078
3143 0 59.04 12.6863 749 93.1175 1289.26 497.577
3144 0 62.0251 12.8819 799 91.2991 1288.47 495.615
3145 0 62.0437 12.3784 768 92.6602 1288.96 495.827
3146 0 65.1283 13.2815 865 90.1064 1288.88 494.387
3147 0 67.0275 13.0394 874 90.5298 1288.85 493.146
3148 0 67.0586 12.75 855 92.3719 1288.82 491.579
3149 0 67.0379 12.7689 856 93.0537 1288.65 491.38
3150 0 70.0951 12.3832 868 94.1763 1288.92 490.501
3151 0 71.117 12.6974 903 93.2602 1288.76 487.724
3152 0 76.075 13.1318 999 100.481 1289.46 488.589
3153 0 76.0827 12.7756 972 95.5679 1289.65 483.923
3154 0 77.0565 12.1469 936 98.2981 1289.95 482.524
3155 0 80.0928 12.2857 984 98.2835 1289.36 481.87
3156 0 83.0463 12.8121 1064 100.005 1289.24 482.636
3157 0 86.0603 12.4796 1074 98.432 1288.99 482.099
3158 0 90.1101 13.0618 1177 95.915 1289.92 480.81
3159 0 91.0706 13.0997 1193 96.1978 1290.07 479.356
3160 0 94.0876 12.8072 1205 97 1289.63 477.951
3161 0 96.0352 13.797 1325 95.7615 1289.52 476.203
3162 0 97.104 13.501 1311 96.7704 1290.07 475.533
3163 0 101.097 13.5712 1372 96.4249 1290.4 474.235
3164 0 106.09 13.7148 1455 96.8261 1289.51 472.434
3165 0 106.131 13.7001 1454 97.4704 1290.16 469.686
3166 0 112.118 13.6018 1525 96.6675 1289.76 467.616
3167 1 63.071 11.7011 738 92.1829 1290.31 494.037
3168 0 63.0695 12.288 775 90.2077 1289.14 493.094
3169 0 67.0608 12.9286 867 94.2007 1289.54 491.798
3170 0 68.0572 11.7548 800 88.2575 1289.53 488.802
3171 0 68.0676 12.1791 829 90.7117 1288.42 487.615
3172 0 72.0639 12.4334 896 90.0848 1289.26 485.718
3173 0 74.0388 11.9397 884 91.2907 1288.37 484.706
3174 0 76.1723 12.4455 948 90.5485 1288.53 482.409
3175 0 80.0542 12.4291 995 89.403 1288.68 481.242
3176 0 81.0945 12.4176 1007 90.0894 1288.96 482.105
3177 0 83.0798 12.7829 1062 90.0056 1289.08 480.581
3178 0 84.1288 12.6354 1063 91.7347 1288.79 478.246
3179 0 90.1382 13.2907 1198 90.5634 1288.36 478.211
3180 0 91.0684 13.111 1194 91.6734 1288.77 478.098
3181 0 94.1388 12.9915 1223 93.9501 1288.18 476.285
3182 0 99.0841 13.5138 1339 93.2136 1288.65 476.638
3183 0 100.117 13.664 1368 94.8472 1288.6 473.923
3184 0 105.055 13.7261 1442 94.8336 1288.81 472.656
3185 0 107.097 13.3897 1434 97.8954 1288.13 473.155
3186 0 110.062 13.2562 1459 100.132 1288.52 470.306
3187 0 115.133 13.7319 1581 97.6818 1288.61 470.607
3188 1 64.1254 12.0545 773 99.7283 1288.84 493.745
3189 0 67.0617 13.1819 884 95.5848 1288.91 492.338
3190 0 68.0662 13.4428 915 96.7388 1288.75 491.238
3191 0 68.0744 13.5293 921 98.038 1288.44 489.472
3192 0 71.0738 13.5493 963 100.234 1289.21 487.822
3193 0 74.0799 14.4304 1069 99.0758 1289.03 486.13
3194 0 76.0757 14.157 1077 100.139 1288.94 485.362
3195 0 79.0725 14.746 1166 96.8636 1288.32 485.779
3196 0 79.0959 14.6657 1160 97.4922 1288.66 483.701
3197 0 83.2056 14.9509 1244 93.4068 1288.83 482.855
3198 0 84.176 14.8736 1252 95.2372 1289.24 481.242
3199 0 87.101 14.3626 1251 95.0959 1288.49 479.737
3200 0 91.1772 14.8612 1355 92.6613 1289.47 479.28
3201 0 92.2356 14.4196 1330 93.6804 1288.92 475.609
3202 0 93.1626 14.2546 1328 93.4292 1288.64 474.794
3203 0 94.1693 13.5819 1279 94.5152 1289.34 473.601
3204 0 96.2138 13.2725 1277 90.6735 1288.93 468.827
3205 0 99.1297 13.4168 1330 90.1684 1288.41 467.823
3206 0 102.155 13.4404 1373 91.6256 1288.5 467.53
3207 0 104.164 13.2388 1379 90.9949 1288.82 464.272
3208 0 106.103 13.1476 1395 90.686 1288.56 460.077
3209 0 111.105 13.2398 1471 88.3854 1289.1 458.135
3210 0 116.101 13.0145 1511 87.7525 1288.41 459.078
3211 0 119.243 12.8813 1536 88.1367 1287.96 456.923
3212 1 67.1262 10.9793 737 83.1316 1288.91 482.412
3213 0 67.1754 11.1201 747 83.2624 1289.98 481.386
3214 0 72.1543 12.0159 867 82.0542 1289.45 480.928
3215 0 74.0883 11.3243 839 76.5781 1288.5 483.462
3216 0 73.047 11.4584 837 77.7766 1288.98 485.4
3217 0 77.0378 11.6566 898 77.2817 1288.96 484.553
3218 0 79.0799 11.7729 931 80.5381 1289.18 483.159
3219 0 84.0781 12.1435 1021 76.1352 1288.23 482.425
3220 0 86.0777 11.629 1001 77.2907 1289.22 481.913
3221 0 88.1042 11.9518 1053 77.6467 1289.1 480.217
3222 0 90.0936 11.7211 1056 78.0095 1289.69 480.974
3223 0 93.0646 11.9702 1114 78.6966 1289.35 478.202
3224 0 95.057 12.5293 1191 78.6054 1289.64 478.83
3225 0 98.0491 12.4224 1218 78.358 1288.91 476.514
3226 0 101.078 12.9009 1304 78.2477 1289.62 473.472
3227 0 107.057 13.1052 1403 76.7748 1289.28 471.933
3228 0 109.077 13.6967 1494 76.4652 1290 469.717
3229 0 114.07 13.1673 1502 77.6758 1289.1 469.212
3230 0 115.097 12.6328 1454 79.348 1289.6 466.81
3231 0 120.109 13.1048 1574 79.4797 1289.17 463.597
3232 0 124.083 13.8536 1719 79.9494 1289.39 460.753
3233 0 128.092 13.9821 1791 86.7085 1290.1 458.955
3234 0 131.09 13.5555 1777 88.1182 1289.19 456.302
3235 0 138.08 14.1657 1956 87.4386 1289.25 453.502
3236 0 143.09 13.6278 1950 88.36 1288.41 450.629
3237 1 82.0583 11.699 960 82.0979 1288.96 484.571
3238 0 87.1021 12.3763 1078 82.0037 1289.06 482.609
3239 0 87.148 12.473 1087 83.9844 1289.12 481.786
3240 0 90.097 12.4865 1125 85.3787 1288.75 479.924
3241 0 94.0675 12.5336 1179 85.9279 1288.96 477.459
3242 0 96.0837 13.1448 1263 86.2146 1288.68 475.013
3243 0 100.11 13.2953 1331 85.7213 1289.11 474.52
3244 0 104.049 13.8204 1438 88.8289 1289.35 473.367
3245 0 105.032 13.5864 1427 90.993 1289.57 472.934
3246 0 109.094 13.8412 1510 91.4126 1289.02 470.734
3247 0 112.113 13.5489 1519 92.0395 1288.49 469.23
3248 0 116.192 13.6498 1586 91.4193 1288.52 466.328
3249 0 120.167 13.3814 1608 92.2071 1288.96 464.344
3250 0 121.222 13.0421 1581 93.5161 1288.91 460.56
3251 0 126.193 13.1624 1661 94.1379 1289.27 458.668
3252 0 129.221 13.4034 1732 94.8458 1288.69 456.882
3253 0 132.152 13.4239 1774 95.9915 1287.93 454.494
3254 0 137.28 14.0589 1930 95.1674 1289.22 452.954
3255 0 145.331 13.8925 2019 95.3858 1288.92 447.374
3256 0 148.213 14.0001 2075 95.8222 1288.24 448.096
3257 0 152.128 13.7253 2088 98.0891 1288.41 446.011
3258 0 155.2 14.7036 2282 97.223 1288.65 442.982
3259 0 161.153 14.3777 2317 97.8075 1288.34 441.25
3260 0 165.199 14.9214 2465 95.7039 1288.52 440.035
3261 0 169.145 14.8807 2517 95.3604 1288.98 435.346
3262 0 173.224 14.7901 2562 96.0636 1287.97 432.954
3263 0 177.243 13.6987 2428 98.3439 1288.62 432.794
3264 0 183.223 14.0321 2571 96.7289 1289.22 431.39
3265 0 191.205 14.3668 2747 95.1838 1289.86 430.348
3266 0 195.27 14.1036 2754 96.8707 1289.11 427.526
3267 0 199.265 14.2072 2831 97.124 1288.52 424.852
3268 0 205.301 14.3691 2950 96.2508 1288.53 417.591
3269 0 211.233 13.9372 2944 97.0187 1288.79 415.701
3270 0 221.287 14.0632 3112 95.8872 1288.33 409.848
3271 0 231.226 14.2242 3289 93.7574 1288.72 407.848
3272 0 238.308 13.877 3307 94.7929 1288.86 403.725
3273 1 51.0636 10.6142 542 76.7989 1288.71 493.238
3274 0 53.0195 10.7885 572 74.7482 1288.38 493.194
3275 0 54.042 11.6946 632 76.6361 1290.27 496.464
3276 0 58.0866 12.3264 716 76.3184 1289.53 495.712
3277 0 59.097 12.2003 721 78.0499 1289.27 493.649
3278 0 60.055 12.4719 749 78.8545 1289.84 492.7
3279 0 63.0403 12.9124 814 75.769 1289.25 492.183
3280 0 63.0423 12.9437 816 77.5012 1289 490.719
3281 0 65.0429 12.2381 796 78.5842 1289.29 491.572
3282 0 66.0247 12.0258 794 80.2972 1289.62 491.858
3283 0 67.0493 11.3051 758 82.2652 1289.27 490.437
3284 0 69.0289 11.9515 825 81.0218 1289.48 488.583
3285 0 72.0389 11.8825 856 81.4287 1289.29 487.991
3286 0 72.0548 11.4219 823 84.1264 1289.11 486.899
3287 0 75.047 11.7926 885 83.6599 1289.38 485.687
3288 0 79.1179 11.9821 948 85.3186 1289.74 483.185
3289 0 80.0423 12.0936 968 89.7045 1289.45 481.161
3290 0 84.0673 13.3583 1123 86.7284 1289.53 482.077
3291 0 86.0955 12.4281 1070 86.3178 1289.85 477.261
3292 0 89.1363 12.5762 1121 86.9081 1288.97 475.383
3293 0 92.2513 12.3142 1136 89.2984 1289.57 469.125
3294 0 98.1633 13.0191 1278 86.5939 1288.85 468.07
3295 0 101.149 13.0006 1315 86.0897 1289.57 467.89
3296 1 58.1206 10.5987 616 82.4513 1288.41 489.781
3297 0 60.1166 11.6108 698 80.4986 1288.92 491.852
3298 0 62.17 11.8063 734 83.3215 1289.6 490.576
3299 0 60.0728 10.9534 658 77.7857 1288.41 485.219
3300 0 59.0621 10.616 627 80.437 1288.75 484.595
3301 0 62.1007 10.5152 653 80.3599 1288.27 483.848
3302 0 66.0686 11.8967 786 78.1247 1288.34 483.887
3303 0 65.111 11.6109 756 80.9683 1288.39 483.463
3304 0 67.0936 11.3573 762 83.1732 1288.42 481.45
3305 0 70.1018 12.0824 847 83.4132 1288.6 481.022
3306 0 72.1066 12.3844 893 89.822 1288.75 478.803
3307 0 77.1472 13.6622 1054 90.111 1288.52 480.623
3308 0 79.1455 13.2035 1045 89.378 1288.52 481.627
3309 0 80.101 13.9199 1115 89.6036 1288.44 480.286
3310 0 82.1039 13.5073 1109 90.8828 1289.26 476.349
3311 0 83.1979 12.909 1074 93.7672 1289.13 475.114
3312 0 86.1369 13.6643 1177 91.8598 1289.62 473.38
3313 0 88.1524 13.851 1221 91.231 1288.87 473.041
3314 0 91.1435 13.6269 1242 91.7738 1288.73 472.616
3315 0 94.1991 13.843 1304 91.4072 1288.63 472.532
3316 0 97.2177 13.5778 1320 92.9197 1288.56 467.595
3317 0 100.17 13.4172 1344 92.2612 1288.74 467.98
3318 0 104.137 13.6263 1419 90.6772 1288.65 469.87
3319 0 106.183 13.6651 1451 90.3549 1288.49 468.185
3320 0 110.118 13.7308 1512 88.8036 1289.31 464.766
3321 0 112.103 13.6482 1530 91.432 1289.07 463.283
3322 1 67.043 11.5299 773 82.4373 1288.27 487.226
3323 0 68.0455 11.36 773 82.5265 1288.77 486.464
3324 0 69.0429 11.0511 763 76.6225 1288.49 479.248
3325 0 70.071 10.9318 766 76.658 1288.37 483.087
3326 0 74.0441 10.9934 814 75.6953 1289.1 482.654
3327 0 76.0539 11.0579 841 75.843 1289.14 480.702
3328 0 77.0376 10.774 830 75.9072 1288.93 480.01
3329 0 80.0455 11.5684 926 74.9168 1289.64 481.143
3330 0 82.0895 11.3656 933 75.6527 1289.21 479.701
3331 0 84.0989 11.5459 971 75.6282 1289.63 477.974
3332 0 84.1618 11.371 957 76.4629 1289.25 476.757
3333 0 89.1046 11.6492 1038 76.7765 1289.45 475.053
3334 0 91.0889 12.7348 1160 74.8371 1289.41 473.409
3335 0 95.0688 12.3069 1170 76.0487 1289.09 473.43
3336 0 97.0944 12.8741 1250 76.432 1289.39 472.37
3337 0 99.0592 12.3966 1228 78.7508 1289.5 468.946
3338 0 99.0322 11.5821 1147 85.7602 1289.04 463.858
3339 0 101.066 11.6162 1174 88.1312 1288.88 463.641
3340 0 105.11 11.2263 1180 89.1373 1288.54 462.095
3341 0 110.099 13.0519 1437 90.945 1289.7 465.491
3342 0 114.15 12.7727 1458 92.725 1288.67 461.898
3343 0 119.084 13.31 1585 92.2845 1289.47 460.78
3344 1 66.0339 10.1009 667 85.4888 1289.65 489.534
3345 0 67.0197 10.8028 724 80.4226 1289.8 487.934
3346 0 70.1072 12.0387 844 78.8685 1289.04 486.763
3347 0 73.0674 11.5784 846 82.1076 1288.35 486.308
3348 0 74.0344 11.4136 845 83.6166 1288.3 485.543
3349 0 77.0612 12.3668 953 81.4281 1287.95 483.346
3350 0 78.0795 11.5139 899 84.7364 1288.37 482.495
3351 0 83.1119 12.2486 1018 83.111 1288.24 482.407
3352 0 84.1509 12.3469 1039 84.0356 1288.41 482.196
3353 0 85.152 12.5658 1070 86.0168 1288.03 479.093
3354 0 89.1198 12.4776 1112 86.9398 1288.95 478.343
3355 0 91.1571 12.8569 1172 88.1894 1288.62 476.587
3356 0 94.0982 13.4328 1264 88.2729 1288.98 475.455
3357 0 97.0783 13.35 1296 86.6458 1288.74 470.387
3358 0 97.1121 12.3363 1198 91.4708 1288.99 469.184
3359 0 100.101 12.1776 1219 92.128 1288.89 469.304
3360 0 105.141 13.3059 1399 94.9157 1288.71 469.614
3361 0 107.055 11.9751 1282 91.6771 1287.86 465.115
3362 0 109.097 12.4935 1363 96.4409 1288.52 466.491
3363 0 114.075 13.0353 1487 94.1103 1288.79 465.277
3364 0 115.066 12.4711 1435 92.8118 1288.42 461.401
3365 0 118.116 13.2412 1564 95.6093 1288.2 460.992
3366 0 122.17 12.6872 1550 97.1381 1288.02 460.233
3367 0 126.163 13.3636 1686 95.1418 1288.59 459.09
3368 0 129.154 13.4955 1743 96.2209 1288.28 456.941
3369 0 133.195 13.3189 1774 94.8123 1288.85 452.44
3370 0 137.101 12.9685 1778 94.6856 1288.68 449.758
3371 0 141.143 12.9869 1833 95.4975 1288.48 447.506
3372 0 145.206 13.2295 1921 94.5445 1288.29 444.947
3373 0 148.146 12.6767 1878 97.2907 1288.21 442.267
3374 0 154.143 13.734 2117 94.76 1288.81 438.982
3375 0 156.184 13.0679 2041 97.22 1288.88 438.047
3376 0 162.254 13.1337 2131 96.7654 1288.56 436.802
3377 0 165.177 13.0769 2160 98.4208 1287.97 434.668
3378 0 169.123 13.1975 2232 97.8831 1288.23 432.509
3379 0 171.18 12.9922 2224 99.6898 1287.98 427.688
3380 0 177.115 12.8561 2277 98.61 1288.29 425.708
3381 0 182.108 13.3108 2424 96.9509 1288.13 420.058
3382 0 188.136 12.9268 2432 98.1472 1288.22 418.079
3383 0 192.186 13.2684 2550 97.2643 1288.04 415.312
3384 0 197.205 12.9104 2546 98.1218 1288.95 409.63
3385 0 203.292 13.3896 2722 96.5511 1289.88 408.673
3386 0 210.25 13.2509 2786 95.9989 1288.91 399.167
3387 0 215.226 12.7819 2751 98.6776 1288.15 396.843
3388 0 222.43 13.1143 2917 96.9434 1287.97 397.894
3389 0 231.417 13.439 3110 96.4122 1287.73 396.981
3390 0 236.426 12.359 2922 100.06 1287.53 390.348
3391 0 244.347 12.8096 3130 99.224 1287.75 384.807
3392 0 253.464 12.8026 3245 99.5156 1287.23 381.434
3393 0 262.382 13.3088 3492 98.118 1287.98 375.257
3394 0 269.249 13.1291 3535 99.0359 1287.67 373.9
3395 0 279.293 13.6309 3807 99.461 1287.88 368.218
3396 0 286.307 13.5414 3877 101.968 1286.83 366.128
3397 1 71.0698 8.35798 594 74.7071 1287.75 485.082
3398 0 72.0787 7.50569 541 77.3604 1287.05 484.275
3399 0 73.0771 7.56735 553 77.9295 1287.84 484.41
3400 0 77.1379 9.0617 699 75.6009 1287.14 484.054
3401 0 80.0947 8.93941 716 76.088 1287.23 482.054
3402 0 82.0747 8.51663 699 77.2303 1287.46 479.524
3403 0 86.125 9.02177 777 75.7413 1287.76 481.843
3404 0 88.1335 8.53251 752 77.0558 1287.2 480.481
3405 0 89.0759 8.1728 728 78.6827 1287.99 479.717
3406 0 92.095 8.71925 803 77.6625 1287.54 476.976
3407 0 97.1445 9.71748 944 75.7616 1287.65 472.528
3408 0 104.089 9.37658 976 83.9734 1288.45 470.12
3409 0 106.078 9.67216 1026 82.9415 1289.11 469.316
3410 0 109.051 10.3346 1127 80.9991 1288.99 469.097
3411 0 113.066 10.3568 1171 79.8907 1289.23 468.966
3412 0 114.092 9.19436 1049 82.1459 1288.77 467.563
3413 0 119.069 9.92703 1182 80.566 1288.39 466.25
3414 0 120.11 9.79934 1177 81.2158 1289.35 461.559
3415 0 125.151 9.59638 1201 80.7402 1288.65 462.88
3416 0 128.092 9.42291 1207 79.9362 1288.43 458.745
3417 0 131.087 9.04739 1186 80.5363 1288.76 455.768
3418 0 132.158 9.76102 1290 81.0643 1288.29 453.413
3419 0 133.257 9.31287 1241 81.4907 1287.45 455.495
3420 0 138.151 9.25797 1279 82.6184 1287.89 449.654
3421 0 142.116 9.49222 1349 83.1505 1286.88 448.511
3422 0 149.23 12.6382 1886 74.8775 1287.74 449.328
3423 0 151.225 12.0483 1822 77.4797 1287.42 446.185
3424 0 155.192 12.4749 1936 77.1684 1287.73 445.056
3425 0 159.202 11.8528 1887 78.3418 1286.71 443.422
3426 0 163.185 11.7045 1910 79.0346 1287.13 440.231
3427 0 169.134 11.9846 2027 79.596 1287.98 438.819
3428 0 174.248 11.6386 2028 79.6233 1286.86 436.685
3429 0 178.208 12.0982 2156 79.7435 1287.33 433.099
3430 0 181.259 12.209 2213 80.639 1286.68 431.521
3431 0 186.206 12.658 2357 80.3127 1286.66 426.665
3432 0 192.252 13.1494 2528 79.2844 1287.08 421.88
3433 0 196.22 12.6338 2479 81.4748 1287.01 418.386
3434 0 202.16 12.9848 2625 81.5025 1286.88 418
3435 0 205.241 12.5998 2586 83.3449 1287.03 413.29
3436 0 213.208 12.856 2741 82.9092 1287.28 412.552
3437 0 218.167 13.8243 3016 81.7885 1286.92 409.374
3438 0 222.172 13.35 2966 83.5307 1286.83 407.795
3439 0 227.2 12.6277 2869 84.9394 1287.39 404.887
3440 0 234.194 12.9038 3022 84.8647 1287.85 402.325
3441 0 242.206 13.2986 3221 84.253 1287.62 396.377
3442 0 248.257 12.9221 3208 84.8086 1287.4 392.503
3443 0 257.322 13.4928 3472 83.691 1287.68 386.533
3444 1 68.0947 10.0302 683 70.9473 1288.16 485.395
3445 0 69.0744 9.45357 653 70.9541 1288.37 482.761
3446 0 69.1734 9.64243 667 74.1094 1287.41 479.217
3447 0 72.159 10.9203 788 74.1586 1287.85 480.147
3448 0 71.1331 9.86883 702 69.6097 1288.28 482.872
3449 0 73.1151 10.2031 746 70.2721 1289.52 482.534
3450 0 75.0821 9.76265 733 71.251 1288.35 482.214
3451 0 77.0917 9.59895 740 71.4108 1288.95 481.196
3452 0 80.093 10.363 830 69.5964 1288.4 482.251
3453 0 81.0499 9.56201 775 72.2039 1288.03 484.812
3454 0 82.0795 10.0878 828 71.5531 1287.48 482.709
3455 0 84.0609 10.6708 897 70.8763 1287.33 482.755
3456 0 86.0528 10.6562 917 72.6249 1287.03 479.431
3457 0 88.0619 10.2428 902 73.4102 1287.82 479.083
3458 0 91.0753 10.4199 949 74.9979 1287.84 477.422
3459 0 92.0611 10.9167 1005 75.0706 1287.66 476.214
3460 0 93.0904 10.9678 1021 75.9716 1286.96 475.646
3461 0 97.0298 12.12 1176 77.1139 1287.38 473.934
3462 0 98.1358 11.3109 1110 78.1351 1287.94 473.523
3463 0 102.079 11.6968 1194 78.799 1288.46 470.914
3464 0 106.063 12.3417 1309 77.4958 1287.02 468.318
3465 0 108.11 13.2273 1430 76.3217 1286.7 460.804
3466 0 113.095 12.9714 1467 76.2209 1287.62 461.176
3467 0 111.117 13.6253 1514 75.7516 1287.45 459.376
3468 0 121.107 14.3592 1739 71.4365 1287.46 451.089
3469 0 118.157 12.4157 1467 78.4104 1287.91 452.904
3470 0 126.172 15.0508 1899 69.9621 1287.24 445.527
3471 0 127.138 14.5354 1848 72.5027 1287.99 445.071
3472 0 126.108 12.2752 1548 78.5782 1287.62 444.881
3473 0 130.132 13.0406 1697 76.9293 1288.29 445.724
3474 0 131.158 12.5497 1646 78.8967 1288.18 441.611
3475 0 133.151 12.3619 1646 79.9951 1287.23 438.885
3476 0 140.112 14.6098 2047 72.8119 1287.46 431.754
3477 0 142.106 12.7018 1805 78.2399 1287.89 433.157
3478 0 148.168 12.7828 1894 77.3759 1287.64 432.191
3479 1 85.0254 8.07994 687 76.7336 1288.18 467.629
3480 0 91.0521 9.92839 904 74.5918 1288.69 469.737
3481 0 95.0773 11.7694 1119 76.1305 1288.46 469.828
3482 0 98.1068 11.4365 1122 77.7861 1288.63 468.61
3483 0 102.255 11.2562 1151 77.0869 1289.48 465.566
3484 0 102.126 10.957 1119 78.4513 1288.76 465.296
3485 0 107.123 11.8182 1266 77.2923 1289.14 461.991
3486 0 110.19 11.1353 1227 78.0522 1288.6 462.427
3487 0 114.208 12.4072 1417 76.1743 1288.78 458.321
3488 0 116.191 11.5241 1339 78.997 1288.86 458.809
3489 0 118.198 10.9647 1296 79.5247 1287.74 456.64
3490 0 122.119 11.3086 1381 76.1311 1288.88 454.771
3491 0 124.138 12.0833 1500 76.0333 1289.06 451.769
3492 0 128.153 11.5253 1477 77.2966 1288.67 450.088
3493 0 132.11 11.9068 1573 76.3058 1288.57 450.053
3494 0 134.125 11.355 1523 78.7393 1288.16 447.561
3495 0 140.084 12.5425 1757 76.5378 1288.87 446.97
3496 0 143.116 12.0671 1727 77.399 1288.47 445.109
3497 0 147.14 12.3759 1821 77.48 1288.3 443.013
3498 0 152.14 12.219 1859 72.2695 1287.59 443.368
3499 0 155.144 12.2274 1897 74.1834 1287.62 441.734
3500 0 160.134 12.1586 1947 80.1618 1288.08 437.439
3501 0 160.098 10.8558 1738 83.859 1288.1 437.211
3502 0 170.133 12.4785 2123 81.2774 1288.08 434.968
3503 0 174.134 12.0942 2106 80.2084 1288.45 432.17
3504 0 179.1 12.1161 2170 81.8157 1288.67 428.165
3505 0 182.152 11.7923 2148 86.3282 1289 429.474
3506 0 188.091 12.3717 2327 85.6691 1288.44 428.907
3507 0 194.214 12.2493 2379 85.4754 1289.1 425.313
3508 0 198.158 11.839 2346 88.5379 1288.61 424.815
3509 0 203.156 12.8768 2616 87.992 1288.29 421.728
3510 0 207.191 12.8046 2653 89.9186 1288.62 416.621
3511 0 216.287 14.9338 3230 85.1297 1288.83 411.932
3512 1 227.24 17.7126 4025 77.4 1288.46 398.113
3513 0 231.234 15.426 3567 84.7861 1289.71 400.698
3514 0 381.349 13.0012 4958 91.4308 1288.57 336.479
3515 0 383.568 23.3049 8939 66.7257 1287.8 312.487
3516 0 381.432 22.5256 8592 70.5441 1287.82 311.15
3517 1 174.28 12.1184 2112 90.8736 1287.52 435.826
3518 0 181.248 12.4691 2260 94.2451 1288.19 433.31
3519 0 186.344 13.3194 2482 95.2192 1288.16 429.316
3520 0 190.325 12.9305 2461 96.0313 1288.15 424.92
3521 0 195.272 12.5978 2460 96.9821 1288.61 422.351
3522 0 202.354 12.6165 2553 95.9322 1288.79 420.295
3523 0 208.3 12.6068 2626 93.8766 1288.54 422.318
3524 1 164.296 11.4001 1873 92.5067 1289.01 444.123
3525 0 169.155 12.0304 2035 91.4074 1288.7 442.673
3526 0 172.198 11.8701 2044 92.6825 1288.09 437.36
3527 0 177.192 12.7207 2254 96.4321 1287.19 431.768
3528 0 182.213 12.6446 2304 98.6632 1287.63 430.577
3529 0 187.208 12.7612 2389 99.5827 1287.55 425.313
3530 0 197.133 16.4711 3247 85.5322 1287.6 416.868
3531 0 194.184 13.6726 2655 95.0441 1287.77 419.927
3532 0 199.224 14.1951 2828 94.3865 1287.87 417.217
3533 1 221.281 18.1263 4011 79.3904 1288.66 398.028
3534 0 221.302 18.6352 4124 78.4583 1289.15 396.423
3535 0 226.245 18.4888 4183 81.2216 1287.92 394.183
3536 0 219.151 12.9956 2848 97.3114 1288.57 403.995
3537 0 226.292 13.0805 2960 96.6693 1289.88 401.812
3538 0 232.211 12.747 2960 96.5132 1289.08 399.384
3539 0 239.204 12.8342 3070 93.9886 1288.71 399.279
3540 0 246.208 13.2449 3261 94.644 1288.78 393.765
3541 0 252.318 12.8013 3230 96.1232 1288.65 391.067
3542 0 260.242 13.3875 3484 94.9879 1289.71 386.255
3543 0 267.33 13.575 3629 95.803 1289.1 383.537
3544 0 274.251 12.7256 3490 97.9052 1289.39 379.259
3545 0 281.374 13.1888 3711 98.422 1289.53 376.18
3546 0 289.425 13.1571 3808 97.8317 1289.77 372.795
3547 0 295.322 12.7319 3760 101.455 1289.97 368.152
3548 0 303.462 13.2438 4019 101.811 1289.49 363.477
3549 0 310.455 13.7057 4255 102.345 1290.02 356.065
3550 0 318.363 15.853 5047 96.9267 1290.24 352.161
3551 0 325.209 14.8766 4838 100.599 1290.33 349.241
3552 0 332.289 15.5798 5177 103.287 1290.09 342.615
3553 0 340.271 15.4406 5254 104.269 1289.52 335.424
3554 0 348.277 15.7088 5471 105.994 1289.35 331.187
3555 0 358.35 15.5742 5581 106.032 1289.89 326.046
3556 0 371.319 16.0967 5977 104.059 1289.93 299.642
3557 0 370.455 11.2132 4154 114.911 1289.36 319.496
3558 0 348.34 10.5816 3686 117.675 1290.05 310.88
3559 1 58.1005 9.01885 524 80.3931 1290.19 441.828
3560 0 58.1768 10.9322 636 89.4072 1291 448.965
3561 0 58.0304 10.3566 601 85.5557 1292.28 451.958
3562 0 58.0667 10.2124 593 87.1467 1292.06 459.7
3563 0 58.0681 9.64386 560 88.5661 1291.46 467.125
3564 0 58.0251 10.1163 587 88.661 1291.96 476.366
3565 0 57.0313 10.3627 591 88.357 1292.36 483.802
3566 0 58.0433 10.6645 619 87.0355 1293.12 488.628
3567 0 68.0888 13.7908 939 73.6219 1291.74 482.124
3568 0 63.0634 13.6212 859 79.0803 1292.08 482.698
3569 0 59.0253 11.8254 698 86.1361 1292.84 485.05
3570 0 57.0829 10.4234 595 92.637 1293.17 488.361
3571 0 79.0751 12.0645 954 73.5126 1292.48 480.303
3572 0 64.0407 14.1629 907 75.7949 1293.46 480.818
3573 0 74.211 14.6474 1087 68.8178 1293.19 479.604
3574 0 64.0489 13.3648 856 80.2874 1293.85 482.632
3575 0 60.0657 11.6373 699 88.8526 1293.58 485.923
3576 0 57.0946 9.79078 559 93.8962 1292.83 490.957
3577 0 59.0685 10.818 639 91.6698 1293.02 490.501
3578 0 59.0807 9.95248 588 91.9167 1293.57 491.196
3579 0 66.0427 14.8843 983 72.7752 1294.05 484.157
3580 0 65.0225 15.287 994 71.673 1294.05 483.842
3581 0 75.2537 13.7402 1034 70.1373 1294.61 482.236
3582 0 71.0408 12.6266 897 75.2018 1293.58 483.744
3583 0 69.0489 13.8163 954 73.3532 1293.94 484.851
3584 0 64.0241 12.5578 804 79.5647 1294.11 487.092
3585 0 65.0325 11.748 764 80.5956 1293.92 486.856
3586 0 62.0614 11.4242 709 82.6432 1292.58 488.836
3587 0 62.0331 11.0103 683 84.5988 1291.76 490.035
3588 0 61.0618 10.4812 640 85.675 1291.38 490.894
3589 0 67.0477 13.9155 933 72.4384 1291.09 485.577
3590 0 68.0706 13.1775 897 73.5719 1291.55 486.885
3591 0 65.0338 14.6847 955 67.8419 1291.52 491.956
3592 0 64.0521 14.5038 929 68.5264 1291.21 492.516
3593 0 63.0692 13.6675 862 70.935 1292.23 490.922
3594 0 64.049 13.9737 895 69.7196 1291.33 492.552
3595 0 66.067 15.6962 1037 64.8824 1291.71 491.964
3596 0 66.0315 14.9928 990 65.9242 1292.16 492.189
3597 0 64.0455 14.8488 951 65.7003 1291.92 492.349
3598 0 65.0417 14.5753 948 66.1466 1291.98 493.932
