time division length width area intensity CMx CMy
0 0 54.0384 14.9153 806 167.479 1152.01 488.254
1 0 56.0345 15.2585 855 127.33 1151.43 487.248
2 0 56.0227 15.4045 863 125.152 1151.71 487.943
3 0 58.0629 15.1043 877 124.372 1151.4 487.138
4 0 60.0496 15.3706 923 121.713 1151.38 486.528
5 0 58.0384 14.9556 868 125.048 1150.96 486.108
6 0 63.0536 15.3837 970 120.091 1151.34 484.598
7 0 64.0097 15.5133 993 119.272 1151.42 485.747
8 0 65.0309 15.5311 1010 118.87 1151.31 484.161
9 0 67.0605 15.2996 1026 118.741 1151.33 483.864
10 0 70.0393 15.4342 1081 115.733 1152.36 483.12
11 0 71.0375 16.0479 1140 114.782 1150.87 481.431
12 0 73.0491 16.044 1172 115.043 1151.12 480.331
13 0 75.0384 15.6453 1174 115.535 1150.41 480.259
14 0 77.0221 15.3203 1180 115.871 1149.67 479.675
15 0 77.1278 15.2215 1174 115.525 1150.4 478.111
16 0 80.0434 15.1793 1215 113.961 1150.16 476.912
17 0 82.0305 15.738 1291 111.723 1149.2 475.978
18 0 84.0317 15.3394 1289 111.958 1150.12 475.698
19 0 86.0425 15.0042 1291 111.592 1149.25 474.573
20 0 92.0594 15.566 1433 107.071 1149.8 472.687
21 0 94.1169 15.6295 1471 106.757 1149.34 472.017
22 0 94.0466 15.067 1417 108.079 1150.62 471.159
23 0 100.091 15.2062 1522 106.368 1149.86 469.496
24 0 102.091 14.9671 1528 106.167 1150.04 469.885
25 0 105.027 14.482 1521 106.986 1149.21 467.805
26 0 108.072 14.8142 1601 105.878 1149.72 467.475
27 1 56.0718 14.0177 786 107.117 1149.29 490.947
28 0 60.073 13.7832 828 106.339 1149.14 489.402
29 0 63.045 14.45 911 103.51 1149.43 488.102
30 0 64.0573 13.7065 878 105.557 1150.28 487.503
31 0 65.0493 13.9586 908 100.968 1149.51 487.143
32 0 65.0493 13.9586 908 162.508 1148.52 487.128
33 0 73.0932 14.9809 1095 99.0457 1149.58 483.12
34 0 75.0613 14.3616 1078 99.91 1148.5 483.041
35 0 77.0771 14.7774 1139 98.0711 1148.93 482.96
36 0 80.0497 14.3411 1148 98.6176 1148.42 480.639
37 0 82.0502 14.5764 1196 97.638 1148.88 478.298
38 0 86.1451 14.8819 1282 96.0772 1148.64 476.881
39 0 88.1295 14.5695 1284 96.3294 1148.73 473.551
40 0 91.1033 14.489 1320 96.0492 1148.81 473.326
41 0 95.0841 14.5135 1380 95.1116 1149.57 471.573
42 0 100.084 14.3779 1439 94.5976 1149.36 469.994
43 0 102.2 14.0802 1439 93.4656 1148.59 467.893
44 0 107.203 13.8895 1489 92.6582 1149.05 464.077
45 1 58.0716 11.968 695 89.6245 1148.72 490.942
46 0 59.019 12.3858 731 90.4993 1148.77 489.648
47 0 62.0164 12.1097 751 91.0799 1148.22 488.266
48 0 64.0508 13.4737 863 91.3754 1148.88 485.913
49 0 68.0242 12.7161 865 94.7445 1148.24 485.44
50 0 69.0768 13.4488 929 93.8288 1148.84 484.199
51 0 71.067 12.3264 876 95.9635 1149.07 483.664
52 0 75.0194 13.5298 1015 92.9429 1148.91 480.936
53 0 75.0194 13.5165 1014 145.678 1148.91 480.841
54 0 82.0402 13.8103 1133 90.5578 1148.88 478.316
55 0 82.0346 13.348 1095 91.0959 1148.99 476.981
56 0 87.0401 14.0625 1224 88.6356 1148.33 474.631
57 0 89.1378 12.9575 1155 90.6165 1148.34 472.538
58 0 93.0392 13.6394 1269 88.3964 1148.81 472.433
59 0 95.0691 13.1273 1248 88.8413 1147.75 470.707
60 0 98.068 12.7463 1250 90.4192 1148.54 469.358
61 0 103.097 13.3661 1378 88.5602 1148.96 466.906
62 0 104.048 12.5807 1309 90.9198 1148.72 464.713
63 0 109.107 13.0881 1428 89.0833 1148.71 463.146
64 0 111.098 12.8265 1425 90.0709 1149.19 460.691
65 0 117.135 12.9253 1514 89.7351 1148.8 459.678
66 0 121.099 12.4361 1506 88.508 1148.24 458.399
67 0 124.323 12.6203 1569 89.2639 1147.87 454.755
68 1 68.1191 11.5973 790 86.9418 1148.35 482.428
69 0 69.0677 11.8724 820 89.15 1149.17 482.399
70 0 72.1009 12.7738 921 86.7948 1149.57 479.958
71 0 75.0491 12.6717 951 85.387 1149 480.078
72 0 77.0633 12.8596 991 84.9122 1148.94 478.914
73 0 81.0554 13.0528 1058 85.1219 1148.77 477.023
74 0 85.1711 13.2909 1132 83.7023 1149.24 476.148
75 0 87.1742 12.8822 1123 84.1781 1149.27 475.197
76 0 88.0695 13.0692 1151 84.2172 1148.91 474.099
77 0 92.1047 13.6367 1256 83.7365 1148.5 471.036
78 0 94.1052 13.3043 1252 84 1149.29 471.446
79 0 96.0916 13.3727 1285 83.9852 1149.23 468.878
80 0 99.1239 14.0733 1395 80.8093 1149.5 467.486
81 0 103.095 12.9686 1337 85.0374 1149.25 466.154
82 0 105.083 13.2372 1391 84.7735 1149.33 465.119
83 0 110.22 12.8924 1421 85.2745 1148.61 461.704
84 0 113.173 13.3866 1515 84.1597 1149.19 459.844
85 0 118.177 13.4629 1591 84.5412 1149.03 459.388
86 0 122.217 13.2879 1624 84.314 1149.07 456.855
87 0 126.201 13.122 1656 85.4964 1149.31 452.76
88 0 130.233 13.0382 1698 86.5106 1149.81 451.41
89 0 134.221 13.217 1774 88.2373 1149.9 447.574
90 1 76.0561 11.2812 858 80.3065 1149.48 481.649
91 0 80.124 12.256 982 80.2342 1149.23 479.196
92 0 82.1898 12.313 1012 80.3745 1150.46 475.668
93 0 85.0882 12.0698 1027 77.8033 1149.5 477.314
94 0 87.0986 11.9864 1044 80.2375 1149.34 475.952
95 0 88.0582 12.117 1067 81.7694 1149.08 474.396
96 0 92.1099 11.6057 1069 83.5987 1149.27 472.4
97 0 96.0683 12.1164 1164 83.3763 1148.92 472.613
98 0 98.0615 12.7675 1252 83.3666 1149.56 471.081
99 0 100.121 11.9256 1194 86.397 1149.57 468.358
100 0 103.102 12.3955 1278 86.8185 1149.03 468.092
101 0 106.154 12.7644 1355 86.741 1149.43 466.493
102 0 109.202 12.1701 1329 90.3687 1148.56 463.28
103 0 111.16 12.3695 1375 90.4145 1149.08 463.876
104 0 115.249 12.7984 1475 89.7986 1148.72 462.332
105 0 118.168 12.5414 1482 90.7058 1149.14 459.261
106 0 122.097 12.4327 1518 91.5415 1148.42 457.684
107 0 127.116 12.8386 1632 89.815 1148.91 454.92
108 0 131.063 12.4978 1638 90.826 1148.23 452.661
109 0 136.111 12.9379 1761 90.4015 1148.74 450.245
110 0 140.122 12.6961 1779 89.4941 1148.93 447.646
111 0 145.096 13.722 1991 85.5284 1148.24 444.904
112 0 152.183 13.8254 2104 87.624 1148.03 441.521
113 1 83.0709 11.6768 970 85.3206 1148.06 478.81
114 0 86.1333 12.4807 1075 83.6577 1147.93 477.916
115 0 89.1057 12.4347 1108 81.0307 1147.72 475.357
116 0 93.0922 12.7615 1188 90.6448 1147.43 472.569
117 0 96.1037 12.705 1221 90.6847 1147.53 473.283
118 0 100.142 12.5422 1256 88.6369 1148.18 470.409
119 0 102.107 12.624 1289 90.1606 1148.88 467.649
120 0 105.069 12.4775 1311 88.4439 1148.31 466.907
121 0 108.09 12.8689 1391 87.5126 1148.05 466.157
122 0 111.099 12.6824 1409 87.8687 1148.33 463.418
123 0 114.075 11.8519 1352 88.8388 1148.43 462.727
124 0 118.096 12.5915 1487 90.9529 1148.51 460.276
125 0 121.056 12.4487 1507 90.3789 1148.53 457.058
126 0 126.209 12.8675 1624 89.9427 1148.38 456.679
127 0 130.132 12.9484 1685 89.8629 1147.79 454.684
128 0 134.12 13.2493 1777 90.614 1148.82 451.377
129 0 136.122 12.4521 1695 88.823 1148.94 450.478
130 0 142.172 11.894 1691 91.1609 1149.02 449.481
131 0 144.146 12.4873 1800 89.815 1148.14 449.153
132 1 71.0495 11.8931 845 89.4237 1147.96 483.875
133 0 73.0196 12.4898 912 86.9715 1148.27 482.515
134 0 76.0352 12.0865 919 87.9804 1148.47 480.294
135 0 79.0847 12.1262 959 87.8154 1148.99 480.063
136 0 79.0721 12.4696 986 89.1207 1148.69 478.568
137 0 83.047 13.9078 1155 85.9255 1148.54 478.239
138 0 85.0292 12.5486 1067 88.6795 1148.44 478.342
139 0 87.0946 13.0892 1140 90.1921 1148.57 474.176
140 0 93.0753 14.5796 1357 90.3405 1147.18 472.657
141 0 94.1003 13.3687 1258 90.2305 1147.34 473.099
142 0 96.1597 13.2904 1278 91.4671 1147.74 471.531
143 0 97.0998 13.2647 1288 91.5893 1147.3 469.187
144 0 100.099 13.157 1317 91.6112 1147.4 467.419
145 0 102.11 12.8195 1309 93.084 1147.76 465.68
146 0 105.1 12.7117 1336 92.7522 1148.8 463.931
147 0 109.08 13.6047 1484 88.5741 1147.96 462.507
148 0 110.112 13.5589 1493 88.1212 1147.53 459.315
149 0 114.182 13.6011 1553 86.3406 1147.77 452.786
150 0 116.205 12.934 1503 88.6075 1147.4 451.383
151 0 118.175 12.4053 1466 89.6078 1147.75 449.707
152 0 120.13 12.578 1511 86.0781 1147.01 447.889
153 0 126.128 12.6855 1600 85.0662 1147.6 445.122
154 0 132.179 12.1729 1609 85.7303 1147.45 441.94
155 1 74.09 9.97436 739 76.5291 1148.48 476.679
156 0 78.117 11.5212 900 80.1311 1148.86 479.027
157 0 80.0791 11.4512 917 74.6325 1148.45 479.534
158 0 82.0907 11.2924 927 77.3549 1146.82 477.576
159 0 85.0579 12.5091 1064 73.8139 1147.06 477.006
160 0 87.0582 11.521 1003 76.0369 1147.57 474.867
161 0 89.1237 11.6467 1038 75.6493 1146.64 470.904
162 0 92.1214 12.071 1112 73.0989 1146.47 471.114
163 0 96.1461 12.377 1190 73.2563 1146.72 468.766
164 0 100.068 11.6721 1168 73.7628 1146.88 466.874
165 0 102.114 12.6525 1292 72.7841 1146.86 464.814
166 0 105.14 12.4786 1312 72.3476 1147.45 463.072
167 0 110.168 12.2813 1353 73.9172 1146.84 463.118
168 0 111.227 11.8946 1323 74.2041 1147.01 459.655
169 0 114.093 12.2269 1395 76.7821 1147.22 457.379
170 0 118.133 12.4097 1466 84.7176 1146.93 454.037
171 0 121.172 12.3378 1495 83.3151 1146.91 452.642
172 0 127.13 12.208 1552 82.6263 1146.58 450.947
173 0 129.227 12.3194 1592 80.3442 1146.89 446.149
174 0 134.169 11.7389 1575 80.294 1146.83 443.851
175 0 138.212 11.7139 1619 79.6745 1147.09 442.017
176 1 75.0606 9.29915 698 75.7163 1147.56 477.67
177 0 80.1067 10.8355 868 73.1578 1147.68 476.271
178 0 82.0346 11.4952 943 72.5949 1146.61 475.634
179 0 85.0815 12.2236 1040 70.1413 1147.78 475.03
180 0 86.0546 12.1434 1045 70.8612 1147.97 473.188
181 0 82.0749 10.6488 874 68.0332 1147.24 475.035
182 0 87.1347 10.6731 930 67.9409 1146.97 474.974
183 0 89.112 10.7056 954 68.8805 1147.63 474.213
184 0 91.1128 11.3486 1034 68.4749 1148.66 471.285
185 0 93.0982 11.1495 1038 69.4056 1147.19 469.273
186 0 95.0844 10.9061 1037 69.9171 1148.07 468.769
187 0 101.124 11.5502 1168 70.155 1147.71 467.698
188 0 100.162 10.9922 1101 71.9491 1147.44 465.213
189 0 103.17 10.8849 1123 70.6732 1147.91 462.556
190 0 104.13 10.8422 1129 70.7024 1148.09 458.855
191 0 109.223 11.3895 1244 69.1551 1148.31 457.145
192 0 109.223 11.3529 1240 139.696 1148.31 457.002
193 0 114.194 10.491 1198 70.5576 1147.58 453.345
194 0 121.189 11.0406 1338 68.9925 1147.3 455.678
195 1 70.0799 10.7021 750 66.352 1147.37 482.224
196 0 72.056 11.6021 836 60.7093 1146.43 480.392
197 0 73.05 11.2799 824 58.3896 1146.01 480.125
198 0 70.0841 9.7169 681 60.0044 1146.85 483.765
199 0 72.0711 10.1844 734 60.346 1146.54 480.672
200 0 76.153 10.1506 773 58.3014 1146.16 484.373
201 0 75.1538 9.38077 705 60.7433 1146.93 480.264
202 0 77.0441 9.96832 768 76.2292 1147.4 479.833
203 0 82.0765 11.8792 975 72.7395 1146.19 476.478
204 0 84.1277 11.6965 984 72.2551 1146.58 476.651
205 0 88.0912 11.7265 1033 71.8596 1146.33 476.554
206 0 87.1512 11.394 993 73.9174 1146.95 475.468
207 0 90.0895 11.8993 1072 73.7528 1146.08 474.619
208 0 94.178 11.903 1121 74.4987 1146.52 472.752
209 0 95.072 11.6333 1106 75.3137 1146.65 471.227
210 0 99.1555 12.0215 1192 74.7609 1146.99 468.227
211 0 103.179 12.3863 1278 74.5579 1146.83 467.485
212 0 104.117 11.9097 1240 77.0282 1146.27 466.421
213 0 106.209 12.1835 1294 76.0371 1146.69 463.151
214 0 110.076 12.1644 1339 74.938 1146.49 463.15
215 0 113.093 12.0343 1361 73.7627 1146.48 460.377
216 1 56.057 10.8283 607 78.2998 1146.11 489.267
217 0 60.0464 11.4578 688 77.939 1147.7 487.94
218 0 61.0453 12.1549 742 77.155 1147.31 486.07
219 0 63.0878 12.3796 781 77.6287 1146.37 487.362
220 0 65.0824 11.8619 772 79.7332 1145.79 485.786
221 0 67.0506 12.4682 836 79.7452 1145.96 484.523
222 0 67.1703 12.5949 846 81.3995 1145.82 483.738
223 0 70.1249 12.4635 874 82.7906 1146.49 481.413
224 0 72.1962 12.563 907 84.0948 1146.71 480.338
225 0 76.1243 13.4648 1025 84.1854 1146.08 480.44
226 0 78.1166 12.9806 1014 86.0976 1145.98 479.144
227 0 80.0482 12.9672 1038 86.7091 1146.34 478.339
228 0 82.1579 13.608 1118 89.8041 1146.79 476.442
229 0 85.2221 13.8344 1179 89.7243 1146.79 476.038
230 0 86.1354 13.7342 1183 91.738 1146.07 475.134
231 0 90.1121 14.6817 1323 89.2011 1146.31 474.754
232 0 91.098 14.7753 1346 89.8224 1147.09 473.767
233 0 94.1352 13.8843 1307 91.9174 1146.78 472.68
234 0 96.1344 14.1781 1363 91.1497 1146.25 470.034
235 0 100.126 14.312 1433 92.1521 1146.57 469.909
236 0 102.165 14.7408 1506 91.3645 1146.47 470.236
237 0 105.156 14.4261 1517 90.0046 1146.28 467.121
238 0 107.206 14.5141 1556 91.9312 1146.33 466.224
239 0 111.338 14.2718 1589 91.759 1147.13 463.213
240 1 58.3054 12.0229 701 91.4722 1147.13 488.786
241 0 60.2477 12.5316 755 91.0848 1147.55 486.363
242 0 62.2379 12.7414 793 90.2182 1146.13 483.107
243 0 64.0788 12.9684 831 84.3911 1145.67 487.933
244 0 65.0823 13.7826 897 84.2531 1145.23 487.182
245 0 67.0696 13.5978 912 85.5274 1145.4 486.593
246 0 70.0795 13.4419 942 86.0499 1145.61 485.304
247 0 72.0468 13.866 999 84.8498 1145.47 485.324
248 0 73.071 13.7264 1003 88.5623 1145.48 484.419
249 0 74.0686 13.636 1010 89.7267 1145.68 484.027
250 0 77.1228 13.7832 1063 87.539 1146.27 483.299
251 0 80.1199 13.1178 1051 87.8677 1146.67 481.975
252 0 82.0824 13.6326 1119 88.5514 1146.23 478.669
253 0 86.1142 14.0163 1207 87.3985 1146.96 476.527
254 0 88.2071 13.6384 1203 86.68 1146.73 474.839
255 0 90.1681 13.3972 1208 84.9296 1146.04 471.711
256 0 90.1012 12.3306 1111 88.0405 1146.33 469.873
257 1 44.006 10.2259 450 83.6711 1145.43 492.151
258 0 43.0251 9.90119 426 83.1362 1145.63 488.836
259 0 48.0255 11.0566 531 82.5405 1145.43 490.284
260 0 49.0715 11.6157 570 75.4404 1146.58 494.063
261 0 50.078 11.5819 580 73.8724 1147.23 493.205
262 0 52.1134 11.6669 608 72.7796 1146.7 492.832
263 0 53.061 11.2135 595 73.5563 1147.56 492.113
264 0 53.0652 11.4387 607 73.285 1147.44 491.234
265 0 55.055 10.7892 594 73.7795 1147.87 491.158
266 0 56.1021 10.3918 583 75.4906 1148.04 489.516
267 0 59.1051 12.0294 711 73.8298 1147.4 488.411
268 0 60.0446 10.3923 624 79.7885 1147.19 487.78
269 0 62.1022 11.159 693 78.9639 1147.18 488.162
270 0 64.0321 11.8222 757 78.3157 1147.29 487.161
271 0 67.0179 11.9371 800 79.09 1147.05 485.629
272 0 71.0714 13.198 938 77.7548 1147.12 481.878
273 0 69.0321 12.1538 839 81.7402 1147.41 483.292
274 0 73.1002 11.4364 836 83.4533 1148.15 481.694
275 0 77.0699 12.2097 941 83.3974 1146.94 479.04
276 0 77.084 11.0788 854 87.5749 1145.97 480.255
277 0 81.0507 12.8685 1043 85.9875 1146.77 478.485
278 0 83.041 12.1747 1011 87.8249 1147.24 477.45
279 0 85.0597 12.0504 1025 91.5698 1146.85 476.139
280 0 89.0252 12.1426 1081 90.9917 1146.87 475.031
281 0 91.0851 12.7573 1162 92.7926 1146.48 471.857
282 0 92.0526 12.0909 1113 93.0449 1146.6 471.739
283 1 50.0589 10.8472 543 92.8361 1147.21 494.208
284 0 51.054 11.4781 586 94.442 1146.7 492.481
285 0 52.0288 11.5705 602 92.7043 1146.56 492.085
286 0 54.0476 11.4899 621 91.2673 1147.42 490.357
287 0 54.0781 12.3895 670 88.6388 1146.17 491.787
288 0 56.0896 11.7312 658 90.2067 1146.42 490.579
289 0 59.057 12.6149 745 87.8161 1146.2 488.773
290 0 60.0757 11.3024 679 92.489 1145.93 487.588
291 0 59.0407 11.6869 690 92.2493 1145.09 487.158
292 0 63.0518 12.1963 769 90.0572 1145.72 486.758
293 0 65.0259 12.472 811 88.9778 1145.31 486.321
294 0 68.0469 13.1674 896 88.7143 1145.38 484.874
295 0 68.0561 12.2399 833 92.8355 1145 485.486
296 0 71.059 12.6374 898 91.4098 1145.61 484.585
297 0 73.0513 12.3475 902 90.4789 1146.63 483.725
298 0 76.0734 12.3171 937 89.4376 1145.85 483.917
299 0 79.2052 12.1709 964 88.7241 1145.76 482.364
300 0 80.138 13.3145 1067 87.1012 1144.98 480.402
301 0 82.0956 12.388 1017 90.4415 1145.26 480.25
302 0 83.0376 11.8019 980 92.1888 1144.76 477.873
303 0 89.0712 12.5967 1122 90.2184 1145.78 477.016
304 1 50.0484 11.8286 592 92.8057 1145.18 494.632
305 0 52.0795 11.4056 594 86.2222 1146.26 494.224
306 0 52.0453 11.6245 605 86.7636 1147.12 493.81
307 0 54.0716 12.2615 663 81.6968 1146.56 493.566
308 0 55.0424 12.7538 702 81.3148 1146.51 492.345
309 0 57.0554 11.8131 674 83.77 1146.41 492.804
310 0 58.0399 12.6465 734 82.4578 1146.52 492.704
311 0 60.0604 12.0545 724 84.7279 1146.18 491.652
312 0 62.0285 13.0263 808 82.646 1146.25 490.533
313 0 64.0269 12.4947 800 87.3363 1146.59 489.352
314 0 66.0339 12.857 849 87.6196 1146.6 488.213
315 0 68.0724 12.5455 854 89.7272 1146.86 487.819
316 0 70.0991 12.7391 893 89.0761 1146.8 486.729
317 0 72.0742 12.2929 886 89.7314 1146.76 485.588
318 0 76.1215 12.4669 949 86.6965 1145.72 484.413
319 0 77.0445 12.3305 950 89.1758 1146.57 484.239
320 0 80.1125 13.3937 1073 87.3038 1146.61 482.64
321 0 84.1652 12.9982 1094 87.2678 1146.17 481.591
322 0 86.063 13.1299 1130 88.5168 1145.83 480.284
323 1 44.0152 11.2234 494 94.0162 1146.43 501.65
324 0 44.0891 10.8417 478 94.6799 1146.5 500.891
325 0 46.0318 12.0569 555 92.0342 1146.49 501.532
326 0 49.0477 12.0495 591 91.4281 1144.95 500.002
327 0 48.0796 11.7513 565 83.492 1144.82 500.814
328 0 47.0226 11.4413 538 85.1859 1144.36 500.498
329 0 49.0518 11.4573 562 81.8843 1145.23 499.738
330 0 52.1269 11.9132 621 80.5781 1145.34 499.515
331 0 51.1068 12.0336 615 82.1057 1144.95 498.753
332 0 53.0741 12.0021 637 82.5542 1144.21 496.606
333 0 55.0334 11.6656 642 82.9299 1144.98 496.511
334 0 56.0426 12.4191 696 80.9181 1144.89 495.655
335 0 57.0268 11.591 661 83.3011 1144.64 494.49
336 0 62.0591 12.5042 776 80.1843 1144.28 492.943
337 0 61.0716 11.8222 722 82.5568 1144.61 492.194
338 0 64.0347 12.6025 807 80.7745 1144.07 491.058
339 0 66.1054 12.8129 847 80.4073 1143.53 490.604
340 0 67.0722 12.6878 851 81.2855 1143.29 490.139
341 0 68.0475 12.2267 832 81.405 1143.86 490.393
342 0 72.0486 12.6165 909 78.923 1143.56 487.875
343 0 73.0299 12.8304 937 79.0459 1142.79 486.658
344 0 75.0461 12.6989 953 79.3715 1142.5 487.468
345 0 78.0423 12.0832 943 80.8335 1142.86 483.873
346 0 79.0338 13.0957 1035 79.6019 1143.11 482.836
347 0 81.1466 11.6702 947 82.6167 1142.89 483.067
348 0 84.0721 12.6796 1066 81.5272 1142.2 482.886
349 0 86.0709 12.7569 1098 82.5592 1142.97 481.762
350 0 88.032 12.1547 1070 83.7692 1142.79 481.157
351 1 48.0456 10.5941 509 82.1041 1143.09 501.607
352 0 48.0114 11.1848 537 80.6015 1142.8 500.866
353 0 51.2039 12.5576 643 79.7589 1141.5 495.129
354 0 52.0111 12.3051 640 79.3875 1143.39 498.248
355 0 52.014 12.2659 638 126.875 1144.38 498.317
356 0 57.0107 12.4889 712 79.4171 1142.47 497.723
357 0 57.0432 12.9551 739 79.5656 1142.64 496.847
358 0 60.0577 12.4047 745 81.506 1142.57 494.899
359 0 62.0963 12.3518 767 82.3638 1143.01 493.643
360 0 62.0429 12.8943 800 83.71 1143.32 491.739
361 0 65.0863 12.9981 846 83.2778 1143.33 492.637
362 0 68.0581 13.1652 896 82.3527 1143.2 491.001
363 0 69.0838 12.7961 884 83.9661 1143.57 489.725
364 0 69.0838 12.8684 889 132.753 1144.58 489.664
365 0 73.0675 13.6586 998 84.7956 1142.91 489.38
366 0 76.0521 13.0568 993 87.0524 1143.15 488.15
367 0 79.1309 13.6104 1077 87.0984 1143.54 487.622
368 0 80.0674 13.7384 1100 88.6364 1143.74 484.527
369 0 82.0806 12.9019 1059 91.9821 1144.05 485.039
370 0 85.1024 12.9374 1101 91.7584 1143.48 482.142
371 0 88.1421 12.7181 1121 90.8573 1143.35 480.519
372 0 91.0922 13.0966 1193 90.119 1144.29 480.905
373 1 48.0327 11.7628 565 92.5858 1143.57 501.998
374 0 48.0516 11.342 545 97.3119 1143.17 500.672
375 0 51.1151 12.6382 646 92.7508 1144.26 497.964
376 0 50.0249 12.094 605 89.1223 1144.63 499.615
377 0 51.0362 11.7368 599 89.4925 1144.98 499.84
378 0 52.0137 11.5931 603 89.7081 1144.25 499.942
379 0 53.0674 11.4006 605 89.876 1144.97 498.779
380 0 56.048 11.6864 655 88.7282 1145.08 496.464
381 0 58.0205 12.2198 709 86.7941 1144.9 496.075
382 0 60.0164 11.6301 698 88.0272 1145 494.536
383 0 63.0441 11.5633 729 88.0316 1145.01 493.472
384 0 65.0665 12.4334 809 86.204 1145 491.425
385 0 66.0411 11.7654 777 87.408 1144.79 490.672
386 0 67.1254 11.486 771 88.9416 1145.03 489.556
387 0 73.1095 11.8863 869 86.6812 1145.58 486.96
388 0 73.1219 12.445 910 86.456 1145.72 486.5
389 0 75.0539 12.1779 914 87.3053 1145.32 484.123
390 0 79.0899 12.4163 982 87.0937 1146.03 482.636
391 0 81.102 13.1809 1069 84.8793 1145.07 480.696
392 0 85.0569 12.7914 1088 85.5763 1145.18 480.21
393 0 86.1132 12.5184 1078 86.9694 1145.29 478.818
394 0 90.0749 13.2001 1189 85.8251 1145.02 477.154
395 0 92.1353 13.3608 1231 85.9984 1144.97 475.791
396 0 96.0953 12.5917 1210 89.1876 1145.12 474.736
397 0 97.1021 12.5229 1216 89.5666 1145.21 471.942
398 0 101.168 12.5335 1268 89.0213 1145.19 470.595
399 0 104.079 12.5866 1310 89.0504 1145.2 469.702
400 1 52.0496 11.3738 592 88.9189 1144.94 494.672
401 0 54.0341 11.0301 596 89.9547 1145.18 492.567
402 0 56.0618 11.5408 647 89.1839 1146.01 492.216
403 0 58.0627 12.0215 698 86.5989 1146.23 490.789
404 0 60.043 11.5084 691 92.2156 1146.38 487.463
405 0 63.1027 12.3291 778 82.1992 1145.83 489.63
406 0 63.0568 11.6403 734 85.2725 1145.57 488.872
407 0 65.0517 12.2518 797 82.8457 1145.53 489.652
408 0 69.0892 12.1003 836 82.6124 1145.43 488.566
409 0 72.051 11.936 860 82.0395 1145.49 487.374
410 0 72.05 11.95 861 130.506 1146.5 487.377
411 0 76.1348 12.1758 927 82.1963 1147 485.463
412 0 78.0802 12.1029 945 83.2984 1146.2 482.655
413 0 81.0774 12.2599 994 74.1801 1145.28 478.121
414 0 81.0351 10.4769 849 76.8587 1145.35 478.542
415 0 86.0795 11.7101 1008 74.0774 1144.89 477.376
416 0 86.0553 10.563 909 77.1001 1144.84 474.901
417 0 91.0553 11.9488 1088 76.9228 1145.42 471.896
418 0 92.0739 11.0455 1017 78.6686 1144.75 470.381
419 0 97.0607 11.9204 1157 77.0847 1145.37 470.073
420 0 99.0604 11.5081 1140 77.7184 1145.39 468.538
421 0 104.079 12.8364 1336 79.6198 1145.93 470.507
422 0 107.078 12.5142 1340 80.2224 1144.13 467.125
423 0 110.177 10.946 1206 79.9295 1144.47 464.581
424 0 115.123 12.0567 1388 79.804 1144.63 460.787
425 0 119.057 11.8935 1416 80.0798 1144.7 460.181
426 1 64.0663 11.6442 746 83.256 1145.14 488.944
427 0 67.1172 11.5321 774 76.9535 1144.97 487.503
428 0 70.1087 12.4806 875 76.3909 1145.28 485.839
429 0 67.1002 10.6408 714 81.4426 1145.11 486.43
430 0 71.0738 11.1856 795 80.3296 1145.62 486.195
431 0 73.1232 10.2703 751 82.1491 1145.17 485.278
432 0 78.0546 11.6457 909 79.9274 1145.12 481.328
433 0 80.0836 11.6503 933 80.4062 1145.19 482.329
434 0 84.0621 12.0506 1013 79.0563 1145.63 481.341
435 0 86.0786 12.1749 1048 79.2643 1145.57 481.153
436 0 90.1995 12.7384 1149 78.879 1145.22 478.632
437 0 90.0534 11.793 1062 81.1328 1145.37 476.383
438 0 95.1527 11.7495 1118 80.9535 1145.53 476.097
439 0 97.2026 11.6766 1135 82.7172 1145.7 473.701
440 0 101.131 12.7064 1285 80.8467 1145.08 472.911
441 0 104.158 12.5482 1307 83.5754 1145.9 469.259
442 1 55.0644 11.4412 630 80.3317 1145.32 493.184
443 0 58.1115 11.5468 671 82.921 1144.87 492.335
444 0 58.1457 12.1935 709 82.5261 1145.19 489.551
445 0 59.0692 10.9194 645 77.0186 1145.17 491.023
446 0 62.0604 12.7618 792 71.8295 1145.26 490.211
447 0 63.0644 12.1463 766 72.8773 1144.76 488.561
448 0 63.1426 11.4661 724 74.6796 1145.91 489.558
449 0 67.1047 11.8472 795 75.7484 1144.99 488.453
450 0 69.04 12.3551 853 73.6928 1145.61 487.624
451 0 70.0806 12.2288 857 75 1144.9 486.19
452 0 74.0903 12.3498 915 74.5333 1144.71 484.079
453 0 74.0555 11.748 870 75.8782 1144.96 484.654
454 0 77.0381 11.9681 922 76.7918 1145.66 481.741
455 0 80.0651 12.2026 977 76.0757 1145.19 480.48
456 0 82.0324 12.617 1035 75.5488 1145.98 480.417
457 0 85.0809 12.2707 1044 77.9885 1145.65 478.174
458 0 86.0514 12.202 1050 79.0438 1145.93 475.571
459 0 88.074 12.4554 1097 79.2361 1145.26 475.164
460 0 92.0896 12.7919 1178 80.0789 1145.78 473.803
461 0 92.0692 11.8281 1089 83.9008 1146.03 473.079
462 0 96.079 12.3024 1182 84.2555 1145.51 471.455
463 0 99.0948 12.1399 1203 85.6176 1145.7 469.465
464 0 99.0843 12.2118 1210 134.598 1146.7 469.474
465 0 106.148 12.8217 1361 89.4629 1145.98 465.832
466 0 110.072 12.9006 1420 87.6824 1145.78 463.319
467 0 112.104 13.2734 1488 86.3401 1145.66 463.606
468 0 116.185 13.401 1557 87.7392 1146.05 461.478
469 1 63.0742 10.7175 676 84.3373 1145.87 488.988
470 0 65.0677 11.2344 731 84.0465 1144.48 487.646
471 0 66.0476 11.6734 771 85.5681 1143.48 486
472 0 71.0452 12.6258 897 82.5173 1143.9 485.099
473 0 72.1485 12.5852 908 86.435 1145.31 483.523
474 0 73.1064 13.0495 954 85.9937 1144.74 483.155
475 0 76.1905 12.5081 953 86.3987 1144.25 481.018
476 0 79.1152 12.703 1005 82.2975 1144.09 479.788
477 0 82.1823 13.4944 1109 82.1335 1143.95 478.362
478 0 82.1667 12.645 1039 84.4321 1144.3 477.372
479 0 87.1613 12.9301 1127 82.1083 1144.66 475.403
480 0 90.1203 11.8175 1065 79.5878 1144.14 475.003
481 0 93.1232 11.7264 1092 76.8388 1144.15 474.613
482 0 92.0902 9.78389 901 76.9556 1144.68 469.77
483 0 95.111 9.63085 916 76.0611 1144.42 469.397
484 0 98.142 9.64928 947 77.7941 1144.44 469.132
485 1 52.0502 9.70217 505 67.7941 1144.7 493.962
486 0 55.1019 10.5078 579 68.6857 1145.05 491.815
487 0 56.069 10.7011 600 66.12 1145.34 490.245
488 0 58.0901 10.9141 634 65.8927 1144.77 491.196
489 0 60.013 11.4309 686 65.0802 1143.39 489.622
490 0 62.0734 10.987 682 65.1672 1143.78 489.104
491 0 63.0499 10.0079 631 65.4628 1144.49 488.571
492 0 65.0531 11.3138 736 62.3682 1143.83 487.393
493 0 66.0668 10.9283 722 63.4931 1144.59 486.953
494 0 68.1253 10.833 738 63.7832 1145.09 485.518
495 0 70.0361 10.6374 745 63.6523 1145.59 483.585
496 0 74.074 10.746 796 63.5075 1145.57 482.668
497 0 79.1192 12.0198 951 72.8107 1145.92 480.251
498 0 81.0603 11.0042 892 75.287 1145.42 479.652
499 0 83.1171 11.0567 919 75.5887 1145.43 478.509
500 0 88.1157 11.292 995 74.202 1144.77 477.121
501 0 90.1557 10.7924 973 74.5817 1145.58 474.41
502 1 49.1082 9.61142 472 69.0996 1145.03 497.714
503 0 49.0331 9.64655 473 67.3214 1145.44 497.524
504 0 51.0123 10.6249 542 62.786 1144.56 495.799
505 0 54.1008 10.8132 585 62.506 1143.72 494.472
506 0 56.0858 10.4126 584 63.5736 1143.93 494.322
507 0 55.0609 11.0242 607 64.4629 1143.48 492.675
508 0 59.1404 11.7348 694 62.4654 1142.62 491.514
509 0 61.0566 11.8251 722 63.054 1143.34 489.575
510 0 61.0566 11.8906 726 108.713 1144.34 489.595
511 0 65.1393 10.9918 716 65.25 1142.53 489.642
512 0 67.1458 11.274 757 64.3699 1143.16 488.082
513 0 70.1424 11.7475 824 63.3823 1142.84 487.763
514 0 70.1174 11.6234 815 64.1816 1143.01 488.708
515 0 73.1276 11.8286 865 63.2971 1143.11 485.935
516 0 76.079 11.9875 912 63.4956 1142.48 483.446
517 0 75.1056 10.0791 757 67.7622 1142.29 485.789
518 0 78.1132 10.9585 856 67.5058 1142.55 485.174
519 0 85.1019 11.5626 984 65.4614 1142.73 480.904
520 1 42.0157 10.9483 460 70.4304 1142.78 502.659
521 0 43.0476 10.5 452 74.042 1142.15 502.511
522 0 42.0788 11.0507 465 73.3376 1142.77 503.252
523 0 39.0199 9.43109 368 73.125 1142.98 505.462
524 0 43.0964 9.65278 416 72.9808 1142.59 503.596
525 0 44.0826 10.2988 454 70.6167 1142.36 503.643
526 0 47.0425 11.4577 539 69.692 1142.44 502.082
527 0 47.0482 10.9887 517 71.6576 1143.19 500.658
528 0 49.077 10.9012 535 72.6131 1142.81 500.168
529 0 51.0507 11.0087 562 72.8523 1142.16 500.802
530 0 50.1298 10.1935 511 75.3699 1142.03 500.918
531 0 54.0478 10.3057 557 74.7738 1142.36 500.077
532 0 54.0406 11.2878 610 74.4803 1142.3 499.559
533 0 58.0822 11.346 659 72.2352 1141.51 499.983
534 0 59.0655 10.6323 628 73.5971 1142.16 496.775
535 0 61.0498 11.7936 720 70.9931 1141.87 497.365
536 0 63.0436 11.6269 733 71.3724 1142.8 495.183
537 0 64.0696 12.0338 771 70.6355 1142.08 494.687
538 0 68.0318 11.524 784 70.7283 1142.77 494.538
539 0 69.0379 11.3706 785 72.8904 1142.41 493.706
540 0 72.0526 11.2695 812 73.6293 1142.63 491.913
541 0 72.0307 10.9676 790 74.6342 1142.28 490.618
542 0 72.0307 10.9398 788 138.648 1142.27 490.739
543 0 79.0449 11.6769 923 75.0488 1142.69 486.675
544 0 84.0605 12.6932 1067 70.7273 1141.95 485.384
545 1 41.0102 10.9729 450 72.1511 1142.5 506.738
546 0 44.0156 10.9507 482 71.2137 1142.22 506.73
547 0 45.018 10.7735 485 72.2577 1141.8 505.468
548 0 47.0768 12.1079 570 70.3561 1143.05 503.881
549 0 46.0234 11.668 537 71.2812 1143.46 504.069
550 0 48.0364 11.9284 573 71.63 1143.27 503.099
551 0 47.0131 10.2312 481 76.526 1143.62 504.15
552 0 47.0217 11.08 521 75.2322 1142.98 505.522
553 0 48.0835 10.4402 502 77.2928 1143.11 503.004
554 0 51.0369 11.188 571 74.4378 1143.28 504.012
555 0 52.046 10.9903 572 75.7972 1142.74 502.538
556 0 53.1962 11.3542 604 76.1258 1142.2 501.748
557 0 55.1645 11.1122 613 76.2904 1142.44 501.222
558 0 56.0764 10.985 616 77.4529 1142.1 500.516
559 0 58.0443 11.0261 640 79.6391 1142.68 499.245
560 0 63.0461 11.8802 749 76.9546 1142.26 499.356
561 0 62.0776 11.4212 709 81.7264 1143.13 496.21
562 0 64.0479 11.6475 746 80.4638 1142.71 496.702
563 0 66.063 11.2014 740 82.8459 1142.51 496.599
564 0 69.0706 11.7995 815 82.3362 1142.78 494.177
565 0 71.134 12.3148 876 83.8071 1142.55 493.937
566 0 72.057 12.1154 873 87.7721 1142.42 491.995
567 0 76.0441 12.6242 960 86.9469 1142.02 491.421
568 0 77.0529 11.9398 920 88.8848 1142.63 490.187
569 0 80.064 12.0903 968 90.0537 1142.15 490.377
570 0 82.0689 12.7332 1045 89.1732 1142.01 487.924
571 0 85.0785 12.9292 1100 88.7191 1141.94 487.167
572 0 88.1665 13.293 1172 87.4181 1142.02 486.877
573 0 90.1374 12.6585 1141 89.3322 1142.02 485.414
574 0 93.0587 13.2819 1236 88.6036 1141.73 483.65
575 0 94.1385 12.3435 1162 91.8907 1142.25 483.049
576 0 96.0367 12.9742 1246 90.1067 1142.67 481.157
577 0 101.152 13.2178 1337 89.6141 1142.51 480.271
578 0 104.065 13.2417 1378 91.0392 1142.18 478.745
579 0 105.262 13.1767 1387 92.5926 1142.37 476.572
580 1 56.0814 11.1445 625 91.2992 1142.85 503.008
581 0 56.0814 11.198 628 153.992 1142.82 502.952
582 0 61.0597 11.5624 706 90.6686 1142.43 498.152
583 0 63.0505 11.4829 724 80.5359 1142.56 494.691
584 0 67.0718 12.5239 840 85.6833 1141.59 495.218
585 0 69.0833 12.912 892 85.6345 1142.48 494.417
586 0 72.1045 12.2184 881 84.4631 1142.58 493.26
587 0 73.0456 12.855 939 83.459 1142.25 493.098
588 0 76.1436 13.5008 1028 81.4825 1142.43 491.269
589 0 77.0788 12.5715 969 85.5005 1142.14 490.546
590 0 79.0499 11.9671 946 83.3541 1142.32 487.545
591 0 81.116 12.0568 978 83.6605 1142.34 487.225
592 0 84.0542 12.3611 1039 83.7045 1141.88 484.835
593 0 86.0944 12.0914 1041 85.3093 1141.82 485.095
594 0 88.1202 12.1879 1074 86.6331 1142.41 483.5
595 0 93.1027 12.642 1177 88.548 1141.15 481.288
596 0 94.1733 13.0186 1226 88.5759 1141.92 480.475
597 0 98.2078 13.4409 1320 86.2864 1141.78 480.33
598 0 101.156 13.059 1321 87.1688 1141.75 476.925
599 0 105.311 13.5599 1428 87.7332 1141.85 476.667
600 0 108.249 13.5891 1471 87.9463 1141.6 475.06
601 0 110.18 12.3798 1364 91.5103 1141.65 474.723
602 0 112.2 13.0838 1468 92.2943 1142.33 473.187
603 0 116.212 13.6474 1586 92.8562 1142.09 471.551
604 0 120.219 13.1011 1575 93.4463 1142.07 469.441
605 0 125.211 13.7847 1726 94.9322 1141.6 466.478
606 0 131.17 14.2487 1869 94.8277 1142.06 463.411
607 1 71.1782 12.7989 911 98.3622 1142.31 492.88
608 0 74.0606 12.6923 940 103.491 1142.11 490.312
609 0 76.2073 13.0565 995 92.7106 1141.38 491.396
610 0 79.137 13.2934 1052 90.7357 1142.46 491.455
611 0 80.1202 13.0055 1042 92.9539 1142.12 490.119
612 0 83.1201 12.9812 1079 93.3114 1142.07 488.972
613 0 88.166 13.7695 1214 92.5783 1142.14 486.97
614 0 89.0647 13.6979 1220 94.5844 1141.63 484.498
615 0 91.0841 13.2295 1205 97.4008 1142.36 482.798
616 0 94.1743 13.4644 1268 97.6364 1141.98 481.189
617 0 96.1268 13.0869 1258 100.119 1142.37 480.389
618 0 103.161 13.1832 1360 113.121 1141.78 477.823
619 0 104.237 13.028 1358 113.454 1141.28 476.478
620 0 107.196 12.6777 1359 114.804 1141.66 473.89
621 0 112.167 13.1947 1480 109.011 1141.75 470.836
622 0 117.246 13.1007 1536 106.385 1141.52 469.144
623 0 121.334 13.4257 1629 103.778 1141.91 468.983
624 1 62.2312 11.3609 707 99.9745 1140.69 496.245
625 0 65.2402 12.4923 815 97.6748 1141.08 491.377
626 0 68.1923 12.6114 860 98.6163 1141.26 490.895
627 0 67.1713 12.952 870 102.698 1141.46 489.168
628 0 73.0926 13.5445 990 97.4919 1140.29 490.982
629 0 75.1893 13.2865 999 99.6557 1140.8 488.531
630 0 77.1074 13.773 1062 103.254 1141.25 487.14
631 0 80.173 13.6081 1091 104.025 1141.07 486.728
632 0 83.1764 13.6697 1137 102.154 1141.15 486.308
633 0 86.1207 13.1676 1134 103.474 1142.17 483.378
634 0 89.1649 13.2788 1184 103.444 1141.83 481.177
635 0 90.1055 12.7739 1151 105.946 1142.16 479.734
636 0 95.1123 12.7113 1209 105.311 1142.23 478.044
637 0 98.1231 12.4232 1219 104.818 1142.8 476.97
638 0 99.1785 12.3817 1228 105.406 1141.81 474.458
639 1 51.0311 10.6994 546 101.945 1142.26 499.262
640 0 53.0702 11.4565 608 89.7385 1142.82 497.597
641 0 53.0577 11.4592 608 91.1727 1142.88 496.669
642 0 56.0156 12.443 697 89.1392 1143.58 497.303
643 0 58.0114 12.2907 713 88.6494 1142.89 497.189
644 0 60.0779 12.4505 748 86.6725 1142.25 495.124
645 0 61.0717 12.3625 755 87.2636 1142.42 493.923
646 0 62.0762 11.5986 720 89.1472 1142.55 492.272
647 0 64.0383 12.3676 792 85.6881 1142.45 490.885
648 0 65.1138 11.9176 776 87.7423 1142.35 490.683
649 0 66.0871 12.5441 829 86.8058 1143.37 490.345
650 0 69.0607 12.0763 834 87.9113 1142.34 488.219
651 0 71.085 12.3092 875 87.4023 1142.44 486.518
652 0 74.0834 12.135 899 87.4494 1142.16 485.848
653 0 74.1341 12.5853 933 87.0375 1142.68 484.509
654 0 78.028 12.2905 959 88.6152 1142.58 482.784
655 0 79.1275 12.701 1005 88.6766 1142.94 483.71
656 0 83.0693 12.5317 1041 87.9059 1143.31 483.148
657 0 84.0632 12.907 1085 87.8682 1143.54 481.063
658 0 85.026 12.3492 1050 90.041 1142.88 482.248
659 0 87.0498 11.9587 1041 89.9789 1143.4 481.942
660 0 87.0498 11.9931 1044 138.606 1143.4 481.928
661 0 92.038 12.56 1156 90.904 1143.69 478.085
662 0 94.0293 11.8367 1113 94.2776 1143.81 476.886
663 0 97.0948 12.7504 1238 92.1074 1143.31 476.086
664 0 98.0772 12.2047 1197 93.6199 1143.88 474.449
665 0 102.076 12.3536 1261 93.7645 1144.16 471.483
666 0 107.08 12.7102 1361 92.662 1144.06 468.564
667 0 109.153 12.7069 1387 94.1255 1144.09 468.469
668 0 112.094 12.6769 1421 93.8966 1144.87 467.041
669 0 117.104 13.3898 1568 92.4445 1143.96 464.165
670 0 121.057 12.9195 1564 94.2417 1144.6 462.285
671 0 125.117 13.4833 1687 94.9538 1144.19 460.515
672 0 129.191 13.4762 1741 96.2165 1144.26 458.717
673 0 134.082 13.9094 1865 94.4799 1144.11 456.155
674 0 137.152 14.0793 1931 95.4671 1143.92 453.901
675 0 141.08 13.6519 1926 95.2108 1143.54 452.558
676 0 145.111 13.0521 1894 98.1426 1144.4 449.14
677 1 82.0361 11.7631 965 94.0155 1144.47 482.61
678 0 84.0644 11.8719 998 95.1794 1144.04 482.196
679 0 86.0875 13.4166 1155 92.1576 1143.07 478.622
680 0 90.077 13.111 1181 90.4496 1141.96 477.058
681 0 94.1181 13.1218 1235 89.0364 1142.73 476.743
682 0 97.0909 13.8736 1347 86.4477 1142.56 476.081
683 0 100.113 13.1651 1318 86.8407 1143.24 473.494
684 0 100.09 12.1591 1217 87.2646 1143.66 473.458
685 0 105.185 11.8553 1247 86.1427 1143.96 473.581
686 0 108.123 12.1899 1318 86.1472 1144.78 471.7
687 0 112.193 12.2735 1377 85.9332 1144.99 468.806
688 0 117.068 12.7704 1495 83.7211 1144.13 468.32
689 0 120.236 12.9662 1559 84.2046 1144.1 466.144
690 0 124.147 12.6383 1569 85.5685 1143.79 463.194
691 0 129.144 12.8461 1659 87.6793 1144.2 461.244
692 0 132.164 12.5526 1659 88.8734 1144.2 458.987
693 0 138.128 12.7997 1768 87.3869 1143.68 456.831
694 1 69.0562 11.1214 768 86.6888 1143.2 489.76
695 0 73.0477 11.6225 849 84.0695 1143.86 490.302
696 0 73.0693 10.9075 797 87.7227 1143.99 491.079
697 0 76.0443 11.7826 896 86.5759 1143.9 490.153
698 0 80.094 11.6738 935 88.5904 1143.32 487.911
699 0 81.0837 11.4696 930 89.9183 1143.86 486.06
700 0 84.1062 11.212 943 90.2365 1144.76 484.523
701 0 88.1002 11.5096 1014 89.9053 1144.02 483.677
702 0 89.1354 11.2862 1006 91.5477 1144.26 483.639
703 0 92.1101 11.9205 1098 93.7413 1143.46 479.372
704 0 95.0786 12.0111 1142 93.4483 1143.93 482.195
705 0 99.1106 12.0169 1191 92.2343 1144.37 479.203
706 0 102.108 11.9677 1222 93.0286 1143.51 477.059
707 0 105.09 12.4941 1313 88.3785 1143.76 474.744
708 0 109.054 11.5081 1255 93.8701 1143.31 474.057
709 1 59.0364 11.1457 658 95.2948 1143.38 497.222
710 0 61.025 11.4707 700 94.3186 1143.96 497.509
711 0 63.0404 11.6275 733 93.6426 1143.17 496.116
712 0 65.0544 12.1591 791 94.3085 1143.07 494.976
713 0 65.0636 11.4811 747 101.95 1142.31 496.019
714 0 66.0233 11.1476 736 91.9565 1143.87 498.94
715 0 66.0579 10.9147 721 92.7268 1144 497.942
716 0 69.066 11.3659 785 93.2484 1143.68 496.511
717 0 69.0363 10.9508 756 91.2526 1143.31 495.528
718 0 73.0588 11.7987 862 86.848 1143.15 495.005
719 0 73.0457 11.527 842 88.2375 1144.48 493.28
720 0 75.1039 11.6905 878 88.3713 1143.87 491.585
721 0 78.0813 10.758 840 89.6071 1143.33 493.307
722 0 81.0803 12.5061 1014 90.641 1144.57 489.382
723 0 83.0675 11.5569 960 95.349 1143.24 488.211
724 0 85.0392 12.1591 1034 93.5938 1143.91 486.667
725 0 87.0812 12.3907 1079 92.1325 1143.59 487.449
726 0 88.087 11.92 1050 93.8857 1144.41 484.779
727 0 93.1142 11.9531 1113 94.2552 1143.49 483.163
728 0 95.0934 12.2406 1164 93.7758 1143.18 482.304
729 0 94.0971 11.7963 1110 95.745 1143.39 477.331
730 0 94.0971 11.8495 1115 142.538 1143.38 477.306
731 0 101.042 12.1533 1228 93.9112 1142.28 477.474
732 0 104.097 12.2194 1272 93.0267 1142.05 476.108
733 0 106.145 12.4735 1324 91.4554 1142.76 474.432
734 0 106.075 11.5578 1226 92.5008 1143.1 470.4
735 0 110.049 11.922 1312 91.1044 1142.58 468.827
736 0 111.072 11.4251 1269 92.3633 1143.41 464.384
737 0 118.055 12.6043 1488 87.795 1141.84 459.06
738 0 118.136 12.4602 1472 87.9878 1142.33 455.395
739 0 118.085 11.4409 1351 90.644 1142.34 457.49
740 0 120.198 10.9569 1317 90.4434 1142.69 452.911
741 1 58.056 9.19802 534 82.9738 1141.75 482.255
742 0 60.1759 8.9737 540 81.0556 1141.78 482.026
743 0 63.1052 10.2844 649 77.188 1142.31 483.088
744 0 69.0367 10.1975 704 75.0724 1142.38 481.095
745 0 71.0748 11.7904 838 69.0716 1142.13 480.779
746 0 76.1619 11.0554 842 68.8777 1142.2 483.6
747 0 75.0528 11.6451 874 68.1213 1141.88 481.649
748 0 80.1719 11.1386 893 67.6439 1142.24 480.634
749 0 82.0408 10.1535 833 69.0288 1142.37 477.842
750 0 85.1358 10.7123 912 68.5658 1142.79 476.974
751 0 86.1766 10.4089 897 69.8885 1142.63 474.697
752 0 86.0857 10.3153 888 71.7838 1142.37 472.042
753 0 92.1603 10.7204 988 70.7156 1142.82 471.648
754 0 95.0909 11.1262 1058 69.6125 1143.07 468.451
755 0 93.2023 10.9976 1025 81.2995 1142.46 463.599
756 0 103.167 11.9709 1235 84.7935 1143.19 471.164
757 0 107.17 12.3075 1319 85.2092 1144.61 470.348
758 0 111.241 13.4932 1501 84.7049 1143.72 467.226
759 0 115.179 13.2403 1525 85.1915 1144.42 466.57
760 0 116.237 12.9219 1502 87.1744 1143.66 464.47
761 0 122.232 12.0345 1471 87.2141 1143.38 463.615
762 0 126.296 12.1224 1531 88.5245 1144.39 459.732
763 0 128.419 12.4592 1600 88.4525 1142.76 461.347
764 0 132.385 12.2446 1621 89.9013 1143.57 458.125
765 0 138.394 12.7679 1767 89.03 1142.88 457.195
766 0 139.353 12.6729 1766 90.6631 1143.64 453.653
767 0 145.553 13.2942 1935 89.9447 1142.5 454.87
768 0 148.41 12.5598 1864 92.5177 1143.27 452.754
769 0 151.295 12.3335 1866 93.8328 1143.56 451.318
770 0 154.307 11.9891 1850 93.3238 1142.69 449.922
771 0 160.191 12.1106 1940 94.234 1143.08 447.212
772 0 165.241 12.2911 2031 93.7543 1143.23 444.447
773 0 170.261 12.334 2100 94.6262 1143.25 441.279
774 0 175.359 12.6426 2217 94.0704 1142.96 436.046
775 0 179.283 12.4663 2235 96.8635 1143.63 431.977
776 0 185.352 12.3927 2297 96.4245 1143.19 429.762
777 0 190.363 12.6968 2417 95.8118 1143.49 426.192
778 0 195.367 12.607 2463 96.1937 1144.38 424.361
779 0 195.363 12.6687 2475 154.663 1145.37 424.39
780 1 209.356 12.9206 2705 95.7793 1143.79 417.492
781 0 215.473 13.5191 2913 93.1394 1142.81 414.072
782 0 221.407 12.7412 2821 96.9011 1144.06 411.922
783 1 55.2641 11.0922 613 95.137 1144.43 488.137
784 0 56.0576 11.3811 638 96.1238 1144.83 488.436
785 0 55.0397 11.5008 633 152.564 1145.84 488.19
786 0 61.1254 12.4662 762 91.4724 1144.67 494.839
787 0 62.1454 12.1006 752 92.8497 1145.45 493.362
788 0 67.0684 12.0772 810 92.5716 1144.3 492.075
789 0 66.0718 12.1988 806 93.2233 1145.08 490.705
790 0 69.0428 12.0215 830 92.806 1145.13 488.675
791 0 72.0761 12.5284 903 94.4264 1145.23 487.728
792 0 73.1018 11.9012 870 97.2575 1145.09 484.821
793 0 77.0268 12.4762 961 95.1436 1145.38 482.325
794 0 77.0414 12.0455 928 97.5496 1145.27 482.822
795 0 79.0532 12.4979 988 95.083 1146 477.246
796 0 83.1136 13.0544 1085 95.1963 1144.68 474.077
797 0 84.256 12.9249 1089 95.3352 1145.28 474.074
798 0 88.0925 12.9296 1139 95.9061 1144.85 472.069
799 0 92.0889 12.9549 1193 99.0939 1144.81 470.049
800 0 96.1217 12.5778 1209 99.6898 1144.26 470.838
801 0 98.1114 12.8731 1263 99.8527 1144.16 469.319
802 0 102.097 12.8799 1315 99.1772 1144 468.94
803 1 56.0362 10.8323 607 96.5272 1143.4 492.311
804 0 59.0593 11.5816 684 97.2529 1143.95 490.918
805 0 59.0975 11.5572 683 96.9004 1144.71 488.429
806 0 64.0814 13.3424 855 98.1439 1144.38 493.604
807 0 68.1908 12.773 871 100.064 1143.86 492.783
808 0 70.158 12.1155 850 99.8906 1143.44 493.136
809 0 72.1202 12.2296 882 100.812 1143.98 491.263
810 0 73.1238 12.0754 883 99.0634 1143.48 491.343
811 0 78.0903 13.113 1024 93.4639 1144.03 489.061
812 0 79.0792 12.6961 1004 95.2082 1143.94 488.24
813 0 82.0783 11.9642 982 96.4756 1143.85 486.729
814 0 84.1747 13.1037 1103 93.9737 1144.66 486.927
815 0 85.091 13.1389 1118 88.1064 1144.27 486.368
816 0 87.1394 12.7956 1115 88.0762 1144.11 485.006
817 0 90.0632 12.7244 1146 90.4555 1143.26 484.323
818 0 94.0741 12.2882 1156 91.9689 1143.16 482.354
819 0 95.0549 13.0977 1245 92.1398 1143.27 481.846
820 0 98.1137 12.9849 1274 93.4788 1142.11 480.425
821 0 100.06 12.6824 1269 96.2608 1141.96 479.429
822 0 103.162 12.5918 1299 101.669 1141.95 477.701
823 0 107.114 12.2487 1312 102.78 1142.35 476.082
824 0 110.271 13.0134 1435 96.2815 1142.46 473.075
825 1 56.1679 11.4122 641 95.4743 1143.54 499.874
826 0 57.0347 11.379 649 94.8659 1141.71 501.884
827 0 61.0205 12.6843 774 90.6822 1141.58 500.717
828 0 62.0332 11.9936 744 95.6626 1143.3 497.224
829 0 62.0518 12.8441 797 96.1317 1143.02 496.433
830 0 65.0351 13.1006 852 89.4378 1141.92 498.27
831 0 68.0523 12.9753 883 88.1574 1141.27 496.219
832 0 68.0535 13.0926 891 89.1223 1142.09 495.563
833 0 72.0681 13.2514 955 89.0157 1141.55 495.774
834 0 74.0909 12.9301 958 89.7338 1142.1 493.261
835 0 75.0587 12.7633 958 92.7161 1142.14 492.931
836 0 75.0587 12.75 957 145.241 1141.13 492.96
837 0 81.0444 14.054 1139 92.0957 1142.72 489.22
838 0 83.0407 12.9214 1073 96.2833 1142.48 487.274
839 0 84.0855 13.403 1127 96.4525 1141.59 485.511
840 0 85.0615 12.779 1087 99.1334 1142.25 486.179
841 0 88.05 13.3901 1179 97.341 1141.91 484.69
842 0 89.1066 12.3335 1099 101.319 1142.09 483.369
843 0 93.0565 13.0781 1217 99.2268 1141.53 480.252
844 0 96.0413 13.3901 1286 94.6711 1142.01 478.543
845 1 53.0121 12.6952 673 97.6389 1141.72 499.227
846 0 55.0326 12.7743 703 96.7454 1142.16 497.506
847 0 55.0709 12.7109 700 93.7486 1142.19 497.771
848 0 56.0642 12.7711 716 98.4874 1141.66 496.913
849 0 55.0735 13.1642 725 96.4593 1142.04 495.487
850 0 58.1173 13.5072 785 94.6726 1141.87 494.078
851 0 60.1116 12.8428 772 96.4365 1142.25 493.591
852 0 61.0562 12.6277 771 95.8988 1142.12 493.353
853 0 63.0892 13.156 830 94.5157 1142.29 493.384
854 0 65.078 13.0766 851 93.5217 1141.71 493.694
855 0 68.1299 13.3568 910 91.8868 1141.89 490.942
856 0 69.1665 13.5181 935 91.6481 1141.77 490.613
857 0 71.0865 13.4343 955 92.1414 1142.15 488.695
858 0 71.1908 13.3163 948 94.7679 1141.78 487.32
859 0 75.1132 14.0987 1059 91.4797 1142.14 487.577
860 0 75.0951 13.7958 1036 93.168 1142.08 486.312
861 0 77.0937 13.4122 1034 94.7321 1141.15 484.655
862 0 79.111 13.007 1029 97.8212 1142.21 484.7
863 0 81.1123 13.0436 1058 92.827 1143.1 483.548
864 0 81.0991 12.8608 1043 93.6031 1142.63 482.111
865 0 84.1644 13.8895 1169 94.2404 1142.03 482.26
866 0 89.1174 14.0489 1252 88.972 1142.93 480.811
867 0 91.1151 13.9494 1271 94.2651 1142.75 478.71
868 0 92.0643 13.0344 1200 91.9917 1141.84 478.91
869 0 95.0625 13.1177 1247 92.3705 1141.47 476.362
870 0 98.2715 13.2897 1306 88.6462 1141.58 475.421
871 0 102.215 13.364 1366 86.9539 1141.76 474.447
872 0 104.155 13.2015 1375 89.3105 1141.94 472.654
873 1 56.0544 12.1846 683 92.6208 1141.05 495.485
874 0 58.1201 12.2505 712 93.0435 1141.15 495.497
875 0 58.14 12.8827 749 92.9506 1141.36 495.778
876 0 61.092 13.1769 805 92.4261 1141.55 495.089
877 0 64.0519 12.3806 793 95.9054 1141.32 493.473
878 0 66.1112 12.7815 845 94.8521 1141.02 492.957
879 0 68.0397 12.0665 821 95.9208 1142.45 492.437
880 0 71.1132 11.8543 843 96.7129 1142.54 488.655
881 0 73.0937 12.053 881 96.3712 1143.29 489.594
882 0 75.0954 12.2245 918 96.683 1142.65 487.472
883 0 76.1078 12.1538 925 98.2076 1142.9 486.122
884 0 76.1078 12.1932 928 140.298 1142.91 486.096
885 0 80.091 12.1861 976 98.6578 1141.45 482.349
886 0 84.1355 12.0995 1018 98.6631 1142.17 480.695
887 0 83.1354 12.0647 1003 142.741 1142.16 480.661
888 1 48.0517 10.3014 495 97.7051 1142.98 500.471
889 0 48.0058 11.5611 555 95.0991 1142.82 499.169
890 0 48.0058 11.6028 557 136.327 1142.79 499.165
891 0 51.0191 12.3091 628 90.414 1142.44 496.498
892 0 54.0922 11.5728 626 94.8834 1142.02 496.278
893 0 56.0713 11.9669 671 93.4292 1143.04 494.453
894 0 55.0623 11.4961 633 96.1943 1142.8 494.656
895 0 54.0616 11.1169 601 142.624 1142.83 493.95
896 0 59.0416 12.4319 734 95.1594 1141.97 492.939
897 0 61.0244 12.4377 759 95.635 1143.33 492.692
898 0 63.0139 12.6639 798 95.4875 1143.12 493.368
899 0 64.0657 12.9555 830 96.2349 1143.38 490.636
900 0 68.0308 12.5531 854 97.2365 1144.13 490.926
901 0 69.0306 12.3568 853 99.9519 1143.23 489.383
902 0 72.0481 12.7137 916 98.5775 1144.31 489.146
903 0 72.0833 12.9295 932 99.8208 1143.2 487.909
904 0 75.0463 12.6189 947 101.019 1143.59 485.645
905 0 77.099 12.7109 980 101.656 1143.36 485.154
906 0 79.0998 12.8951 1020 101.348 1143.31 484.316
907 0 82.1688 13.6305 1120 99.4071 1142.81 480.599
908 1 43.0922 11.6494 502 94.8865 1143.09 501.398
909 0 44.2705 11.5653 512 94.8262 1143.99 498.83
910 0 45.0276 11.6373 524 75.0592 1143.52 498.053
911 0 45.0285 12.481 562 77.1833 1143.7 497.964
912 0 45.0743 11.2925 509 75.0295 1142.46 495.128
913 0 45.0872 10.6904 482 77.2676 1142.54 492.778
914 0 47.0186 11.655 548 78.0474 1142.5 493.024
915 0 48.0619 11.3187 544 78.9118 1143.05 492.46
916 0 49.0093 11.4876 563 79.5915 1142.73 492.268
917 0 50.0455 11.01 551 81.6715 1142.72 491.797
918 0 52.0317 11.8774 618 80.2896 1142.46 491.398
919 0 53.025 11.2588 597 81.7303 1143.01 490.01
920 0 55.1374 12.0245 663 78.8522 1142.09 491.437
921 0 53.0291 10.994 583 83.5609 1142.7 490.467
922 0 53.0291 10.8242 574 125.925 1142.74 490.401
923 0 58.0369 11.7167 680 81.5382 1142.2 490.012
924 0 61.0434 11.2707 688 82.7936 1141.94 489.484
925 0 61.078 11.5754 707 83.0269 1141.66 488.458
926 0 64.025 12.0578 772 82.2073 1142.06 486.93
927 0 65.0328 11.8094 768 82.7096 1141.86 486.277
928 0 70.0509 11.8913 833 81.4262 1141.63 485.607
929 0 71.0425 12.5277 890 80.3798 1142.54 485.576
930 0 74.0312 12.4947 925 81.6 1141.74 483.712
931 0 77.0365 13.1626 1014 91.3284 1141.7 487.502
932 0 81.0453 13.1285 1064 90.7491 1141.26 484.979
933 0 85.0415 14.1931 1207 86.5485 1140.65 484.932
934 0 85.0415 14.2048 1208 125.457 1139.64 484.957
935 0 87.1258 12.2352 1066 94.394 1141.1 483.116
936 0 88.0472 12.8908 1135 93.5577 1140.63 481.683
937 0 91.0845 12.6366 1151 94.9896 1140.78 480.556
938 0 97.0532 12.9723 1259 96.7371 1140.63 476.273
939 0 99.1883 12.2394 1214 97.0478 1139.98 476.408
940 1 51.0285 12.2872 627 90.303 1140.59 499.065
941 0 50.0224 12.6543 633 89.5766 1140.26 496.741
942 0 49.0267 12.5442 615 90.9756 1139.89 496.485
943 0 55.0526 12.4972 688 88.2703 1139.79 496.469
944 0 55.1193 11.4842 633 91.2875 1139.15 494.395
945 0 59.0238 12.4357 734 87.8025 1139.7 494.456
946 0 59.0708 12.6628 748 88.143 1139.26 491.777
947 0 62.0307 12.9452 803 86.2329 1139.57 490.631
948 0 65.0325 12.6091 820 84.5024 1139.86 489.251
949 0 66.0746 12.4102 820 85.9902 1139.75 488.09
950 0 69.018 12.7648 881 86.0885 1139.88 485.875
951 0 71.0624 13.0308 926 92.3218 1140.76 487.376
952 0 74.1016 12.7258 943 93.4125 1140.75 484.426
953 0 76.0639 13.1731 1002 93.7066 1141.57 483.773
954 0 79.0623 12.9898 1027 92.26 1140.57 483.955
955 0 82.1049 12.6789 1041 93.366 1141.2 481.763
956 0 84.0567 12.3845 1041 86.2738 1141.21 478.886
957 0 88.1128 12.5748 1108 85.7202 1141.37 477.088
958 0 93.1366 14.5378 1354 86.2814 1141.23 477.198
959 1 48.045 11.5933 557 90.1418 1141.08 503.908
960 0 50.0856 11.66 584 92.4777 1142.37 499.438
961 0 52.045 12.9311 673 79.7756 1140.55 501.759
962 0 50.0286 11.0737 554 76.3339 1141.13 498.164
963 0 51.0486 11.8319 604 76.1656 1141.5 493.889
964 0 55.0651 11.6952 644 75.5512 1141.25 495.255
965 0 56.0224 11.1384 624 77.5144 1141.81 495.745
966 0 59.0558 11.4637 677 77.3678 1142.15 492.35
967 0 62.0443 11.2984 701 76.7932 1141.46 494.621
968 0 65.0275 11.2414 731 77.1888 1141.77 492.67
969 0 64.0567 11.5991 743 78.2436 1141.9 489.783
970 0 69.0429 11.6015 801 82.2884 1141.27 491.859
971 0 71.0427 12.8514 913 85.9814 1141.76 492.467
972 0 73.0227 12.996 949 86.0832 1141.92 492.384
973 0 75.041 12.2067 916 87.6496 1142.18 490.64
974 0 76.0322 12.6394 961 85.7815 1142.28 490.006
975 0 80.0435 12.3808 991 86.3774 1141.81 488.348
976 0 83.0658 12.7971 1063 85.539 1142.38 486.162
977 0 84.075 12.7981 1076 86.8978 1142.7 484.019
978 0 88.1081 12.9727 1143 86.2948 1143.14 483.841
979 0 88.097 13.0084 1146 95.9363 1143 483.108
980 0 93.0831 13.1388 1223 95.7375 1143.13 481.693
981 0 95.0793 13.2836 1263 96.0253 1143.2 479.515
982 0 98.0946 12.9467 1270 87.5299 1143.49 478.126
983 0 101.148 11.9132 1205 88.7718 1142.72 476.293
984 0 103.122 13.0137 1342 87.3577 1142.84 474.08
985 1 52.0612 10.0074 521 87.3762 1142.39 492.505
986 0 54.0669 10.3205 558 84.8763 1141.99 490.095
987 0 54.0581 10.9882 594 83.8114 1144.19 490.449
988 0 59.0354 10.9934 649 81.6733 1143.31 488.724
989 0 60.0611 10.7058 643 82.7356 1142.91 489.016
990 0 60.0769 9.42125 566 76.5424 1142.04 491.205
991 0 64.0168 10.5129 673 74.8752 1143.09 489.96
992 0 68.0619 11.7393 799 80.577 1142.09 492.643
993 0 69.0753 11.1328 769 82.2263 1142.27 490.876
994 0 73.0585 11.8946 869 81.0437 1141.67 489.291
995 0 72.0403 10.6607 768 81.0339 1141.97 487.743
996 0 76.0436 10.7701 819 82.7546 1141.63 486.926
997 0 79.082 10.3943 822 78.9745 1142.72 483.71
998 0 83.0391 11.4163 948 80.6804 1142.48 484.369
999 0 84.111 10.9736 923 82.403 1142.58 483.228
1000 0 87.069 11.0257 960 81.975 1142.52 482.209
1001 0 90.0824 10.7235 966 82.4741 1142.29 479.307
1002 0 94.0504 11.1111 1045 82.0431 1142.38 478.164
1003 0 103.088 14.4828 1493 69.8339 1143.04 469.435
1004 0 103.107 12.618 1301 75.4466 1143.29 468.543
1005 0 101.102 11.1076 1123 80.7596 1144.23 471.348
1006 0 108.053 11.4759 1240 79.9798 1143.33 473.666
1007 0 111.067 11.5155 1279 79.6818 1144.09 469.548
1008 0 116.096 11.7403 1363 79.8863 1143.71 465.949
1009 1 56.0128 8.49805 476 82.7479 1143.36 498.275
1010 0 59.021 10.9622 647 78.6321 1142.89 496.774
1011 0 62.0407 12.25 760 78.0711 1143.78 494.832
1012 0 65.0967 11.8593 772 75.7811 1142.95 493.438
1013 0 62.0519 10.6363 660 78.9727 1143.43 495.141
1014 0 64.0287 10.589 678 79.1578 1142.82 494.794
1015 0 67.0529 10.4544 701 79.1298 1142.84 493.458
1016 0 68.027 10.8045 735 78.3034 1143.45 494.082
1017 0 71.053 10.457 743 78.9287 1143.44 492.954
1018 0 76.0304 12.2846 934 74.8233 1144.21 492.025
1019 0 77.1153 12.3192 950 76.78 1143.88 491.061
1020 0 78.0183 11.4717 895 79.2335 1144.11 487.93
1021 0 81.1756 11.8016 958 76.3789 1143.4 486.677
1022 0 85.1155 11.9955 1021 75.9452 1143.29 484.541
1023 0 87.1279 11.7873 1027 76.6485 1144.18 484.193
1024 0 91.1312 12.5862 1147 75.5885 1144.67 480.656
1025 0 93.2598 12.6743 1182 77.1599 1143.52 479.843
1026 0 96.1592 12.2817 1181 76.6478 1143.81 478.736
1027 0 99.106 11.8055 1170 77.4359 1143.34 477.832
1028 0 104.192 12.8417 1338 74.2287 1142.98 476.289
1029 0 106.138 12.5214 1329 75.4342 1142.69 472.166
1030 0 109.09 12.6501 1380 77.3978 1142.48 473.56
1031 0 111.084 11.7208 1302 77.5561 1142.83 471.829
1032 0 116.085 12.1549 1411 76.2268 1143.1 470.007
1033 0 120.136 11.3954 1369 78.5026 1142.43 469.441
1034 0 122.18 10.5091 1284 80.0055 1143.18 464.15
1035 1 67.0737 11.0177 739 76.6387 1142.16 490.62
1036 0 69.0342 11.6174 802 74.783 1142.85 492.865
1037 0 70.0684 9.66199 677 78.0532 1143.38 491.183
1038 0 74.0593 11.6798 865 74.3064 1142.72 491.192
1039 0 76.1503 11.9894 913 74.0997 1142.7 489.801
1040 0 78.0442 11.801 921 74.5005 1142.48 488.164
1041 0 82.1045 11.8629 974 73.4774 1142.56 488.77
1042 0 83.1507 12.2188 1016 75.1073 1142.36 486.002
1043 0 86.1868 12.5425 1081 80.0722 1142.63 483.404
1044 0 90.1877 12.474 1125 80.2471 1142.76 482.086
1045 0 95.1006 12.7444 1212 78.5767 1142.04 480.964
1046 0 96.1456 12.273 1180 79.9771 1141.79 477.795
1047 0 100.231 12.7805 1281 80.0593 1141.71 475.845
1048 0 102.297 12.8157 1311 80.8291 1141.87 473.288
1049 0 104.23 12.2325 1275 81.0729 1142.5 473.145
1050 0 109.185 12.6208 1378 80.3157 1142.18 473.233
1051 0 112.141 12.2881 1378 81.7649 1141.64 470.93
1052 0 115.069 12.3317 1419 81.2333 1141.99 471.021
1053 0 118.072 12.0097 1418 77.1827 1142.45 469.498
1054 0 121.12 11.7239 1420 80.2732 1142.24 469.761
1055 0 121.193 11.2218 1360 83.6265 1142.82 470.265
1056 1 60.0328 12.1434 729 85.284 1142.05 497.816
1057 0 62.0999 11.7392 729 86.6571 1142.69 495.405
1058 0 63.1655 12.396 783 86.1494 1142.25 494.374
1059 0 66.0539 12.6261 834 86.7422 1142.06 494.157
1060 0 68.1517 12.12 826 88.4189 1141.91 491.897
1061 0 70.1373 12.4755 875 89.5806 1142.17 490.327
1062 0 71.1377 12.3141 876 91.097 1142.6 491.185
1063 0 75.0856 13.1849 990 88.3313 1141.99 491.032
1064 0 76.0632 13.8438 1053 88.8053 1142.49 488.379
1065 0 79.2065 13.8373 1096 90.1432 1142.42 487.591
1066 0 80.1457 13.201 1058 92.7495 1142.55 488.051
1067 0 82.1711 13.8857 1141 92.2498 1142.53 486.348
1068 0 84.1026 14.4942 1219 92.4118 1142.91 484.463
1069 0 87.1039 14.5114 1264 92.2595 1142.91 484.267
1070 0 90.2186 13.7555 1241 93.971 1143.07 482.94
1071 0 90.1246 13.9363 1256 95.4236 1143.48 481.469
1072 0 95.1553 14.3555 1366 93.806 1143.21 479.809
1073 0 97.2732 14.3205 1393 94.9648 1143.5 477.814
1074 0 101.156 14.7298 1490 92.8678 1143.15 476.165
1075 0 104.146 14.4988 1510 93.1497 1143.08 475.543
1076 0 108.146 14.4804 1566 92.7567 1142.71 473.987
1077 0 110.219 14.1083 1555 94.0167 1143.16 472.339
1078 1 60.103 12.4952 751 96.0706 1141.31 496.479
1079 0 63.0929 13.3454 842 95.101 1141.38 494.215
1080 0 64.3277 13.4779 867 96.3333 1142.37 493.931
1081 0 67.1255 13.8099 927 95.4002 1142.75 492.353
1082 0 70.1449 13.8143 969 95.6099 1142.11 491.254
1083 0 73.1798 14.1706 1037 94.9961 1142.6 490.362
1084 0 75.097 13.7689 1034 97.3781 1141.93 488.955
1085 0 77.1553 14.2051 1096 97.406 1142.04 487.876
1086 0 79.1189 14.5351 1150 97.9157 1141.86 486.733
1087 0 80.1678 14.3324 1149 98.3969 1141.55 486.42
1088 0 82.2352 14.799 1217 98.7938 1141.99 484.515
1089 0 84.098 14.5663 1225 113.653 1141.63 483.854
1090 0 88.3004 14.5639 1286 113.747 1142.13 481.561
1091 0 91.2738 14.5935 1332 114.872 1141.98 480.83
1092 0 91.1426 14.5486 1326 116.657 1141.96 479.09
1093 0 96.2789 14.458 1392 116.733 1142.62 477.835
1094 0 101.229 14.7388 1492 113.659 1141.9 476.889
1095 0 102.278 14.6171 1495 116.043 1141.9 475.688
1096 0 105.134 15.2662 1605 113.643 1141.48 476.114
1097 0 108.208 14.4628 1565 116.171 1142 472.745
1098 0 111.201 14.7571 1641 115.498 1141.97 471.872
1099 0 113.169 14.5358 1645 116.018 1143.26 472.785
1100 0 118.103 14.5043 1713 115.737 1143.84 470.066
1101 0 124.172 14.5605 1808 114.217 1143.34 468.573
1102 0 129.153 14.626 1889 114.082 1144.57 467.671
1103 1 69.0475 14.0049 967 121.254 1143.55 492.449
1104 0 74.0469 14.0046 1037 120.672 1143.35 491.249
1105 0 76.0997 14.1656 1078 121.596 1142.49 489.421
1106 0 79.0266 14.1092 1115 121.109 1142.8 487.23
1107 0 83.0461 14.4739 1202 118.36 1143.04 485.973
1108 0 85.1032 14.2768 1215 119.72 1142.42 484.672
1109 0 86.061 14.2108 1223 121.592 1142.97 482.366
1110 0 88.0859 14.2702 1257 122.111 1142.94 481.66
1111 0 91.0851 14.448 1316 122.035 1143.31 479.187
1112 0 94.0633 14.5647 1370 121.968 1143.13 477.483
1113 0 97.0645 14.5161 1409 123.114 1142.78 476.353
1114 0 100.157 14.3474 1437 123.303 1143.42 475.891
1115 0 102.13 14.5208 1483 124.256 1143.88 474.218
1116 0 105.146 14.5607 1531 126.349 1143.49 471.374
1117 0 107.116 13.9382 1493 128.64 1143.46 468.64
1118 0 109.092 13.9882 1526 127.33 1143.39 465.807
1119 0 114.114 14.1438 1614 125.875 1143.78 461.12
1120 1 57.0667 9.21728 526 117.679 1143.88 488.878
1121 0 60.0862 10.3185 620 114.574 1144.6 488.961
1122 0 63.0582 10.3238 651 116.946 1144.85 488.286
1123 0 65.1147 10.9806 715 115.691 1143.5 494.772
1124 0 67.1303 11.3362 761 116.564 1144.21 493.966
1125 0 67.1322 11.2912 758 143.843 1144.22 493.97
1126 0 72.2587 11.3758 822 116.982 1144.02 491.526
1127 0 75.1532 11.1639 839 118.234 1143.36 490.316
1128 0 77.1938 11.646 899 119.488 1143.55 488.507
1129 0 80.2292 11.2179 900 120.636 1144.19 486.958
1130 0 81.1251 11.2419 912 121.287 1143.55 485.243
1131 0 83.143 11.4742 954 121.383 1144.31 483.976
1132 0 86.2758 11.6951 1009 120.408 1144.9 481.599
1133 0 87.1609 11.1862 975 122.31 1144.12 481.059
1134 0 92.1446 11.8509 1092 119.538 1144.37 480.59
1135 0 94.2299 11.3977 1074 120.896 1143.72 479.708
1136 1 176.944 11.6308 2058 86.0831 1143.68 458.109
1137 0 174.519 10.0448 1753 94.0434 1143.24 465.724
1138 0 175.547 11.9854 2104 89.1711 1143.14 461.069
1139 1 60.1906 10.3505 623 114.103 1142.63 493.565
1140 0 61.2013 10.9475 670 106.93 1143.46 495.936
1141 0 60.0812 9.98648 600 90.9267 1142.05 487.077
1142 0 62.2381 9.785 609 87.4483 1142.1 488.926
1143 0 63.2388 10.5315 666 87.3919 1142.86 488.919
1144 0 62.0459 10.5567 655 89.3405 1142.08 486.994
1145 0 66.2072 11.5697 766 86.9243 1142.17 487.133
1146 0 69.1616 11.3936 788 87.8515 1141.95 486.316
1147 0 71.3033 11.6685 832 88.2885 1142.22 485.909
1148 0 74.3041 11.2914 839 89.466 1141.68 484.82
1149 0 77.2133 11.5136 889 88.3105 1141.46 483.261
1150 0 79.1683 11.7345 929 78.2917 1141.55 484.737
1151 0 81.0521 11.067 897 81.7637 1141.8 486.289
1152 0 84.1621 11.8343 996 81.8534 1141.95 489.368
1153 0 86.0568 11.5389 993 83.142 1142.52 485.512
1154 0 89.1176 11.9168 1062 82.2363 1142.86 485.443
1155 0 95.0556 11.6353 1106 81.387 1142.13 482.38
1156 1 49.03 10.9933 539 81.705 1142.8 505.289
1157 0 49.05 10.8053 530 84.6981 1143.17 503.468
1158 0 52.0207 11.1879 582 84.4674 1142.88 502.77
1159 0 52.046 11.8165 615 79.7805 1142.39 504.511
1160 0 54.0162 11.5151 622 80.9839 1142.16 503.527
1161 0 56.0821 12.0716 677 80.0739 1142.38 500.876
1162 0 58.0542 11.9027 691 79.437 1142.39 500.509
1163 0 57.0473 11.7271 669 81.2347 1142.02 499.858
1164 0 60.0565 11.4059 685 81.2613 1142.37 498.112
1165 0 60.0872 11.4334 687 81.7307 1142.33 496.233
1166 0 63.1043 12.1545 767 79.3833 1142.17 496.085
1167 0 64.0902 11.359 728 82.2953 1142.8 496.38
1168 0 66.0498 12.1121 800 81.1725 1141.76 493.88
1169 0 69.0279 12.2559 846 81.2742 1141.9 493.071
1170 0 69.0739 12.0595 833 82.4334 1141.49 493.16
1171 0 72.057 12.3374 889 81.9156 1141.4 491.162
1172 0 73.0571 12.0043 877 83.3478 1141.8 490.38
1173 0 74.1052 11.7805 873 83.8877 1141.22 490.513
1174 0 77.0307 11.9693 922 83.2256 1141.39 486.723
1175 0 79.0465 11.8158 934 82.8244 1141.4 486.268
1176 0 82.0324 12.1415 996 82.1094 1141.66 484.908
1177 0 84.0812 12.3571 1039 95.9538 1141.74 482.869
1178 0 86.1021 11.7303 1010 97.0238 1140.75 481.122
1179 0 90.1192 11.851 1068 96.2406 1141.85 479.406
1180 0 91.0924 11.8451 1079 96.2465 1141.38 478.268
1181 0 96.1282 12.6082 1212 94.547 1142.34 477.252
1182 0 99.1193 11.9049 1180 93.7441 1141.62 476.371
1183 0 103.11 11.7544 1212 92.3672 1141.42 475.323
1184 1 49.0168 10.4454 512 89.0605 1142.72 502.221
1185 0 49.0523 10.0505 493 75.2556 1141.65 500.838
1186 0 50.0432 10.0313 502 80.1474 1142.21 501.845
1187 0 51.1379 11.6157 594 83.2475 1141.91 501.069
1188 0 56.0735 11.8238 663 81.6018 1142.85 500.154
1189 0 57.1748 11.2812 645 83.4837 1142.1 498.916
1190 0 59.047 11.584 684 83.2895 1142.65 497.308
1191 0 60.0862 11.6166 698 83.4599 1142.46 496.549
1192 0 61.1135 11.6668 713 84.1851 1142.31 496.107
1193 0 64.2043 12.507 803 82.066 1142.43 496.096
1194 0 65.1154 12.0402 784 83.8304 1141.75 494.249
1195 0 67.0839 12.4024 832 83.5817 1141.49 494.058
1196 0 67.1453 11.9294 801 86.2097 1142.04 491.769
1197 0 71.0765 12.3107 875 84.656 1142.07 489.854
1198 0 74.2018 12.4121 921 84.7166 1141.41 490.472
1199 0 76.1786 12.5363 955 84.1487 1142.04 489.747
1200 0 80.0662 13.0267 1043 83.1505 1141.97 488.467
1201 0 81.1083 12.6744 1028 84.9202 1141.6 486.071
1202 0 83.1273 12.535 1042 86.1622 1141.71 485.643
1203 0 86.1359 12.6776 1092 85.5211 1140.69 483.768
1204 0 90.1755 12.8084 1155 86.1039 1140.56 482.183
1205 1 44.1916 11.5859 512 92.418 1140.96 504.279
1206 0 45.2028 11.7028 529 94.1871 1140.33 501.781
1207 0 46.1268 12.0537 556 94.7356 1141.3 501.122
1208 0 46.0167 11.8653 546 95.1685 1141.35 502.729
1209 0 48.0709 12.8352 617 90.7699 1141.66 504.115
1210 0 46.0373 12.2075 562 99.7491 1140.66 504.641
1211 0 53.0703 12.6059 669 95.3961 1141.38 503.054
1212 0 53.0507 12.3467 655 97.5542 1141.23 502.934
1213 0 54.0387 13.0462 705 96.9645 1141.5 501.287
1214 0 58.0782 13.0169 756 95.8347 1141.2 500.724
1215 0 58.0659 12.6408 734 97.861 1141.64 501.436
1216 0 58.0767 12.7418 740 97.9892 1141.15 500.365
1217 0 60.0302 13.2433 795 97.2038 1141.44 500.584
1218 0 63.0206 13.567 855 96.469 1141.08 498.28
1219 0 64.0782 13.6552 875 97.4377 1140.7 497.601
1220 0 67.0609 13.2864 891 97.6341 1140.89 496.746
1221 0 67.0432 13.5733 910 97.833 1141.93 495.822
1222 0 67.0432 13.5435 908 168.138 1141.93 495.758
1223 0 71.1014 13.6284 969 97.2281 1141.02 493.885
1224 0 72.0473 13.4911 972 98.1934 1140.64 492.484
1225 0 73.0664 13.0703 955 100.392 1141.12 492.369
1226 0 76.0548 14.2003 1080 97.4852 1141.67 491.567
1227 0 78.0481 13.6582 1066 99.9503 1140.59 490.612
1228 0 80.0522 13.5662 1086 100.948 1142.39 488.609
1229 0 83.0305 13.6576 1134 101.436 1142.44 487.895
1230 0 82.0369 13.5183 1109 103.022 1142.97 487.188
1231 0 86.081 14.0101 1206 101.673 1141.76 487.058
1232 0 88.0724 13.8522 1220 101.872 1141.87 485.359
1233 0 92.069 13.9461 1284 101.363 1141.94 483.539
1234 0 94.0857 13.2539 1247 103.696 1142.04 481.506
1235 0 96.0948 13.6844 1315 104.321 1141.73 478.756
1236 1 53.0501 11.5174 611 104.786 1141.24 502.791
1237 0 55.0861 11.8179 651 106.508 1142.11 500.392
1238 0 53.0238 11.1836 593 97.8887 1141.5 495.809
1239 0 55.0667 12.0581 664 98.5331 1142.55 496.627
1240 0 55.0367 12.0283 662 98.1405 1143.01 494.704
1241 0 58.0906 12.3772 719 104.211 1141.19 499.466
1242 0 61.0155 12.6689 773 103.232 1141.25 498.326
1243 0 62.016 13.0934 812 104.128 1142.25 498.252
1244 0 65.0579 13.0806 851 104.556 1141.42 496.6
1245 0 68.0267 12.892 877 104.724 1142.26 496.114
1246 0 70.0537 12.9615 908 105.597 1141.62 494.601
1247 0 71.0585 13.0034 924 106.791 1141.45 492.136
1248 0 73.1231 13.0602 955 106.762 1141.96 492.663
1249 0 76.0659 13.015 990 107.258 1142.34 489.959
1250 0 80.0852 13.4107 1074 105.269 1141.85 489.269
1251 0 82.0802 12.7802 1049 107.348 1142.18 488.71
1252 0 83.1059 13.2722 1103 105.627 1142.34 487.838
1253 0 86.1489 12.8034 1103 106.921 1142.33 485.976
1254 0 87.1108 13.1786 1148 106.762 1142.57 485.808
1255 0 90.1271 13.1925 1189 106.891 1142.69 484.716
1256 0 93.0698 12.7216 1184 107.046 1141.98 483.512
1257 0 96.0567 12.9819 1247 105.767 1142.7 481.654
1258 0 99.0839 13.0193 1290 105.058 1142.53 479.451
1259 0 103.078 13.0969 1350 105.167 1141.41 476.766
1260 0 106.157 13.0468 1385 105.588 1142.36 475.165
1261 0 108.145 12.8347 1388 103.764 1141.62 474.338
1262 0 113.129 12.9852 1469 102.489 1141.87 470.295
1263 0 116.089 12.8953 1497 103.003 1141.9 469.79
1264 0 119.061 13.0185 1550 103.783 1142.09 467.662
1265 0 121.107 12.9555 1569 106.111 1141.63 466.725
1266 0 127.107 13.1857 1676 106.966 1141.43 464.818
1267 0 130.151 13.2615 1726 108.31 1141.75 463.122
1268 0 133.175 13.1781 1755 108.52 1141.77 462.216
1269 0 137.158 13.2694 1820 110.758 1141.57 457.883
1270 0 143.165 13.474 1929 109.17 1142.4 454.89
1271 1 81.1933 11.9961 974 108.315 1142.49 486.16
1272 0 82.0674 11.6002 952 106.817 1141.42 485.107
1273 0 85.1042 12.2438 1042 105.202 1141.67 483.28
1274 0 86.0704 12.9429 1114 104.026 1141.38 483.288
1275 0 91.0632 13.4193 1222 100.931 1141.19 481.896
1276 0 89.0789 12.8538 1145 104.352 1141.29 482.87
1277 0 92.0525 12.3408 1136 105.655 1141.2 479.694
1278 0 96.044 12.9212 1241 103.108 1141.28 476.977
1279 0 97.0843 12.6076 1224 104.571 1142.1 475.142
1280 0 99.0678 12.2744 1216 104.412 1141.35 472.35
1281 0 104.091 12.2874 1279 101.82 1141.09 469.069
1282 0 106.072 12.0012 1273 101.925 1141.12 465.211
1283 0 113.113 12.4655 1410 100.834 1141.69 465.678
1284 1 62.0293 11.3011 701 107.598 1141.42 493.632
1285 0 67.0641 12.5253 840 103.023 1141.02 493.261
1286 0 68.0172 12.4674 848 92.8856 1141.63 493.585
1287 0 71.0872 11.8868 845 93.8485 1141.51 493.335
1288 0 72.032 11.9114 858 102.864 1141.9 491.718
1289 0 73.1049 11.3672 831 97.3394 1141.85 493.205
1290 0 74.0667 12.2727 909 95.5281 1142.61 492.306
1291 0 78.089 12.1912 952 95.3046 1142.22 488.397
1292 0 80.0863 12.1744 975 94.7292 1142.04 486.779
1293 0 83.0994 12.2263 1016 94.3287 1142.03 486.267
1294 0 86.1614 12.7203 1096 93.9672 1142.22 484.241
1295 0 88.1981 12.5513 1107 94.9232 1141.8 482.559
1296 0 92.192 12.5607 1158 94.1563 1141.34 480.536
1297 0 94.217 12.3757 1166 95.0403 1142.37 478.645
1298 0 98.1671 12.7436 1251 93.956 1141.77 478.05
1299 0 100.211 12.2541 1228 96.456 1141.95 476.606
1300 0 105.158 12.8948 1356 95.5184 1142.61 475.428
1301 1 60.0975 11.498 691 97.7902 1141.57 495.288
1302 0 62.1726 12.7226 791 95.6877 1142.12 495.69
1303 0 66.1508 12.8192 848 96.0425 1141.76 494.653
1304 0 67.1603 12.7456 856 89.4077 1142.53 493.481
1305 0 67.0855 13.371 897 89.6054 1142.08 493.192
1306 0 69.1438 12.7705 883 91.7905 1142.61 492.222
1307 0 72.0677 13.1543 948 90.9198 1142.44 490.425
1308 0 73.1275 12.8269 938 92.3891 1141.66 489.763
1309 0 77.1324 13.211 1019 91.2875 1141.42 488.127
1310 0 80.2716 13.6163 1093 90.4941 1142.2 486.841
1311 0 81.2507 13.3045 1081 93.407 1142.58 486.06
1312 0 84.1601 13.4981 1136 92.985 1141.38 485.674
1313 0 87.1222 13.6705 1191 92.7061 1141.55 483.334
1314 0 88.1965 14.0482 1239 93.5262 1141.64 481.657
1315 0 92.1704 13.6052 1254 94.7129 1142.3 481.246
1316 0 94.1481 13.7549 1295 95.4517 1141.32 478.171
1317 0 94.1444 13.3731 1259 93.8912 1142.16 474.847
1318 1 50.1027 10.3188 517 95.8221 1141.28 497.6
1319 0 52.0645 10.948 570 97.107 1141.72 496.463
1320 0 53.086 11.5661 614 97.7622 1142 494.218
1321 0 52.0415 11.2026 583 79.8851 1141.94 493.672
1322 0 57.0653 11.5482 659 97.0061 1141.45 492.341
1323 0 59.0697 11.9181 704 95.9858 1140.83 491.491
1324 0 59.0588 11.8865 702 96.4929 1141.44 489.963
1325 0 63.1191 12.817 809 95.6267 1141.89 496.572
1326 0 64.0837 12.4213 796 97.8894 1141.93 495.778
1327 0 67.1503 12.4795 838 96.5752 1143.93 495.387
1328 0 69.1259 12.4555 861 96.8513 1142.91 494.923
1329 0 71.1587 12.5494 893 96.8477 1142.17 493.58
1330 0 74.148 12.7583 946 96.9905 1142.11 492.063
1331 0 75.1401 12.1906 916 97.5469 1141.04 490.884
1332 0 78.21 12.5432 981 97.6075 1141.94 488.153
1333 0 81.1743 12.2576 995 98.8322 1141.7 487.145
1334 0 83.1593 13.2156 1099 96.4204 1141.86 486.833
1335 0 85.1933 12.0315 1025 98.9522 1141.41 483.925
1336 0 87.1545 12.1623 1060 98.7811 1142.05 483.833
1337 0 92.1806 12.3019 1134 97.9127 1141.96 481.23
1338 1 46.1192 9.34534 431 94.1415 1141.79 503.896
1339 0 47.1801 10.1102 477 90.4382 1140.78 500.839
1340 0 47.0639 9.60396 452 82.4757 1140.98 499.237
1341 0 48.0444 10.0532 483 79.1594 1141.25 498.275
1342 0 47.0801 9.34578 440 79.1477 1141.42 499.386
1343 0 48.0627 9.94535 478 79.4895 1141.6 499.933
1344 0 49.0578 9.45823 464 80.9871 1141.4 498.864
1345 0 50.0504 9.29063 465 81.6903 1141.79 498.998
1346 0 52.0171 9.61223 500 80.79 1141.55 498.412
1347 0 54.0407 9.03022 488 81.7193 1140.87 497.514
1348 0 58.0609 11.3501 659 92.0531 1141.73 501.346
1349 0 61.0841 11.476 701 92.6733 1141.35 499.599
1350 0 62.088 11.5803 719 94.7288 1140.78 497.509
1351 0 63.0476 11.9909 756 94.7698 1141.44 498.538
1352 0 66.046 12.2036 806 94.4007 1141.19 497.742
1353 0 69.0715 11.6112 802 96.4701 1140.98 496.352
1354 0 70.039 11.8077 827 97.4607 1140.83 494.969
1355 0 72.0822 11.806 851 99.1962 1141.82 494.972
1356 0 75.0385 12.5402 941 98.3241 1141.55 492.589
1357 0 77.0921 11.9857 924 100.083 1141.01 491.933
1358 0 80.1408 12.4281 996 99.0131 1142.09 490.422
1359 0 82.1431 12.1739 1000 96.229 1141.79 489.215
1360 1 42.1527 10.8653 458 99.714 1141.26 508.701
1361 0 45.2071 11.3478 513 100.682 1141.24 506.579
1362 0 46.2848 11.8397 548 100.9 1141.82 506.664
1363 0 47.0922 11.8279 557 89.246 1141.81 508.16
1364 0 49.2109 11.4609 564 89.8457 1141.94 504.358
1365 0 50.0182 12.0356 602 87.6445 1142.35 506.272
1366 0 50.0247 11.6542 583 87.4305 1141.41 506.35
1367 0 53.0347 12.9538 687 83.2082 1141.34 506.082
1368 0 53.0227 12.8435 681 84.5184 1140.85 504.827
1369 0 56.0212 12.1561 681 85.1747 1141.2 504.358
1370 0 58.0283 12.3216 715 84.5301 1140.64 503.717
1371 0 59.0722 12.5101 739 84.2016 1140.92 502.702
1372 0 62.0258 13.3493 828 82.5435 1141.45 501.736
1373 0 63.1066 13.1682 831 83.059 1141.49 501.62
1374 0 65.0613 12.7418 829 85.5669 1141.34 499.916
1375 0 66.0878 13.3005 879 85.1502 1141.22 499.248
1376 0 69.0958 13.1267 907 85.473 1140.55 497.882
1377 0 68.1847 12.1435 828 88.2089 1140.87 495.454
1378 0 70.061 12.2179 856 90.7488 1140.82 497.154
1379 0 69.0693 11.9156 823 90.8736 1141.25 497.717
1380 0 69.0921 11.6511 805 96.2075 1140.48 498.204
1381 0 71.1106 12.5017 889 96.8043 1140.45 496.45
1382 0 72.0644 12.128 874 99.2506 1140.17 496.588
1383 0 72.1427 12.2535 884 98.5158 1140.41 496.403
1384 0 76.1125 12.4158 945 95.7735 1141.07 496.307
1385 0 76.1798 12.0898 921 95.126 1141.03 495.866
1386 0 77.1474 12.0808 932 95.0376 1140.66 494.933
1387 0 80.0815 12.2875 984 93.3283 1139.95 493.522
1388 0 84.0992 12.1761 1024 92.0801 1140.13 490.968
1389 0 86.0781 12.6281 1087 88.7001 1139.55 489.916
1390 0 90.1196 13.0604 1177 86.6907 1139.68 488.223
1391 0 93.1259 11.4254 1064 96.188 1139.71 485.064
1392 0 96.0574 11.8575 1139 95.432 1140.8 484.398
1393 0 99.1363 12.0844 1198 94.3973 1140.65 483.191
1394 0 101.221 12.033 1218 95.5895 1140.41 481.585
1395 0 105.156 11.9251 1254 95.374 1140.21 481.257
1396 0 107.195 11.9968 1286 96.8375 1139.73 480.169
1397 0 109.238 10.8479 1185 99.9249 1139.99 476.906
1398 1 57.1842 11.122 636 91.967 1139.82 503.399
1399 0 58.2266 12.0048 699 91.9056 1140.07 502.313
1400 0 60.1014 12.0796 726 93.0909 1139.59 501.912
1401 0 60.0908 11.7156 704 95.9787 1140.42 500.724
1402 0 62.0698 12.5665 780 96.0308 1140.34 500.088
1403 0 65.1123 12.5015 814 97.3587 1140.15 498.93
1404 0 68.0963 12.262 835 109.714 1140.1 497.183
1405 0 68.1079 11.702 797 106.179 1140.41 496.031
1406 0 69.1351 11.6728 807 107.985 1140.25 495.015
1407 0 70.1171 12.0798 847 108.803 1140 494.092
1408 0 74.0807 12.4189 920 109.222 1139.96 491.242
1409 0 75.0631 11.9366 896 110.557 1140.42 491.379
1410 0 79.0811 12.5061 989 109.529 1140.49 491.484
1411 0 81.1106 12.3165 999 109.629 1140.22 489.455
1412 0 83.0753 12.6391 1050 114.769 1140.86 489.117
1413 0 86.0558 13.0729 1125 113.796 1140.3 488.26
1414 0 88.1 12.588 1109 114.781 1140.7 487.983
1415 1 44.069 11.0735 488 107.381 1141.89 509.156
1416 0 46.0104 10.715 493 105.211 1141.06 507.738
1417 0 48.1212 11.6165 559 104.043 1140.74 505.685
1418 0 48.0564 12.3813 595 101.674 1140.52 505.58
1419 0 51.0176 11.839 604 99.5662 1141.63 505.654
1420 0 53.0366 12.2934 652 98.9969 1141.9 505.557
1421 0 54.0327 12.4554 673 99.1738 1141.45 504.709
1422 0 56.0195 12.5671 704 99.2188 1141.17 503.334
1423 0 57.0383 12.1497 693 101.442 1141.13 501.202
1424 0 59.0221 12.5885 743 99.1198 1141.78 500.168
1425 0 62.0585 12.5688 780 98.5256 1141.45 499.097
1426 0 63.0727 12.7472 804 97.0361 1141.81 498.659
1427 0 67.0923 12.9076 866 95.0739 1141.6 497.641
1428 0 69.0641 12.5246 865 95.6936 1141.36 494.91
1429 0 69.0464 12.9044 891 95.2997 1140.73 495.621
1430 0 72.0332 12.9662 934 95.2152 1141.47 494.873
1431 0 74.0633 12.7864 947 95.7202 1141.81 493.36
1432 0 77.0545 13.0816 1008 93.746 1140.87 491.282
1433 0 81.0691 13.396 1086 92.7477 1141.81 490.494
1434 0 83.0382 13.3312 1107 93.3776 1140.97 489.2
1435 0 85.0887 13.5153 1150 92.8217 1140.89 487.972
1436 0 88.0982 13.0423 1149 93.4195 1140.98 485.542
1437 0 91.075 13.176 1200 92.7125 1140.97 483.835
1438 1 47.0334 10.567 497 99.668 1141.45 506.02
1439 0 49.046 11.4382 561 96.5241 1141.67 504.346
1440 0 51.0641 11.2604 575 95.5739 1141.12 503.786
1441 0 53.1349 11.8566 630 88.9952 1140.01 501.841
1442 0 54.0376 11.9732 647 87.2767 1141.65 501.076
1443 0 56.0892 11.9274 669 86.6741 1142.16 501.012
1444 0 57.0212 11.7675 671 86.4635 1141.69 498.961
1445 0 59.0465 11.9228 704 86.0241 1140.88 498.857
1446 0 62.0552 12.6984 788 83.4607 1140.9 498.364
1447 0 64.0837 12.7333 816 83.2071 1141.57 497.31
1448 0 65.1119 12.2405 797 83.5031 1141.34 495.849
1449 0 68.0297 12.5827 856 81.59 1141.41 494.932
1450 0 68.0338 11.4796 781 84.9193 1141.21 496.571
1451 0 69.0499 11.1948 773 85.5097 1140.57 495.935
1452 0 69.0651 11.0041 760 87.05 1141.77 493.432
1453 0 73.2231 11.2533 824 86.5303 1141.42 492.283
1454 0 76.0928 11.762 895 85.8 1141.46 491.316
1455 0 77.0641 10.7962 832 87.7067 1140.76 490.566
1456 0 79.0795 12.4685 986 84.8256 1141.12 486.751
1457 0 83.1186 12.4641 1036 85.0338 1140.61 485.541
1458 0 84.0698 11.6927 983 87.116 1140.57 484.699
1459 0 86.0631 11.8053 1016 87.2067 1140.04 484.94
1460 0 90.0846 12.0997 1090 86.0752 1140.44 483.05
1461 0 93.0691 12.2382 1139 86.7024 1140.72 481.622
1462 0 95.1118 12.0279 1144 88.2885 1141.13 478.401
1463 0 97.115 11.2959 1097 90.9964 1140.99 475.624
1464 0 100.083 11.6203 1163 90.9544 1140.9 472.964
1465 0 104.109 12.5638 1308 91.0252 1140.96 475.593
1466 0 107.09 13.2038 1414 87.0495 1140.25 474.173
1467 0 109.067 11.8826 1296 93.3773 1140.25 472.028
1468 0 113.102 12.4136 1404 90.7279 1140.19 470.618
1469 0 115.147 12.5318 1443 89.5516 1140.68 467.721
1470 0 119.123 12.7095 1514 91.8078 1141.13 466.441
1471 1 63.1088 10.5532 666 88.6066 1139.77 494.911
1472 0 67.0927 12.0579 809 85.1088 1141.07 493.723
1473 0 69.1357 12.3091 851 86.5041 1140.52 490.524
1474 0 71.1409 12.8056 911 92.0066 1141.61 488.548
1475 0 74.1044 12.4149 920 94.9783 1141.28 488.872
1476 0 77.108 13.1633 1015 92.7172 1141.16 487.418
1477 0 78.1397 12.3113 962 95.4449 1140.6 487.657
1478 0 81.096 12.6887 1029 93.0272 1141.27 484.468
1479 0 82.1868 12.1552 999 95.2232 1140.98 484.456
1480 0 83.1366 12.702 1056 94.4223 1141.25 483.289
1481 0 87.1879 12.5361 1093 92.871 1141.31 481.983
1482 0 90.0919 12.6759 1142 91.9676 1141.39 477.973
1483 0 94.1963 12.9835 1223 90.7089 1140.79 478.766
1484 0 93.0722 11.7113 1090 88.2697 1141.75 475.201
1485 0 98.1623 12.245 1202 87.3211 1140.91 474.753
1486 0 100.073 12.351 1236 90.0291 1140.94 474.299
1487 0 103.135 12.3237 1271 90.7734 1140.56 473.455
1488 0 107.162 12.3645 1325 90.7555 1140.33 472.139
1489 0 112.187 12.8982 1447 89.6496 1140.72 470.112
1490 1 59.2623 10.6476 631 86.4929 1140.54 498.068
1491 0 60.1821 10.6012 638 85.4812 1140.17 498.553
1492 0 63.1203 10.7097 676 87.2308 1140.59 494.642
1493 0 66.0848 11.0767 732 85.1503 1140.76 494.342
1494 0 69.1072 11.9524 826 83.1622 1140.17 491.735
1495 0 70.1337 12.1197 850 83.8706 1140.54 491.24
1496 0 71.1089 12.516 890 85.3921 1140.55 490.078
1497 0 75.1577 12.547 943 84.7932 1140.64 489.451
1498 0 78.1087 12.2265 955 85.3414 1140.23 487.923
1499 0 81.027 12.07 978 81.862 1141.15 486.729
1500 0 81.0271 12.07 978 127.592 1142.15 486.729
1501 0 86.1761 12.753 1099 82.1902 1141.46 481.251
1502 0 88.1066 11.9401 1052 82.8593 1141.49 479.63
1503 0 93.1183 11.9633 1114 81.8402 1140.91 478.967
1504 0 92.1352 11.0815 1021 81.7757 1141.35 473.076
1505 0 94.1253 11.1553 1050 81.4429 1140.85 470.965
1506 0 98.1533 11.2885 1108 80.8032 1141.29 471.188
1507 0 101.207 11.2048 1134 82.1182 1140.66 467.85
1508 0 105.06 11.0604 1162 82.1119 1140.7 468.251
1509 0 107.087 11.2805 1208 81.8377 1141.13 467.96
1510 0 112.139 11.2628 1263 81.2629 1141.68 466.184
1511 0 115.107 11.9888 1380 83.3275 1141.12 467.772
1512 0 119.172 11.9155 1420 80.538 1141.13 465.487
1513 0 120.074 11.2514 1351 82.5862 1141 463.98
1514 0 126.183 10.9207 1378 82.3026 1141.21 462.059
1515 0 128.211 11.3874 1460 82.1342 1141.48 460.173
1516 0 133.188 11.8254 1575 81.4857 1140.68 458.79
1517 0 137.138 11.3827 1561 82.6265 1140.77 457.373
1518 0 142.223 11.6718 1660 82.6843 1140.58 455.025
1519 0 144.16 12.2711 1769 82.381 1140.66 452.881
1520 0 150.216 12.4221 1866 84.1506 1141.33 447.008
1521 1 85.2484 10.8389 924 81.737 1141.47 481.884
1522 0 87.2379 11.4056 995 82.4221 1141.58 479.014
1523 0 90.2917 11.2192 1013 82.9151 1141.41 481.014
1524 0 94.2483 12.2018 1150 80.2774 1140.95 478.829
1525 0 96.209 12.4209 1195 79.4887 1142.01 477.628
1526 0 98.1259 12.219 1199 90.0534 1141.75 475.49
1527 0 101.16 11.9514 1209 83.9007 1142.38 473.402
1528 0 106.43 11.726 1248 84.4271 1142.28 471.949
1529 0 109.252 11.5879 1266 85.3547 1142.51 471.234
1530 0 114.339 12.2792 1404 86.1389 1142.01 469.202
1531 0 116.253 12.6363 1469 84.9013 1141.72 467.698
1532 0 118.345 11.8467 1402 87.2703 1142.98 468.277
1533 0 122.279 12.5124 1530 86.7327 1142.56 464.867
1534 0 126.404 12.7844 1616 86.9777 1142.13 463.598
1535 0 128.43 12.8786 1654 88.601 1141.72 461.927
1536 0 135.59 12.5525 1702 87.7938 1142.77 458.937
1537 0 139.522 13.0517 1821 87.6194 1142.07 452.843
1538 0 142.564 12.7802 1822 88.8342 1142.16 449.589
1539 0 149.713 12.8646 1926 88.8583 1142.31 447.283
1540 0 154.688 13.4399 2079 86.9226 1142.08 444.967
1541 0 158.724 13.8353 2196 83.3739 1141.43 443.399
1542 0 161.623 12.7952 2068 86.4328 1141.72 442.729
1543 1 86.4725 11.3446 981 81.5963 1141.61 481.502
1544 0 88.4632 11.3041 1000 83.3 1141.8 480.201
1545 0 91.525 11.9858 1097 86.5597 1141.67 479.647
1546 0 95.4654 12.4757 1191 85.1008 1141.16 478.233
1547 0 95.5492 11.8682 1134 87.9956 1141.99 476.914
1548 0 101.527 11.9673 1215 88.3374 1141.73 474.523
1549 0 101.451 12.6563 1284 87.486 1141.62 474.554
1550 0 104.464 12.5689 1313 88.7441 1141.41 472.619
1551 0 106.456 12.8316 1366 89.2057 1141.6 470.426
1552 0 110.431 12.7863 1412 89.6076 1141.99 469.639
1553 0 113.53 12.7191 1444 90.919 1141.66 466.634
1554 0 117.459 13.1025 1539 91.5919 1141.3 465.197
1555 0 122.401 12.892 1578 92.6318 1140.84 464.157
1556 0 125.348 13.3628 1675 91.3719 1140.68 460.99
1557 0 127.411 13.0522 1663 92.1094 1140.92 460.672
1558 0 131.264 13.4462 1765 89.8629 1141.03 456.199
1559 0 133.303 12.5429 1672 91.7099 1141.57 452.74
1560 1 74.1163 10.7804 799 89.8023 1141.88 479.576
1561 0 73.0371 11.1313 813 88.6187 1140.67 476.499
1562 0 77.0326 11.7353 904 86.9801 1141.38 475.816
1563 0 78.1364 11.3775 889 86.2283 1141.18 476.624
1564 0 79.0669 10.3963 822 90.1156 1141.33 474.35
1565 0 82.0281 10.8012 886 89.7619 1140.33 472.02
1566 0 88.0411 11.7445 1034 86.8685 1140.51 473.568
1567 0 89.0503 11.3981 1015 89.6276 1141.28 470.386
1568 0 96.0747 12.4174 1193 92.8022 1143.01 478.445
1569 0 98.0767 12.4087 1217 95.6179 1142.48 473.547
1570 0 101.162 12.2378 1238 95.9152 1142.71 475.134
1571 0 104.114 12.1406 1264 96.1756 1141.92 473.474
1572 0 104.154 11.6942 1218 96.2159 1142.25 469.813
1573 0 108.274 12.1081 1311 94.8497 1142.29 466.109
1574 0 108.159 11.6495 1260 95.9468 1141.52 465.413
1575 0 108.164 11.9171 1289 95.9154 1141.37 461.673
1576 0 109.201 11.4193 1247 97.8444 1140.75 455.656
1577 0 112.183 11.303 1268 96.3407 1141.69 455.554
1578 0 112.183 11.2762 1265 148.243 1142.7 455.506
1579 0 120.155 11.2938 1357 96.6389 1140.84 448.747
1580 0 127.224 11.8374 1506 95.3008 1140.7 446.082
1581 0 130.239 11.9396 1555 95.2669 1141.1 443.158
1582 0 135.265 11.6365 1574 95.9581 1140.99 442.36
1583 0 138.217 11.8148 1633 95.714 1140.74 437.74
1584 0 143.176 12.4043 1776 94.7658 1141.23 437.745
1585 0 147.183 11.9239 1755 96.2741 1141.39 434.432
1586 0 153.208 12.3753 1896 94.0765 1142.15 435.22
1587 0 158.103 12.0807 1910 93.5147 1141.8 433.734
1588 0 160.046 11.8653 1899 94.267 1140.76 428.289
1589 0 166.128 12.0148 1996 93.505 1141.12 425.994
1590 0 171.186 11.4612 1962 95.4521 1140.98 425.346
1591 0 178.197 12.1326 2162 94.0911 1141.26 422.213
1592 0 185.209 12.5534 2325 95.2456 1140.83 420.018
1593 1 141.16 11.2497 1588 95.9395 1141.88 443.202
1594 0 150.232 12.3742 1859 96.5153 1141.59 443.895
1595 0 154.195 13.2365 2041 93.1019 1142.08 440.01
1596 0 157.31 12.8536 2022 96.458 1141.81 439.408
1597 0 160.251 12.8174 2054 97.7356 1141.5 434.281
1598 0 162.224 12.9081 2094 97.4857 1141.96 429.295
1599 0 167.187 12.9496 2165 98.1464 1142.12 426.514
1600 0 172.204 13.0891 2254 96.4765 1141.56 423.575
1601 0 177.142 12.9839 2300 95.5243 1141.16 420.63
1602 0 182.154 12.6487 2304 96.9497 1141.22 419.13
1603 0 187.155 12.2465 2292 98.0332 1140.69 413.943
1604 0 197.17 12.507 2466 95.586 1140.53 412.014
1605 0 204.196 13.203 2696 93.2819 1140.63 409.087
1606 0 208.152 12.8128 2667 95.9074 1140.62 403.355
1607 0 215.249 12.1023 2605 96.3931 1141 405.007
1608 0 221.241 13.1621 2912 93.8225 1141.27 397.069
1609 0 227.252 13.5004 3068 94.9563 1140.51 395.195
1610 0 237.367 13.2369 3142 95.5624 1140.43 392.136
1611 1 47.0294 7.97374 375 69.16 1141.42 489.843
1612 0 50.1064 8.38216 420 67.0071 1140.21 488.721
1613 0 60.1175 11.1282 669 73.8714 1140.38 494.489
1614 0 61.2374 10.6961 655 75.8244 1139.71 490.461
1615 0 65.2546 10.6199 693 76.202 1140.19 488.947
1616 0 64.0233 10.7148 686 72.5554 1142.78 493.72
1617 0 65.0416 10.378 675 74.5733 1141.11 494.151
1618 0 66.0812 9.85151 651 80.7097 1140.98 491.808
1619 0 67.0979 9.64263 647 76.9104 1141.33 493.309
1620 0 70.0958 10.2574 719 76.3547 1141.27 488.235
1621 0 71.0434 9.82498 698 77.0415 1140.89 488.228
1622 0 73.1063 9.99914 731 76.1012 1141.18 489.509
1623 0 76.1103 10.3271 786 75.8995 1141.4 488.405
1624 0 78.1293 10.6874 835 75.8072 1142.43 485.461
1625 0 79.1743 10.2937 815 76.8748 1141.4 485.742
1626 0 83.1087 10.8653 903 76.3444 1141.63 484.037
1627 0 86.1719 10.6067 914 77.1039 1141.23 482.369
1628 0 87.0814 9.78395 852 78.0258 1141.58 482.808
1629 0 409.983 14.1103 5785 93.7694 1139.69 289.883
1630 0 411.196 15.0342 6182 91.9623 1140.07 294.588
1631 0 411.196 15.0342 6182 154.964 1140.07 294.588
1632 0 388.188 10.7525 4174 93.3239 1139.68 277.469
1633 0 398.85 10.7584 4291 93.5826 1139.57 270.421
1634 0 397.533 11.3953 4530 94.1417 1140.3 273.631
1635 0 400.006 11.2848 4514 94.3117 1139.5 267.963
1636 0 399.334 10.8856 4347 97.2618 1140.41 267.036
1637 0 398.158 11.5407 4595 95.2161 1139.85 270.1
1638 0 117.294 14.2037 1666 71.4178 1139.44 457.709
1639 0 119.201 14.161 1688 71.782 1139.94 453.177
1640 0 122.267 13.168 1610 72.9621 1139.89 453.417
1641 0 126.314 14.3532 1813 70.8274 1139.67 451.574
1642 0 131.158 15.4776 2030 69.6493 1139.9 455.046
1643 0 133.198 14.4296 1922 73.1228 1140.79 454.022
1644 0 136.27 14.2217 1938 73.9732 1140.12 452.968
1645 0 139.371 14.3717 2003 74.1093 1140.53 451.336
1646 0 144.448 14.4274 2084 74.3772 1140.7 449.137
1647 0 148.285 14.5194 2153 74.2945 1140.47 447.42
1648 0 153.406 15.1232 2320 73.4599 1140.75 447.077
1649 0 158.467 14.9306 2366 73.4683 1140.18 443.548
1650 0 161.356 14.2604 2301 76.455 1140.48 440.155
1651 1 82.3609 10.8668 895 72.7106 1140.75 483.341
1652 0 85.2588 11.8463 1010 72.1386 1141.33 482.297
1653 0 87.3201 12.2881 1073 70.986 1141.06 479.768
1654 0 87.0581 9.46494 824 72.7342 1140.84 485.854
1655 0 93.13 12.3698 1152 67.9514 1140.89 482.07
1656 0 91.0749 10.6616 971 73.1555 1140.38 481.78
1657 0 95.0631 10.7823 1025 73.5102 1141.25 480.716
1658 0 98.1084 11.2732 1106 72.6519 1141.15 478.421
1659 0 98.0957 10.7854 1058 75.1078 1141.38 479.336
1660 0 103.073 11.749 1211 75.46 1139.93 476.996
1661 0 102.135 11.5044 1175 77.2187 1141.31 475.657
1662 0 108.152 12.2605 1326 79.2398 1140.85 473.839
1663 0 112.103 11.9444 1339 78.9253 1140.94 470.379
1664 0 116.129 12.6325 1467 77.5406 1140.65 467.579
1665 0 118.142 12.722 1503 78.0925 1141.68 466.524
1666 0 121.148 12.2578 1485 78.7704 1141.22 465.034
1667 0 123.21 12.2717 1512 77.9074 1140.5 465.234
1668 0 127.132 12.4831 1587 77.5967 1140.74 462.337
1669 0 131.158 12.2066 1601 79.7676 1140.45 459.361
1670 0 135.215 12.7871 1729 80.1938 1139.64 458.281
1671 0 138.252 12.5857 1740 81.0609 1139.82 455.835
1672 0 145.254 13.1632 1912 81.0214 1140.04 453.713
1673 0 148.327 12.7488 1891 83.174 1140.45 448.618
1674 0 154.41 13.4382 2075 81.4723 1139.86 447.508
1675 0 155.342 12.9328 2009 84.2225 1140.01 442.931
1676 0 162.408 13.0289 2116 83.922 1139.85 441.949
1677 0 168.397 13.195 2222 83.315 1140.03 439.433
1678 0 172.386 13.0637 2252 84.4711 1140.01 438.315
1679 0 176.367 13.0637 2304 86.9019 1140.82 434.78
1680 0 181.292 13.641 2473 85.6017 1140.69 429.683
1681 0 187.318 13.3303 2497 84.801 1139.97 430.895
1682 0 193.259 13.826 2672 83.4139 1140.81 426.93
1683 0 199.346 13.158 2623 84.9973 1140.15 424.747
1684 0 204.299 13.446 2747 85.0277 1139.94 423.987
1685 0 211.204 13.0963 2766 87.1779 1139.36 418.786
1686 0 221.308 13.6552 3022 84.5834 1140.71 419.004
1687 0 227.282 13.9474 3170 84.9795 1140.79 412.885
1688 1 161.148 13.0936 2110 86.3085 1139.81 447.308
1689 0 168.183 13.5091 2272 87.349 1140.86 444.282
1690 0 173.177 13.5641 2349 85.6743 1140.25 441.014
1691 0 175.294 13.4403 2356 87.7059 1141.11 435.809
1692 0 175.192 12.6718 2220 90.7685 1141.35 425.082
1693 0 186.17 13.6166 2535 87.1621 1141.01 423.953
1694 0 190.183 13.1137 2494 89.8063 1140.47 421.135
1695 0 197.276 13.8537 2733 87.8833 1140.7 417.69
1696 0 202.221 13.6336 2757 88.7867 1139.87 414.617
1697 0 206.277 12.6675 2613 91.1083 1140.76 413.996
1698 0 213.303 12.7049 2710 91.2923 1140.05 409.285
1699 0 220.339 13.2341 2916 90.3762 1140.02 406.454
1700 1 165.182 12.5861 2079 94.4733 1140.6 430.761
1701 0 170.323 13.2924 2264 92.9784 1141.36 425.549
1702 0 175.302 13.2685 2326 94.3285 1140.72 424.113
1703 0 181.206 13.813 2503 93.4131 1140.58 419.539
1704 0 187.234 13.6994 2565 94.9446 1140.74 417.77
1705 0 192.22 13.0319 2505 97.0052 1141.66 415.064
1706 0 198.145 13.0712 2590 97.5981 1140.88 409.327
1707 0 206.156 12.7234 2623 98.6657 1140.98 408.592
1708 0 215.284 12.797 2755 98.049 1140.96 402.735
1709 0 225.316 12.7243 2867 97.6631 1141.49 402.849
1710 0 233.365 12.9368 3019 98.1696 1140.9 399.087
1711 0 238.422 12.2178 2913 100.802 1140.89 392.728
1712 0 238.455 12.3252 2939 161.249 1139.89 392.974
1713 1 62.0811 6.91032 429 80.5478 1140.8 492.956
1714 0 64.2005 8.6448 555 79.4541 1141.59 491.777
1715 0 63.2209 9.77525 618 79.2654 1140.99 490.979
1716 0 61.1284 9.7009 593 79.5852 1141.04 492.042
1717 0 66.1459 10.6583 705 80.3291 1140.95 490.041
1718 0 66.163 11.1543 738 77.3577 1141.79 489.804
1719 0 67.1579 11.674 784 78.9579 1141.26 490.99
1720 0 69.1463 10.8032 747 76.8635 1140.6 490.589
1721 0 74.093 11.2831 836 75.7081 1140.58 488.775
1722 0 75.0979 11.2919 848 75.9292 1140.35 487.421
1723 0 77.0335 11.177 861 77.0859 1140.77 485.274
1724 0 77.0304 11.1774 861 117.226 1141.77 485.274
1725 0 79.0385 11.1591 882 79.5533 1140.67 484.896
1726 0 84.0851 11.5121 968 76.5258 1141.07 481.726
1727 0 83.0682 10.1363 842 80.1758 1140.24 484.252
1728 0 85.1623 10.5798 901 79.9079 1139.99 481.347
1729 0 89.0929 10.9661 977 77.6766 1141.53 483.515
1730 0 94.0479 11.7068 1101 76.7911 1141.27 478.843
1731 0 96.0773 11.5636 1111 76.1467 1141.15 479.329
1732 0 99.0863 11.4547 1135 77.1145 1140.92 475.31
1733 0 103.048 11.9847 1235 76.098 1141.86 475.253
1734 0 105.065 12.0306 1264 76.2959 1141.83 476.257
1735 0 107.072 12.02 1287 77.2704 1141.04 473.956
1736 0 111.146 12.578 1398 79.6595 1140.14 470.343
1737 0 111.162 11.6227 1292 82.024 1139.53 471.532
1738 1 64.047 10.7421 688 89.7195 1140.09 492.783
1739 0 63.0431 10.2311 645 79.2558 1141.02 484.366
1740 0 63.0562 10.3876 655 75.1649 1140.8 484.945
1741 0 66.0679 10.5649 698 74.265 1141.49 485.054
1742 0 66.1448 10.6282 703 80.8364 1141.62 482.673
1743 0 68.1844 11.1756 762 79.3517 1141.06 481.669
1744 0 69.1003 11.3748 786 71.6412 1141.31 480.785
1745 0 70.1037 10.4987 736 74.8981 1140.29 477.868
1746 0 71.1378 10.9927 782 76.1125 1140.91 477.106
1747 0 72.0429 12.1733 877 83.0228 1140.02 475.649
1748 0 74.0726 12.1367 899 82.4216 1140.05 475.36
1749 0 76.0779 11.7117 891 82.9169 1140.29 472.413
1750 0 73.1125 11.3524 830 83.9012 1140.03 471.123
1751 0 80.0675 11.865 950 81.3337 1140.2 469.376
1752 0 79.0578 12.7249 1006 81.3539 1140.23 466.994
1753 0 83.1756 12.2993 1023 81.9101 1140.57 466.401
1754 0 82.0677 11.4905 943 85.7328 1140.45 463.537
1755 0 86.0959 12.1028 1042 83.5576 1141.17 463.885
1756 0 89.0367 11.6693 1039 84.3022 1141.26 460.994
1757 0 89.0588 11.3745 1013 85.6545 1141.61 457.6
1758 0 91.0777 11.7372 1069 85.2647 1140.4 455.827
1759 0 96.062 12.3566 1187 83.2502 1140.49 455.327
1760 0 98.1136 12.3224 1209 83.0885 1140.89 455.333
1761 1 112.191 12.6481 1419 82.7625 1141.48 460.617
1762 0 111.065 12.4972 1388 82.9971 1140.16 460.988
1763 0 116.102 12.8766 1495 81.6033 1140.22 459.31
1764 0 121.085 13.4038 1623 79.3506 1140.56 454.677
1765 0 118.196 13.4184 1586 78.9029 1141.23 447.905
1766 0 119.127 12.7595 1520 80.2303 1141.08 444.548
1767 0 122.272 13.0692 1598 79.4061 1141.57 442.238
1768 0 126.211 12.8515 1622 80.2546 1141.8 442.982
1769 0 127.147 12.3636 1572 82.4103 1141.55 439.454
1770 0 132.094 12.4836 1649 82.2001 1141.01 438.308
1771 0 133.13 12.3714 1647 83.3127 1140.84 435.519
1772 0 137.323 12.3505 1696 83.4351 1141.3 433.482
1773 0 149.245 12.9049 1926 81.0088 1140.91 433.518
1774 0 147.146 12.3007 1810 84.3967 1141.16 429.041
1775 0 158.184 13.2946 2103 82.389 1140.77 427.473
1776 0 165.172 12.2841 2029 85.0759 1141.33 426.495
1777 0 172.179 12.8936 2220 84.1257 1140.41 417.027
1778 0 176.189 13.7239 2418 82.9479 1140.59 416.303
1779 0 180.227 12.9004 2325 85.0284 1140.74 416.355
1780 0 189.189 12.6646 2396 84.8005 1141.13 414.837
1781 0 195.225 13.3948 2615 84.5247 1140.83 412.193
1782 0 203.362 13.9603 2839 83.0761 1141.19 408.584
1783 0 209.193 13.2031 2762 84.664 1140.96 404.174
1784 1 152.195 9.99374 1521 89.2413 1141.04 429.036
1785 0 154.122 11.5623 1782 89.6111 1141.44 424.03
1786 0 164.143 12.282 2016 87.6052 1141.54 426.764
1787 0 170.201 11.8096 2010 90.0159 1140.53 421.287
1788 0 178.199 12.4692 2222 89.6602 1140.43 421.169
1789 0 183.248 12.8951 2363 89.4312 1140.46 418.931
1790 0 191.202 12.7404 2436 89.7902 1140.72 413.853
1791 1 27.0157 4.66395 126 56.2937 1142.66 508.254
1792 0 30.0823 6.11655 184 60.2228 1143.2 505.94
1793 0 30.0823 6.21627 187 102.519 1144.11 505.909
1794 0 33.0381 7.96052 263 62.4106 1142.46 502.118
1795 0 35.0986 8.14848 286 62.2448 1142.67 505.64
1796 0 36.1427 9.65616 349 60.9054 1142.23 504.974
1797 0 35.0147 8.28223 290 63.8897 1140.61 507.338
1798 0 36.0446 9.09983 328 63.128 1140.97 507.006
1799 0 33.0341 9.38424 310 65.4613 1141.13 507.258
1800 0 33.0031 9.15067 302 69.4371 1139.56 510.139
1801 0 32.0214 8.40064 269 71.6357 1140.86 510.773
1802 0 33.0121 8.29999 274 73.1642 1140.54 510.35
1803 0 33.0128 8.81476 291 74.4467 1140.05 509.663
1804 1 93.2653 11.5048 1073 74.3635 1140.21 479.806
1805 0 97.3123 11.458 1115 73.2726 1140.44 478.671
1806 0 98.1434 11.4526 1124 74.4137 1139.84 477.69
1807 0 100.262 11.7991 1183 74.2806 1140.18 476.921
1808 0 103.295 11.7624 1215 74.5374 1139.16 475.17
1809 0 103.232 11.634 1201 75.3539 1139.87 474.077
1810 0 109.336 10.5913 1158 82.5527 1139.88 473.136
1811 0 112.423 10.4338 1173 82.0409 1140.39 471.821
1812 0 116.367 10.1232 1178 81.3132 1139.13 472.199
1813 1 77.2594 9.43575 729 79.5473 1139.94 491.553
1814 0 79.2069 9.32999 739 80.8999 1139.59 488.004
1815 0 81.2642 10.5582 858 81.3951 1139.4 486.396
1816 0 82.3456 11.0996 914 80.7341 1140.86 485.406
1817 0 82.3437 11.3427 934 76.3822 1140.01 485.994
1818 0 84.2787 10.6789 900 78.0867 1140.35 483.223
1819 0 85.1833 11.1994 954 77.9025 1139.62 483.568
1820 0 85.1955 10.6109 904 79.7611 1140.51 481.906
1821 0 89.2915 11.5689 1033 76.7667 1140.39 481.657
1822 0 86.1998 9.90722 854 80.8232 1139.94 483.851
1823 1 35.003 9.0278 316 75.0759 1140.31 511.326
1824 0 36.037 9.79549 353 76.0907 1138.66 507.15
1825 1 92.4424 9.83315 909 80.1804 1140.77 482.452
1826 0 94.2147 10.1046 952 80.1334 1140.77 482.53
1827 0 94.1843 10.0229 944 80.4036 1141.34 480.979
1828 0 97.1132 10.7297 1042 77.3378 1141.5 479.944
1829 0 100.117 10.3379 1035 76.7478 1142.03 478.712
1830 0 101.182 10.6541 1078 75.5909 1141.49 478.298
1831 0 103.128 10.2107 1053 76.2602 1142.16 477.201
1832 0 105.172 10.1167 1064 77.3233 1141.65 474.413
1833 0 108.225 10.0993 1093 76.6258 1141.46 474.976
1834 1 37.0242 8.88608 329 70.9726 1141.6 508.289
1835 0 38.0407 8.99038 342 70.2953 1142.02 507.93
1836 0 37.0143 8.37514 310 72.1 1141.57 509.11
1837 0 38.0466 8.48959 323 71.0372 1141.44 508.789
1838 0 39.0472 8.78425 343 69.3848 1141.9 507.743
1839 0 38.0171 8.86443 337 70.3709 1141.47 505.142
1840 0 38.0269 9.12511 347 69.7032 1140.73 508.058
1841 0 38.0146 9.02286 343 68.7289 1141.33 506.711
1842 1 130.292 11.1673 1455 73.8069 1140.74 460.236
1843 0 131.239 10.7133 1406 74.7724 1140.39 458.243
1844 1 39.0309 9.14659 357 65.2353 1140.29 505.51
1845 0 38.0445 8.91062 339 64.705 1140.68 504.481
1846 0 38.0078 8.86659 337 62.9496 1141.14 506.012
1847 0 38.0108 8.78699 334 63.3084 1141.52 504.683
1848 0 38.0176 8.83802 336 62.5565 1140.99 505.771
1849 0 36.0534 8.23777 297 63.4377 1141.95 505.848
1850 0 39.0494 9.21909 360 61.3972 1141.95 504.617
1851 0 40.0943 9.32801 374 60.7433 1142.8 504.824
1852 0 39.0306 9.14668 357 60.4482 1141.83 504.098
1853 0 39.0157 8.43251 329 60.1246 1142.4 504.912
1854 0 41.0329 9.62642 395 56.9114 1142 505.208
1855 0 45.082 10.736 484 53.657 1142.29 503.318
1856 0 42.0154 10.401 437 54.1236 1141.42 504.014
1857 0 43.068 11.0987 478 52.4833 1142.29 502.847
1858 0 43.0143 10.0897 434 53.6359 1142.49 502.956
1859 0 43.0584 11.078 477 51.8532 1141.72 501.889
1860 0 41.0336 9.99181 410 53.3 1142.7 503.034
1861 0 42.0822 10.2419 431 52.3179 1142.09 503.599
1862 0 44.0718 10.4148 459 51.4161 1142.63 503.157
1863 0 44.0523 10.6464 469 50.8294 1141.41 501.723
1864 0 39.0425 10.4758 409 52.0171 1142.07 502.198
1865 0 44.0518 9.73854 429 51.5338 1142.58 502.716
1866 0 43.0679 9.10191 392 51.7934 1142.38 501.24
1867 0 41.0939 8.71176 358 52.5391 1141.35 501.835
1868 0 40.0311 9.66749 387 51.7545 1141.51 502.395
1869 0 43.008 8.78906 378 51.291 1141.75 501.172
1870 0 37.0511 8.87962 329 53.3647 1141.72 503.143
1871 0 39.0181 7.94503 310 53.2774 1142.07 504.848
1872 0 35.0762 5.75889 202 55.0396 1142.2 506.287
1873 0 38.0404 7.51833 286 52.6469 1141.66 504.822
1874 0 37.0859 6.79504 252 53.0675 1142.11 506.048
1875 0 36.034 7.29866 263 52.8099 1141.97 503.418
1876 0 34.0455 5.37516 183 53.7104 1142.1 506.546
1877 0 33.1296 8.45165 280 52.1464 1141.61 501.982
1878 0 33.0298 7.4781 247 52.3401 1141.93 503.085
1879 0 38.0498 6.93828 264 51.3864 1142.69 505.473
1880 0 40.039 7.96723 319 50.4514 1142.42 502.652
1881 0 38.0507 7.9105 301 50.0532 1142.47 500.864
1882 0 36.0187 7.44059 268 50.6866 1142.5 503.164
1883 0 35.0211 6.71025 235 51.0809 1143.31 503.447
1884 0 37.0485 8.01651 297 49.7912 1142.75 502.007
1885 0 37.0262 6.45489 239 50.5983 1143.1 503.146
1886 0 34.0191 7.78974 265 49.2453 1143.46 502.483
1887 0 36.0257 6.77295 244 48.9795 1142.87 504.328
1888 0 37.0315 6.18392 229 94.5677 1142.96 504.638
1889 0 37.0941 7.81796 290 48.2345 1142.27 501.372
1890 0 36.0225 6.46818 233 48.6996 1142.32 503.348
1891 0 36.0195 6.71859 242 49.1818 1142.18 501.789
1892 0 37.0196 6.26695 232 49.6422 1142.05 502.427
1893 0 36.0084 6.52625 235 49.4809 1142.92 500.962
1894 0 33.0186 4.84576 160 50.0875 1142.21 502.556
1895 0 28.0095 4.85549 136 50.5735 1142.98 505.463
1896 0 34.0938 3.34371 114 50.4649 1142.78 508
1897 1 109.232 8.52316 931 79.4919 1140.66 456.017
1898 0 110.182 8.37707 923 81.6403 1139.98 450.622
1899 0 113.207 8.78919 995 80.7337 1140.94 452.553
1900 0 117.268 8.75773 1027 82.1071 1140.72 449.466
1901 0 121.267 10.4892 1272 78.3019 1140.24 451.223
1902 0 122.102 8.86142 1082 86.1266 1140.69 445.443
1903 0 126.181 8.86026 1118 86.5823 1140.63 445.304
1904 0 128.217 8.98477 1152 87.5911 1140.59 443.402
1905 0 129.259 9.34559 1208 88.8998 1140.24 438.39
1906 1 188.308 11.5874 2182 96.1668 1140.25 395.161
1907 1 220.244 8.13643 1792 99.2137 1139.51 402.3
1908 0 212.277 13.261 2815 92.1947 1139.33 384.004
1909 0 214.357 13.7714 2952 89.9953 1139.53 381.437
1910 0 217.292 13.59 2953 92.9045 1140.21 377.702
1911 0 219.312 13.4375 2947 93.3834 1140.3 372.799
1912 1 250.379 13.1081 3282 92.6472 1139.54 378.2
1913 1 59.1019 11.404 674 88.2685 1139.73 454.576
1914 0 63.1268 12.2927 776 85.5541 1139.55 453.892
1915 0 65.0884 11.7993 768 88.457 1140.1 452.576
1916 0 67.151 12.1517 816 87.3199 1139.12 451.574
1917 0 67.0813 11.896 798 89.0551 1140.02 450.523
1918 0 70.1594 12.1295 851 89.4501 1140.29 448.633
1919 0 71.1788 11.8434 843 90.0629 1139.51 447.941
1920 0 76.0912 12.1959 928 88.0022 1140.34 447.379
1921 0 78.1345 12.76 997 86.8766 1139.43 445.476
1922 0 80.1337 12.3294 988 87.3846 1139.64 444.818
1923 0 82.1649 12.4993 1027 87.3408 1138.99 443.909
1924 0 87.1046 12.8581 1120 87.0589 1139.58 441.812
1925 0 89.1059 12.2775 1094 88.2002 1139.11 439.822
1926 0 92.1348 12.5468 1156 88.423 1138.99 438.341
1927 0 95.1695 13.3972 1275 87.0761 1139.54 435.976
1928 0 98.1519 12.9391 1270 89.1717 1139.5 434.121
1929 1 53.1421 11.1964 595 89.3697 1138.96 457.081
1930 0 55.0519 11.4438 630 86.3937 1138.93 455.852
1931 0 59.0403 11.5853 684 85.8523 1139.11 454.374
1932 0 58.0625 11.5909 673 86.9703 1139.21 453.431
1933 0 61.0786 11.8372 723 87.639 1138.88 453.635
1934 0 62.093 12.3524 767 85.7601 1139.35 453.073
1935 0 66.0857 12.4233 821 84.1303 1139.19 452.638
1936 0 68.1445 12.6349 861 83.9315 1138.74 450.354
1937 0 69.0339 12.7618 881 84.5221 1138.31 449.48
1938 0 73.1144 13.1985 965 83.4705 1138.79 448.258
1939 0 77.0884 13.3743 1031 82.9001 1138.94 448.306
1940 0 76.0676 12.8438 977 85.5005 1139.23 445.923
1941 0 80.1095 13.0696 1047 84.8424 1138.65 445.976
1942 0 83.0875 13.3474 1109 84.138 1138.95 443.973
1943 0 83.0726 13.3738 1111 86.1125 1139.07 442.399
1944 0 87.123 13.2801 1157 86.1685 1139.17 442.239
