time division length width area intensity CMx CMy
1225 0 85.2474 12.2584 1045 93.2679 240.595 352.819
1226 0 85.2474 12.2936 1048 179.644 239.59 352.826
1227 0 92.1227 13.1021 1207 92.1002 239.965 348.62
1228 0 92.1227 13.1347 1210 172.051 240.974 348.607
1229 1 53.102 12.2783 652 88.0675 240.767 366.96
1230 0 56.0574 11.8093 662 86.2462 241.254 367.183
1231 0 54.1051 12.18 659 89.3111 240.165 366.618
1232 0 57.113 12.6591 723 89.3942 240.495 364.574
1233 0 57.0703 12.0553 688 88.3866 240.228 365.545
1234 0 57.0811 12.1581 694 89.9424 240.369 364.827
1235 0 61.0694 12.1174 740 88.6946 240.273 363.378
1236 0 63.0466 12.229 771 88.3904 240.167 362.643
1237 0 63.0533 12.1326 765 89.3752 240.59 363.314
1238 0 64.084 12.4212 796 90.4422 240.322 360.206
1239 0 66.0479 11.8853 785 90.814 241.088 362.503
1240 0 69.1445 12.2642 848 89.7311 241.586 360.044
1241 0 70.0993 12.3396 865 90.548 240.675 359.012
1242 0 73.0694 12.8371 938 89.8475 240.429 357.816
1243 0 76.089 11.986 912 91.1864 242.214 357.614
1244 0 79.1191 12.892 1020 89.9549 241.255 354.581
1245 0 81.0844 12.5918 1021 90.7238 242.11 354.211
1246 0 81.0224 12.2065 989 92.4125 241.511 353.615
1247 0 85.0782 12.9293 1100 90.6582 241.545 352.775
1248 0 88.0913 12.873 1134 91.7231 242.067 349.836
1249 0 92.043 12.7332 1172 92.0708 242.415 348.429
1250 0 96.0642 13.5222 1299 90.107 242.003 346.242
1251 0 98.0407 13.6168 1335 90.6929 242.201 345.354
1252 0 101.1 13.7586 1391 91.5859 241.498 345.7
1253 0 105.173 13.6917 1440 94.0806 241.66 343.417
1254 1 58.033 11.3384 658 90.734 241.684 358.91
1255 0 56.0744 10.7892 605 92.8463 242.293 356.592
1256 0 61.1269 12.335 754 88.9244 242.279 365.057
1257 0 61.0513 12.0882 738 88.5108 242.89 365.321
1258 0 64.0406 12.0549 772 88.3679 242.887 362.486
1259 0 66.0686 12.0935 799 88.6295 241.651 362.494
1260 0 68.1082 12.2305 833 88.4814 242.519 361.369
1261 0 70.0921 12.1554 852 87.7512 241.908 360.552
1262 0 72.0763 12.3203 888 87.3322 242.073 359.789
1263 0 74.066 12.5159 927 88.3797 242.026 358.542
1264 0 75.1094 12.0091 902 90.7916 242.3 357.233
1265 0 79.0459 11.9551 945 92.1386 241.034 353.707
1266 0 80.0429 11.9936 960 93.9552 240.625 354.51
1267 0 82.0843 11.8902 976 94.8863 240.741 354.777
1268 0 86.0757 12.3844 1066 92.6257 240.678 353.221
1269 0 87.1089 11.9391 1040 96.5135 240.691 351.003
1270 0 91.0344 12.7864 1164 94.4854 241.306 350.191
1271 0 92.0899 12.4444 1146 96.6981 241.312 347.702
1272 0 98.077 12.7859 1254 95.4155 240.717 345.359
1273 1 51.0342 11.2865 576 99.6892 241.062 367.698
1274 0 53.1304 11.3682 604 93.8758 242.048 361.901
1275 0 55.0582 12.5322 690 97.2391 242.278 364.51
1276 0 56.0804 12.3751 694 88.2983 241.409 365.803
1277 0 55.0345 11.52 634 90.9732 241.489 366.576
1278 0 58.0532 11.8512 688 89.0073 241.672 366.645
1279 0 57.1165 11.4503 654 91.8349 242.439 365.179
1280 0 59.0446 11.7877 696 90.1279 241.784 363.138
1281 0 59.0629 11.801 697 92.5825 241.451 361.601
1282 0 64.1137 11.8384 759 90.5191 241.748 362.842
1283 0 64.0676 12.1278 777 91.3719 242.185 362.246
1284 0 67.0485 12.0659 809 92.0198 242.262 360.708
1285 0 70.0699 12.7872 896 90.2266 241.874 359.354
1286 0 72.0552 13.1288 946 90.0539 242.471 358.414
1287 0 73.0896 12.4915 913 93.3406 242.34 356.944
1288 0 77.0497 14.9903 1155 90.5472 242.576 355.222
1289 0 77.0604 13.1974 1017 94.9715 242.567 354.615
1290 0 80.0897 12.7108 1018 96.6316 243.249 352.715
1291 0 83.0841 12.6619 1052 98.4857 242.944 349.927
1292 0 84.0601 12.9193 1086 98.8131 242.576 348.508
1293 0 86.14 12.6538 1090 99.8046 242.491 349.026
1294 0 92.0616 13.4041 1234 95.9473 242.288 346.968
1295 0 94.063 13.9162 1309 97.9962 241.024 344.451
1296 0 97.082 13.8852 1348 97.342 240.784 344.794
1297 0 100.126 14.222 1424 97.7619 241.579 342.719
1298 1 54.0473 11.3234 612 97.4542 240.234 365.569
1299 0 53.0451 11.3111 600 99.7333 241.038 363.773
1300 0 54.0293 11.3087 611 95.707 241.646 359.918
1301 0 53.0527 10.9514 581 92.6971 240.468 365.972
1302 0 55.0628 10.7332 591 93.6481 241.125 365.146
1303 0 57.0607 10.3749 592 92.951 240.475 364.843
1304 0 61.0578 11.7757 719 88.9485 241.292 362.954
1305 0 60.0995 11.2314 675 90.4711 241.256 362.415
1306 0 64.039 11.8678 760 89.1895 241.808 363.22
1307 0 65.1056 10.6443 693 91.7619 241.756 364.424
1308 0 66.0617 11.2168 741 93.112 241.131 362.177
1309 0 68.0972 11.7332 799 92.0488 240.831 360.432
1310 0 71.1323 11.3029 804 92.5572 241.422 360.193
1311 0 72.1416 11.5329 832 93.7812 241.833 359.423
1312 0 75.1138 12.1948 916 92.7096 240.727 359.033
1313 0 75.0815 11.3876 855 94.6386 241.005 358.732
1314 0 80.1129 11.7709 943 93.3075 241.067 357.633
1315 0 82.0941 12.376 1016 93.875 241.507 354.68
1316 0 85.0465 12.3697 1052 93.5789 240.644 352.581
1317 0 87.1205 11.7424 1023 94.8592 241.669 350.038
1318 0 89.083 11.8204 1053 95.2203 241.085 349.176
1319 0 93.1002 11.3748 1059 95.3702 241.281 349.601
1320 0 96.0804 12.8538 1235 92.983 241.278 348.14
1321 0 99.1773 12.2407 1214 86.028 242.08 345.357
1322 1 54.0604 11.0247 596 95.8523 240.787 366.399
1323 0 56.079 11.7513 659 90.7223 240.519 364.804
1324 0 55.0488 10.9176 601 89.6173 241.062 367.293
1325 0 57.0513 10.6395 607 90.1367 241.003 366.839
1326 0 60.1119 11.7115 704 88.2841 240.879 365.53
1327 0 61.1243 11.174 683 88.9063 243.012 365.138
1328 0 63.0681 11.7651 742 88.4218 241.844 364.818
1329 0 66.121 11.9932 793 88.425 241.309 363.459
1330 0 69.1287 12.4984 864 88.39 240.906 361.691
1331 0 71.102 12.1094 861 87.3159 240.087 360.981
1332 0 72.0791 12.0839 871 89.7991 240.724 358.952
1333 0 74.1267 12.2898 911 89.9089 240.438 357.833
1334 0 77.0705 11.9501 921 91.3855 240.611 356.307
1335 0 81.1551 13.3448 1083 92.8375 240.309 354.977
1336 0 85.0803 12.929 1100 92.7355 240.898 352.795
1337 0 88.0791 13.3743 1178 88.8039 240.809 351.967
1338 0 89.1432 12.766 1138 90.0589 240.367 350.186
1339 1 51.0392 10.6389 543 86.0773 239.309 371.652
1340 0 53.0527 11.253 597 84.4657 239.675 371.136
1341 0 53.0712 11.0041 584 85.5103 240.101 370.551
1342 0 54.0815 11.5566 625 85.6768 239.982 369.586
1343 0 57.1119 11.7138 669 84.6951 240.04 370.688
1344 0 56.1063 12.0664 677 92.5879 240.108 367.793
1345 0 57.055 11.41 651 85.5637 240.174 371.785
1346 0 60.0602 11.3719 683 85.388 239.919 368.921
1347 0 61.0765 11.6739 713 85.5582 239.202 368.171
1348 0 61.0529 11.5801 707 87.1004 240.048 368.281
1349 0 63.1147 11.9148 752 86.7859 239.658 367.812
1350 0 66.0818 11.8489 783 88.6411 239.346 365.782
1351 0 68.0809 11.9564 814 89.6413 239.838 363.853
1352 0 69.0533 12.0342 831 89.9663 239.668 362.256
1353 0 72.0947 12.2062 880 89.992 239.634 362.332
1354 0 73.096 12.2852 898 91.637 239.29 362.095
1355 0 76.1079 13.021 991 91.8365 240.321 360.133
1356 0 77.0587 12.4321 958 94.071 240.059 359.707
1357 0 81.1168 13.1415 1066 93.0966 239.852 358.42
1358 0 83.1805 12.539 1043 95.0153 241.038 356.285
1359 0 86.1318 13.2239 1139 92.4284 240.687 354.601
1360 0 88.1304 12.6063 1111 94.5788 240.14 352.424
1361 0 93.1994 12.6074 1175 94.9174 240.01 353.865
1362 1 51.1321 11.4605 586 93.3157 240.348 373.664
1363 0 54.0881 11.7401 635 91.7102 239.887 372.005
1364 0 55.0321 12.738 701 89.6391 241.478 370.695
1365 0 56.0735 12.4658 699 82.5365 240.641 372.883
1366 0 58.0726 12.6049 732 83.5014 240.585 376.148
1367 0 55.0851 11.3642 626 86.1853 240.403 372.254
1368 0 57.1118 11.8364 676 85.7781 239.901 370.123
1369 0 58.0934 11.7225 681 86.5316 240.15 370.812
1370 0 61.0939 11.4905 702 87.4444 239.677 368.956
1371 0 61.1174 11.437 699 88.0443 239.8 370.033
1372 0 64.1287 12.1319 778 87.8715 240.216 368.145
1373 0 68.0503 12.2556 834 87.5576 240.278 366.845
1374 0 69.0414 12.5866 869 88.4488 240.024 366.45
1375 0 71.0978 12.6164 897 90.0981 239.95 363.095
1376 0 75.0771 12.6537 950 89.9 239.384 361.556
1377 0 79.1141 13.272 1050 91.8295 239.6 362.019
1378 0 81.1106 13.2288 1073 93.3616 239.563 363.701
1379 0 82.0797 13.2067 1084 93.0692 240.108 364.458
1380 0 81.074 12.5441 1017 100.264 239.196 363.166
1381 0 83.093 12.3596 1027 101.85 239.19 364.343
1382 0 84.0939 12.5217 1053 101.241 239.209 360.067
1383 1 44.0224 10.4265 459 98.2614 239.401 383.647
1384 0 47.0533 11.3701 535 88.8336 241.052 384.617
1385 0 47.0717 12.2791 578 85.8858 240.983 379.721
1386 0 49.1044 11.8727 583 86.0875 240.599 379.326
1387 0 48.0443 11.3645 546 86.2509 238.751 378.701
1388 0 51.0324 12.2667 626 83.6438 239.137 376.487
1389 0 52.0298 11.5511 601 84.0965 238.546 376.88
1390 0 52.0738 11.5221 600 85.8083 238.708 374.9
1391 0 54.0387 12.0469 651 85.0276 238.774 374.998
1392 0 55.0635 12.1496 669 86.3363 239.851 374.883
1393 0 55.0519 12.0795 665 87.5459 239.692 374.898
1394 0 58.0279 12.5802 730 86.8438 239.719 374.515
1395 0 58.0434 11.4053 662 89.9094 239.156 375.89
1396 0 60.0458 12.0242 722 89.9335 238.864 372.53
1397 0 61.0731 12.2149 746 90.437 239.224 373.386
1398 0 63.0724 11.6057 732 93.4495 238.713 369.79
1399 0 65.0341 11.7323 763 92.7628 238.955 368.729
1400 0 65.0749 11.4022 742 94.8315 238.575 369.437
1401 0 68.0425 11.4046 776 95.9227 239.094 367.345
1402 0 72.0511 12.047 868 94.0518 238.999 366.744
1403 0 73.0492 11.6497 851 94.5993 239.137 366.207
1404 1 41.0184 11.7752 483 94.2816 238.754 379.319
1405 0 43.0644 11.448 493 94.3205 239.361 379.59
1406 0 43.0568 12.0074 517 94.4584 239.07 378.561
1407 0 43.0873 11.9061 513 97.2904 239.072 378.661
1408 0 44.0169 11.6773 514 97.8541 238.512 379.163
1409 0 44.0399 11.7621 518 98.4961 238.954 378.882
1410 0 46.0515 12.2037 562 97.694 239.043 378.383
1411 0 48.0407 11.3862 547 98.4186 238.753 377.583
1412 0 48.0509 11.8208 568 98.5511 239.935 376.998
1413 0 47.056 11.1569 525 103.827 239.23 376.179
1414 0 51.0811 11.3153 578 101.886 239.479 376.815
1415 0 51.0686 11.8468 605 102.078 240.534 374.911
1416 0 53.0862 12.1312 644 101.537 239.795 374.301
1417 0 55.0976 12.0876 666 101.682 240.227 375.383
1418 0 56.0482 12.5785 705 100.982 239.59 373.933
1419 0 59.0633 11.8178 698 101.809 240.138 373.841
1420 0 61.0539 12.1368 741 101.204 240.479 373.506
1421 0 61.092 13.0132 795 99.8566 240.15 373.215
1422 0 63.0907 11.856 748 102.532 239.869 370.881
1423 0 64.1132 12.244 785 101.701 239.926 369.694
1424 0 67.0751 12.6873 851 100.901 240.583 369.655
1425 0 69.0595 12.4241 858 101.552 240.253 369.028
1426 0 71.0595 12.3277 876 102.313 240.632 368.41
1427 0 75.112 13.5664 1019 99.629 240.444 366.032
1428 0 76.0852 13.2089 1005 102.296 240.315 363.62
1429 0 78.0866 12.5758 982 99.8921 239.558 365.645
1430 0 79.0533 13.0039 1028 100.105 240.318 362.227
1431 0 83.0536 12.9194 1073 98.5266 240.624 361.437
1432 0 85.0989 12.8556 1094 96.4479 239.873 362.078
1433 0 86.0904 13.2187 1138 99.0308 240.628 358.943
1434 0 91.0731 13.8899 1265 96.8609 239.913 357.203
1435 0 91.0773 13.0988 1193 96.622 239.737 356.125
1436 0 94.0839 12.8927 1213 95.2927 239.879 356.875
1437 0 97.0754 13.062 1268 94.0741 240.005 355.076
1438 0 100.106 13.236 1325 94.7449 239.963 353.231
1439 0 100.068 12.9812 1299 96.2564 240.171 351.456
1440 0 106.117 13.5793 1441 94.34 239.83 350.938
1441 0 108.118 13.7905 1491 94.1751 239.59 349.516
1442 0 112.158 13.6593 1532 96.6443 240.186 345.578
1443 0 117.265 14.7103 1725 97.8707 240.672 342.91
1444 0 118.206 13.9333 1647 100.752 240.154 340.233
1445 0 123.128 14.6839 1808 97.9027 239.539 337.943
1446 0 127.133 14.5281 1847 98.281 239.59 337.049
1447 0 128.131 14.7506 1890 98.4069 240.532 334.961
1448 0 133.225 15.0047 1999 97.3652 239.983 330.679
1449 0 138.176 14.221 1965 99.1308 240.537 332.014
1450 0 142.15 15.2514 2168 96.1928 240.26 329.339
1451 0 146.17 15.0647 2202 97.574 239.607 328.259
1452 1 77.1336 11.9274 920 99.5022 240.829 366.037
1453 0 79.1068 11.6551 922 100.323 240.443 361.851
1454 0 82.084 11.8293 971 100.972 240.42 361.104
1455 0 85.0818 12.4821 1062 101.31 239.686 358.335
1456 0 86.0873 13.103 1128 98.2314 239.773 357.109
1457 0 88.0949 13.6103 1199 99.5179 239.851 356.678
1458 0 92.0844 13.5528 1248 98.867 240.057 355.524
1459 0 93.1195 13.327 1241 101.051 239.618 352.792
1460 0 95.1165 13.7095 1304 99.2623 239.698 351.945
1461 0 97.1576 13.9567 1356 100.569 240.097 349.387
1462 0 99.1017 13.6829 1356 100.633 240.279 345.971
1463 0 100.151 13.23 1325 105.817 239.707 342.684
1464 0 106.205 13.1538 1397 104.113 239.656 341.898
1465 0 110.135 13.4108 1477 102.196 240.179 341.642
1466 0 114.11 13.0752 1492 101.427 239.042 338.531
1467 0 118.15 13.4237 1586 101.503 239.286 341.763
1468 0 122.107 13.4718 1645 101.078 239.078 339.629
1469 0 127.06 17.6845 2247 81.385 240.187 325.773
1470 0 128.111 16.111 2064 85.189 240.198 327.939
1471 0 133.152 15.7114 2092 84.9761 239.441 325.625
1472 0 138.098 15.9018 2196 83.6193 240.543 321.719
1473 0 142.052 15.2268 2163 88.0837 239.631 321.69
1474 0 148.14 15.6137 2313 87.2114 240.65 320.908
1475 0 153.137 16.3057 2497 86.2131 239.93 313.29
1476 0 157.158 15.8567 2492 87.2709 239.73 312.549
1477 1 86.0612 11.8636 1021 94.5406 239.594 354.819
1478 0 86.1003 12.4622 1073 93.9161 240.3 351.596
1479 0 89.0647 12.1934 1086 94.9576 240.068 351.601
1480 0 94.1446 13.235 1246 92.2978 240.548 349.675
1481 0 95.1437 12.1921 1160 95.244 240.463 347.978
1482 0 99.1169 12.2885 1218 93.3916 241.08 349.851
1483 0 100.112 12.6558 1267 93.9124 240.571 352.135
1484 0 104.133 12.7913 1332 92.2995 241.417 343.983
1485 0 105.056 12.3743 1300 94.3323 240.46 345.977
1486 0 111.068 13.055 1450 92.5469 240.608 344.817
1487 0 115.053 12.8723 1481 92.0885 240.336 345.494
1488 0 117.114 13.568 1589 91.7155 239.986 344.971
1489 0 121.088 12.9327 1566 93.3212 240.328 341.976
1490 0 125.135 12.4666 1560 92.6186 240.481 338.599
1491 0 130.052 12.7564 1659 92.7016 239.571 338.855
1492 0 133.12 12.8981 1717 93.7973 240.108 337.546
1493 1 78.0742 10.9255 853 93.4619 240.576 361.134
1494 0 81.1276 12.1783 988 90.7358 240.029 360.428
1495 0 85.0912 12.2339 1041 90.7205 240.199 357.961
1496 0 88.0775 11.8646 1045 91.5388 240.076 355.343
1497 0 90.1077 12.03 1084 92.4059 239.956 355.14
1498 0 92.0754 12.1965 1123 94.4969 239.606 354.708
1499 0 97.0395 12.8607 1248 92.1803 240.32 349.808
1500 0 97.0395 12.9123 1253 175.858 241.324 349.765
1501 0 103.154 12.4183 1281 93.0531 240.737 347.838
1502 0 106.115 13.0047 1380 92.442 240.791 347.853
1503 0 108.244 13.2016 1429 92.254 240.137 339.903
1504 1 60.0347 10.6772 641 93.312 240.292 364.774
1505 0 61.0451 11.8437 723 90.6763 239.775 363.087
1506 0 65.0636 12.3264 802 85.3766 240.379 363.293
1507 0 66.0797 12.5303 828 90.3671 240.563 360.873
1508 0 70.1166 13.4633 944 86.053 240.144 360.369
1509 0 70.0602 13.0174 912 88.6107 241.245 360.997
1510 0 72.0503 13.0603 941 88.39 241.785 359.101
1511 0 74.1346 12.8145 950 87.8284 240.637 358.782
1512 0 73.0966 12.4903 913 86.5225 240.697 359.182
1513 0 74.0745 11.8529 878 88.9214 240.477 358.228
1514 0 76.111 12.0613 918 87.7222 240.727 359.849
1515 0 79.1361 12.4216 983 88.8749 240.906 356.378
1516 0 82.0756 12.3545 1014 89.7041 240.257 360.759
1517 0 83.1079 12.5499 1043 90.9962 240.18 355.961
1518 0 87.1493 13.3334 1162 89.2022 239.995 354.786
1519 0 88.0825 13.0332 1148 91.047 239.998 354.618
1520 0 91.1261 12.8064 1167 92.3248 240.362 354.771
1521 0 93.1181 13.1768 1227 92.198 240.255 354.827
1522 0 96.1669 13.4558 1294 92.3354 240.342 354.054
1523 0 99.1147 13.0758 1296 93.6466 240.478 352.916
1524 0 102.159 13.5475 1384 93.6243 240.045 351.504
1525 0 104.13 13.2238 1377 93.8402 241.045 349.936
1526 0 107.164 13.2601 1421 94.8571 240.92 349.337
1527 0 111.176 12.9434 1439 94.1237 241.446 349.345
1528 1 60.0821 11.3178 680 92.7662 241.679 371.962
1529 0 63.1202 11.9772 756 91.2394 241.802 370.918
1530 0 67.0964 12.8025 859 90.0815 241.119 363.435
1531 0 67.1848 13.381 899 88.0412 240.768 362.792
1532 0 68.1261 11.6989 797 84.4316 241.848 363.799
1533 0 68.0291 11.7156 797 86.2434 241.502 363.129
1534 0 70.0494 12.2199 856 86.3914 241.428 362.369
1535 0 72.0779 12.8888 929 85.8418 241.381 362.093
1536 0 74.0462 12.0735 894 88.4899 242.199 359.965
1537 0 77.1151 12.2285 943 88.9618 241.6 358.597
1538 0 78.1163 11.9437 933 90.8146 241.676 356.627
1539 0 80.1116 12.3453 989 91.9909 241.781 355.123
1540 0 83.1601 12.6984 1056 92.6259 241.539 353.905
1541 0 85.0352 12.3949 1054 93.3767 241.258 355.947
1542 0 89.1055 12.6479 1127 95.3052 241.436 350.939
1543 0 92.082 12.7169 1171 94.8702 241.394 350.33
1544 0 94.0604 13.1299 1235 97.9215 241.585 348.714
1545 0 99.1263 13.1852 1307 97.863 241.347 348.095
1546 0 101.177 13.3628 1352 97.2981 240.926 347.317
1547 1 53.0323 11.5213 611 99.0049 241.949 372.378
1548 0 58.0362 12.0614 700 96.3729 241.684 367.969
1549 0 57.0506 12.8482 733 96.8759 241.572 365.94
1550 0 61.0873 12.9159 789 95.2383 241.326 364.658
1551 0 61.0625 12.5773 768 96.1576 241.547 364.458
1552 0 64.0799 12.6249 809 94.3684 241.727 364.378
1553 0 67.0382 12.4258 833 94.3902 241.424 362.82
1554 0 71.0364 12.022 854 94.8782 240.826 362.495
1555 0 70.0634 13.2023 925 94.9838 240.465 360.008
1556 0 73.0644 12.8243 937 95.2369 240.632 359.149
1557 0 74.0573 13.0574 967 95.4592 240.705 357.965
1558 0 77.0955 13.0617 1007 94.7408 240.693 358.712
1559 0 79.0969 13.4898 1067 95.0319 241.117 359.022
1560 0 81.1309 13.1023 1063 97.7817 241.321 356.553
1561 0 83.0993 13.3575 1110 96.9072 240.447 356.027
1562 0 85.1019 13.0079 1107 97.7236 241.392 358.788
1563 0 88.0568 13.6843 1205 97.1793 240.944 355.927
1564 0 91.1578 13.8112 1259 95.9134 241.512 351.139
1565 0 93.104 13.9736 1301 96.2975 240.318 348.321
1566 0 94.1255 13.482 1269 99.2325 240.559 347.391
1567 0 97.1111 14.087 1368 96.7909 241.197 346.753
1568 0 101.12 14.0031 1416 97.1511 241.275 345.069
1569 0 101.124 13.706 1386 100.366 240.848 344.38
1570 0 103.074 13.2332 1364 102.29 241.072 343.933
1571 0 106.223 13.6881 1454 102.251 240.545 344.286
1572 0 113.206 14.319 1621 96.3109 240.939 345.627
1573 0 113.123 13.8433 1566 99.9061 241.184 344.342
1574 0 117.164 14.3133 1677 99.6685 240.971 338.942
1575 0 120.112 13.3792 1607 102.276 241.045 338.801
1576 0 124.104 13.6659 1696 100.739 240.394 335.497
1577 0 130.105 13.9733 1818 97.4989 241.109 333.673
1578 0 130.105 13.981 1819 166.734 242.107 333.535
1579 0 138.095 13.7442 1898 97.9326 240.019 330.161
1580 0 142.103 13.8773 1972 100.703 239.843 327.273
1581 0 147.225 14.7054 2165 97.6938 240.186 323.824
1582 0 152.192 14.508 2208 99.1816 240.026 321.067
1583 0 156.175 14.3941 2248 98.9831 239.744 321.254
1584 0 161.121 14.1819 2285 100.607 240.288 317.778
1585 0 167.115 14.6725 2452 99.4311 240.439 314.818
1586 0 171.117 14.569 2493 100.24 241.276 313.273
1587 0 177.158 16.2285 2875 94.5593 240.864 307.941
1588 0 182.159 15.9915 2913 94.8428 239.868 306.518
1589 0 188.208 16.2427 3057 93.6457 240.183 304.243
1590 0 193.163 16.4886 3185 94.5799 240.067 300.489
1591 0 200.23 15.9366 3191 95.3363 240.143 299.341
1592 0 207.156 16.4224 3402 95.0047 239.738 294.093
1593 0 214.221 17.2252 3690 92.9444 240.509 293.185
1594 0 221.175 16.5208 3654 95.7427 240.127 289.101
1595 1 166.111 13.202 2193 102.92 240.575 321.297
1596 0 170.169 13.751 2340 102.258 240.265 315.163
1597 0 177.112 14.4711 2563 101.492 239.77 311.1
1598 0 182.205 14.9282 2720 99.9515 240.335 308.221
1599 0 186.172 15.851 2951 97.4571 240.683 303.834
1600 0 194.155 16.6877 3240 94.1981 240.053 301.278
1601 0 200.219 16.3071 3265 95.0579 239.818 298.849
1602 0 206.165 16.5983 3422 95.3565 239.929 294.382
1603 0 216.255 17.7892 3847 92.1827 239.434 289.145
1604 0 222.264 16.5434 3677 95.9728 239.194 286.793
1605 0 231.252 17.4744 4041 92.7013 239.221 286.347
1606 1 60.0427 10.3093 619 89.9742 239.12 371.985
1607 0 60.0769 10.8528 652 87.2163 240.377 367.567
1608 0 65.0998 12.5807 819 93.083 241.076 373.35
1609 0 63.0444 10.7702 679 88.1031 240.982 373.688
1610 0 70.0815 13.2275 927 87.027 238.822 368.143
1611 0 66.144 11.0063 728 87.0371 239.216 371.179
1612 0 69.1559 11.1198 769 90.1365 238.603 369.77
1613 0 71.1912 10.7036 762 91.3556 238.696 371.062
1614 0 73.0941 11.3005 826 89.6901 238.981 372.901
1615 0 77.1458 11.8607 915 87.1301 239.477 369.317
1616 0 86.1346 14.6979 1266 77.3476 240.744 356.614
1617 0 98.1935 16.274 1598 67.7497 240.567 351.298
1618 0 90.1573 18.3457 1654 71.6457 239.94 351.805
1619 0 97.1507 15.8928 1544 75.1554 240.115 351.369
1620 1 48.0875 11.0008 529 87.9433 239.87 374.633
1621 0 50.1065 11.0565 554 88.4531 240.06 374.347
1622 0 52.1084 12.0134 626 84.6182 240.027 374.527
1623 0 51.1347 10.9515 560 84.0964 239.477 376.718
1624 0 52.1432 11.1424 581 85.1532 240.418 374.559
1625 0 54.1966 10.8309 587 85.6917 239.574 375.135
1626 0 56.1073 11.5315 647 84.8099 239.79 374.09
1627 0 57.2184 11.4474 655 86.1649 239.455 373.885
1628 0 59.2807 12.348 732 85.0137 239.947 372.859
1629 0 60.2204 11.8066 711 87.4754 239.47 372.693
1630 0 61.1726 11.6719 714 87.9846 239.73 371.969
1631 0 61.1726 11.7046 716 156.577 239.716 371.912
1632 0 64.1556 12.3918 795 88.8541 240.116 368.881
1633 0 65.2634 12.1967 796 90.3103 239.877 371.452
1634 0 69.1772 11.9693 828 89.7089 240.505 372.343
1635 0 69.19 11.8225 818 91.3667 239.412 369.716
1636 0 72.1688 12.1382 876 90.2888 240.337 369.279
1637 0 73.2296 12.0989 886 91.158 239.78 366.824
1638 0 73.1125 11.6669 853 92.9121 238.953 360.447
1639 0 76.0752 12.0013 913 91.4447 239.604 358.32
1640 0 80.0849 12.1621 974 90.809 239.77 356.833
1641 0 81.1038 12.2929 997 91.9619 239.617 354.36
1642 0 85.1033 12.6435 1076 89.9796 239.711 354.614
1643 0 87.0746 11.9208 1038 92.0886 240.693 355.35
1644 0 90.1196 12.1838 1098 90.9599 240.001 357.316
1645 0 94.071 12.6394 1189 90.7065 240.456 355.274
1646 0 95.0911 12.0831 1149 93.1758 240.616 353.946
1647 0 96.1476 12.3768 1190 92.0084 239.942 347.699
1648 0 102.135 12.2975 1256 91.2062 240.61 349.01
1649 0 105.093 12.8839 1354 89.3929 239.642 346.933
1650 0 107.198 11.4274 1225 93.2571 239.973 347.718
1651 0 112.186 12.0247 1349 91.6775 240.24 343.937
1652 0 115.107 12.2755 1413 90.833 241.084 343.319
1653 1 59.0599 10.6163 627 93.2711 241.049 366.821
1654 0 63.0958 11.3795 718 89.2228 241.862 365.4
1655 0 66.0948 12.5728 831 86.9314 240.883 364.259
1656 0 70.071 12.8584 901 85.9001 240.199 368.112
1657 0 71.0929 12.7158 904 84.5033 239.825 370.875
1658 0 72.1205 12.1463 876 85.6142 239.949 370.24
1659 0 72.1178 11.8001 851 87.8966 240.458 369.933
1660 0 77.1621 12.0526 930 86.4914 239.417 367.88
1661 0 78.1496 12.6296 987 86.3202 240.387 366.821
1662 0 82.1197 11.9947 985 88.4772 239.892 363.519
1663 0 84.1275 12.0175 1011 88.8783 239.909 361.488
1664 0 88.065 12.6611 1115 87.8978 239.329 360.354
1665 0 92.0971 13.1057 1207 86.5543 240.11 359.42
1666 0 92.0971 13.084 1205 166.504 241.095 359.524
1667 0 97.0974 12.9973 1262 87.8764 239.572 355.622
1668 0 100.159 13.3787 1340 87.6037 239.417 352.393
1669 0 103.086 12.5915 1298 89.6572 238.896 352.505
1670 1 59.0492 12.4303 734 89.9973 238.15 373.217
1671 0 61.024 13.1096 800 87.1362 240.029 372.89
1672 0 63.0382 13.5315 853 86.306 240.299 373.239
1673 0 63.0679 13.1921 832 87.7416 239.501 371.834
1674 0 61.0302 12.6167 770 89.5091 239.013 373.238
1675 0 63.1004 12.0284 759 91.8617 239.287 372.785
1676 0 65.0525 13.0202 847 89.7037 238.782 371.718
1677 0 68.1007 12.6577 862 90.0882 238.928 374.965
1678 0 69.1014 12.5902 870 90.892 239.254 369.803
1679 0 72.0562 13.3646 963 89.4112 239.495 369.005
1680 0 75.0593 13.2828 997 89.0391 239.763 367.687
1681 0 77.1127 12.968 1000 89.75 239.096 366.236
1682 0 81.0793 13.5916 1102 86.9646 240.263 364.997
1683 0 83.1339 13.0873 1088 88.2215 239.586 364.242
1684 0 84.1209 12.8981 1085 88.9189 239.298 362.972
1685 0 88.1712 12.816 1130 87.6584 238.627 362.182
1686 0 90.1493 13.5664 1223 85.5397 239.899 361.336
1687 0 91.1825 13.0178 1187 87.4507 240.281 359.519
1688 0 94.0976 13.114 1234 88.376 239.461 358.411
1689 0 98.1514 13.8663 1361 85.9317 239.993 357.287
1690 0 101.256 13.4116 1358 88.0221 239.696 355.77
1691 0 101.199 13.3993 1356 89.2094 240.1 355.029
1692 0 106.246 13.3275 1416 87.6201 240.494 355.285
1693 1 60.159 11.9018 716 90.4539 240.351 377.377
1694 0 64.0641 12.9089 827 82.5671 239.449 373.687
1695 0 67.1562 13.1484 883 81.3296 239.736 372.459
1696 0 67.1082 13.0535 876 80.0502 238.789 372.869
1697 0 70.0564 13.4891 945 79.4148 239.559 374.379
1698 0 73.0529 14.0857 1029 78.0845 238.886 374.141
1699 0 73.0552 13.6883 1000 80.324 239.16 372.392
1700 0 73.043 13.4852 985 82.3228 239.731 368.545
1701 0 76.0966 12.9966 989 83.4247 240.472 366.516
1702 0 78.0826 12.8838 1006 84.4622 239.832 366.367
1703 0 81.0644 13.2734 1076 84.9851 239.568 363.722
1704 0 84.0989 13.1512 1106 84.9575 239.883 362.486
1705 0 85.0951 13.5848 1156 85.1012 240.827 362.208
1706 0 88.0732 13.4661 1186 86.0818 239.922 360.828
1707 0 91.0164 13.3273 1213 86.54 240.197 358.937
1708 0 94.1035 13.4852 1269 85.4279 240.279 357.332
1709 0 95.134 12.5087 1190 85.8025 240.891 356.036
1710 0 101.172 13.136 1329 83.8029 240.541 354.746
1711 0 104.052 13.3395 1388 83.3494 240.71 353.856
1712 0 104.052 13.2626 1380 149.281 239.705 353.731
1713 1 57.0265 12.538 715 85.4699 240.902 376.052
1714 0 58.133 12.6262 734 84.8842 241.948 379.851
1715 0 61.085 12.8837 787 88.5832 240.667 377.56
1716 0 62.0967 13.1569 817 85.4774 240.807 377.191
1717 0 65.0562 13.5421 881 81.0749 240.361 377.35
1718 0 66.0318 13.4481 888 81.8277 240.662 373.508
1719 0 67.0914 12.3712 830 86.1108 240.005 373.404
1720 0 70.0402 12.3929 868 85.4931 240.498 372.203
1721 0 71.067 12.6641 900 86.1933 240.248 369.748
1722 0 75.0326 13.3675 1003 83.7767 240.157 367.933
1723 0 77.1072 13.384 1032 84.6492 239.672 366.395
1724 0 78.0833 13.2807 1037 87.3269 240.022 364.967
1725 0 80.0767 13.0999 1049 87.715 239.244 362.913
1726 0 84.1456 13.6549 1149 85.3412 239.534 362.52
1727 0 88.1131 13.7664 1213 85.6579 239.416 360.214
1728 0 89.1398 13.2152 1178 88.2861 239.442 359.154
1729 0 92.1128 12.9081 1189 93.6754 240.021 357.468
1730 0 95.0724 12.3485 1174 93.2862 239.75 355.028
1731 0 97.065 11.8786 1153 93.5742 239.747 354.393
1732 0 99.0499 12.1555 1204 93.4826 239.544 353.268
1733 1 54.055 12.3393 667 89.2249 240.195 375.217
1734 0 55.0169 12.5416 690 88.3116 240.6 379.6
1735 0 58.0469 13.0929 760 83.1566 240.003 381.479
1736 0 59.0652 12.8163 757 85.7794 239.923 373.52
1737 0 58.104 12.6842 737 86.4627 239.646 374.37
1738 0 59.0207 12.2838 725 88.171 240.299 377.074
1739 0 63.0485 12.8155 808 87.1436 240.41 373.313
1740 0 65.0419 12.5304 815 88.0859 240.818 372.058
1741 0 68.0708 13.0452 888 88.6374 240.947 370.05
1742 0 69.0413 13.2819 917 88.5736 241.231 371.487
1743 0 72.103 12.8844 929 90.0786 240.626 369.912
1744 0 75.112 13.846 1040 89.4356 240.609 368.638
1745 0 77.0564 13.7302 1058 90.6824 239.519 368.557
1746 0 78.0842 12.986 1014 92.3235 239.889 370.078
1747 0 81.0819 13.8379 1122 92.7362 239.537 365.266
1748 0 84.1392 14.1195 1188 91.5135 239.659 363.282
1749 0 87.0928 14.2951 1245 93.2032 239.651 361.284
1750 0 89.069 13.2706 1182 95.0347 239.455 360.06
1751 0 93.062 14.99 1395 90.8079 239.478 356.652
1752 0 94.0635 13.3421 1255 94.7689 239.685 355.563
1753 0 96.1317 13.5543 1303 93.5948 239.833 359.827
1754 0 99.1485 13.6059 1349 94.1942 239.353 358.436
1755 0 104.164 13.5652 1413 92.7445 240.252 357.173
1756 0 107.142 14.2148 1523 91.0847 240.477 356.156
1757 1 57.0618 12.1973 696 91.1566 240.728 379.757
1758 0 59.1318 12.3453 730 92.5164 239.615 377.647
1759 0 62.0969 13.0602 811 91.6523 239.682 375.117
1760 0 64.0762 13.2342 848 92.0012 239.943 372.644
1761 0 67.1037 13.3823 898 90.7305 240.245 372.277
1762 0 68.1142 13.1544 896 92.6004 239.654 371.08
1763 0 70.1069 13.3653 937 92.6158 239.734 370.186
1764 0 73.0861 13.6825 1000 91.746 239.947 368.63
1765 0 75.097 13.7156 1030 92.4942 240.182 367.556
1766 0 76.0867 13.708 1043 93.2272 240.017 366.616
1767 0 78.1533 13.7038 1071 92.9813 240.447 369.145
1768 0 79.1159 12.9936 1028 93.8979 240.719 369.227
1769 0 82.078 14.1938 1165 91.8086 240.513 364.012
1770 0 87.0871 14.1582 1233 91.8102 240.047 362.398
1771 0 88.1071 14.3008 1260 92.2571 239.755 361.638
1772 0 90.0891 14.1527 1275 92.6729 240.334 360.503
1773 0 93.1005 14.4468 1345 91.8743 239.947 360.016
1774 0 95.1411 14.4522 1375 92.6073 240.043 360.862
1775 0 99.1447 14.8974 1477 91.7651 239.689 359.555
1776 0 100.142 14.3596 1438 93.3832 240.308 358.966
1777 0 104.314 14.3029 1492 92.744 239.324 357.59
1778 0 107.13 14.6925 1574 93.2808 239.783 352.524
1779 0 109.139 14.8251 1618 91.2503 240.206 346.486
1780 0 114.293 14.5241 1660 91.0187 240.606 345.636
1781 0 117.14 14.4101 1688 90.7624 240.284 345.156
1782 0 122.14 14.7617 1803 89.8841 240.793 344.183
1783 1 66.1252 11.569 765 87.5072 240.593 372.008
1784 0 66.1648 11.7585 778 88.4254 240.44 371.616
1785 0 68.1168 12.0675 822 89.2421 240.443 369.305
1786 0 71.2077 11.4594 816 90.5368 240.547 369.952
1787 0 74.0245 12.5904 932 94.0515 240.291 367.66
1788 0 75.0424 12.433 933 96.0975 240.294 364.35
1789 0 79.1759 13.1606 1042 94.5969 240.404 366.454
1790 0 80.0903 13.0977 1049 96.4347 240.247 366.695
1791 0 82.0458 13.5047 1108 96.6823 240.692 364.805
1792 0 87.1347 13.1635 1147 96.0105 241.532 362.229
1793 0 87.1347 13.152 1146 164.09 241.527 362.136
1794 0 90.0959 13.3857 1206 100.074 240.447 360.668
1795 0 93.1769 13.2436 1234 101.726 240.439 360.629
1796 0 94.0787 14.4453 1359 100.746 240.132 358.687
1797 0 97.1007 13.3985 1301 95.8317 239.379 358.417
1798 0 100.153 12.8504 1287 97.3007 239.751 357.252
1799 0 104.214 13.453 1402 95.9722 239.97 363.613
1800 0 108.211 13.5939 1471 98.7417 238.632 360.349
1801 0 109.132 13.8181 1508 98.5763 240.044 359.186
1802 0 114.174 13.8298 1579 98.7068 239.631 358.006
1803 0 115.116 13.2823 1529 101.825 240.226 354.655
1804 0 121.179 14.1031 1709 100.557 239.29 350.828
1805 0 124.2 13.7279 1705 101.896 239.54 348.85
1806 0 127.282 13.9846 1780 103.194 239.272 346.84
1807 0 133.164 14.7712 1967 100.683 239.594 341.989
1808 0 137.143 14.1166 1936 103.251 238.585 341.623
1809 1 72.1312 11.2295 810 102.809 239.668 374.242
1810 0 74.0815 11.9733 887 102.761 239.459 374.34
1811 0 78.1343 12.4401 972 100.943 240.13 374.256
1812 0 78.2568 11.2067 877 97.4105 239.141 372.219
1813 0 80.0469 11.2934 904 97.9358 240.327 369.851
1814 0 83.0795 11.4469 951 99.2955 240.209 370.154
1815 0 84.1124 11.6511 980 100.595 240.064 369.517
1816 0 86.0355 11.5301 992 104.502 240.5 369.067
1817 0 90.0631 11.7362 1057 104.242 239.705 366.459
1818 0 91.0839 11.44 1042 105.743 240.049 365.285
1819 0 97.07 12.2901 1193 104.233 239.626 366.094
1820 0 97.1001 11.6581 1132 104.97 240.339 363.797
1821 0 101.051 12.1226 1225 104.331 240.27 360.93
1822 0 102.104 12.1347 1239 106.596 239.579 358.407
1823 0 108.156 12.2324 1323 105.806 240.075 356.859
1824 0 114.066 12.9749 1480 102.798 240.33 350.951
1825 0 121.134 13.6956 1659 99.381 240.577 349.066
1826 1 66.0267 10.7684 711 98.8354 241.093 374.835
1827 0 70.0514 11.0633 775 97.9497 241.179 375.168
1828 0 68.1036 9.42681 642 91.7913 240.735 372.115
1829 0 72.0717 9.83742 709 90.0691 240.927 372.611
1830 0 73.0455 10.1581 742 91.3787 240.291 370.687
1831 0 75.0465 9.36752 703 94.0868 240.693 371.623
1832 0 77.0704 10.1595 783 92.6743 240.304 372.471
1833 0 79.0625 10.3336 817 93.5508 240.357 371.474
1834 0 83.0228 10.1057 839 94.7843 240.374 367.081
1835 0 85.0409 10.8536 923 94.9231 240.601 364.163
1836 0 88.0833 10.9101 961 97.3236 240.482 363.743
1837 0 91.0268 10.7551 979 98.3044 239.979 361.267
1838 0 94.0259 11.1565 1049 96.8294 241.043 360.433
1839 0 95.056 10.8357 1030 98.335 240.685 358.772
1840 0 100.126 10.9662 1098 97.276 240.104 355.746
1841 0 102.064 10.7187 1094 96.9031 240.321 357.985
1842 0 103.057 10.5087 1083 94.7913 239.596 353.853
1843 0 108.081 10.233 1106 94.0425 239.105 353.119
1844 1 61.0521 9.99146 610 83.2311 239.456 378.589
1845 0 63.1274 10.36 654 84.8746 239.891 376.512
1846 0 64.1145 11.0427 708 87.1667 239.853 376.538
1847 0 65.0527 10.576 688 93.9578 239.327 374.426
1848 0 70.1178 11.1812 784 89.2194 239.741 374.663
1849 0 71.1198 11.1361 792 88.5732 240.605 372.965
1850 0 70.1482 9.85057 691 92.8307 240.715 370.327
1851 0 73.0667 11.2637 823 89.243 241.457 368.951
1852 0 75.0427 10.1542 762 90.3832 240.487 368.71
1853 0 80.0728 10.3406 828 88.8019 240.95 368.268
1854 0 80.0598 10.5921 848 89.8373 240.557 365.841
1855 0 82.074 10.9048 895 87.7944 240.869 368.277
1856 0 86.1095 10.9047 939 86.8616 239.954 367.875
1857 0 88.0654 10.4695 922 88.103 240.812 362.593
1858 0 92.1122 11.3231 1043 84.9434 240.214 362.453
1859 0 94.2092 10.9437 1031 87.1261 239.598 359.586
1860 0 98.1219 12.2705 1204 83.9228 240.422 359.337
1861 0 101.15 11.8834 1202 86.4825 239.864 357.746
1862 0 104.128 11.3227 1179 87.542 240.43 360.68
1863 0 107.195 10.4763 1123 88.5085 239.218 360.646
1864 0 109.151 10.1786 1111 89.9721 239.763 356.093
1865 1 60.0503 10.2747 617 79.0162 240.598 381.488
1866 0 61.0452 10.8444 662 78.6314 240.372 378.411
1867 0 66.118 12.4021 820 82.7329 239.795 377.238
1868 0 64.0824 10.6425 682 80.2111 240.293 377.956
1869 0 66.0893 11.1213 735 80.283 240.184 376.35
1870 0 67.0686 11.1229 746 80.8351 239.67 374
1871 0 68.0699 11.2972 769 81.3719 240.008 374.399
1872 0 72.0274 11.5512 832 80.7873 239.946 373.118
1873 0 75.0766 11.2685 846 85.7246 239.331 371.041
1874 0 76.0433 10.9148 830 87.1578 239.723 370.165
1875 0 78.0345 11.1233 868 86.4332 239.662 367.382
1876 0 82.0412 10.1291 831 87.7016 239.564 367.886
1877 0 85.1066 10.8335 922 86.5531 239.296 368.251
1878 0 85.0261 10.5732 899 86.7909 239.692 366.331
1879 0 93.1793 10.3349 963 86.8183 240.435 362.993
1880 0 92.1319 11.0711 1020 86.8333 240.169 360.651
1881 0 96.0943 10.396 999 86.964 240.208 360.647
1882 0 98.1996 11.9858 1177 90.13 239.939 358.801
1883 1 56.0575 11.9163 668 87.4746 240.79 379.904
1884 0 57.1077 11.7147 669 89.2945 240.039 379.09
1885 0 59.0509 12.413 733 87.2319 240.3 381.708
1886 0 61.1006 13.4369 821 84.2509 240.738 383.019
1887 0 63.1367 13.447 849 85.0365 240.708 377.127
1888 0 63.1367 13.4153 847 154.639 239.699 377.198
1889 0 63.0879 12.4588 786 89.0509 239.838 377.469
1890 0 65.0738 12.6164 821 88.7893 239.705 377.795
1891 0 67.0833 13.0435 875 89.3817 239.763 375.723
1892 0 68.0445 13.1679 896 90.9297 239.846 375.456
1893 0 69.0847 12.0866 835 94.4467 240.606 375.034
1894 0 72.0626 12.3642 891 94.8653 239.825 373.067
1895 0 75.0288 13.1683 988 94.0516 240.315 371.101
1896 0 78.0613 14.1427 1104 92.1259 240.111 372.336
1897 0 79.1235 13.2072 1045 94.6115 240.506 372.718
1898 0 82.0552 12.8816 1057 94.9839 240.093 373.886
1899 0 84.1236 12.2201 1028 97.6576 240.978 373.158
1900 0 86.1187 12.9472 1115 97.9686 240.759 369.605
1901 0 90.106 13.8504 1248 95.5593 240.122 365.851
1902 0 93.0935 13.1158 1221 97.2408 240.834 363.75
1903 0 95.0671 12.9593 1232 97.1843 240.544 361.028
1904 0 98.0333 13.2098 1295 96.6988 240.029 358.406
1905 0 103.051 14.0319 1446 93.6916 239.835 356.617
1906 1 56.0263 12.0122 673 93.4205 239.761 382.727
1907 0 57.0319 12.2037 696 92.3204 239.523 384.083
1908 0 58.0092 12.5497 728 92.1813 239.284 383.001
1909 0 58.136 12.3676 719 90.6579 238.997 385.602
1910 0 61.0705 12.0353 735 91.5211 239.498 382.603
1911 0 64.042 12.523 802 88.894 239.658 377.623
1912 0 67.0798 14.3262 961 85.1748 238.959 378.336
1913 0 69.1247 13.0923 905 86.9724 239.56 378.181
1914 0 70.0509 13.2903 931 88.8443 239.641 374.099
1915 0 71.0758 13.5067 960 88.7625 239.866 374.031
1916 0 75.0621 13.7753 1034 88.617 238.91 372.752
1917 0 78.0663 13.3476 1042 89.2322 239.624 370.496
1918 0 79.0562 12.9022 1020 82.4549 240.047 374.151
1919 0 80.0282 11.9708 958 84.0574 239.15 376.45
1920 0 85.0161 12.9387 1100 86.9073 240.159 367.945
1921 0 87.0394 13.3962 1166 89.7762 239.231 365.875
1922 0 92.1324 14.0124 1291 88.141 239.406 366.09
1923 0 93.0644 13.9581 1299 89.3772 238.697 363.494
1924 0 94.1419 12.8742 1212 86.2228 239.403 365.548
1925 0 98.071 12.5215 1228 87.8819 238.836 365.501
1926 0 101.078 12.8712 1301 89.3359 238.847 363.425
1927 0 104.043 13.3598 1390 89.2669 239.413 364.196
1928 1 57.0702 11.2668 643 87.9222 239.507 389.28
1929 0 58.071 11.6926 679 88.5037 239.233 386.566
1930 0 60.0445 12.4574 748 87.9519 238.806 382.663
1931 0 63.0552 11.6406 734 90.5708 239.109 379.954
1932 0 64.094 11.8888 762 90.3268 239.189 379.185
1933 0 66.0373 11.7964 779 91.4634 238.959 379.089
1934 0 68.0334 11.7148 797 92.2334 239.409 379.363
1935 0 70.0567 12.3757 867 92.9458 239.326 375.995
1936 0 73.0598 12.2229 893 93.0269 238.647 374.937
1937 0 74.0447 11.7632 871 94.9564 238.402 374.752
1938 0 78.0779 12.8205 1001 92.038 238.811 377.327
1939 0 80.0471 12.6675 1014 94.1923 239.068 378.283
1940 0 83.0456 12.752 1059 92.406 239.288 374.817
1941 0 86.1228 12.459 1073 93.8173 238.448 369.739
1942 0 88.0845 12.7832 1126 92.3792 238.583 367.972
1943 0 90.0939 12.4759 1124 91.7429 238.794 368.601
1944 0 94.1035 12.465 1173 90.4169 239.009 364.769
1945 0 97.1534 12.5883 1223 89.3115 238.765 363.48
1946 0 99.079 12.2629 1215 90.0313 239.514 363.712
1947 1 56.049 11.0974 622 82.2138 239.979 390.325
1948 0 58.0497 10.8011 627 81.4051 239.821 391.137
1949 0 59.0805 11.7298 693 80.3521 239.165 387.082
1950 0 60.0393 12.192 732 80.3361 239.034 385.038
1951 0 61.0454 11.9256 728 89.4684 238.9 386.641
1952 0 64.0629 11.879 761 90.1078 239.294 383.522
1953 0 68.0609 12.004 817 88.6377 239.192 377.744
1954 0 70.0801 12.4144 870 88.1471 239.575 376.174
1955 0 71.0303 13.1916 937 87.3319 239.107 374.916
1956 0 74.0506 13.4232 994 88.9608 239.283 373.486
1957 0 75.0454 12.7656 958 91.285 238.848 371.876
1958 0 76.0541 12.3728 941 91.0956 239.439 372.115
1959 0 81.1104 12.7974 1038 88.5915 238.688 378.034
1960 0 82.0369 12.5675 1031 89.6537 239.166 376.6
1961 0 85.0733 12.6597 1077 89.9201 238.441 370.053
1962 0 89.0489 12.7346 1134 89.6649 238.512 368.289
1963 0 93.0695 13.0548 1215 88.693 238.124 367.3
1964 0 96.0873 12.9778 1247 89.7193 238.796 361.865
1965 0 97.0598 12.9817 1260 89.4984 238.172 361.106
1966 1 52.0912 11.1727 582 84.1426 238.146 384.668
1967 0 56.0783 12.322 691 88.5282 238.441 387.792
1968 0 58.0186 12.8579 746 89.6139 239.485 389.718
1969 0 58.0912 11.2754 655 93.3359 238.656 390.542
1970 0 59.0671 12.4604 736 90.466 238.761 392.027
1971 0 60.0513 12.6059 757 91.4954 238.481 387.217
1972 0 63.1067 12.5819 794 91.3489 238.142 385.271
1973 0 65.0161 12.7968 832 93.6791 238.726 378.077
1974 0 67.1178 13.1113 880 93.0023 238.572 378.393
1975 0 69.0425 13.47 930 93.0613 239.284 376.408
1976 0 73.2119 13.4268 983 92.1027 238.98 376.079
1977 0 74.1497 13.8639 1028 91.5856 239.37 374.934
1978 0 76.121 13.6887 1042 92.8369 238.587 374.645
1979 0 74.0926 13.2672 983 96.3978 239.57 373.436
1980 0 79.0355 14.057 1111 94.8326 238.688 373.122
1981 0 82.1045 13.7508 1129 97.9442 239.071 373.279
1982 0 85.1817 14.0288 1195 98.6561 238.669 370.613
1983 0 87.1673 13.4684 1174 101.315 238.57 368.486
1984 0 88.1156 13.1872 1162 104.047 239.025 367.091
1985 0 93.142 13.8713 1292 105.218 238.245 364.857
1986 0 96.1608 14.195 1365 104.425 237.779 362.956
1987 0 98.1487 14.1927 1393 104.296 238.027 363.101
1988 0 100.138 14.2204 1424 105.88 237.619 360.803
1989 0 103.224 13.679 1412 106.982 238.119 366.192
1990 0 106.202 14.2935 1518 105.285 238.2 365.993
1991 0 111.238 14.7611 1642 103.747 237.923 365.361
1992 0 114.262 14.9131 1704 105.154 237.567 361.546
1993 1 62.1399 12.7132 790 108.249 237.565 386.453
1994 0 65.2357 13.8574 904 102.325 238.051 385.246
1995 0 67.2266 13.9231 936 100.301 237.596 383.964
1996 0 67.1586 13.2075 887 99.5772 237.814 384.171
1997 0 69.1428 13.1322 908 99.5705 237.921 384.257
1998 0 71.1675 12.5338 892 104.484 238.981 379.085
1999 0 71.1139 13.2464 942 97.5393 238.424 379.932
2000 0 71.1139 13.2604 943 158.281 237.423 379.893
2001 0 78.1584 12.7178 994 96.2827 238.219 376.47
2002 0 79.128 13.1685 1042 98.406 238.125 375.554
2003 0 82.1664 13.2779 1091 97.7589 238.572 376.419
2004 0 84.1624 13.2007 1111 98.5563 238.301 376.481
2005 0 87.0555 12.4978 1088 96.5055 238.868 371.874
2006 0 89.0479 12.9032 1149 96.2332 238.356 371.501
2007 0 91.0356 12.8301 1168 96.5745 237.918 369.655
2008 0 93.0437 12.7037 1182 98.0389 238.23 368.817
2009 0 98.0496 13.483 1322 97.2095 238.315 367.682
2010 0 100.05 13.3333 1334 99.4205 238.047 366.062
2011 0 103.182 13.2388 1366 103.466 238.643 362.676
2012 0 105.071 13.0674 1373 98.2804 237.918 364.093
2013 1 62.0198 12.2864 762 97.9528 238.324 388.907
2014 0 65.0622 13.4948 878 98.0103 238.297 384.691
2015 0 65.1374 13.2489 863 105.572 238.175 383.871
2016 0 67.1559 12.9996 873 98.2646 237.678 383.566
2017 0 71.0562 13.5667 964 99.1214 238.284 380.769
2018 0 71.0732 13.2961 945 101.721 237.548 379.662
2019 0 76.1394 13.8693 1056 99.4669 238.009 379.062
2020 0 77.0614 13.5217 1042 103.729 237.41 376.203
2021 0 81.1359 13.8163 1121 103.062 237.495 375.224
2022 0 84.1586 13.7716 1159 103.506 237.633 372.594
2023 0 87.2458 13.8345 1207 102.08 237.529 373.552
2024 0 88.2536 13.9711 1233 100.087 237.859 374.187
2025 0 92.2867 14.119 1303 99.0054 237.455 372.853
2026 0 95.1943 14.3286 1364 98.9091 237.334 368.886
2027 0 97.1043 14.1188 1371 99.8519 237.362 367.395
2028 0 100.137 13.7412 1376 102.304 237.646 365.539
2029 0 103.121 13.6926 1412 101.342 237.385 364.047
2030 1 50.0533 11.9273 597 98.5343 237.308 390.799
2031 0 53.0204 12.3915 657 96.6941 237.428 389.489
2032 0 54.0495 12.8216 693 96.9091 237.693 387.866
2033 0 56.0281 13.3861 750 94.5813 237.197 389.425
2034 0 61.0473 13.9072 849 97.2744 238.024 388.874
2035 0 63.0891 13.9327 879 97.1217 237.984 388.057
2036 0 65.0993 13.6868 891 98.5746 237.413 385.284
2037 0 65.0937 14.3946 937 97.4002 238.239 381.989
2038 0 67.1035 13.2929 892 100.635 238.185 382.443
2039 0 70.1302 13.9883 981 98.4689 237.846 380.108
2040 0 72.0803 14.1648 1021 98.5103 238.025 378.578
2041 0 73.0859 13.8741 1014 99.5138 237.823 379.123
2042 0 76.1762 14.2564 1086 97.5405 237.918 378.854
2043 0 79.074 14.5813 1153 96.3764 238.034 376.003
2044 0 78.0921 14.1243 1103 98.9465 237.712 376.713
2045 0 82.1312 14.2942 1174 98.0664 238.744 377.489
2046 0 85.0882 13.915 1184 100.099 237.757 373.612
2047 0 88.0969 14.2684 1257 97.8242 237.965 372.171
2048 0 88.1151 14.2995 1260 98.7675 237.902 370.398
2049 0 91.0512 14.1788 1291 99.2122 238.527 369.468
2050 0 95.0793 13.8411 1316 99.3906 237.945 368.838
2051 0 96.0705 13.4693 1294 101.248 237.717 367.01
2052 0 98.0744 14.2749 1400 99.1907 238.24 366.858
2053 0 104.074 13.2886 1383 100.166 237.313 367.714
2054 1 55.011 13.4882 742 100.104 237.933 388.908
2055 0 57.0262 12.9239 737 103.507 238.133 386.398
2056 0 56.0296 13.5821 761 105.788 238.932 385.739
2057 0 59.0348 14.0765 831 103.976 238.587 384.762
2058 0 63.0498 14.1317 891 103.915 238.879 384.556
2059 0 62.0361 14.2014 881 105.955 238.762 383.631
2060 0 64.0292 14.4309 924 106.457 239.411 381.502
2061 0 67.0551 13.8543 929 108.301 238.464 381.707
2062 0 70.0746 14.456 1013 106.825 238.159 381.301
2063 0 70.0236 14.6665 1027 107.988 238.288 381.089
2064 0 71.0545 14.0315 997 111.837 238.486 380.18
2065 0 75.0467 14.5643 1093 109.683 238.413 379.896
2066 0 77.0476 15.0297 1158 108.896 238.81 378.939
2067 0 81.0991 14.9447 1212 108.992 238.115 377.759
2068 0 82.0425 14.9069 1223 109.929 239.011 377.469
2069 0 85.0754 14.7634 1256 110.287 238.12 376.764
2070 0 85.0686 14.4354 1228 113.388 239.107 376.335
2071 0 88.0942 14.9159 1314 112.077 238.409 375.245
2072 0 91.1419 14.5378 1325 112.47 238.395 374.213
2073 0 94.043 14.621 1375 112.495 238.443 371.966
2074 0 97.0602 14.9186 1448 111.663 238.233 370.481
2075 0 100.071 14.6796 1469 112.734 237.997 368.349
2076 0 104.085 15.1319 1575 110.695 238.368 367.394
2077 0 105.11 15.3173 1610 111.629 237.817 363.922
2078 0 111.153 15.2492 1695 111.27 238.426 363.181
2079 0 115.123 15.5747 1793 110.107 237.822 362.218
2080 0 119.147 15.1493 1805 111.903 237.528 360.101
2081 0 122.103 15.5443 1898 110.293 237.202 359.035
2082 1 66.0874 11.6966 773 115.392 237.582 385.331
2083 0 68.1149 12.7138 866 114.416 237.62 384.137
2084 0 72.0823 13.5678 978 111.468 237.144 382.729
2085 0 75.131 13.3101 1000 111.075 237.412 382.326
2086 0 77.1042 13.5531 1045 111.568 237.716 380.567
2087 0 77.1042 13.5531 1045 169.883 238.716 380.567
2088 0 81.1296 13.8174 1121 111.025 238.118 379.781
2089 0 83.2317 13.3483 1111 112.533 238.285 378.073
2090 0 85.1714 13.4787 1148 112.246 238.475 376.878
2091 0 89.1192 13.7905 1229 110.647 238.129 375.921
2092 0 93.1393 13.6677 1273 110.805 238.095 375.766
2093 0 94.1504 13.9776 1316 110.53 237.604 375.069
2094 0 95.1436 13.7056 1304 112.769 237.712 372.786
2095 0 100.098 13.9164 1393 111.086 237.689 372.31
2096 0 103.219 14.6581 1513 108.913 238.459 369.405
2097 0 106.19 13.3817 1421 113.539 237.475 366.272
2098 0 106.178 13.3078 1413 168.107 236.467 366.214
2099 0 112.142 13.6613 1532 111.328 237.659 362.53
2100 0 118.234 13.6509 1614 110.125 238.152 359.729
2101 0 121.265 14.0106 1699 108.864 237.682 358.541
2102 0 125.209 13.4814 1688 111.707 237.993 359.298
2103 0 130.287 14.0997 1837 112.477 238.787 362.596
2104 0 136.208 13.9713 1903 112.203 238.757 360.482
2105 0 139.341 13.9011 1937 112.471 238.36 362.066
2106 0 144.216 14.09 2032 110.892 237.958 362.252
2107 0 149.335 13.9619 2085 111.208 238.097 363.06
2108 0 155.243 14.1778 2201 111.084 237.779 365.59
2109 1 93.1222 10.2017 950 102.177 238.243 402.436
2110 0 95.19 10.9885 1046 101.333 239.159 404.017
2111 0 99.2024 11.3505 1126 101.391 238.877 404.806
2112 0 101.292 11.3435 1149 101.199 238.944 403.822
2113 0 103.271 10.7871 1114 101.037 238.723 404.999
2114 0 108.159 10.7341 1161 100.673 238.532 405.123
2115 0 110.185 10.3281 1138 101.419 238.563 401.903
2116 0 115.191 10.5043 1210 100.583 238.364 398.364
2117 0 118.348 11.1873 1324 97.577 239.761 398.831
2118 0 118.348 11.1451 1319 133.85 240.754 398.77
2119 0 128.309 10.7553 1380 100.006 238.708 393.433
2120 0 132.358 10.3507 1370 101.913 238.386 388.433
2121 0 136.318 10.4829 1429 102.402 239.113 387.347
2122 0 141.322 10.0197 1416 102.122 239.074 385.962
2123 0 147.333 10.8598 1600 101.768 239.003 382.614
2124 1 86.2216 8.8261 761 95.4757 238.356 413.682
2125 0 91.3388 9.84247 899 95.2903 238.155 413.859
2126 0 92.3227 9.90006 914 96.9967 239.131 411.926
2127 0 97.2564 9.62405 936 97.2618 239.339 411.47
2128 0 101.267 10.2501 1038 95.262 239.981 410.305
2129 0 103.223 9.58118 989 97.271 239.548 408.121
2130 0 105.175 9.53651 1003 98.0568 240.286 403.968
2131 0 109.255 9.31761 1018 98.9794 239.777 401.447
2132 0 113.274 10.0464 1138 98.0773 240.09 399.425
2133 0 119.248 11.279 1345 94.6788 239.955 397.411
2134 0 122.225 11.4216 1396 95.2285 240.207 396.743
2135 0 125.289 11.5014 1441 98.0854 240.517 393.793
2136 1 72.202 8.94712 646 88.5681 239.977 423.206
2137 0 72.1902 9.48882 685 88.8292 240.578 421.22
2138 0 76.1955 10.5518 804 86.2214 240.392 421.095
2139 0 75.1969 10.1068 760 89.6566 239.911 419.471
2140 0 81.261 11.0508 898 88.549 240.401 420.357
2141 0 83.1888 11.2876 939 91.3663 239.707 417.816
2142 0 85.2204 11.4879 979 92.1083 239.785 417.181
2143 0 87.2063 11.1689 974 93.1407 239.691 414.895
2144 0 89.2181 11.4887 1025 92.9688 240.071 414.115
2145 0 93.1907 11.6857 1089 92.9752 239.75 412.472
2146 0 96.169 10.6791 1027 96.0545 239.502 410.912
2147 0 98.1184 10.7829 1058 97.1248 239.027 409.433
2148 0 100.142 10.9644 1098 98.1548 239.301 408.675
2149 0 103.128 10.9766 1132 98.5212 239.625 406.426
2150 0 104.226 11.0145 1148 99.4077 240.288 405.365
2151 0 109.131 10.2813 1122 101.715 240.207 402.014
2152 0 109.133 11.0965 1211 100.309 239.316 400.71
2153 0 112.282 10.634 1194 102.385 239.448 399.39
2154 0 117.306 10.8434 1272 101.749 240.42 399.31
2155 0 119.228 10.6519 1270 103.742 238.815 395.952
2156 0 123.313 10.8261 1335 103.291 239.753 396.049
2157 0 126.408 11.2651 1424 103.612 239.666 393.289
2158 0 129.298 11.1603 1443 103.931 239.202 391.319
2159 0 132.414 11.313 1498 104.582 240.19 389.025
2160 0 136.344 10.9943 1499 104.482 240.347 386.945
2161 1 78.4086 9.73107 763 91.4941 239.864 418.908
2162 0 79.2348 9.80629 777 93.8404 239.103 416.797
2163 0 82.3563 10.7581 886 87.9616 239.117 416.664
2164 0 82.2371 10.3968 855 89.1181 239.26 416.331
2165 0 85.1758 10.5664 900 89.3756 239.888 415.652
2166 0 87.1872 10.2767 896 89.5737 239.539 414.272
2167 0 90.254 10.4926 947 90.151 240.229 411.944
2168 0 94.3245 11.0788 1045 88.8258 239.997 409.845
2169 0 95.3398 11.1181 1060 89.5274 240.685 408.905
2170 0 97.1987 10.9055 1060 89.4811 239.938 408.057
2171 0 101.265 11.228 1137 88.3703 239.809 407.679
2172 0 102.201 11.3502 1160 88.9948 239.675 406.767
2173 0 104.269 11.8252 1233 89.1938 240.195 403.071
2174 0 111.293 11.2047 1247 90.8733 239.435 398.318
2175 0 109.21 10.2555 1120 92.9741 240.279 395.154
2176 0 114.276 10.9735 1254 91.8501 239.947 394.081
2177 1 66.2129 9.07678 601 89.9235 240.401 421.383
2178 0 71.1871 10.648 758 85.8391 239.813 420.612
2179 0 72.1886 10.5972 765 88.1124 241.112 419.809
2180 0 74.2041 11.6436 864 90.5174 240.299 417.887
2181 0 72.087 11.6526 840 89.5583 239.845 410.699
2182 0 73.1192 11.1188 813 91.8598 240.562 410.738
2183 0 76.0803 10.6861 813 92.0431 242.068 411.667
2184 0 81.1863 11.5044 934 89.5535 241.031 417.183
2185 0 83.2341 11.714 975 89.4759 240.741 419.335
2186 0 85.2239 11.7221 999 90.5936 240.683 416.597
2187 0 89.1809 12.6036 1124 88.1984 241.133 412.644
2188 0 91.1736 12.3939 1130 90.0195 241.391 413.081
2189 0 92.2687 11.77 1086 93.4982 240.843 410.138
2190 0 94.2327 12.0128 1132 92.7862 241.259 412.103
2191 0 95.2214 11.531 1098 95.5464 240.799 412.168
2192 0 101.232 12.249 1240 93.7274 240.801 411.875
2193 0 102.157 12.0109 1227 95.8183 240.525 407.783
2194 0 105.229 12.6676 1333 94.0705 240.379 403.14
2195 0 105.194 11.6546 1226 98.8067 240.809 399.738
2196 0 108.186 12.6449 1368 95.9247 240.55 399.369
2197 0 112.152 12.5811 1411 96.1311 239.976 397.653
2198 0 113.153 12.2135 1382 93.4103 239.969 394.561
2199 0 114.239 12.0449 1376 98.5007 240.165 395.63
2200 0 116.148 12.3549 1435 97.1505 240.06 392.171
2201 0 122.247 12.1148 1481 97.1897 240.129 391.049
2202 0 122.169 12.9411 1581 95.8672 239.861 385.867
2203 0 128.188 12.349 1583 95.2761 238.936 385.172
2204 0 134.104 12.8408 1722 94.0929 239.192 383.511
2205 0 139.155 12.4106 1727 95.4279 240.02 380.372
2206 0 143.252 13.026 1866 94.7846 239.121 378.155
2207 0 149.184 12.4611 1859 95.6611 239.382 377.004
2208 0 154.175 12.4988 1927 95.2698 238.883 373.351
2209 1 86.1203 9.5564 823 85.4654 239.382 410.847
2210 0 88.0744 10.6728 940 85.4617 240.063 409.679
2211 0 91.1484 11.1467 1016 84.0778 240.329 408.918
2212 0 96.1431 11.4933 1105 83.5448 241.123 414.631
2213 0 97.142 10.7883 1048 85.8416 240.703 415.044
2214 0 100.179 11.2898 1131 85.2166 241.23 415.813
2215 0 104.225 11.4656 1195 85.4929 240.079 413.795
2216 0 105.23 11.6126 1222 86.3748 239.983 412.822
2217 0 108.141 11.8179 1278 87.9851 240.092 408.013
2218 0 110.173 11.7633 1296 90.0185 239.338 405.74
2219 0 112.164 12.0271 1349 91.2039 240.396 403.835
2220 0 116.099 12.1362 1409 91.8297 239.566 402.209
2221 0 120.127 12.1788 1463 92.0485 240.092 400.992
2222 0 124.221 12.7032 1578 91.1229 239.782 400.136
2223 0 130.174 13.1286 1709 91.8291 239.96 400.005
2224 0 133.205 12.935 1723 94.5206 240.119 397.577
2225 0 136.325 13.079 1783 94.9837 239.98 395.032
2226 0 142.23 12.9719 1845 95.0856 238.505 392.178
2227 0 147.192 13.5266 1991 92.8935 238.776 389.861
2228 0 150.136 12.3288 1851 96.3857 239.366 388.075
2229 0 155.148 12.5815 1952 96.6286 239.059 382.786
2230 0 160.109 12.9912 2080 96.7755 238.491 379.791
2231 0 166.124 12.569 2088 97.4033 238.599 378.558
2232 0 171.171 12.6365 2163 97.7295 238.634 377.49
2233 0 174.237 11.9091 2075 100.18 238.219 374.43
2234 0 180.194 12.3533 2226 100.826 238.878 369.445
2235 0 185.224 12.8385 2378 99.9756 238.866 368.997
2236 0 192.187 13.6638 2626 98.612 238.365 365.482
2237 0 196.213 13.4344 2636 100.18 237.872 362.725
2238 0 201.332 13.8875 2796 100.416 238.661 361.032
2239 0 207.303 14.2642 2957 100.996 237.994 358.932
2240 0 214.277 14.1639 3035 102.342 237.681 354.919
2241 0 218.271 13.9735 3050 104.035 237.74 351.947
2242 0 228.278 14.9423 3411 100.462 238.234 348.891
2243 0 235.204 14.9402 3514 101.215 238.024 345.093
2244 1 188.215 12.5282 2358 107.423 238.165 372.344
2245 0 194.166 13.1176 2547 108.231 238.282 365.517
2246 0 200.185 13.4076 2684 109.31 239.021 359.113
2247 0 207.172 13.4188 2780 107.612 238.787 356.744
2248 0 211.243 12.9661 2739 108.239 239.151 353.452
2249 0 221.165 13.6188 3012 105.016 239.506 349.926
2250 0 227.272 13.7061 3115 103.668 238.743 342.677
2251 0 235.266 13.7589 3237 102.992 239.015 340.828
2252 0 243.262 14.3384 3488 101.282 238.163 338.999
2253 0 253.259 15.7388 3986 97.1332 238.636 327.27
2254 0 260.228 13.1231 3415 103.526 238.397 331.492
2255 0 268.367 12.9934 3487 102.996 238.801 328.918
2256 1 202.272 12.2656 2481 104.018 238.15 359.52
2257 0 209.169 13.4102 2805 101.542 238.964 356.261
2258 0 215.18 12.3106 2649 97.7127 239.495 356.195
2259 0 220.307 12.6823 2794 96.3529 238.709 351.839
2260 0 227.22 13.0182 2958 95.4591 239.461 348.342
2261 0 235.306 13.3401 3139 94.6212 239.465 342.7
2262 0 242.349 12.9112 3129 95.194 238.738 340.852
2263 0 250.284 13.0971 3278 93.6266 239.354 337.967
2264 0 258.279 13.4545 3475 91.3842 238.998 334.708
2265 0 266.267 15.6535 4168 84.4952 238.328 326.589
2266 0 274.356 15.6476 4293 83.8754 238.173 321.357
2267 0 284.382 15.3456 4364 85.6854 238.363 317.407
2268 0 293.354 15.2478 4473 85.2922 238.552 309.784
2269 0 302.403 15.3735 4649 87.1697 239.472 304.788
2270 0 312.505 15.8429 4951 85.9428 238.706 299.486
2271 0 321.372 15.2845 4912 86.6128 238.955 296.232
2272 0 331.413 16.14 5349 85.8319 239.007 290.9
2273 0 334.67 15.0686 5043 86.2489 239.433 290.19
2274 0 289.672 15.9974 4634 85.456 238.688 272.313
2275 0 285.317 16.1365 4604 86.0741 238.652 293.911
2276 0 293.302 15.5471 4560 88.5419 238.382 291.646
2277 0 301.266 15.3054 4611 89.4071 238.24 292.178
2278 0 309.43 14.9598 4629 90.3787 239.61 290.005
2279 0 318.344 14.7356 4691 91.4492 238.591 289.816
2280 0 329.233 15.6606 5156 87.2054 238.351 285.91
2281 0 328.249 14.9368 4903 89.5552 238.43 284.327
2282 0 326.801 13.473 4403 95.9285 238.686 292.509
2283 0 315.006 15.9997 5040 83.7234 239.5 271.197
2284 0 309.107 14.3801 4445 87.0909 240.099 279.21
2285 0 313.926 15.8509 4976 85.0227 240.057 282.249
2286 0 307.323 15.6545 4811 86.6271 238.444 288.411
2287 0 315.281 15.2784 4817 88.5221 238.259 289.673
2288 0 325.399 15.7653 5130 87.6673 238.76 288.85
2289 0 333.579 15.6155 5209 88.975 238.816 284.736
2290 0 341.44 15.1125 5160 87.3845 238.876 282.638
2291 0 339.483 16.422 5575 82.7252 238.788 278.253
2292 0 322.902 17.4171 5624 82.3581 238.463 267.502
