time division length width area intensity CMx CMy
0 0 45.0544 13.2062 595 137.387 1227.11 488.748
1 0 47.0603 13.4508 633 120.231 1226.37 489.692
2 0 49.032 12.8284 629 116.181 1226.75 490.909
3 0 50.0318 13.3115 666 112.242 1226.36 490.553
4 0 50.1244 12.7682 640 112.295 1226.39 489.114
5 0 54.0701 13.2236 715 106.71 1226.02 489.112
6 0 55.0371 13.2819 731 106.681 1226.35 488.015
7 0 56.0271 12.9937 728 106.146 1226.29 488.876
8 0 58.0975 12.961 753 105.125 1226.36 486.301
9 0 62.1597 13.2401 823 101.409 1226.31 486.594
10 0 63.0765 13.2696 837 100.213 1227.35 485.222
11 0 65.0333 13.2547 862 100.878 1225.88 483.876
12 0 67.0666 13.3002 892 100.985 1226.04 482.537
13 0 67.1028 13.1738 884 101.695 1225.27 481.933
14 0 70.0276 13.8088 967 97.91 1224.58 482.491
15 0 72.06 13.3777 964 99.1151 1225.21 480.72
16 0 75.1086 13.1676 989 98.8483 1225 479.479
17 0 78.028 13.6233 1063 97.4892 1223.91 477.052
18 0 80.0385 13.0812 1047 98.1289 1224.89 477.72
19 0 84.1083 13.4351 1130 97.6779 1224.19 475.061
20 0 87.094 14.1227 1230 96.9528 1224.63 473.998
21 0 90.0987 14.7394 1328 94.497 1224.08 472.867
22 0 95.0767 13.873 1319 95.2206 1225.24 471.163
23 1 45.079 12.7554 575 95.0383 1224.38 493.816
24 0 47.0276 12.7585 600 92.0983 1224.44 493.072
25 0 48.0254 13.1181 630 91.9587 1223.67 494.314
26 0 47.057 12.6017 593 89.9325 1224.49 495.395
27 0 50.0645 12.4639 624 89.9535 1224.11 493.26
28 0 52.1321 13.0438 680 88.3941 1223.94 491.676
29 0 53.0364 12.9911 689 88.2046 1224.19 491.512
30 0 58.1015 13.4248 780 86.0923 1225.19 491.323
31 0 59.0868 14.0133 828 84.0217 1224.63 490.085
32 0 59.0868 14.0471 830 150.551 1224.63 489.959
33 0 64.104 13.2285 848 85.0578 1224.65 487.455
34 0 66.0972 13.1473 869 85.1956 1223.47 487.369
35 0 67.0206 13.8316 927 83.2309 1223.69 486.616
36 0 68.0855 12.2493 834 87.1019 1223.12 484.929
37 0 72.0445 13.7693 992 83.3518 1223.84 481.195
38 0 74.046 13.0324 965 84.8777 1223.62 481.054
39 0 79.0718 13.7091 1084 82.1873 1223.72 478.994
40 0 79.0463 12.9797 1026 84.6774 1223.69 477.74
41 0 82.055 13.0766 1073 83.7735 1224.36 477.429
42 0 86.088 13.2074 1137 83.6605 1224.01 476.363
43 0 88.0957 12.827 1130 84.3186 1222.96 475.603
44 0 92.1071 13.0175 1199 83.3661 1223.43 471.425
45 0 94.1237 12.8342 1208 84.4669 1223.05 470.267
46 1 47.0587 11.0288 519 80.9865 1223.19 492.769
47 0 49.0419 11.2761 553 80.358 1222.53 491.09
48 0 50.038 11.831 592 78.4172 1223.85 493.846
49 0 50.038 11.9109 596 133.149 1224.83 493.834
50 0 51.03 11.993 612 77.9592 1223.95 493.716
51 0 53.0796 11.398 605 78.319 1224.1 492.547
52 0 54.0237 12.3464 667 76.7046 1223.89 491.126
53 0 54.0237 12.2909 664 136.386 1223.9 491.093
54 0 59.0643 12.0208 710 74.7944 1223.88 490.013
55 0 62.0546 11.9411 741 73.3482 1224.13 487.213
56 0 64.0512 11.8967 762 73.5197 1223.5 486.218
57 0 65.0451 11.9917 780 73.8513 1223.77 483.197
58 0 68.0654 12.5321 853 72.8687 1224.09 483.88
59 0 69.0482 12.2089 843 74.484 1223.21 482.518
60 0 72.0245 11.8987 857 75.4142 1223.86 481.503
61 0 75.0625 12.6161 947 74.0898 1224.26 480.626
62 0 76.0429 11.8223 899 76.7041 1223.86 477.506
63 0 80.0668 12.2897 984 76.4492 1223.63 477.084
64 0 81.0182 11.9109 965 79.1254 1224.02 476.127
65 0 86.078 12.2215 1052 78.9563 1223.42 475.061
66 0 86.2253 12.2354 1055 79.2825 1223.33 473.257
67 0 90.1144 12.3399 1112 80.6628 1223.04 470.519
68 0 93.1383 12.9055 1202 79.6747 1223.38 470.509
69 0 95.152 12.4432 1184 80.011 1223.96 467.476
70 0 99.1727 12.6547 1255 78.5044 1224.37 465.167
71 0 100.216 13.441 1347 76.2606 1223.8 461.67
72 0 104.11 13.5722 1413 75.3921 1223.85 459.128
73 0 108.134 13.5203 1462 74.7025 1223.74 457.596
74 0 111.146 13.3968 1489 74.3828 1223.88 455.119
75 0 113.154 13.9191 1575 73.021 1224 453.265
76 0 118.127 12.6813 1498 74.6562 1223.5 448.477
77 0 121.178 13.212 1601 74.1874 1223.42 446.441
78 0 124.117 13.3019 1651 73.9394 1223.98 447.23
79 0 130.258 13.1431 1712 73.9416 1223.88 444.607
80 0 132.237 12.5079 1654 74.942 1224.24 439.836
81 0 134.236 12.3886 1663 76.4925 1224.07 437.834
82 0 142.246 12.8369 1826 74.8779 1224.05 436.723
83 0 151.295 13.51 2044 73.6091 1223.65 433.564
84 0 155.27 13.8018 2143 73.1241 1224.18 426.263
85 0 157.357 13.0849 2059 75.0869 1223.92 424.289
86 0 164.196 12.4546 2045 75.8626 1224.11 426.15
87 0 171.27 13.1372 2250 75.5707 1224.48 423.496
88 0 177.272 12.9518 2296 76.3863 1224.94 420.89
89 0 182.252 12.554 2288 76.6438 1225.02 415.893
90 0 187.154 12.3428 2310 77.9377 1224.73 415.442
91 0 192.349 12.1602 2339 77.8978 1224.4 405.254
92 0 200.2 11.8032 2363 77.9615 1224.87 406.309
93 0 207.261 12.313 2552 77.8358 1224.41 401.301
94 0 216.324 12.7587 2760 77.7062 1224.26 400.659
95 0 225.25 12.4573 2806 79.0128 1223.98 395.931
96 0 234.381 12.292 2881 80.2676 1224.06 393.788
97 1 184.177 11.5052 2119 81.4337 1223.76 414.329
98 0 196.25 12.7694 2506 81.1289 1224.4 414.813
99 0 200.275 12.9122 2586 81.266 1224.38 409.153
100 1 70.1115 10.3835 728 74.6181 1224.65 477.004
101 0 74.0115 11.255 833 75.2257 1225.66 473.412
102 0 76.1059 11.2869 859 75.2561 1223.37 473.471
103 0 78.1197 10.9447 855 68.5684 1224.05 467.691
104 0 83.0774 10.0509 835 67.1856 1223.69 467.745
105 0 88.143 9.9157 874 66.159 1224.17 467.103
106 0 92.0717 10.6656 982 65.2189 1223.22 466.682
107 0 94.0731 10.0666 947 65.9831 1224.05 463.722
108 0 99.1345 11.1162 1102 65.2196 1223.38 466.514
109 0 99.1345 11.086 1099 120.276 1222.4 466.579
110 0 107.075 11.3191 1212 60.9901 1223.91 466.019
111 0 110.245 11.81 1302 59.7619 1223.28 462.971
112 1 58.1554 10.6955 622 60.0868 1224.01 489.423
113 0 58.1037 10.1887 592 60.1571 1223.59 489.171
114 0 60.0664 11.0544 664 59.6099 1223.85 488.38
115 0 59.1807 10.3412 612 62.335 1223.71 489.672
116 0 61.0752 10.2005 623 61.9021 1223.52 488.485
117 0 62.0857 10.9043 677 61.4638 1223.36 487.527
118 0 66.1148 10.7389 710 61.4972 1223.9 487.025
119 0 66.1031 9.40954 622 64.5096 1224.49 484.243
120 0 68.1473 10.6974 729 63.3471 1224.1 482.178
121 0 72.1594 11.1836 807 62.715 1223.8 482.796
122 0 73.1778 10.6863 782 64.1483 1224.13 481.83
123 0 75.1422 10.2339 769 66.42 1224.28 481.446
124 0 78.1673 10.5927 828 66.5809 1224.39 478.836
125 0 80.2046 10.8473 870 66.5885 1224.09 475.595
126 0 83.1878 10.2539 853 67.0023 1224.28 475.558
127 0 86.3229 11.1558 963 65.3967 1223.74 473.468
128 0 90.2354 10.6056 957 65.8088 1224.33 473.519
129 0 91.2769 10.9776 1002 65.8373 1224.36 471.111
130 0 95.2399 11.6338 1108 65.769 1223.62 456.505
131 0 98.3238 11.5435 1135 64.7419 1222.72 463.663
132 0 99.3431 11.8982 1182 67.8663 1222.6 461.698
133 0 102.473 11.8568 1215 67.6346 1222.62 459.538
134 0 106.324 12.5089 1330 66.3015 1222.79 458.557
135 0 110.312 12.0477 1329 66.5666 1223.24 457.036
136 1 59.1272 10.1645 601 65.406 1223.25 481.113
137 0 57.195 11.1898 640 64.7844 1223 477.627
138 0 57.1306 10.6073 606 66.8779 1223.08 476.868
139 0 66.1831 12.5259 829 64.8577 1223.9 481.136
140 0 67.1573 12.7462 856 66.9509 1222.59 481.581
141 0 69.1621 11.7695 814 68.199 1222.82 480.587
142 0 69.1393 11.6287 804 69.3333 1223.04 479.986
143 0 72.2256 12.5717 908 68.3568 1222.05 477.806
144 0 70.1452 11.8896 834 71.4257 1222.2 478.259
145 0 74.1752 12.093 897 72.1828 1222.99 475.696
146 0 78.0582 12.9262 1009 70.9009 1224.32 473.846
147 0 79.2347 12.2547 971 72.5015 1223.19 472.448
148 0 79.227 12.2054 967 74.6039 1222.73 471.201
149 0 81.274 11.898 967 76.2327 1223.06 467.979
150 0 82.1919 12.1423 998 75.996 1222.6 465.453
151 0 84.2496 12.1781 1026 75.8996 1222.75 461.865
152 0 86.2222 12.0387 1038 74.9769 1222.09 461.951
153 0 88.3022 12.5591 1109 74.1858 1222.68 461.323
154 0 91.2331 11.3117 1032 71.5891 1222.34 457.503
155 0 95.3222 12.0014 1144 76.3278 1222.93 456.448
156 0 97.186 12.6047 1225 75.4678 1223.17 457.118
157 0 105.34 12.6068 1328 76.8908 1222.96 458.111
158 1 59.0607 9.78654 578 76.5692 1222.81 487.913
159 0 58.0804 9.41797 547 73.0585 1223.02 486.091
160 0 57.1491 9.67645 553 65.3924 1223.07 477.421
161 0 56.0659 10.345 580 61.0517 1221.74 480.821
162 0 60.1225 11.0774 666 59.452 1221.32 480.386
163 0 61.2041 10.2771 629 61.283 1221.53 477.752
164 0 64.1367 11.3508 728 59.7005 1221.82 476.986
165 0 71.142 12.468 887 68.6685 1221.23 480.651
166 0 72.241 12.2783 887 69.1973 1221.67 480.481
167 0 75.2669 12.8476 967 69.1655 1221.13 479.068
168 0 75.1094 13.0876 983 69.6816 1221.31 478.911
169 0 77.1619 12.6098 973 72.2754 1221.56 476.867
170 0 81.2204 12.2137 992 73.4254 1221.58 475.511
171 0 83.1614 13.2634 1103 71.0199 1221.63 474.251
172 0 84.0615 12.2172 1027 73.1879 1221.37 473.536
173 0 88.1835 12.5874 1110 72.1189 1221.63 470.806
174 0 87.0709 12.1166 1055 74.6692 1221.5 470.335
175 0 91.0713 13.1545 1198 72.9808 1221.96 468.205
176 0 93.1354 12.7556 1188 74.4436 1222.67 466.999
177 0 97.0973 13.0488 1267 74.0205 1222.69 466.888
178 0 101.101 13.4222 1357 72.1813 1222.45 463.808
179 0 103.178 12.8904 1330 75.1053 1222.65 463.578
180 1 54.0169 10.3671 560 75.5375 1223.28 487.823
181 0 54.0237 10.1252 547 72.4095 1221.84 487.956
182 0 57.0482 10.6576 608 71.0312 1222.97 484.053
183 0 59.0329 12.2474 723 66.805 1222.82 486.082
184 0 59.0535 11.244 664 67.9443 1222.8 485.904
185 0 59.0675 11.3599 671 69.7168 1221.24 485.741
186 0 62.0646 11.7619 730 69.0616 1222.02 484.448
187 0 64.1074 11.9175 764 69.5079 1221.55 482.916
188 0 66.0766 11.9407 789 70.7174 1221.7 482.703
189 0 68.1139 12.2148 832 70.476 1221.94 481.194
190 0 72.0954 13.3157 960 69.075 1222.02 480.045
191 0 74.1306 13.0311 966 70.353 1222.25 479.378
192 0 74.1306 12.9366 959 129.047 1222.25 479.42
193 0 78.1017 12.7654 997 73.0782 1222.75 475.204
194 0 80.0728 12.601 1009 74.1863 1222.47 474.351
195 0 84.1074 12.6624 1065 74.6019 1222.57 472.525
196 0 85.0694 12.7778 1087 76.058 1222.3 472.597
197 0 89.1215 13.3526 1190 74.4773 1222.27 469.462
198 0 91.1733 13.3043 1213 74.1484 1222.53 468.955
199 0 94.1444 13.32 1254 74.7982 1221.95 466.776
200 0 97.208 12.859 1250 75.3392 1221.81 467.334
201 0 102.172 13.3011 1359 74.4047 1221.95 464.628
202 0 104.052 12.8877 1341 94.2088 1222.39 463.113
203 1 52.1281 10.3783 541 94.2976 1221.98 489.214
204 0 53.0407 10.7653 571 88.5429 1222.5 490.123
205 0 58.1194 11.8205 687 89 1220.67 488.448
206 0 58.0457 11.6115 674 96.9926 1223.37 486.737
207 0 61.0414 12.4342 759 93.9789 1222.28 486.653
208 0 62.0556 12.5855 781 92.3918 1222.65 486.753
209 0 65.1189 12.5002 814 91.8415 1222.77 484.402
210 0 66.1357 12.1417 803 92.4969 1223.18 482.443
211 0 66.0987 11.7551 777 94.5933 1222.94 482.418
212 0 69.0554 12.2945 849 93.6349 1222.33 480.993
213 0 70.1131 12.6367 886 92.6016 1222.74 480.813
214 0 72.0517 12.8103 923 92.1051 1222.44 479.504
215 0 75.1206 13.0856 983 91.5158 1222.31 478.128
216 0 78.0589 12.5034 976 93.0932 1222.52 477.139
217 0 80.1809 13.1453 1054 92.4611 1222.81 476.722
218 0 81.1603 13.2577 1076 92.4944 1222.6 475.65
219 0 86.1679 13.3344 1149 92.4639 1221.99 474.76
220 0 87.2274 13.0578 1139 94.4258 1221.65 472.245
221 0 89.2042 12.5555 1120 94.7804 1221.57 470.247
222 0 94.2225 13.5318 1275 90.1373 1221.44 469.647
223 0 97.1636 13.75 1336 88.5651 1222.02 464.718
224 0 98.1741 12.8649 1263 90.7688 1222.37 464.358
225 1 49.1273 10.0148 492 89.5833 1220.77 488.984
226 0 46.0454 10.0553 463 91.9222 1221.91 485.823
227 0 49.0342 10.3193 506 85.6008 1222.78 484.128
228 0 54.0323 12.363 668 90.4536 1223.09 488.751
229 0 56.1314 12.1322 681 92.4214 1222.92 488.819
230 0 60.052 12.4226 746 90.6126 1222.41 488.382
231 0 61.0907 12.5878 769 90.6424 1222.46 486.649
232 0 62.1007 12.7213 790 91.0835 1223.31 486.124
233 0 64.0709 12.0335 771 93.5149 1222.49 485.016
234 0 66.0773 13.1815 871 90.7715 1222.22 483.96
235 0 68.1155 13.1248 894 92.0201 1222.1 483.415
236 0 69.1863 11.8087 817 96.9621 1221.18 479.654
237 0 69.1273 12.1515 840 97.2238 1221.84 480.462
238 0 74.1532 13.0541 968 93.6581 1221.31 480.911
239 0 77.3212 12.8555 994 94.2193 1222.13 479.855
240 0 77.3068 13.0778 1011 96.2453 1222.33 477.403
241 0 78.2804 12.9151 1011 97.6053 1222.76 476.979
242 0 82.1434 13.0382 1071 93.733 1220.57 476.663
243 0 85.0661 12.8723 1095 94.0365 1221.21 475.244
244 0 87.1589 12.6092 1099 89.131 1220.26 474.569
245 1 46.0553 9.96627 459 92.1503 1219.71 496.865
246 0 46.035 10.2965 474 93.3776 1219.8 495.914
247 0 49.0402 10.889 534 93.6873 1219.69 495.281
248 0 49.0593 11.0071 540 95.0074 1219.72 494.831
249 0 52.0524 11.5461 601 92.9967 1219.92 494.759
250 0 52.0484 11.8928 619 90.1664 1220.62 494.54
251 0 54.0631 11.838 640 90.0031 1220.65 492.6
252 0 54.0631 11.8935 643 144.201 1221.66 492.597
253 0 54.0691 11.3558 614 84.6938 1220.94 492.06
254 0 57.0225 11.855 676 80.963 1220.72 490.982
255 0 57.0209 11.9956 684 81.5029 1220.36 490.608
256 0 60.0685 11.7532 706 80.7351 1220.62 490.035
257 0 63.034 11.8666 748 79.7473 1220.52 488.174
258 0 63.0606 12.2739 774 79.1202 1220.68 487.434
259 0 64.0694 11.8778 761 80.3009 1220.63 486.17
260 0 66.0215 12.2233 807 79.5477 1220.87 485.115
261 0 67.0523 12.0652 809 78.2077 1220.9 485.93
262 0 70.115 11.0248 773 74.6171 1220.77 481.379
263 0 69.0841 10.0602 695 76.8619 1221.71 480.895
264 0 74.0698 11.5567 856 74.5456 1221.59 480.234
265 0 76.0681 12.0024 913 78.2979 1222.02 480.745
266 0 79.0724 12.5581 993 77.8459 1221.99 479.008
267 0 80.0821 11.2135 898 79.9655 1221.46 478.205
268 0 82.0616 11.0892 910 81.7176 1221.46 477.795
269 0 86.0869 11.0121 948 81.9631 1221.3 476.589
270 1 44.0389 9.94574 438 79.8265 1221.38 496.982
271 0 45.1361 9.57105 432 78.8866 1221.98 495.706
272 0 47.2067 10.4011 491 77.0305 1222.51 492.442
273 0 48.1655 10.6092 511 77.0411 1222.41 488.654
274 0 52.0307 11.8392 616 76.3766 1221.66 492.636
275 0 50.1562 11.6636 585 76.0034 1221.89 493.699
276 0 50.1207 11.5521 579 77.7962 1220.83 494.891
277 0 50.0485 10.9494 548 80.2336 1221.69 495.069
278 0 51.1319 11.1085 568 80.2482 1222.08 492.824
279 0 53.1128 11.2967 600 81.8833 1221.6 492.99
280 0 53.0837 11.0957 589 83.3243 1221.65 491.377
281 0 53.0518 11.1212 590 85.4475 1221.09 489.266
282 0 56.1141 11.1558 626 81.9185 1220.72 488.072
283 0 56.1642 10.9322 614 83.6026 1221.46 487.963
284 0 61.1717 11.6067 710 81.9775 1221.11 487.959
285 0 63.133 11.6263 734 83.2766 1221.11 486.907
286 0 65.1112 11.5802 754 83.9178 1221.28 483.878
287 0 67.125 11.5009 772 85.3653 1220.89 483.408
288 0 69.112 11.7201 810 86.2506 1221.12 481.722
289 0 71.1028 11.9405 849 87.4982 1221.11 479.347
290 0 74.1334 11.6412 863 90.5585 1220.98 477.342
291 0 75.1438 11.1519 838 92.3819 1220.26 477.617
292 0 80.2031 12.0195 964 90.3963 1220.66 475.739
293 0 86.2822 12.2969 1061 92.0066 1220.37 471.411
294 0 88.2272 12.4678 1100 88.8827 1220.82 473.063
295 0 91.2101 11.6325 1061 91.4458 1220.24 470.276
296 0 95.1271 11.6686 1110 91.1676 1221.1 469.525
297 0 95.1256 11.3429 1079 88.5144 1222.01 468.773
298 1 49.0643 12.3511 606 82.7475 1221.7 494.015
299 0 50.0652 11.7447 588 82.8741 1221.56 494.109
300 0 50.0288 12.0731 604 82.9338 1221.26 494.232
301 0 52.0576 12.7743 665 81.3519 1221.39 493.838
302 0 55.0666 12.9116 711 79.7496 1220.85 491.973
303 0 55.1051 12.8845 710 80.9451 1221.68 491.463
304 0 56.0294 12.5648 704 82.2102 1221.25 491.453
305 0 57.1557 12.3522 706 82.9915 1221.42 489.52
306 0 61.0799 12.5246 765 80.6641 1221.74 487.476
307 0 62.1009 13.3492 829 80.0989 1221.55 487.292
308 0 65.1588 13.4441 876 80.9658 1221.31 486.635
309 0 65.1948 13.7894 899 81.1869 1221.18 485.776
310 0 67.1007 13.0401 875 82.6 1221.08 485.441
311 0 70.3037 13.4417 945 81.5968 1220.61 486.257
312 0 73.2295 13.9698 1023 82.9541 1220.65 469.022
313 0 73.2426 12.4791 914 89.0438 1221.03 473.333
314 0 75.1574 13.5848 1021 85.2664 1220.84 479.405
315 0 75.0789 13.2261 993 86.0423 1221.45 478.859
316 0 77.1622 13.0375 1006 86.8549 1221.36 476.23
317 0 77.134 13.0811 1009 87.6135 1221.28 473.22
318 0 80.1369 13.2024 1058 84.775 1220.23 473.114
319 0 81.1763 12.9102 1048 86.6994 1221.1 471.732
320 0 84.3642 13.2165 1115 84.3731 1221.02 469.345
321 0 88.1972 13.2317 1167 83.0137 1220.6 468.653
322 1 41.0864 10.3197 424 83.3491 1220.81 490.486
323 0 44.1543 10.9163 482 83.0788 1221.03 489.29
324 0 48.1419 11.4038 549 80.7341 1221.14 490.077
325 0 48.0771 11.2736 542 82.8745 1221.24 489.589
326 0 56.1117 12.7603 716 82.5992 1221.19 494.778
327 0 58.15 13.5684 789 80.4854 1220.99 494.314
328 0 58.0868 12.6363 734 83.549 1220.6 494.029
329 0 62.0394 12.9434 803 82.7298 1219.44 492.631
330 0 62.1074 12.8648 799 87.6909 1220.75 479.414
331 0 65.2574 13.4084 875 87.5017 1219.91 485.824
332 0 66.2447 13.7822 913 87.1774 1219.32 489.278
333 0 68.2978 13.3826 914 90.3884 1219.87 487.984
334 0 70.2915 13.7854 969 90.4128 1219.74 485.902
335 0 73.1955 13.3205 975 91.919 1219.1 485.547
336 0 75.0891 13.7037 1029 91.1322 1218.72 484.721
337 0 78.1306 14.1942 1109 89.0794 1219.03 482.933
338 0 80.095 14.0833 1128 89.0647 1218.59 481.748
339 0 81.1109 13.6973 1111 90.5185 1218.17 481.485
340 0 85.1273 13.8851 1182 88.0212 1217.9 479.101
341 0 85.0931 13.1973 1123 89.0365 1218.04 476.949
342 0 88.1397 13.2971 1172 87.4019 1217.63 474.259
343 0 89.1356 12.7895 1140 84.4833 1217.71 470.942
344 0 91.1323 13.2664 1209 85.4309 1217 469.911
345 1 45.0181 9.21852 415 78.988 1217.25 493.446
346 0 46.0275 10.0809 464 77.194 1217.83 493.267
347 0 53.0283 11.8993 631 89.2583 1218.63 498.685
348 0 50.0497 10.9891 550 87.6764 1217.81 498.873
349 0 51.0232 11.7398 599 87.1636 1218.33 498.654
350 0 55.0154 10.9787 604 88.5182 1218.06 497.848
351 0 57.0568 11.4447 653 84.8178 1218 498.257
352 0 57.0328 11.5548 659 85.7709 1217.73 496.71
353 0 59.0286 11.7909 696 85.8606 1217.47 495.576
354 0 63.0446 11.4839 724 85.8025 1218.45 494.249
355 0 63.0446 11.5315 727 148.66 1219.43 494.011
356 0 66.0971 11.9672 791 85.689 1217.68 493.035
357 0 69.0471 11.7891 814 86.1351 1218.75 490.677
358 0 72.0481 12.228 881 86.0863 1218.78 490.024
359 0 71.0823 11.972 851 88.8895 1219.26 488.523
360 0 75.152 11.989 901 87.929 1218.92 486.827
361 0 77.1128 12.6698 977 86.8168 1219.42 485.418
362 0 79.111 11.9832 948 86.8439 1219.2 484.382
363 0 81.0881 11.9253 967 87.2947 1219.53 484.063
364 0 81.0881 11.9253 967 153.883 1220.54 484.009
365 0 88.1343 12.9802 1144 85.5542 1218.61 480.636
366 0 90.0768 12.2673 1105 88.2109 1218.55 479.602
367 1 49.0079 11.3859 558 91.5 1218.9 499.754
368 0 50.0519 11.2883 565 92.4867 1217.11 495.669
369 0 52.0505 12.3534 643 89.3857 1219.74 497.459
370 0 53.0264 11.9186 632 91.7453 1219.44 495.709
371 0 53.0286 11.9935 636 92.7186 1219.21 492.836
372 0 53.0151 12.2229 648 93.2207 1220.4 494.819
373 0 55.0118 12.2883 676 92.6006 1219.7 496.074
374 0 56.0293 12.2614 687 96.0335 1219.45 494.789
375 0 60.0721 12.3685 743 94.3728 1220.09 492.731
376 0 60.0473 12.1404 729 96.2634 1220.1 491.715
377 0 61.0598 12.3649 755 96.2596 1220.67 492.238
378 0 63.0513 12.1647 767 96.678 1220.02 491.666
379 0 66.3107 12.728 844 96.5118 1219.65 487.303
380 0 66.0488 13.0964 865 96.9746 1221.02 487.914
381 0 68.0209 12.8784 876 96.4589 1221.11 486.315
382 0 69.0314 12.7044 877 98.3318 1220.98 486.153
383 0 71.063 12.89 916 99.5153 1220.74 485.022
384 0 73.0287 12.9812 948 100.005 1220.77 483.239
385 0 74.0194 12.0914 895 101.421 1220.82 480.825
386 0 75.0172 11.9839 899 104.167 1220.82 479.208
387 0 80.0438 12.0934 968 101.678 1221.01 478.065
388 0 79.053 11.954 945 102.933 1219.38 475.906
389 0 80.0706 11.8271 947 100.448 1219.23 470.278
390 0 83.021 12.0813 1003 100.245 1219.96 470.568
391 1 42.0286 8.04215 338 86.071 1218.91 491.849
392 0 43.0748 9.1701 395 83.1671 1219.76 491.782
393 0 43.0089 9.43991 406 84.8424 1219.21 490.828
394 0 51.1072 12.5618 642 87.4766 1220.46 482.631
395 0 50.1098 12.0735 605 89.9917 1220.44 493.473
396 0 52.0463 11.874 618 90.4725 1219.65 496.379
397 0 55.011 11.5613 636 90.6101 1219.57 494.808
398 0 56.0302 12.0649 676 89.4689 1219.68 494.108
399 0 57.0881 12.4019 708 88.9788 1219.74 493.309
400 0 58.0966 12.1866 708 89.1412 1220.08 491.203
401 0 60.0319 12.1435 729 89.9973 1220.48 490.634
402 0 63.0705 12.4305 784 87.2207 1221.15 488.606
403 0 64.0606 13.0502 836 86.0239 1221.31 487.642
404 0 66.0313 12.9484 855 95.5684 1221.48 486.964
405 0 67.0602 12.4813 837 87.1876 1220.96 486.992
406 0 69.0665 12.1767 841 88.3746 1220.73 485.435
407 0 73.0599 12.8525 939 85.4505 1220.83 485.097
408 0 76.1018 12.7067 967 85.7001 1220.69 483.415
409 0 78.0584 12.3625 965 86.4218 1220.73 481.766
410 0 78.0759 12.5903 983 87.4669 1220.84 480.782
411 0 83.0563 12.5457 1042 86.5768 1222.15 480.851
412 0 85.1025 12.5143 1065 86.5183 1221.43 477.448
413 0 88.0742 12.8074 1128 84.7066 1220.15 476.861
414 0 91.0412 12.0715 1099 85.9217 1220.68 477.379
415 1 47.0092 10.9128 513 85.8441 1220.66 496.86
416 0 48.0208 11.9948 576 86.7465 1220.56 495.068
417 0 47.0404 11.437 538 89.1933 1220.58 494.783
418 0 49.0388 11.4399 561 88.574 1218.47 494.002
419 0 49.061 11.7201 575 84.753 1220.81 494.609
420 0 50.0372 11.5714 579 84.7703 1220.71 495.409
421 0 50.0757 11.3428 568 86.3926 1221.06 493.382
422 0 53.1226 11.577 615 84.8211 1219.71 493.678
423 0 53.05 11.6682 619 87.1341 1219.56 492.775
424 0 53.046 11.1978 594 90.4478 1219.98 492.084
425 0 55.0411 11.8275 651 90.5346 1220.13 491.396
426 0 56.0731 11.5563 648 98.7593 1220.02 489.63
427 0 58.0325 11.9588 694 92.1499 1220.15 489.739
428 0 58.0529 11.9891 696 92.9842 1220.5 489.184
429 0 61.0873 12.3757 756 93.9643 1220.15 487.562
430 0 61.0574 11.9723 731 95.7291 1220.81 487.781
431 0 62.0188 12.0447 747 96.9183 1220.01 487.158
432 0 63.0588 11.7985 744 99.1196 1220.11 485.38
433 0 65.0203 11.9501 777 99.0335 1220.18 484.878
434 0 66.0551 11.8235 781 99.4917 1220.6 484.617
435 0 68.0337 11.3032 769 101.798 1220.51 484.445
436 0 69.0566 11.5702 799 102.432 1220.31 483.556
437 0 71.037 11.4588 814 102.694 1220.37 481.194
438 0 72.0843 11.2785 813 102.326 1220.88 480.776
439 0 75.1753 11.2005 842 99.2732 1220.95 479.629
440 0 77.0698 11.7037 902 98.5244 1220.32 480.433
441 0 80.0718 12.0517 965 98.4228 1221 477.783
442 0 80.0926 10.6876 856 102.438 1220.28 475.683
443 0 84.0649 11.051 929 99.3735 1219.91 473.279
444 0 86.0594 10.5625 909 98.6469 1220.33 470.897
445 0 88.1116 10.725 945 97.9132 1219.98 469.108
446 0 93.0728 10.7872 1004 95.1783 1220.58 466.678
447 0 95.0844 11.4214 1086 94.9383 1219.6 465.855
448 0 98.059 11.2075 1099 95.1611 1220.42 464.51
449 0 102.121 10.9968 1123 97.3286 1219.74 463.613
450 0 105.147 11.4221 1201 95.6511 1220.01 462.391
451 0 110.089 11.736 1292 96.4187 1219.86 459.289
452 0 115.12 11.6487 1341 97.7271 1219.87 455.582
453 0 119.133 12.1377 1446 98.5228 1220.16 453.025
454 0 121.164 12.3221 1493 100.443 1220.76 449.512
455 0 125.139 12.6979 1589 100.016 1220.25 447.492
456 0 133.122 12.2895 1636 99.8007 1220.79 445.413
457 1 70.0433 9.73684 682 97.824 1220.76 478.73
458 0 76.0731 9.87208 751 96.8921 1221.09 477.928
459 0 77.0427 10.6564 821 90.9793 1220.44 476.759
460 0 77.0376 9.69656 747 94.7631 1220.5 475.23
461 0 84.102 11.5693 973 89.9866 1221.07 477.44
462 0 89.0522 12.2512 1091 88.5921 1220.31 475.609
463 0 90.0372 12.095 1089 89.2231 1220.57 473.967
464 0 90.0445 12.0607 1086 145.121 1220.58 474.127
465 0 97.1167 12.2121 1186 89.4494 1220.8 471.862
466 0 100.083 12.2698 1228 89.6107 1220.78 470.121
467 0 103.097 12.5513 1294 86.8385 1220.55 470.264
468 0 105.187 12.473 1312 87.4665 1220.94 467.232
469 0 107.15 12.0859 1295 89.0996 1220.43 464.834
470 0 111.16 12.8554 1429 88.69 1220.45 462.967
471 0 114.21 12.4245 1419 89.1875 1219.41 461.97
472 0 117.211 12.4305 1457 90.2931 1219.67 459.553
473 0 120.189 13.0628 1570 89.565 1220.45 457.788
474 0 121.22 12.6546 1534 90.0991 1220.05 455.829
475 0 124.205 12.3988 1540 90.613 1219.52 453.205
476 0 129.171 12.077 1560 87.1276 1219.33 453.774
477 0 134.248 12.7078 1706 85.0944 1218.95 451.838
478 1 70.1911 11.6682 819 86.1282 1218.63 481.593
479 0 73.2236 12.7145 931 82.058 1219.04 479.966
480 0 67.0548 11.4831 770 87.5532 1219.43 472.858
481 0 70.0413 12.4498 872 85.1365 1218.52 472.107
482 0 72.0348 12.5773 906 86.0265 1218.67 470.209
483 0 70.0319 10.5381 738 79.3902 1219.01 471.297
484 0 75.1108 10.9971 826 81.8801 1218.81 471.446
485 0 84.0619 11.8841 999 92.3393 1219.27 474.374
486 0 87.0885 13.1131 1142 91.0289 1218.75 472.581
487 0 88.1006 12.6219 1112 90.884 1218.7 471.249
488 0 89.0651 12.3281 1098 92.296 1218.45 469.008
489 0 91.094 11.8339 1078 92.4258 1218.04 466.735
490 0 87.0568 11.1881 974 88.4836 1218.65 462.366
491 0 93.0716 11.4965 1070 91.2318 1219.4 463.089
492 0 92.0951 12.031 1108 86.3953 1218.75 459.725
493 0 97.019 12.0801 1172 89.1527 1219.72 457.801
494 0 98.0811 12.1328 1190 87.7336 1219.33 455.487
495 0 101.136 12.0036 1214 86.9135 1219.26 454.171
496 0 101.187 11.6912 1183 89.262 1219.33 449.859
497 0 107.063 11.638 1246 89.2343 1219.57 450.137
498 0 110.089 11.7996 1299 88.7283 1219.21 447.644
499 1 60.0405 8.97728 539 80.6475 1219.44 473.41
500 0 61.0395 9.60034 586 80.1092 1219.72 473.469
501 0 65.0199 10.4122 677 77.6957 1220.2 473.617
502 1 76.0365 12.2967 935 83.6866 1219.79 480.767
503 0 79.0423 11.7785 931 84.7207 1220.6 479.946
504 0 81.0707 11.6935 948 84.9146 1220.26 478.181
505 0 82.0658 12.3072 1010 83.7772 1220.14 476.189
506 0 85.0205 11.7736 1001 85.6613 1220.34 475.276
507 0 87.046 12.2464 1066 85.6829 1219.86 472.834
508 0 90.0744 12.4564 1122 85.2344 1218.88 472.913
509 0 90.1181 11.7069 1055 87.6597 1219.5 470.347
510 0 90.1181 11.7401 1058 144.167 1219.48 470.518
511 0 95.1673 12.0525 1147 88.4847 1218.48 469.813
512 0 99.3142 12.1735 1209 87.359 1218.71 468.608
513 0 102.123 12.3675 1263 82.8638 1218.6 469.112
514 0 104.139 11.8015 1229 85.2075 1218.98 467.142
515 0 106.095 12.1118 1285 84.6381 1218.86 463.289
516 0 110.157 12.9088 1422 83.0724 1217.95 463.754
517 0 112.152 12.6079 1414 82.425 1217.92 465.025
518 0 115.134 11.5431 1329 84.754 1217.94 459.214
519 0 120.089 12.6156 1515 84.3617 1218.42 459.951
520 0 124.114 12.6013 1564 83.8274 1218.59 458.154
521 0 128.136 12.8224 1643 84.8253 1217.57 445.638
522 1 68.1647 10.0785 687 80.69 1217.66 485.681
523 0 72.2417 10.714 774 85.0052 1218.1 484.96
524 0 74.1286 10.9404 811 76.9162 1217.79 480.708
525 0 77.0547 11.8228 911 78.3546 1218.01 484.471
526 0 77.1709 11.4292 882 80.5782 1217 482.816
527 0 81.1067 11.528 935 81.3037 1217.82 481.735
528 0 82.0663 11.9416 980 82.2867 1217.26 480.915
529 0 86.127 11.7153 1009 83.9524 1216.75 479.771
530 0 88.1243 11.5973 1022 85.2456 1216.73 478.804
531 0 91.0994 11.7564 1071 85.9066 1216.98 478.702
532 0 95.1454 12.36 1176 85.6939 1216.8 476.129
533 0 97.0958 12.1426 1179 86.9873 1215.97 475.433
534 0 101.073 12.0211 1215 86.2988 1216.65 472.675
535 0 103.066 12.3028 1268 86.0158 1216.91 473.302
536 0 107.122 12.6398 1354 85.0916 1217.69 470.822
537 0 108.06 11.9655 1293 87.1052 1217.24 468.566
538 0 113.066 12.4706 1410 84.9369 1217.79 466.787
539 1 62.0122 10.8527 673 84.7801 1216.93 493.248
540 0 61.0267 10.9133 666 85.1171 1217.37 492.087
541 0 66.0362 11.6148 767 81.2712 1216.89 492.385
542 0 66.0362 11.5543 763 144.543 1215.88 492.429
543 0 69.0613 11.7432 811 90.1689 1217.12 490.398
544 0 72.0864 12.4434 897 86.99 1216.18 490.338
545 0 74.0494 12.6942 940 88.2362 1217.07 488.105
546 0 75.0371 12.5005 938 89.7825 1217.41 486.596
547 0 78.1136 12.4946 976 88.7736 1217.43 487.113
548 0 80.0523 13.004 1041 86.3247 1217.29 484.944
549 0 79.099 12.7814 1011 85.4669 1217.36 481.623
550 0 79.0567 11.4981 909 83.3322 1217.17 477.362
551 0 80.0443 12.1058 969 83.9092 1217.75 475.329
552 0 81.0763 11.927 967 85.3785 1217.07 475.04
553 0 82.1572 11.5388 948 87.539 1217.93 472.237
554 0 85.0849 11.6824 994 86.8581 1218.09 473.483
555 0 89.1609 12.1466 1083 85.735 1217.75 474.554
556 0 91.2258 11.6743 1065 86.939 1217.27 470.448
557 0 93.1291 11.2961 1052 84.9677 1217.71 469.886
558 0 97.1686 10.95 1064 86.0282 1217.27 467.123
559 0 103.039 11.0929 1143 83.3797 1218.51 468.75
560 0 101.104 10.4942 1061 82.7681 1217.91 465.195
561 1 55.0311 9.8308 541 76.6525 1218.76 490.061
562 0 58.0209 10.2032 592 81.4696 1218.78 488.181
563 0 63.0526 10.9274 689 71.0189 1218.14 491.746
564 0 63.0515 11.0703 698 71.8696 1218.08 489.083
565 0 64.0579 10.5061 673 74.2585 1217.6 489.719
566 0 66.0505 10.7796 712 75.2851 1217.58 486.313
567 0 69.0415 10.9644 757 75.2668 1216.97 485.306
568 0 74.0702 11.3541 841 72.7788 1217.46 486.237
569 0 78.0662 12.6175 985 83.5787 1216.63 489.208
570 0 79.0571 12.4847 987 86.1935 1216.53 485.838
571 0 81.2016 12.586 1022 91.3738 1216.57 485.34
572 0 84.1528 12.8813 1084 91.7057 1216.38 484.256
573 0 87.2074 12.6939 1107 92.3839 1216.59 481.396
574 0 88.0556 11.788 1038 90.4721 1215.92 478.614
575 0 89.1577 12.248 1092 88.1493 1216.48 475.868
576 0 88.0683 11.8658 1045 88.8804 1216.33 470.273
577 1 44.0724 9.48439 418 80.9761 1216.46 494.153
578 0 46.0994 9.73983 449 81.314 1217.5 492.875
579 0 54.0689 12.1142 655 88.1878 1216.48 499.527
580 0 56.0341 11.7072 656 85.1738 1218.48 489.127
581 0 56.0341 11.725 657 134.244 1219.47 489.088
582 0 58.0333 12.4239 721 85.8516 1217.62 497.343
583 0 59.0579 12.0221 710 86.1958 1218.12 495.459
584 0 61.0411 11.9919 732 87.4536 1217.72 493.855
585 0 65.067 12.9098 840 84.4452 1218.12 493.307
586 0 65.0446 12.5299 815 84.1276 1218.25 492.924
587 0 67.0778 12.657 849 83.6431 1217.97 491.803
588 0 70.0639 12.8311 899 82.5484 1217.87 490.116
589 0 73.0927 13.0109 951 82.5195 1218.04 490.19
590 0 75.1375 12.71 955 83.8963 1217.63 488.512
591 0 76.1224 12.585 958 84.9259 1217.69 488.66
592 0 80.1477 12.6267 1012 85.337 1217.41 486.792
593 0 81.1488 12.4339 1009 85.9326 1217.47 486.395
594 0 85.1492 13.1769 1122 84.41 1217.93 484.874
595 1 45.0468 10.922 492 81.5122 1216.88 503.717
596 0 47.1089 10.8472 511 82.681 1217.16 502.947
597 0 48.0391 11.2617 541 80.3216 1216.65 501.608
598 0 51.0765 11.8254 604 77.8725 1217.3 502.013
599 0 51.0951 11.5079 588 74.3588 1217.4 501.991
600 0 51.0493 11.3812 581 75.3305 1217.31 497.351
601 0 51.1172 11.8551 606 74.3069 1217.03 501.348
602 0 56.1536 11.7535 660 77.9576 1217.84 499.464
603 0 56.0909 11.8201 663 81.175 1217.55 498.673
604 0 59.1708 12.202 722 80.2798 1217.32 497.993
605 0 60.0819 12.3665 743 83.603 1216.97 496.16
606 0 62.1189 12.46 774 83.9121 1217.64 496.364
607 0 62.1226 11.8797 738 86.0244 1217.36 494.519
608 0 64.0606 12.1447 778 84.6761 1217.22 493.5
609 0 65.1195 12.5922 820 83.6854 1216.81 493.699
610 0 67.1473 12.6289 848 82.1368 1217.78 493.789
611 0 69.071 12.8708 889 82.2632 1217.49 493.299
612 0 70.0898 12.6409 886 82.5948 1217.53 493.029
613 0 72.0513 12.3107 887 83.5502 1217.3 492.875
614 0 73.0832 12.2874 898 84.6481 1216.72 490.314
615 0 74.089 12.9844 962 84.7755 1217.16 487.626
616 0 77.0872 12.6091 972 85.2798 1216.85 487.385
617 0 79.0653 12.4454 984 86.3222 1217.22 486.056
618 0 81.1342 12.9662 1052 85.2519 1216.71 485.159
619 0 83.1396 12.0159 999 86.5385 1216.35 483.501
620 0 79.2541 10.9269 866 84.1062 1216.29 473.517
621 0 83.1404 10.3079 857 83.3559 1216.43 470.86
622 1 48.0705 10.2142 491 83.0733 1216.64 496.994
623 0 50.107 10.6572 534 80.9139 1216.88 495.914
624 0 43.0375 10.2469 441 83.2268 1216.49 490.082
625 0 48.1028 11.1428 536 79.3787 1216.7 490.927
626 0 46.0563 10.4872 483 79.5694 1215.91 490.422
627 0 48.0325 11.3881 547 78.9525 1216.25 489.355
628 0 49.0531 10.4581 513 79.4113 1215.35 487.949
629 0 52.0763 10.8879 567 77.7319 1215.55 487.735
630 0 51.1234 10.4062 532 82.6353 1216.01 486.63
631 0 56.0806 11.3408 636 81.0833 1215.95 486.739
632 0 55.1019 9.99965 551 82.539 1215.94 485.301
633 0 59.0912 10.9661 648 78.5062 1217.37 483.81
634 0 61.0617 11.3328 692 77.237 1217.3 483.223
635 0 62.0997 10.773 669 78.145 1217.8 481.544
636 0 67.1424 11.2299 754 75.6114 1217.61 481.302
637 0 67.0691 11.3167 759 76.3755 1217.98 481.256
638 0 73.0641 11.6062 848 76.1108 1217.11 481.001
639 0 77.0377 12.3186 949 77.2561 1218.04 483.64
640 0 82.0515 12.5043 1026 79.7173 1217.49 478.571
641 0 83.0734 12.3866 1029 80.3557 1217.56 481.855
642 0 87.048 13.1192 1142 80.5902 1218.81 481.287
643 0 89.0343 12.8714 1146 82.774 1218 479.967
644 0 91.1146 12.4788 1137 85.482 1218.18 478.571
645 0 93.0599 12.6693 1179 87.4809 1218.3 477.836
646 0 96.103 12.4242 1194 91.4045 1218.45 475.372
647 0 99.0862 13.019 1290 89.3186 1218.11 472.999
648 1 54.0654 11.782 637 87.4647 1218.28 496.653
649 0 54.1041 11.6442 630 88.6175 1217.86 487.662
650 0 56.0447 12.4543 698 77.7077 1217.23 494.686
651 0 56.0195 12.0851 677 79.4564 1217.49 493.557
652 0 58.0607 12.8658 747 77.6881 1217.14 493.66
653 0 61.0481 12.9079 788 76.6244 1217.75 491.756
654 0 63.051 12.6247 796 77.7852 1217.78 489.392
655 0 66.0971 12.1337 802 78.0187 1217.87 489.173
656 0 66.0203 12.1175 800 79.2525 1218.4 489.32
657 0 68.1357 11.888 810 80.7679 1218.61 487.493
658 0 71.0706 12.8323 912 78.852 1217.96 486.371
659 0 74.1223 12.7222 943 78.6925 1218.46 484.696
660 0 74.1223 12.7222 943 116.679 1218.46 484.696
661 0 79.0962 12.2635 970 78.7515 1218.38 481.607
662 0 80.047 12.7425 1020 79.652 1218.4 480.32
663 0 84.0426 12.9339 1087 78.9393 1217.97 479.844
664 0 84.1239 13.0997 1102 76.1207 1218.63 474.306
665 0 87.1043 11.8019 1028 79.1294 1218.51 472.503
666 0 88.1638 11.9777 1056 78.5331 1218.24 472.932
667 0 90.0808 11.9781 1079 79.4866 1218.62 470.154
668 0 92.1241 11.5279 1062 79.9341 1219.4 470.416
669 0 98.1554 12.3172 1209 78.426 1218.36 466.803
670 0 103.14 12.546 1294 84.0719 1218.54 469.148
671 0 106.187 12.5627 1334 85.7654 1218.68 464.762
672 1 57.1394 10.4131 595 93.5126 1218.85 489.645
673 0 59.1356 10.6704 631 90.1807 1218.39 487.883
674 0 59.0323 11.7055 691 87.9797 1218.89 489.194
675 0 61.0233 10.9139 666 79.8168 1217.79 490.296
676 0 64.1494 11.5044 738 80.4187 1218.55 490.325
677 0 68.0535 11.1971 762 80.3609 1218.53 489.583
678 0 69.0595 11.6856 807 78.8327 1217.95 490.343
679 0 73.0701 12.1527 888 82.9651 1218.15 486.82
680 0 74.1057 12.0908 896 78.7344 1217.02 486.683
681 0 76.0899 12.3932 943 78.5334 1217.91 486.719
682 0 79.0877 12.6695 1002 78.4301 1217.62 485.158
683 0 80.1629 12.2875 985 80.2995 1217.82 484.318
684 0 82.1608 12.865 1057 79.7909 1217.61 483.518
685 0 85.0902 12.8099 1090 79.2257 1217.95 482.369
686 0 86.1046 12.659 1090 81.144 1218.78 481.022
687 0 89.1017 12.4128 1106 82.0805 1218.98 480.896
688 0 93.0875 11.9028 1108 83.3348 1218.35 478.138
689 0 95.0544 12.7716 1214 83.3896 1218.21 477.884
690 0 100.213 12.8327 1286 83.1726 1218.87 475.528
691 0 101.127 12.2915 1243 83.8946 1218.51 474.427
692 1 56.058 11.3454 636 84.1179 1218.31 497.2
693 0 57.0379 12.8511 733 83.5634 1218.08 496.974
694 0 58.0804 11.8456 688 92.6599 1217.36 494.635
695 0 62.0695 11.8255 734 93.0327 1217.73 493.759
696 0 63.036 11.7235 739 94.1719 1217.87 494.525
697 0 66.0899 12.8915 852 92.1631 1217.59 492.978
698 0 66.1517 11.9423 790 97.1228 1217.18 491.448
699 0 67.0221 11.9662 802 99.308 1217.28 490.97
700 0 72.0479 12.9775 935 95.7904 1218.31 489.439
701 0 73.079 12.4796 912 97.9243 1217.57 489.379
702 0 75.0824 12.6927 953 98.5005 1217.58 488.373
703 0 79.0641 12.8503 1016 99.0354 1216.98 486.691
704 0 81.089 13.331 1081 98.321 1217.33 486.326
705 0 83.0595 12.5573 1043 98.0431 1217.67 485.693
706 0 85.0418 12.9819 1104 97.5362 1216.87 484.275
707 0 89.072 13.6406 1215 93.6214 1217.01 483.072
708 0 90.0452 13.5043 1216 99.5781 1216.8 480.923
709 0 93.0635 13.2168 1230 102.004 1216.23 480.596
710 0 95.1015 12.9441 1231 104.835 1216.87 479.542
711 0 98.1067 13.0266 1278 103.784 1216.88 478.824
712 1 56.0693 11.896 667 98.0255 1216.82 501.079
713 0 55.0372 11.9737 659 96.9833 1216.43 500.964
714 0 56.0147 12.2289 685 96.4642 1217.11 500.15
715 0 59.1486 12.5278 741 97.027 1217.51 498.816
716 0 61.0124 12.4565 760 99.5921 1217.11 498.936
717 0 63.0102 13.0614 823 96.1701 1216.88 497.708
718 0 64.0827 13.1549 843 93.1435 1216.78 497.698
719 0 66.0525 13.2016 872 96.6227 1218.21 496.481
720 0 68.1046 13.7436 936 96.8536 1218.19 495.261
721 0 70.1434 13.6435 957 98.8349 1217.63 494.719
722 0 74.1069 13.602 1008 99.6637 1218.77 494.744
723 0 74.0709 13.4736 998 106.322 1217.46 492.51
724 0 79.0745 13.7971 1091 103.72 1218.22 492.489
725 0 79.0773 13.9484 1103 106.18 1217.93 492.263
726 0 83.132 13.677 1137 106.571 1218.69 489.93
727 0 84.1028 14.078 1184 108.048 1217.61 489.196
728 0 86.145 13.3148 1147 116.133 1217.18 486.911
729 0 89.0965 13.7267 1223 115.793 1216.97 483.283
730 0 89.0926 13.7946 1229 161.858 1216.99 483.265
731 0 94.2244 13.8287 1303 112.622 1217.08 484.99
732 0 97.3333 13.4178 1306 112.817 1217.02 485.623
733 0 100.137 13.6513 1367 111.955 1217.92 483.341
734 0 102.174 13.0953 1338 114.999 1218.07 479.895
735 1 53.0881 12.0178 638 117.66 1217.18 504.878
736 0 54.0706 12.1508 657 119.076 1218.14 500.925
737 0 56.0482 12.3108 690 123.774 1216.85 500.136
738 0 57.0497 13.4269 766 117.125 1217.86 499.317
739 0 55.0277 12.5937 693 117.216 1216.53 500.567
740 0 56.1737 11.9985 674 118.006 1216.92 500.779
741 0 58.0529 12.7987 743 114.957 1215.75 499.101
742 0 59.0596 11.6154 686 116.602 1215.88 498.345
743 0 63.0803 12.6188 796 112.719 1216.52 497.334
744 0 65.1249 12.2073 795 113.894 1216.55 496.014
745 0 65.0531 12.1593 791 116.236 1216.34 495.698
746 0 68.0596 12.5919 857 115.714 1216.84 493.471
747 0 71.0824 12.6754 901 114.094 1216.54 492.19
748 0 72.0687 12.391 893 112.999 1217.03 492.541
749 0 76.0652 12.8048 974 111.436 1217.07 490.351
750 0 77.0871 13.3226 1027 110.432 1217.62 490.109
751 0 80.0994 13.3834 1072 112.442 1217.52 488.296
752 0 82.1694 12.4621 1024 117.138 1217.22 485.41
753 0 85.1937 13.1348 1119 113.497 1217.79 484.1
754 0 88.2664 12.7342 1124 113.625 1217.9 480.786
755 0 90.0958 13.2304 1192 111.76 1217.29 479.607
756 1 49.0229 11.77 577 115.614 1216.69 499.693
757 0 51.0593 12.8674 657 111.128 1218.01 499.247
758 0 49.0147 12.4656 611 116.939 1217.15 497.409
759 0 54.1388 13.3915 725 119.113 1218.03 499.785
760 0 55.0943 13.3045 733 120.168 1217.26 499.231
761 0 58.1437 13.4494 782 117.348 1217.37 497.983
762 0 59.1075 13.6869 809 117.473 1218.39 497.116
763 0 60.057 13.304 799 119.68 1217.52 496.257
764 0 63.1039 14.3097 903 115.782 1218.46 496.033
765 0 63.086 13.1883 832 121.016 1217.67 494.511
766 0 67.088 14.1158 947 116.129 1218.46 494.132
767 0 67.0566 13.854 929 117.543 1217.28 493.193
768 0 69.0519 13.9171 961 118.95 1217.99 492.234
769 0 71.0453 13.6533 970 120.16 1218.09 492.309
770 0 73.0732 13.507 987 121.989 1217.45 489.699
771 0 76.0596 13.2265 1006 123.501 1217.73 488.969
772 0 78.0354 14.0577 1097 120.982 1218.13 488.778
773 0 79.0967 13.1864 1043 124.448 1218.35 487.384
774 0 83.0612 13.4359 1116 121.354 1218.35 486.036
775 0 86.0871 13.8116 1189 119.934 1218.73 482.987
776 0 88.1164 13.5049 1190 119.839 1218.38 481.375
777 0 91.0503 13.0038 1184 121.068 1218.34 479.378
778 0 93.0375 13.6719 1272 118.687 1219.16 479.456
779 0 93.0386 13.575 1263 130.523 1220.17 479.401
780 1 50.0434 11.4501 573 108.578 1218.78 501.014
781 0 49.0855 11.6124 570 102.523 1217.88 500.633
782 0 52.0242 13.5514 705 109.695 1219.1 500.248
783 0 52.1462 13.2129 689 108.401 1218.96 498.685
784 0 55.0755 13.0185 717 108.119 1219.14 498.438
785 0 55.0755 12.8914 710 126.927 1219.1 498.401
786 0 58.0323 12.2863 713 106.551 1218.84 482.783
787 0 60.041 12.0584 724 104.066 1219.52 491.278
788 0 62.0489 13.1348 815 107.21 1218.37 493.038
789 0 65.0113 14.5513 946 101.67 1218.98 492.515
790 0 68.1046 13.9638 951 100.399 1219.07 491.955
791 0 68.0484 13.4022 912 106.719 1219.26 491.47
792 0 70.1506 13.4995 947 106.431 1219.36 489.211
793 0 72.0553 12.7125 916 108.874 1219.6 488.06
794 0 73.2617 13.4176 983 106.154 1219.31 487.777
795 0 78.1597 12.9223 1010 105.168 1219.97 481.776
796 0 80.1302 13.5155 1083 104.651 1219.3 483.982
797 0 82.1172 13.6025 1117 101.761 1219.97 483.417
798 0 86.2012 13.9905 1206 100.012 1219.47 483.054
799 1 43.0206 13.0635 562 105.799 1219.24 501.616
800 0 46.0457 13.682 630 103.519 1219.02 502.778
801 0 48.0414 13.3843 643 104.384 1219 502.907
802 0 50.0166 13.5955 680 102.535 1219.04 500.01
803 0 49.0609 13.4934 662 102.518 1218.64 499.443
804 0 51.0268 13.973 713 101.295 1219.2 498.353
805 0 53.0252 13.6539 724 100.425 1219.14 499.157
806 0 55.0842 14.3235 789 100.008 1218.55 498.162
807 0 57.1529 13.8926 794 101.286 1218.26 499.447
808 0 58.1112 14.1797 824 100.911 1217.79 499.085
809 0 60.1076 14.4241 867 101.915 1218.33 497.135
810 0 62.1469 13.8382 860 102.962 1217.88 495.036
811 0 63.0961 14.153 893 103.352 1218.11 495.488
812 0 67.1231 14.1829 952 104.098 1217.98 493.747
813 0 70.1187 14.6751 1029 102.634 1218.01 492.792
814 0 73.1312 14.809 1083 103.015 1218.85 492.554
815 0 75.1021 14.7799 1110 105.58 1218.69 491.333
816 0 79.1614 14.8305 1174 102.144 1218.46 490.457
817 0 82.1613 14.4715 1189 105.053 1217.7 489.501
818 0 85.0743 14.3639 1222 105.09 1217.77 488.399
819 0 88.1312 14.433 1272 109.633 1218.18 485.61
820 0 90.1497 14.7422 1329 109.127 1217.52 482.263
821 1 44.0311 14.5352 640 109.033 1216.93 505.541
822 0 44.056 14.8901 656 109.588 1217.04 505.976
823 0 45.0706 14.3331 646 111.748 1217.29 504.83
824 0 49.0313 14.7457 723 105.668 1216.79 505.172
825 0 50.082 14.8956 746 104.743 1217.51 505.745
826 0 51.0513 14.9458 763 105.202 1217.31 505.042
827 0 52.0359 14.7398 767 106.459 1217.12 503.986
828 0 55.0628 15.5459 856 104.304 1217.32 503.095
829 0 57.0446 14.7604 842 106.911 1217.05 501.235
830 0 57.0893 15.1342 864 106.155 1217.19 501.208
831 0 59.021 15.7571 930 103.004 1216.72 498.778
832 0 62.0538 14.8097 919 103.812 1217.45 498.933
833 0 63.0939 15.2313 961 103.852 1217.1 498.919
834 0 64.1392 14.9207 957 104.805 1217.44 497.336
835 0 68.0628 15.0155 1022 104.194 1217.52 495.578
836 0 68.0628 15.0155 1022 158.773 1218.52 495.578
837 1 34.0547 13.0378 444 106.775 1218.01 510.601
838 0 34.0161 13.964 475 106.044 1217.88 509.337
839 0 37.0065 13.4571 498 106.187 1217.01 508.57
840 0 38.016 13.8363 526 105.335 1217.47 507.105
841 0 38.015 13.9682 531 103.97 1217.16 506.974
842 0 38.0358 14.5126 552 103.143 1217.51 506.016
843 0 40.0333 14.388 576 102.408 1216.89 504.127
844 0 40.0345 14.8122 593 98.403 1217.13 502.943
845 0 40.0302 14.8138 593 99.4587 1217.21 502.292
846 0 43.0841 14.9243 643 96.9378 1216.37 501.297
847 0 44.0396 15.259 672 96.1875 1216.7 501.217
848 0 45.0732 14.776 666 97.2508 1216.72 500.387
849 0 46.0213 15.5146 714 91.8053 1216.94 498.756
850 0 48.0125 14.8086 711 92.8481 1216.73 498.436
851 0 49.0685 14.5307 713 93.5933 1217.18 497.794
852 0 52.0183 14.8025 770 92.3922 1216.92 496.6
853 0 52.0571 14.7146 766 92.9465 1217.02 495.902
854 0 54.1143 14.4694 783 92.7625 1216.56 496.063
855 0 55.0942 14.3572 791 92.3603 1216.69 493.52
856 0 59.0424 14.1932 838 90.895 1216.58 492.996
857 0 58.1034 14.6463 851 91.1739 1217.02 490.725
858 0 61.0712 15.179 927 90.8964 1216.62 488.944
859 0 64.0481 14.3486 919 92.568 1216.92 488.393
860 0 70.0494 15.7889 1106 86.8291 1216.96 486.495
861 0 69.0449 14.8454 1025 90.9824 1215.95 487.292
862 0 71.0561 14.6926 1044 93.0297 1217 486.091
863 0 74.0581 15.7984 1170 90.3624 1217.73 484.168
864 0 76.0684 15.118 1150 92.2443 1217.17 482.139
865 0 79.0153 14.5668 1151 92.5039 1216.62 482.268
866 0 80.0335 13.9442 1116 91.5618 1217.36 479.973
867 1 42.0345 13.3937 563 92.0107 1217.23 497.79
868 0 43.0472 14.3331 617 90.1442 1217.04 496.857
869 0 44.0332 14.0803 620 91.5774 1216.73 495.445
870 0 47.0357 13.4153 631 91.6957 1216.81 494.819
871 0 48.0306 14.0119 673 90.8306 1216.96 493.419
872 0 49.1053 14.3976 707 90.3225 1217.13 492.656
873 0 50.0518 14.9245 747 90.5047 1216.63 491.967
874 0 54.0635 14.8159 801 89.2072 1216.81 492.302
875 0 55.0322 14.3007 787 92.0864 1216.87 492.74
876 0 57.0684 14.579 832 92.4111 1216.74 490.457
877 0 58.0273 14.9068 865 92.2486 1216.12 489.301
878 0 59.0535 14.8171 875 94.7383 1216.33 488.345
879 0 65.0391 14.7142 957 93.3678 1216.58 487.977
880 0 65.0262 14.8709 967 95.2265 1216.56 485.05
881 0 69.0207 14.7057 1015 95.0768 1217.3 484.426
882 0 71.0447 13.8786 986 97.3742 1216.88 482.489
883 0 74.0352 14.5336 1076 96.1552 1217.45 482.103
884 0 74.0354 14.6281 1083 151.72 1218.46 482.06
885 0 79.0439 14.4477 1142 98.1138 1216.07 477.139
886 0 83.0331 14.2955 1187 98.182 1216.78 474.65
887 0 83.0364 14.2347 1182 155.745 1217.78 474.746
888 1 44.014 12.8823 567 100.367 1216.9 494.309
889 0 46.0258 13.3621 615 98.6715 1217 494.587
890 0 46.0258 13.3186 613 155.533 1216 494.546
891 0 49.0148 13.9142 682 97.2346 1216.78 492.284
892 0 50.0238 14.0133 701 96.4237 1216.41 491.922
893 0 54.0203 13.4579 727 96.4539 1217.13 491.591
894 0 55.0571 13.6586 752 98.3963 1216.96 490.007
895 0 54.0577 13.3191 720 158.019 1216.97 489.11
896 0 58.0165 14.3407 832 97.7837 1216.71 487.438
897 0 60.0374 14.0246 842 99.3539 1217.69 485.711
898 0 63.0377 14.2613 899 98.6696 1217.37 485.162
899 0 63.0609 13.7169 865 102.08 1217.61 483.034
900 0 67.0622 13.659 916 101.585 1218.37 481.988
901 0 69.0667 13.972 965 102.882 1218.12 479.798
902 0 70.0858 13.6975 960 105.011 1218.51 479.132
903 0 73.0385 13.7051 1001 104.888 1217.4 478.119
904 0 75.0569 13.603 1021 106.078 1217.79 475.296
905 0 79.0546 14.0662 1112 104.826 1217.96 474.736
906 0 80.0393 13.8807 1111 106.662 1217.81 473.037
907 0 82.0489 13.9917 1148 106.604 1217.46 470.693
908 0 84.0913 13.3902 1126 107.814 1217.82 470.235
909 0 90.139 13.8453 1248 104.825 1218.94 469.825
910 0 95.087 13.9346 1325 104.5 1218.17 468.014
911 1 53.0522 11.6677 619 98.874 1218.63 493.619
912 0 54.0489 12.3222 666 98.9565 1217.43 493.363
913 0 55.0419 11.8273 651 99.6621 1217.4 490.444
914 0 57.103 12.2936 702 99.4872 1216.71 490.923
915 0 61.089 12.0153 734 99.3501 1217.3 489.163
916 0 63.0657 12.5583 792 99.2386 1216.86 488.823
917 0 67.1217 12.7827 858 101.289 1216.91 487.932
918 0 67.1001 11.9523 802 109.721 1216.6 486.507
919 0 68.0886 12.19 830 109.773 1217.25 484.286
920 0 73.1249 12.3624 904 107.514 1216.38 484.225
921 0 75.1316 12.7243 956 107.563 1216.96 482.26
922 0 75.1225 12.7791 960 144.111 1216.97 482.394
923 0 81.0305 12.7483 1033 103.373 1216.9 481.945
924 0 82.0912 12.2912 1009 105.378 1217.08 479.46
925 0 87.1173 12.5348 1092 103.779 1216.71 479.532
926 0 89.0386 11.6691 1039 106.277 1217.27 476.972
927 0 92.0909 11.4344 1053 105.848 1217.04 477.99
928 1 49.0251 9.64813 473 97.685 1217.19 499.345
929 0 51.0771 10.1611 519 92.1137 1217.7 499.316
930 0 52.0532 11.2961 588 89.4609 1216.64 498.808
931 0 54.0828 11.0386 597 88.804 1216.51 499.492
932 0 56.032 11.315 634 88.5457 1216.05 497.369
933 0 57.0579 11.1466 636 88.8585 1215.49 497.965
934 0 57.0579 11.1816 638 107.386 1215.49 497.948
935 0 62.1158 10.5287 654 91.7248 1216.28 494.849
936 0 65.1146 11.9328 777 89.0322 1215.46 494.507
937 0 65.2039 11.6711 761 91.7937 1215.61 494.352
938 0 68.1174 12.0234 819 92.1441 1215.4 493.735
939 0 69.1239 12.1955 843 93.3689 1215.36 493.428
940 0 73.1196 12.4317 909 94.5292 1215.27 492.787
941 0 74.1169 12.1835 903 96.5094 1215.12 491.437
942 0 76.0678 12.1996 928 97.4483 1214.75 490.279
943 0 80.0723 12.6261 1011 96.2146 1214.57 488.697
944 0 83.093 12.2754 1020 97.7118 1214.66 487.511
945 0 85.085 12.9635 1103 96.6038 1215.04 485.969
946 0 89.1077 13.0853 1166 97.3894 1214.67 486.149
947 0 92.1787 12.7578 1176 97.6344 1214.97 482.955
948 1 49.1331 10.7667 529 97.8412 1215.02 504.922
949 0 49.0688 11.3922 559 96.2057 1214.77 503.871
950 0 52.0682 11.9075 620 101.266 1214.85 501.69
951 0 50.0317 11.6326 582 100.89 1215.14 504.359
952 0 53.026 11.4661 608 99.8931 1215.21 504.352
953 0 55.0826 10.5841 583 101.554 1216.06 503.961
954 0 56.035 10.4399 585 102.749 1215.43 501.894
955 0 59.0323 10.977 648 100.162 1216.19 500.63
956 0 59.016 10.8445 640 90.4391 1216.12 500.231
957 0 63.0838 10.811 682 89.1408 1216.36 498.088
958 0 64.0435 10.6958 685 89.3095 1216.47 497.545
959 0 67.0216 10.2803 689 90.1887 1216.49 495.491
960 0 68.0443 11.566 787 88.291 1217.28 494.253
961 0 72.1134 11.0798 799 88.4168 1216.13 493.975
962 0 73.0839 11.001 804 88.8358 1216.36 490.913
963 0 75.0456 11.4997 863 88.3233 1216.77 490.079
964 0 79.0938 11.7708 931 88.1461 1216.53 489.001
965 0 81.0857 11.3337 919 90.0348 1216.75 489.001
966 0 82.0662 10.918 896 91.6942 1217.1 486.541
967 0 85.137 10.6887 910 91.9989 1216.01 486.843
968 0 90.1768 11.7103 1056 90.8381 1215.87 484.255
969 1 46.1758 11.1314 514 91.5759 1215.5 502.776
970 0 46.2351 10.2952 476 83.5 1215.52 501.116
971 0 50.1454 12.1447 609 86.5846 1216.54 502.553
972 0 50.2622 12.4149 624 85.6426 1216.6 503.583
973 0 53.1741 12.1112 644 85.0171 1216.9 501.571
974 0 53.1291 10.9545 582 79.5859 1216.73 495.919
975 0 54.3451 11.0773 602 84.5432 1216.85 501.61
976 0 56.0643 10.595 594 84.6919 1217.47 500.084
977 0 57.1651 10.9857 628 83.5111 1217.82 499.223
978 0 59.0857 10.7133 633 83.5166 1218.24 498.547
979 0 61.1444 10.974 671 91.5544 1218.13 496.975
980 0 64.2288 11.4746 737 91.2035 1218.33 496.995
981 0 64.1237 10.9632 703 93.064 1218.42 494.602
982 0 67.261 12.1318 816 82.0551 1218.63 493.217
983 0 68.2136 10.4085 710 86.131 1217.68 492.549
984 0 71.3791 11.1657 797 86.0866 1217.8 490.827
985 0 74.2498 12.2021 906 83.6545 1217.68 490.201
986 0 77.2885 11.9811 926 85.6307 1216.68 487.593
987 0 80.2483 12.075 969 85.3983 1218.16 485.328
988 0 81.3572 11.7506 956 87.3358 1217.4 485.064
989 0 84.2592 11.702 986 86.5892 1217.06 483.834
990 0 89.3427 11.663 1042 85.7697 1216.33 482.82
991 1 46.2269 11.8546 548 87.8923 1216.98 501.243
992 0 49.2376 11.9624 589 88.1596 1216.83 499.591
993 0 50.2486 12.876 647 87.7867 1217.07 497.376
994 0 52.0581 12.3132 641 89.2808 1217.18 499.101
995 0 53.0937 12.0165 638 90.0219 1217.24 498.956
996 0 58.0454 13.2482 769 90.186 1217.17 482.254
997 0 58.0898 12.6528 735 90.1741 1217.59 497.22
998 0 59.0827 12.1694 719 93.7427 1217.43 495.651
999 0 61.0779 12.2467 748 94.5615 1217.48 495.279
1000 0 60.0643 12.9861 780 95.3769 1217.48 494.249
1001 0 64.0891 12.467 799 96.4931 1217.34 493.274
1002 0 66.1103 12.7968 846 96.2553 1217.25 491.264
1003 0 68.1694 12.3809 844 97.8128 1217.02 489.818
1004 0 70.2132 12.6472 888 98.0146 1217.34 486.124
1005 0 72.1875 13.174 951 96.4858 1218.38 486.037
1006 0 75.2037 12.9515 974 96.885 1217.68 484.593
1007 0 77.2358 13.271 1025 97.002 1218.36 484.991
1008 0 79.1596 13.1633 1042 98.2063 1218.17 485.533
1009 0 80.2384 13.1608 1056 99.4394 1218.16 482.944
1010 0 82.1853 12.7882 1051 101.439 1217.55 481.829
1011 0 86.3134 13.9144 1201 98.1973 1217.8 481.071
1012 0 86.2875 13.1769 1137 101.43 1217.74 478.766
1013 0 90.2552 12.6752 1144 102.149 1217.97 478.066
1014 0 91.3292 13.0845 1195 102.34 1217.79 477.831
1015 0 92.3083 13.5957 1255 102.073 1217.64 477.955
1016 0 95.2888 13.6113 1297 102.675 1218.27 476.13
1017 0 98.2687 13.9617 1372 102.144 1218.14 476.053
1018 0 99.3667 13.8376 1375 102.74 1219.07 475.135
1019 0 103.551 14.534 1505 101.721 1218.83 474.441
1020 0 104.397 14.1671 1479 103.848 1219.04 473.779
1021 0 107.464 14.0047 1505 104.714 1218.65 471.833
1022 0 110.421 14.1731 1565 103.65 1218.42 469.955
1023 0 112.319 14.4143 1619 104.006 1219.18 468.867
1024 1 57.1844 12.9931 743 107.869 1218.91 497.17
1025 0 57.2363 13.3831 766 108.291 1217.81 497.621
1026 0 58.2697 13.1801 768 111.611 1218.21 495.706
1027 0 59.1793 13.4675 797 111.465 1217.89 495.123
1028 0 61.2178 13.5908 832 111.891 1217.56 494.115
1029 0 61.2462 14.0907 863 113.672 1217.06 492.957
1030 0 62.2074 13.8729 863 116.317 1217.01 492.835
1031 0 64.357 14.3419 923 116.19 1217.31 492.485
1032 0 65.2911 14.3971 940 119.191 1217.47 490.999
1033 0 66.3104 13.844 918 123.459 1217.13 491.71
1034 0 64.2174 13.2519 851 138.519 1217.24 489.758
1035 0 66.1976 13.1123 868 142.329 1217.54 489.445
1036 0 67.2128 12.4679 838 140.309 1217.65 487.301
1037 0 68.2017 12.8736 878 145.261 1218.01 474.259
1038 0 69.1407 12.6409 874 147.143 1217.21 485.97
1039 0 69.1862 13.0806 905 148.651 1217.19 485.496
1040 0 71.2005 12.9494 922 151.804 1217.13 485.923
1041 0 71.1972 12.978 924 156.341 1217.33 484.534
1042 0 72.1425 13.0436 941 158.965 1217.19 484.836
1043 1 37.1202 10.4525 388 151.407 1216.7 503.07
1044 0 34.0933 10.5006 358 153.788 1216.84 502.036
1045 0 37.0528 10.2556 380 156.071 1215.82 501.974
1046 0 40.0435 11.013 441 156.086 1215.61 502.728
1047 0 40.0083 11.2977 452 158.239 1215.33 501.73
1048 0 40.0207 11.1442 446 161.87 1215.47 501.666
1049 0 39.0123 11.0222 430 167.06 1216.07 501.921
1050 0 40.0408 11.5382 462 165.32 1215.9 502.519
1051 0 42.0173 11.3525 477 165.082 1215.4 502.438
1052 0 41.0134 11.1671 458 168.769 1215.75 503.967
1053 0 41.0486 11.328 465 169.327 1215.96 504.166
1054 0 42.0551 11.1996 471 177.408 1216.55 504.055
1055 0 43.0188 10.9487 471 179.093 1216.85 503.35
1056 0 45.073 11.4925 518 181.475 1216.52 503.546
1057 0 46.0378 12.0336 554 178.978 1217.03 502.605
1058 0 47.0268 12.2483 576 177.332 1216.73 502.929
1059 0 47.0454 12.0947 569 181.83 1216.53 503.169
1060 0 46.0637 11.7012 539 187.34 1216.6 501.046
1061 0 48.0592 12.0685 580 186.679 1216.66 500.057
1062 0 47.0296 12.0137 565 191.381 1216.75 501.048
1063 0 50.0429 11.8498 593 192.621 1216.59 484.093
1064 0 50.0234 12.3142 616 192.692 1216.87 487.407
1065 0 50.0267 11.7937 590 196.247 1216.68 494.898
1066 0 49.0447 12.3969 608 198.342 1216.71 500.133
1067 0 52.0796 12.2313 637 198.451 1216.86 500.185
1068 0 52.0549 12.3139 641 200.078 1217.36 499.794
1069 0 53.0907 12.3374 655 199.177 1216.93 499.609
1070 0 54.0936 12.2565 663 200.768 1218.84 500.805
1071 0 54.0658 12.6883 686 202.388 1219.12 500.933
1072 0 54.0761 12.6488 684 205.284 1218.85 500.705
1073 0 56.0884 12.2129 685 205.676 1219.14 500.79
1074 0 56.078 12.8036 718 202.166 1218.74 500.309
1075 0 55.0817 12.9989 716 202.718 1218.87 499.979
1076 0 55.0837 12.3085 678 207.754 1218.42 500.397
1077 0 58.1208 12.3708 719 207.281 1218.78 499.848
1078 0 58.1208 12.3364 717 205.374 1218.8 499.861
1079 0 57.1087 12.3624 706 209.635 1217.34 498.562
1080 0 59.1958 12.7036 752 204.904 1218.37 499.161
1081 0 59.0921 12.7428 753 203.754 1218.91 497.939
1082 0 60.1369 12.4383 748 205.945 1218.21 496.878
1083 0 58.1378 12.2296 711 208.504 1218.74 497.121
1084 0 61.1507 12.3302 754 203.463 1217.96 497.362
1085 0 62.1631 12.2742 763 201.974 1217.98 496.933
1086 0 61.1768 12.2595 750 202.977 1217.81 496.153
1087 0 61.1473 12.3636 756 199.853 1217.31 495.68
1088 0 61.1622 12.3442 755 199.171 1217.83 495.695
1089 1 280.575 17.4463 4895 204.586 1217.14 391.203
1090 0 281.387 16.7634 4717 205.387 1217.72 388.728
1091 0 282.154 17.3912 4907 202.728 1217.51 389.545
1092 0 284.209 17.3851 4941 202.201 1217.57 387.977
1093 0 289.031 17.358 5017 202.153 1218 385.02
1094 0 288.897 18.3075 5289 195.842 1217.33 385.737
1095 0 344.174 18.2669 6287 180.329 1217.22 365.011
1096 1 65.1581 12.3392 804 201.03 1217.15 494.386
1097 0 63.2947 12.2127 773 202.191 1217.58 493.886
1098 0 63.2187 12.0534 762 200.445 1217.48 493.85
1099 0 63.3814 11.8331 750 197.215 1218.49 495.556
1100 0 63.273 12.2011 772 192.46 1219.18 495.587
1101 0 64.348 11.9973 772 189.413 1218.59 493.991
1102 0 64.376 12.0697 777 184.712 1219.75 495.013
1103 0 65.2944 11.8693 775 183.439 1218.87 494.329
1104 0 64.4243 11.9055 767 183.236 1218.43 494.085
1105 0 63.3613 11.6001 735 181.649 1217.63 494.535
1106 0 63.316 11.8138 748 179.124 1217.85 493.615
1107 0 64.3988 11.9878 772 174.552 1218.03 492.431
1108 0 65.3001 11.8836 776 170.784 1217.39 492.255
1109 0 64.4095 11.3958 734 170.787 1217.87 492.177
1110 0 65.4253 11.7386 768 165.992 1217.69 491.827
1111 0 65.6223 11.429 750 163.229 1218 491.78
1112 0 65.27 11.3528 741 161.799 1217.73 491.121
1113 0 64.3932 11.4919 740 160.192 1217.27 491.601
1114 0 63.2782 11.5206 729 157.615 1217.85 491.114
1115 0 63.2637 11.4442 724 155.83 1218.34 491.809
1116 0 62.2936 11.0926 691 155.47 1217.92 491.946
1117 0 63.4239 11.3679 721 152.458 1217.79 491.161
1118 0 63.4082 10.8819 690 152.52 1217.78 491.165
1119 0 61.3358 11.3311 695 150.224 1218.3 490.337
1120 0 62.4547 11.1601 697 148.205 1218 490.409
1121 0 61.5222 11.183 688 145.765 1218.74 491.423
1122 0 63.3663 10.9838 696 142.299 1218.86 490.431
1123 0 62.4373 10.939 683 141.965 1217.86 489.501
1124 0 64.2976 10.7625 692 139.483 1218.42 490.09
1125 0 64.2888 10.7173 689 135.466 1219.44 489.991
1126 0 62.4102 10.6873 667 136.22 1218.25 489.372
1127 0 62.2355 11.119 692 133.543 1217.65 489.591
1128 0 61.3078 10.015 614 136.251 1218.03 489.096
1129 0 61.4135 10.3235 634 133.077 1218.51 488.308
1130 0 61.4461 10.9852 675 128.693 1217.89 486.785
1131 0 61.2599 10.3657 635 128.784 1218.67 487.321
1132 0 61.4356 10.6941 657 125.419 1219.27 486.169
1133 0 59.3248 10.8386 643 124.18 1218.45 486.149
1134 0 60.3378 10.6898 645 123.011 1218.77 485.6
1135 0 61.3168 10.8127 663 119.682 1218.06 485.32
1136 0 58.2942 10.4985 612 118.755 1217.76 485.469
1137 0 57.2354 10.3083 590 116.937 1217.65 484.922
