time division length width area intensity CMx CMy
0 0 35.0402 12.8995 452 123.569 923.688 499.688
1 0 38.0213 12.8612 489 121.012 923.857 498.789
2 0 38.0461 12.406 472 122.453 923.881 499.189
3 0 38.0218 12.8874 490 120.931 923.412 498.694
4 0 40.0647 13.3534 535 118.363 923.824 497.557
5 0 42.0275 13.3008 559 117.011 924.032 496.946
6 0 41.0335 13.1843 541 118.29 923.431 496.834
7 0 43.0095 13.0901 563 116.844 924.208 497.144
8 0 43.0281 13.3401 574 116.098 924.038 496.425
9 0 46.011 12.8013 589 114.002 923.896 496.626
10 0 46.0077 12.9109 594 115.278 923.37 495.978
11 0 47.0507 13.6023 640 110.944 923.145 495.3
12 0 48.0127 13.4548 646 111.378 924.21 494.697
13 0 49.0631 13.4724 661 110.011 923.655 494.263
14 0 51.0619 13.4151 685 107.561 923.257 494.432
15 0 52.0127 13.4775 701 106.986 923.007 493.719
16 0 54.0181 14.1249 763 104.22 923.662 492.625
17 0 55.0262 13.648 751 105.029 922.683 490.406
18 0 57.0515 13.2687 757 105.174 922.641 490.897
19 0 59.0908 14.2662 843 101.164 922.401 489.614
20 0 61.0873 14.0455 858 101.284 922.493 489.878
21 0 62.094 13.705 851 102.429 921.833 488.498
22 0 62.0897 13.706 851 103.047 922.276 487.58
23 0 66.1779 14.053 930 99.586 922.466 485.426
24 0 67.0474 13.7067 919 100.526 922.578 485.484
25 0 69.0763 13.724 948 98.7384 923.461 483.586
26 0 71.1057 13.7823 980 96.9102 923.031 483.292
27 0 74.1016 13.8863 1029 95.654 922.512 481.125
28 0 77.0531 13.5751 1046 94.6386 922.051 480.197
29 0 78.1329 13.6946 1070 94.6738 921.487 478.269
30 0 78.1134 13.6084 1063 150.255 920.483 478.15
31 0 80.1075 13.1074 1050 96.5867 922.787 476.118
32 1 42.111 11.6597 491 90.2872 922.041 497.393
33 0 43.0658 12.0281 518 90.3378 921.878 496.008
34 0 44.0114 13.1102 577 92.9896 921.922 498.071
35 0 45.051 12.4748 562 88.1922 922.258 498.69
36 0 45.0139 12.3295 555 88.8649 922.398 497.405
37 0 46.0269 12.5362 577 87.5217 921.936 495.816
38 0 51.0398 12.5392 640 84.6766 921.309 495.197
39 0 51.0144 12.2514 625 86.3136 921.346 493.69
40 0 56.0187 12.7457 714 83.6373 921.377 491.98
41 0 57.019 12.8729 734 82.6962 921.347 491.992
42 0 59.0841 13.1 774 84.0685 921.983 490.248
43 0 62.0788 12.8546 798 85.7719 921.356 489.172
44 0 63.0267 13.3594 842 85.4276 921.104 487.436
45 0 66.0833 13.3317 881 86.5823 921.076 486.035
46 0 69.0819 13.636 942 85.7877 921.278 485.656
47 0 70.0765 12.4578 873 89.0355 921.561 484.388
48 0 72.0433 12.2426 882 88.1519 921.23 482.378
49 0 75.0123 12.6246 947 86.9124 920.232 481.496
50 0 79.103 12.8693 1018 86.279 920.122 480.726
51 0 80.0841 12.9114 1034 86.5097 920.461 480.018
52 0 83.0282 12.9835 1078 85.9657 920.685 476.644
53 0 87.0578 13.0143 1133 84.6143 920.983 476.783
54 0 89.0773 13.1571 1172 84.4522 920.979 474.796
55 0 91.0962 13.4583 1226 84.5383 921.723 472.633
56 0 93.102 13.2865 1237 83.8965 921.515 471.905
57 0 96.0931 13.0186 1251 86.7114 921.195 470.125
58 0 101.077 13.4451 1359 86.156 921.969 468.463
59 0 104.122 13.3017 1385 85.5632 921.929 466.998
60 0 107.122 12.7518 1366 83.3843 921.294 466.134
61 0 111.059 13.1551 1461 83.5222 921.17 463.661
62 0 114.157 13.3851 1528 85.9215 921.275 461.119
63 0 117.085 13.1102 1535 85.7036 921.2 460.154
64 0 124.025 13.6101 1688 85.4313 921.25 457.367
65 0 128.131 13.8062 1769 85.0339 922.228 455.021
66 1 64.0328 10.8851 697 80.6012 921.468 486.646
67 0 70.1377 12.9602 909 78.5468 921.808 486.023
68 0 71.0905 12.6459 899 78.2002 920.717 485.283
69 0 70.09 11.685 819 74.1038 920.936 485.59
70 0 76.0921 12.498 951 72.1714 920.748 484.265
71 0 78.043 12.0959 944 72.8962 920.799 483.481
72 0 79.0899 11.253 890 75.0629 920.683 481.185
73 0 85.0924 11.7284 998 73.6784 920.991 478.464
74 0 86.1075 10.6611 918 75.5599 920.755 479.278
75 0 88.0774 11.1947 986 76.3661 921.244 476.567
76 0 92.0904 11.6842 1076 75.4517 921.29 474.506
77 1 48.0349 10.6381 511 75.1018 921.458 496.886
78 0 50.0303 11.513 576 73.0417 922.075 495.135
79 0 52.0323 12.3001 640 71.6516 921.655 494.433
80 0 52.0656 11.9081 620 73.4258 922.09 493.527
81 0 53.1038 11.6752 620 74.4403 922.069 492.448
82 0 56.0956 12.3004 690 73.9986 922.188 491.842
83 0 58.0226 12.4607 723 74.343 921.523 491.032
84 0 60.0362 11.7263 704 77.6378 922.476 488.533
85 0 62.0217 11.7378 728 78.1209 922.459 488.426
86 0 63.0723 12.4778 787 76.9695 922.616 486.479
87 0 66.1016 12.2387 809 78.1063 922.475 485.237
88 0 68.0532 12.2257 832 78.2428 922.474 485.606
89 0 71.0888 12.5758 894 79.4888 920.722 483.946
90 0 71.1204 12.739 906 80.4989 922.36 483.978
91 0 75.1062 12.4357 934 81.4497 921.808 482.873
92 0 76.034 11.8894 904 83.3794 921.614 481.198
93 0 80.1347 12.4915 1001 81.8292 921.218 479.558
94 0 82.1268 11.811 970 84.4381 921.469 478.234
95 1 42.0098 10.4499 439 79.1002 920.891 501.082
96 0 41.0162 10.7519 441 79.4875 920.302 499.558
97 0 44.0408 12.0116 529 77.6692 919.728 498.106
98 0 44.0384 11.6943 515 72.2563 919.992 499.429
99 0 43.0314 11.1082 478 74.9498 920.364 500.483
100 0 44.0512 11.0099 485 76.2309 920.606 500.031
101 0 46.0299 10.7973 497 76.6237 921.127 497.755
102 0 47.0458 11.1168 523 75.9388 920.772 497.417
103 0 48.0546 10.5713 508 75.8917 920.787 497.191
104 0 51.0461 10.7746 550 76.6745 920.449 495.633
105 0 52.0435 11.279 587 75.3169 921.128 494.284
106 0 53.0527 10.7629 571 76.2802 921.314 494.762
107 0 56.044 12.1512 681 74.1028 920.996 492.875
108 0 56.0877 11.0541 620 76.6242 920.658 491.323
109 0 60.067 11.4372 687 75.6972 919.907 490.426
110 0 60.0431 11.4584 688 76.609 921.459 490.352
111 0 63.0278 11.487 724 76.8646 921.612 489.501
112 0 66.0561 11.7476 776 76.8802 921.137 488.356
113 0 66.0519 11.7029 773 78.1462 921.061 487.106
114 0 69.0551 12.0918 835 79.0635 921.774 486.092
115 0 71.0209 12.8554 913 80.0405 921.284 484.544
116 0 72.0417 12.0902 871 82.6315 921.375 483.739
117 0 74.0312 11.6843 865 84.0809 921.808 484.076
118 0 78.0906 11.9989 937 84.0576 920.49 481.349
119 1 43.0089 12.1138 521 82.3205 920.47 498.929
120 0 44.0081 11.4297 503 80.5984 919.873 498.332
121 0 45.0282 12.0591 543 82.7606 921.136 498.214
122 0 47.0466 11.9669 563 82.5755 921.513 497.098
123 0 47.0381 12.458 586 82.8771 921.821 496.242
124 0 49.0232 12.0759 592 83.826 921.973 494.917
125 0 51.0618 12.1617 621 83.4702 921.607 495.077
126 0 51.0814 12.2745 627 84.0128 920.316 494.86
127 0 49.0482 11.9882 588 77.7976 919.786 495.406
128 0 50.0163 11.8361 592 79.397 919.855 495.655
129 0 52.0324 11.8003 614 79.886 920.681 494.453
130 0 52.0324 11.8388 616 126.675 921.68 494.466
131 0 55.0276 11.6124 639 81.4867 920.881 492.937
132 0 56.0173 11.907 667 81.5457 920.369 491.768
133 0 59.0228 12.1987 720 80.3653 920.468 490.85
134 0 62.0159 12.3194 764 80.7016 920.632 491.118
135 0 65.0793 12.262 798 80.5401 920.59 489.546
136 0 67.0424 11.9178 799 82.0488 919.885 488.043
137 0 70.0774 12.7573 894 80.4944 920.064 485.636
138 0 71.0549 12.5677 893 81.1747 919.577 485.513
139 0 75.0942 12.9304 971 80.6653 919.761 481.946
140 0 77.0896 12.3363 951 81.7781 920.463 484.053
141 1 39.0269 10.5568 412 83.8398 920.163 502.235
142 0 41.0139 10.9719 450 83 920.86 502.993
143 0 41.0984 11.6063 477 84.6436 920.95 501.289
144 0 43.0218 12.3658 532 85.5902 920.972 499.293
145 0 45.0609 12.6273 569 86.058 919.691 500.629
146 0 42.0281 11.8016 496 80.0141 920.2 502.72
147 0 43.0922 11.9511 515 81.2 920.478 500.868
148 0 46.0824 12.1956 562 79.8523 920.553 499.808
149 0 46.0907 11.7594 542 80.5387 920.404 499.341
150 0 48.1192 11.8871 572 80.6696 920.636 499.43
151 0 48.1192 11.9079 573 135.555 920.649 499.414
152 0 50.0288 11.6933 585 81.6274 920.405 497.797
153 0 52.1019 11.823 616 81.2857 919.476 495.951
154 0 55.1366 12.3511 681 79.3333 918.988 496.369
155 0 56.0526 11.739 658 80.1991 919.175 494.407
156 0 56.031 12.0469 675 81.3496 919.407 493.61
157 0 58.0486 11.8521 688 82.0305 920.003 493.629
158 0 63.114 12.2635 774 81.3049 919.754 491.86
159 0 62.0919 11.8534 736 83.3193 919.698 490.735
160 0 65.1444 12.0502 785 83.7414 919.524 488.752
161 0 68.0545 12.681 863 81.8552 919.086 488.199
162 0 70.0936 12.2978 862 83.1508 918.363 485.481
163 0 71.0968 11.9977 853 84.6706 918.49 485.94
164 0 73.09 12.3546 903 83.2458 918.18 484.221
165 0 75.0379 11.874 891 84.6465 918.578 480.79
166 0 79.1025 12.0097 950 84.2779 918.602 479.933
167 0 80.0358 11.1075 889 85.7863 919.43 480.524
168 0 81.067 10.8552 880 87.0261 919.049 478.464
169 0 84.0322 11.6622 980 85.9184 919.501 477.312
170 0 88.0634 11.0261 971 87.275 919.072 476.24
171 0 91.1451 10.9715 1000 86.919 919.649 474.964
172 0 94.1074 10.7962 1016 87.7165 919.279 473.891
173 1 48.0768 10.2336 492 94.1463 919.553 493.819
174 0 52.0312 10.8973 567 91.9683 919.309 492.926
175 0 50.0162 10.4566 523 83.3881 918.881 493.857
176 0 50.0669 10.7656 539 83.4545 919.716 494.711
177 0 52.0489 10.7783 561 83.7504 919.472 492.658
178 0 55.0776 10.7303 591 83.8223 919.75 492.11
179 0 57.0652 10.9874 627 84.0925 919.431 489.195
180 0 59.0688 10.9872 649 83.2358 919.311 487.855
181 0 62.0849 10.8722 675 83.843 919.421 488.117
182 0 65.0873 11.5537 752 83.1848 919.128 486.144
183 0 67.0399 11.784 790 89.057 918.353 484.571
184 0 69.0583 12.1492 839 88.8343 919.019 483.704
185 0 75.1305 13.603 1022 85.7965 918.749 483.916
186 0 75.0766 13.8525 1040 86.0288 918.84 484.206
187 0 76.0641 13.5149 1028 88.0467 918.962 481.508
188 0 79.1337 13.7236 1086 87.6529 919.112 480.302
189 0 80.1778 13.8817 1113 88.6092 919.243 479.776
190 0 85.16 13.9385 1187 88.0893 919.241 477.409
191 0 87.1633 14.926 1301 88.2137 919.138 476.886
192 0 88.1414 14.749 1300 91.2115 919.369 475.118
193 0 91.235 14.3585 1310 93.0008 918.719 473.061
194 0 92.1224 14.09 1298 95.4407 919.018 471.762
195 0 96.11 13.8279 1329 90.2716 919.375 466.894
196 0 100.104 13.8456 1386 91.0729 919.375 465.727
197 0 101.184 13.8164 1398 92.0315 919.177 463.069
198 0 105.204 13.4881 1419 92.2727 918.832 463.001
199 0 108.169 14.2 1536 90.8138 919.055 462.213
200 0 110.137 14.3095 1576 91.8318 919.306 458.327
201 0 114.083 13.9635 1593 92.4809 919.27 456.725
202 0 116.074 14.3099 1661 118.084 919.973 456.336
203 0 121.059 14.3649 1739 116.802 919.488 454.017
204 0 127.082 13.9044 1767 118.443 920.603 450.892
205 0 130.086 14.0061 1822 119.217 920.388 448.714
206 1 66.0295 11.9795 791 110.735 920.412 488.678
207 0 68.0593 12.6654 862 108.966 919.469 488.051
208 0 69.0267 12.5169 864 103.019 919.086 487.5
209 0 70.0614 12.6746 888 99.9471 919.221 486.996
210 0 73.03 12.8988 942 98.8195 918.937 485.551
211 0 76.0594 12.0301 915 101.374 919.343 484.839
212 0 77.1041 12.6452 975 101.029 918.95 483.738
213 0 77.0879 11.8955 917 103.461 919.318 481.214
214 0 78.1308 11.9927 937 105.436 919.301 480.551
215 0 83.2077 12.1744 1013 104.087 918.47 479.593
216 0 84.0964 12.5094 1052 104.52 918.753 478.727
217 0 86.0762 12.4541 1072 104.049 918.904 478.721
218 0 89.115 12.3099 1097 102.865 918.914 475.826
219 0 92.0947 11.8031 1087 103.46 919.076 475.611
220 0 94.0538 12.5035 1176 101.717 918.964 474.149
221 0 100.235 13.4284 1346 108.236 918.6 471.266
222 0 104.18 13.4671 1403 106.954 918.874 468.763
223 0 104.105 12.8428 1337 109.215 919.084 467.103
224 0 110.179 13.4236 1479 106.619 919.243 465.018
225 0 114.145 13.2025 1507 107.486 918.957 462.352
226 0 118.18 13.4118 1585 107.912 918.571 461.463
227 1 63.0745 11.6529 735 105.083 918.351 488.716
228 0 64.0692 12.2836 787 106.316 918.799 487.103
229 0 67.1007 12.9209 867 104.408 918.487 486.061
230 0 68.0724 11.7522 800 94.7538 919.68 487.514
231 0 70.1211 12.2788 861 94.2253 919.117 486.382
232 0 70.0766 11.9583 838 95.3246 919.088 485.513
233 0 75.0839 11.3207 850 96.5918 919.561 483.491
234 0 77.0879 12.0382 928 94.6994 919.424 482.328
235 0 81.1038 12.2682 995 94.3337 918.999 482.021
236 0 83.0691 12.0141 998 96.1924 918.599 480.446
237 0 86.0961 12.0679 1039 98.0962 918.595 479.285
238 0 89.1901 12.6584 1129 97.7121 918.857 478.054
239 0 93.1622 12.6446 1178 103.745 918.194 475.031
240 0 96.0994 13.2155 1270 101.961 918.373 473.114
241 0 100.18 12.6772 1270 103.745 918.578 471.102
242 0 104.163 13.2196 1377 102.671 918.755 469.257
243 1 49.0671 11.0053 540 94.4982 918.409 496.293
244 0 51.0308 11.8556 605 88.2578 918.676 495.833
245 0 52.0179 11.4384 595 89.8387 918.321 495.533
246 0 50.0338 11.2724 564 91.484 918.073 495.949
247 0 54.0066 11.0172 595 90.9345 918.04 496.37
248 0 55.0423 11.7183 645 90.3225 917.507 495.059
249 0 57.047 11.9375 681 90.8208 917.129 493.198
250 0 59.0178 10.9797 648 91.7485 917.756 492.309
251 0 63.0461 11.6423 734 89.6499 918.097 490.995
252 0 65.0531 11.0986 722 90.4072 918.796 491.247
253 0 68.067 11.8707 808 88.9728 918.671 487.734
254 0 69.0518 11.9765 827 88.3773 918.231 487.46
255 0 74.0555 12.6122 934 87.4914 919.736 484.08
256 0 74.1158 11.1852 829 91.5452 918.802 482.332
257 0 78.0366 12.1225 946 90.8129 919.398 481.181
258 0 80.0727 12.1639 974 91.2351 919.495 480.518
259 1 44.0199 11.4721 505 87.3703 918.842 499.774
260 0 45.0528 11.431 515 95.9184 917.705 498.812
261 0 46.0872 11.6518 537 102.238 918.389 497.615
262 0 46.0495 11.9219 549 91.2222 919.177 498.769
263 0 48.0286 11.8471 569 90.5431 918.97 497.343
264 0 49.033 12.359 606 89.462 919.214 497.322
265 0 51.146 12.2199 625 90.9216 919.648 494.693
266 0 52.0591 11.1988 583 93.7393 918.966 494.06
267 0 54.1033 11.5335 624 93.1603 919.258 493.383
268 0 57.0259 12.3277 703 103.202 918.195 492.954
269 0 60.1052 12.0955 727 101.887 919.138 492.442
270 0 61.1062 12.0282 735 103.75 918.312 491.17
271 0 62.2386 12.6609 788 103.272 918.75 489.898
272 0 63.1493 12.5892 795 102.659 917.974 489.223
273 0 66.1888 12.6305 836 101.6 918.728 488.647
274 0 66.121 12.1746 805 104.14 918.569 487.82
275 0 70.164 12.2285 858 102.848 919.033 486.735
276 0 70.0737 12.1444 851 103.179 918.806 485.852
277 0 75.138 12.8963 969 101.396 918.966 484.413
278 0 77.1831 12.8266 990 100.597 919.029 483.048
279 0 79.0854 11.9744 947 101.694 917.525 481.394
280 0 80.0784 12.1506 973 101.063 917.828 481.722
281 1 41.043 10.2819 422 89.0213 917.725 500.232
282 0 41.0301 11.0407 453 91.6556 918.276 500.879
283 0 45.0335 11.5025 518 91.4344 917.898 499.662
284 0 46.0516 11.8128 544 91.6765 918.802 498.386
285 0 47.0378 12.0329 566 91.8604 917.763 497.286
286 0 49.0785 11.8789 583 90.9914 917.933 496.024
287 0 50.0801 11.9209 597 92.1457 917.647 495.774
288 0 51.05 12.047 615 91.5057 917.387 494.964
289 0 53.0704 12.7755 678 89.559 917.426 492.251
290 0 55.0699 12.4206 684 91.171 918.281 492.202
291 0 55.0341 12.0289 662 92.5363 918.119 492.553
292 0 57.0409 12.7452 727 91.348 917.861 492.089
293 0 58.0511 12.2306 710 92.1549 918.289 490.782
294 0 60.0357 11.9929 720 93.6028 917.714 490.068
295 0 61.0383 11.5993 708 94.3376 917.438 489.482
296 0 62.0483 11.7006 726 95.1625 917.253 488.2
297 0 65.046 12.0223 782 93.2992 916.703 486.771
298 0 68.0313 12.1268 825 91.8097 917.593 487.176
299 0 69.0509 11.8898 821 92.8965 917.993 486.432
300 0 71.0576 12.7502 906 90.0839 917.65 485.049
301 0 74.0452 11.8306 876 90.7968 917.739 484.124
302 0 74.0543 11.8427 877 91.6556 917.259 483.234
303 0 78.0803 11.9236 931 90.7293 917.602 481.669
304 0 80.1089 12.4705 999 90.1482 918.202 479.899
305 0 82.0658 12.1732 999 90.2482 917.442 479.228
306 0 85.0854 12.6696 1078 89.8228 917.982 478.097
307 0 87.0683 12.1169 1055 91.5611 917.954 476.827
308 0 90.0576 12.3921 1116 89.6694 917.785 476.487
309 0 93.0623 12.2821 1143 90 917.772 473.35
310 0 96.1078 11.9761 1151 88.9783 917.732 474.156
311 1 52.0478 10.3943 541 85.9482 919.009 497.739
312 0 53.0561 11.2711 598 84.3495 917.488 496.09
313 0 56.0664 12.4317 697 84.2367 917.663 495.329
314 0 55.1029 12.2861 677 82.3279 917.454 496.253
315 0 56.0709 11.3606 637 84.0722 917.606 494.931
316 0 58.0409 11.4574 665 83.0602 917.561 495.093
317 0 59.056 11.0573 653 83.8147 918.348 492.617
318 0 60.0345 11.1436 669 83.5471 917.824 493.351
319 0 64.0811 11.1109 712 83.5028 917.858 491.594
320 0 66.115 10.875 719 84.8776 918.184 491.74
321 0 67.1045 10.8487 728 83.8681 917.559 490.94
322 0 71.0684 11.6508 828 82.1655 917.408 487.929
323 0 73.0733 11.4406 836 81.3242 917.134 487.565
324 0 74.0706 10.3685 768 82.3594 917.04 488.18
325 0 78.0748 11.1175 868 82.9159 916.821 485.72
326 0 80.0159 11.0103 881 85.0261 916.653 483.734
327 0 83.0593 11.8108 981 83.9225 916.898 482.299
328 0 86.0266 11.7173 1008 85.5714 916.851 480.573
329 0 88.0244 11.5991 1021 86.5896 916.87 479.106
330 0 89.0369 10.7483 957 90.1975 916.226 479.994
331 0 94.0268 11.0607 1040 89.8135 916.604 476.051
332 0 97.0701 10.3636 1006 91.2813 916.148 473.905
333 1 52.0392 10.2807 535 84.8953 915.778 497.462
334 0 53.0252 11.0325 585 81.7385 915.836 495.515
335 0 55.0246 10.2863 566 81.4276 915.514 494.963
336 0 56.1102 10.6041 595 82.2286 915.143 493.235
337 0 59.0589 11.0229 651 80.659 916.111 493.548
338 0 60.0264 11.0785 665 80.8286 915.851 491.767
339 0 61.1312 12.0724 738 80.8171 914.5 491.075
340 0 62.0967 11.3694 706 83.211 913.85 491.493
341 0 64.0402 11.2273 719 83.2309 915.267 491.382
342 0 66.1164 11.5554 764 83.5602 914.253 489.039
343 0 67.0426 11.6344 780 84.4436 914.374 489.632
344 0 70.0844 11.6716 818 84.5697 914.71 489.682
345 0 72.0471 11.6313 838 85.685 913.893 486.221
346 0 73.052 11.0606 808 87.9468 913.964 487.318
347 0 74.0448 11.7902 873 86.3757 913.757 486.113
348 0 76.0978 11.6166 884 87.8959 913.364 484.951
349 0 78.0707 11.4768 896 89.3504 913.418 484.279
350 0 81.0596 11.9788 971 87.723 914.213 482.297
351 0 85.075 12.2127 1039 87.7498 914.067 482.095
352 0 86.0429 11.9127 1025 89.7727 913.896 479.89
353 0 90.058 12.4586 1122 89.2014 913.794 479.033
354 0 92.0318 12.55 1155 90.9584 913.876 477.07
355 0 95.0284 12.5647 1194 91.7102 913.982 475.465
356 0 96.0762 12.3964 1191 95.1276 913.406 474.669
357 0 99.0966 12.3516 1224 91.1838 913.919 475.726
358 0 101.154 12.0213 1216 93.6431 913.849 470.429
359 1 56.038 10.5999 594 90.9411 914.604 493.951
360 0 57.1108 10.6985 611 90.6383 915.121 494.303
361 0 57.1278 10.1002 577 88.9497 914.858 490.007
362 0 59.1363 10.3152 610 86.2836 914.939 488.88
363 0 66.0363 12.2811 811 81.127 915.587 493.126
364 0 68.1117 11.7895 803 85.8506 916.056 490.927
365 0 70.089 12.37 867 86.1442 916.432 489.439
366 0 70.071 11.3884 798 89.906 916.108 489.006
367 0 72.0614 11.9204 859 88.2992 914.51 487.934
368 0 75.0833 11.6937 878 88.0945 914.907 485.846
369 0 77.0649 12.6127 972 87.1615 914.719 485.757
370 0 78.124 11.9553 934 90.7206 915.711 482.663
371 0 79.1303 11.361 899 92.7342 915.832 481.57
372 0 82.1735 11.5244 947 92.7423 915.845 481.394
373 0 84.1752 11.8919 1001 92.5724 916.578 480.422
374 0 87.1721 12.6531 1103 90.1732 917.218 477.995
375 0 88.2004 11.9047 1050 92.6905 916.823 476.655
376 0 92.0951 11.5967 1068 91.177 916.563 475.501
377 0 94.176 12.0094 1131 92.5058 916.683 474.163
378 0 95.1698 11.6318 1107 91.9846 917.217 472.769
379 0 100.166 12.2596 1228 89.5537 916.706 471.936
380 0 102.14 12.2284 1249 89.4948 916.647 468.649
381 0 104.332 12.4506 1299 91.9908 916.38 466.739
382 0 106.14 11.9465 1268 90.2587 916.811 466.099
383 0 110.205 11.9505 1317 89.5194 916.727 464.912
384 0 114.149 12.4048 1416 87.7472 916.911 462.605
385 0 115.118 12.0051 1382 88.1093 916.357 459.797
386 0 118.135 12.1979 1441 86.8744 916.705 458.361
387 0 121.114 11.419 1383 80.1858 915.482 456.808
388 0 122.166 10.3875 1269 80.8195 916.172 459.136
389 0 127.123 11.2254 1427 82.2109 916.277 456.629
390 0 130.241 10.4114 1356 85.6895 916.434 454.956
391 0 135.18 10.7191 1449 89.4044 916.057 449.662
392 0 139.282 12.0475 1678 89.3868 916.472 449.191
393 0 144.206 11.8164 1704 90.9718 916.54 446.213
394 0 150.304 12.4082 1865 88.9957 916.752 444.401
395 1 84.0988 9.82178 826 78.6271 916.345 482.231
396 0 85.1165 10.0451 855 77.2643 916.628 479.266
397 0 88.1777 10.3768 915 77.1727 915.871 477.069
398 0 89.206 9.75271 870 78.4586 916.529 477.486
399 0 92.17 10.4372 962 77.3326 916.672 474.946
400 0 95.2983 10.6403 1014 77.0957 916.737 471.404
401 0 100.157 10.833 1085 77.7189 916.197 469.724
402 0 102.142 10.9161 1115 80.4457 916.092 467.18
403 0 107.311 11.4527 1229 79.332 916.072 466.111
404 0 113.206 12.0047 1359 78.348 916.882 464.732
405 0 117.164 12.2734 1438 80.9381 916.557 463.57
406 1 63.1099 9.87168 623 89.175 915.84 491.141
407 0 63.0778 10.3998 656 86.4009 916.312 490.451
408 0 65.1208 10.2425 667 88.06 916.477 489.12
409 0 66.0696 10.716 708 88.0551 916.165 488.092
410 0 71.0824 11.3952 810 85.8049 916.068 487.316
411 0 72.0663 11.1703 805 86.6348 915.565 487.127
412 0 75.1226 11.2217 843 87.3772 915.555 485.265
413 0 75.1833 10.6407 800 88.7412 916.046 483.316
414 0 78.1614 11.5274 901 87.9944 915.927 482.988
415 0 81.1753 11.432 928 87.9429 916.249 481.667
416 0 84.1487 11.1826 941 86.9958 915.451 480.005
417 0 84.1148 10.4143 876 88.7158 915.655 477.323
418 0 89.1857 11.3471 1012 87.1314 916.065 477.224
419 0 91.1531 11.1351 1015 87.9655 915.726 475.298
420 0 91.0988 10.9222 995 88.2804 915.734 475.08
421 0 95.1044 11.1562 1061 87.0113 915.791 471.52
422 0 95.061 10.7615 1023 88.6774 915.074 470.266
423 0 99.0664 11.3358 1123 87.3446 915.692 470.369
424 0 100.108 11.148 1116 87.672 915.258 468.263
425 0 102.07 10.6985 1092 88.9597 915.008 465.713
426 0 107.126 11.6778 1251 86.2302 916.989 467.277
427 0 109.112 11.2362 1226 89.1697 916.706 464.807
428 0 110.179 11.1818 1232 91.345 916.612 462.597
429 0 117.199 11.152 1307 90.1859 916.545 460.899
430 0 120.201 11.4974 1382 88.7836 916.216 461.475
431 0 119.149 10.0546 1198 84.8422 916.69 452.41
432 0 121.161 10.1105 1225 85.5633 916.708 448.523
433 0 129.155 10.05 1298 88.9106 917.203 448.772
434 0 130.105 10.6145 1381 87.7285 916.888 446.101
435 0 135.094 11.0811 1497 85.8738 916.324 444.967
436 0 139.131 11.1262 1548 86.4218 916.184 443.364
437 0 144.141 10.8089 1558 87.1733 915.397 441.547
438 0 147.122 11.0113 1620 87.2858 915.272 438.519
439 0 151.203 10.8397 1639 89.1714 915.497 435.699
440 0 158.254 12.0629 1909 86.6401 915.874 432.89
441 0 162.293 11.0294 1790 90.3028 915.625 428.689
442 1 58.1346 10.0456 584 71.0736 916.19 489.543
443 0 62.0236 10.7701 668 70.7126 916.545 490.516
444 0 62.0233 10.4316 647 73.17 915.93 488.736
445 0 65.0278 10.4725 681 72.1145 916.401 487.825
446 0 67.0532 10.35 694 84.5432 916.88 486.375
447 0 69.0324 9.86493 681 86.1278 917.369 484.58
448 0 72.0569 10.6444 767 84.4602 917.237 485.326
449 0 73.0474 10.5 767 85.3533 917.19 483.05
450 0 76.0625 10.2679 781 85.9987 916.698 481.524
451 0 77.1145 10.0241 773 84.903 917.056 481.167
452 0 79.1065 9.41768 745 86.4886 916.788 477.785
453 0 81.1076 9.93742 806 86.6067 917.274 477.733
454 0 85.1237 10.1029 860 87.3721 917.116 475.327
455 1 43.0282 8.01799 345 81.8928 917.658 498.681
456 0 44.083 9.70896 428 80.0864 917.815 497.439
457 0 45.1092 10.1975 460 80.8609 917.763 496.087
458 0 45.0817 10.0928 455 70.5451 915.853 497.325
459 0 45.0719 9.42937 425 72.4847 915.647 496.666
460 0 50.1697 10.1456 509 70.8075 915.866 494.65
461 0 51.0967 10.4508 534 71.5674 915.749 493.678
462 0 53.0669 10.0062 531 73.7024 915.676 492.944
463 0 55.1966 10.3992 574 71.1098 915.08 491.655
464 0 55.1643 9.40825 519 73.3661 915.601 489.95
465 0 59.2536 9.90657 587 72.6286 915.376 489.458
466 0 60.1382 10.1267 609 73.8522 915.947 489.483
467 0 63.1605 10.4654 661 73.5673 915.788 489.29
468 0 66.1301 10.4945 694 73.2176 914.742 489.906
469 0 66.2118 10.9799 727 74.1293 915.992 486.638
470 0 69.1272 11.4427 791 72.4083 916.683 488.281
471 0 70.125 11.7077 821 73.3423 915.683 486.121
472 0 73.1893 11.2448 823 75.7497 914.776 484.951
473 0 74.1745 11.5538 857 76.4492 916.022 484.492
474 0 76.097 12.5498 955 74.6649 915.08 483.56
475 0 77.2099 11.5918 895 77.7665 916.184 480.575
476 0 81.1592 12.0258 976 75.7715 915.511 480.977
477 0 84.1782 12.6755 1067 74.7638 915.587 479.492
478 1 45.0542 10.1212 456 76.443 915.377 500.096
479 0 47.0578 9.83897 463 76.095 916.834 499.052
480 0 47.0654 10.1986 480 78.0854 916.392 498.667
481 0 51.1147 11.0731 566 74.9452 915.716 497.781
482 0 52.1381 11.1243 580 79.5466 916.448 497.247
483 0 54.0575 11.1918 605 75.4529 916.093 496.317
484 0 54.0516 11.785 637 76.6436 915.111 495.496
485 0 56.0623 11.6121 651 73.4516 914.384 495.003
486 0 57.0778 12.0012 685 72.127 914.653 493.863
487 0 59.1466 11.9026 704 72.3125 915.322 492.871
488 0 59.1465 11.7336 694 73.2723 915.945 491.509
489 0 62.1053 11.7542 730 72.7397 916.03 492.184
490 0 61.1525 11.9537 731 76.1642 915.268 492.104
491 0 62.0558 12.247 760 75.7605 915.213 490.266
492 0 64.225 11.7244 753 76.1633 915.363 489.83
493 0 67.1237 12.7973 859 74.4575 915.951 489.318
494 0 69.1063 12.5169 865 73.489 915.765 488.088
495 0 71.1129 12.895 917 72.4166 915.254 487.574
496 0 73.1065 11.9141 871 74.2905 914.714 486.476
497 0 75.0842 12.213 917 75.1832 915.392 485.427
498 0 78.1247 11.8656 927 76.7875 915.625 484.246
499 0 78.1317 11.5702 904 78.8827 915.465 484.362
500 0 81.0789 11.3223 918 78.7898 915.151 484.644
501 0 83.188 11.3237 942 78.8885 914.875 482.963
502 0 86.1017 11.0218 949 79.6228 914.764 480.841
503 1 45.1554 10.2313 462 78.2338 914.102 500.61
504 0 45.0867 10.3135 465 77.4108 914.34 500.789
505 0 49.081 10.4929 515 73.8544 914.382 498.971
506 0 49.0414 10.5625 518 70.0792 914.761 497.384
507 0 46.0245 9.84257 453 71.3753 914.45 499.709
508 0 47.0605 8.69094 409 72.8337 914.222 499.059
509 0 50.0645 10.1469 508 69.6535 914.443 497.311
510 0 51.0766 9.49554 485 70.0804 915.132 498.357
511 0 51.0223 10.4268 532 69.7895 914.165 494.842
512 0 53.0911 8.90921 473 71.6216 914.216 497.118
513 0 55.1312 10.4841 578 69.6298 913.972 495.033
514 0 56.0204 9.37158 525 70.5924 915.347 494.895
515 0 57.021 9.73326 555 70.5712 915.032 493.759
516 0 60.1218 9.38096 564 70.5018 915.512 492.294
517 0 60.0409 9.26036 556 70.3651 914.496 494.223
518 0 64.056 9.85076 631 67.6529 914.995 492.201
519 0 66.0537 9.71936 642 69.824 914.852 490.435
520 0 68.0229 9.07047 617 71.8849 914.919 490.154
521 0 70.0291 9.72453 681 70.6608 914.438 489.674
522 0 72.0603 9.04798 652 71.5092 915.568 488.489
523 0 75.0682 9.3515 702 71.2835 915.274 485.199
524 0 77.0646 8.84971 682 72.2991 915.279 483.724
525 0 81.1079 8.92638 724 73.3646 915.664 481.217
526 1 42.0075 9.28406 390 72.059 915.233 501.751
527 0 42.0504 9.03677 380 73.1026 915.09 500.897
528 0 45.043 9.79063 441 71.6213 914.508 498.907
529 0 43.0497 9.43096 406 73.5172 914.14 499.158
530 0 48.0467 9.46996 455 69.7956 913.996 498.633
531 1 25.0203 5.95516 149 76.5973 913.819 509.913
532 0 27.0385 6.62018 179 75.2961 914.933 508.832
533 0 29.0213 5.44427 158 75.2848 914.62 509.291
534 0 27.0256 5.99431 162 74.1173 915.117 506.772
535 0 30.0055 6.46548 194 74.1701 914.644 506.216
536 1 59.0376 9.94282 587 66.1397 914.775 494.106
537 0 61.0247 11.5199 703 63.9161 914.199 493.273
538 0 62.0293 10.2532 636 65.6761 913.862 492.417
539 0 61.0304 11.0109 672 66.2783 914.405 491.759
540 0 68.0589 12.5773 856 61.7909 914.391 491.429
541 0 66.1031 11.3913 753 64.004 915.146 490.592
542 0 72.0578 11.0883 799 63.4105 914.945 489.553
543 0 74.1101 11.213 831 64.8616 914.785 488.291
544 0 75.0814 11.4542 860 65.843 914.138 487.672
545 0 78.0682 11.8614 926 67.2948 914.577 486.32
546 0 80.0475 12.2677 982 68.5642 914.848 484.371
547 0 81.0557 11.8807 963 70.3115 915.236 482.666
548 0 85.076 12.0598 1026 71.999 915.061 480.413
549 0 89.1499 12.3275 1099 72.4704 914.561 479.632
550 0 90.11 11.5747 1043 77.2924 914.905 477.169
551 0 92.0458 12.2004 1123 77.5654 915.216 476.099
552 0 97.0617 12.4354 1207 77.937 915.701 475.884
553 0 99.153 12.0117 1191 79.4022 914.182 474.449
554 1 47.1438 9.18467 433 75.7575 914.048 500.818
555 0 48.291 9.96044 481 76.5135 913.437 497.607
556 0 51.2638 11.1775 573 74.9703 914.161 495.998
557 0 53.0553 11.8178 627 73.2679 914.581 499.812
558 0 54.0599 11.3578 614 76.1954 913.816 498.73
559 0 56.066 11.5756 649 76.0786 913.239 498.45
560 0 57.0214 11.0309 629 78.4706 913.863 496.871
561 0 58.0286 11.6494 676 78.2027 914.078 496.214
562 0 62.0416 11.7018 726 79.5909 914.394 495.38
563 0 61.0186 11.7014 714 81.923 914.301 493.996
564 0 67.0448 12.5438 841 79.3674 914.295 493.615
565 0 67.0479 12.7073 852 80.4472 914.553 493.633
566 0 69.0454 11.9631 826 83.2736 914.148 490.148
567 0 72.0624 12.4059 894 84.0559 914.78 488.602
568 0 72.0438 12.2981 886 85.9052 914.011 487.534
569 0 76.0399 12.6118 959 84.3191 914.221 487.149
570 0 79.0555 12.1813 963 85.3126 914.042 487.233
571 0 82.1518 12.8299 1054 85.0085 914.614 486.787
572 0 83.0689 12.929 1074 87.5661 914.116 484.452
573 0 86.1038 12.903 1111 88.1998 915.349 482.69
574 0 88.0735 12.8415 1131 88.9576 914.99 482.346
575 0 90.0704 12.9343 1165 90.2695 913.96 481.063
576 0 92.0638 12.6651 1166 91.8945 914.073 479.361
577 0 93.0755 13.1184 1221 92.7281 914.151 477.869
578 0 97.069 13.2998 1291 96.9984 913.925 476.078
579 0 102.129 13.0423 1332 95.8979 913.565 474.406
580 0 103.125 12.8679 1327 95.9013 914.427 471.164
581 0 109.091 12.8883 1406 95.2667 914.667 469.735
582 1 61.0624 10.5466 644 88.5342 915.317 494.77
583 0 62.0407 11.1862 694 87.3401 913.562 492.501
585 0 64.0432 11.4298 732 84.9713 913.958 491.799
586 0 64.0172 11.8406 758 88.3734 914.076 490.11
587 0 67.043 11.6045 778 89.1504 913.174 489.459
588 0 68.0647 10.9455 745 82.2725 913.526 490.915
589 0 68.0707 10.9151 743 118.791 913.552 490.935
590 0 73.0308 10.831 791 81.1783 913.046 488.598
591 0 76.0411 10.731 816 83.2721 913.814 483.71
592 0 80.0452 11.2686 902 82.755 913.877 485.113
593 0 82.0375 11.2388 922 83.7722 913.395 482.742
594 0 83.0288 11.1768 928 85.208 913.168 480.761
595 0 86.0404 11.0762 953 84.1207 913.714 479.614
596 0 90.0446 11.5387 1039 82.9586 912.181 476.628
597 0 93.0452 11.4353 1064 84.8562 913.077 474.736
598 0 95.0427 11.8894 1130 84.5681 913.7 474.468
599 0 98.1434 11.9213 1170 85.3308 913.306 472.168
600 0 104.053 11.744 1222 86.8723 913.8 469.523
601 0 106.07 12.0957 1283 95.6142 913.934 466.979
602 0 111.035 11.3027 1255 97.0637 914.182 464.124
603 0 114.061 11.9147 1359 95.6431 913.806 462.947
604 0 117.05 11.5933 1357 95.5733 913.58 462.675
605 0 121.059 11.6307 1408 96.1165 913.028 460.893
606 0 125.112 11.7655 1472 96.3478 912.221 456.468
607 0 127.137 11.0196 1401 98.4176 912.909 454.415
608 0 132.212 11.8825 1571 96.9268 913.417 451.664
609 0 136.208 12.2607 1670 97.5856 913.159 451.09
610 0 142.144 11.7557 1671 98.7373 912.7 449.575
611 0 144.175 12.4849 1800 96.8639 912.957 447.375
612 0 148.229 11.3203 1678 100.477 912.424 444.533
613 0 155.213 11.9062 1848 101.208 912.666 441.851
614 0 159.212 11.6762 1859 102.949 912.602 437.422
615 1 85.0792 9.8849 841 95.9358 912.567 475.306
616 0 88.1119 10.4072 917 95.4711 912.728 476.052
617 0 87.0715 10.566 920 95.9576 912.456 471.368
618 0 91.0808 10.9683 999 95.6406 911.998 469.567
619 0 95.0452 10.6476 1012 92.2925 912.545 474.767
620 0 97.06 10.1278 983 92.6979 911.742 470.822
621 0 99.073 10.0936 1000 93.388 912.296 470.127
622 0 103.052 10.4413 1076 92.368 912.343 467.885
623 0 104.029 9.70882 1010 94.8634 911.538 464.066
624 0 108.152 10.2725 1111 93.5806 911.365 463.762
625 0 111.129 10.3483 1150 92.9948 911.35 459.457
626 0 111.106 10.3505 1150 93.3235 911.842 457.11
627 0 114.147 10.5127 1200 94.5717 911.53 456.749
628 0 117.166 9.78951 1147 96.3078 911.69 453.312
629 0 117.09 9.77023 1144 98.0962 912.092 450.108
630 0 128.181 10.8987 1397 96.6807 913.639 449.931
631 0 129.233 10.4308 1348 99.0838 913.161 446.3
632 0 134.164 9.6598 1296 100.46 912.676 443.399
633 0 139.145 10.852 1510 97.0212 912.604 440.787
634 0 140.16 10.1598 1424 100.262 915.013 434.984
635 0 137.123 10.2171 1401 100.305 914.465 427.393
636 0 142.131 9.77971 1390 100.464 914.955 426.958
637 1 159.147 12.0078 1911 93.5165 914.658 428.931
638 0 166.134 11.8338 1966 92.1623 915.179 430.423
639 0 169.211 11.8727 2009 94.6919 914.473 424.377
640 0 174.18 11.7694 2050 94.7868 913.886 422.1
641 0 182.249 11.8409 2158 94.6798 913.807 418.632
642 0 184.145 12.2295 2252 97.6084 914.73 411.137
643 0 190.207 12.2603 2332 95.8786 914.854 413.7
644 0 195.221 12.2118 2384 97.2857 914.335 406.697
645 1 30.0473 4.02698 121 65.7934 913.521 486
646 0 32.003 6.3744 204 64.6765 914.211 490.828
647 0 31.0044 7.4183 230 61.4913 914.383 486.565
648 0 36.0132 6.13664 221 61.0226 913.452 486.195
649 0 41.0567 7.7941 320 58.2156 916.231 492.112
650 0 51.1121 9.89981 506 68.4387 916.202 498.134
651 0 50.0618 9.76793 489 70.4417 915.55 497.119
652 0 52.0446 9.33815 486 70.8518 915.63 497.313
653 0 56.0643 10.2739 576 70.2153 915.542 495.729
654 0 57.0512 9.83326 561 72.344 915.563 492.991
655 0 61.1494 10.2209 625 78.7904 916.035 492.411
656 0 58.1153 9.65322 561 80.3244 914.941 492.456
657 0 59.0637 10.1077 597 79.4271 914.429 490.159
658 0 60.074 9.58817 576 81.9375 914.309 490.87
659 0 62.0553 9.92664 616 81.4302 913.752 488.393
660 0 64.0436 10.9925 704 83.0227 914.844 489.365
661 0 66.1492 10.4914 694 83.4942 915.428 487.781
662 0 68.0922 10.6033 722 84.7396 915.899 487.1
663 0 68.0988 10.2939 701 86.6962 916.124 486.064
664 0 66.0889 10.0925 667 85 916.549 487.459
665 0 67.0716 9.3035 624 87.5609 916.308 486.349
666 0 69.185 9.90099 685 85.2423 916.702 486.499
667 0 73.1163 9.75159 713 84.9088 916.142 482.986
668 0 75.1627 10.0449 755 84.5457 916.066 483.677
669 0 76.1426 10.0207 763 85.0131 916.223 482.062
670 0 78.2373 9.70126 759 85.4967 916.4 482.524
671 0 83.2638 11.0853 923 82.3478 916.481 481.157
672 0 83.2039 10.7567 895 84.2838 916.441 478.312
673 0 83.2039 10.7687 896 113.354 916.446 478.392
674 0 89.3498 9.96085 890 83.4876 915.143 478.035
675 0 90.2736 9.37151 846 84.935 914.666 473.714
676 0 94.1215 10.5396 992 81.9224 915.391 474.222
677 1 53.0265 9.41038 499 79.9218 916.258 489.705
678 0 51.0971 9.45259 483 77.7205 915.725 480.476
679 0 52.1572 10.2958 537 76.7523 914.95 479.847
680 0 61.0474 11.3518 693 74.4228 916.19 489.872
681 0 64.0589 11.1772 716 77.6941 913.567 489.964
682 0 65.061 11.3278 737 77.4396 914.031 491.225
683 0 66.1575 11.518 762 78.6194 913.95 488.823
684 0 67.101 10.894 731 80.3406 914.405 487.88
685 0 68.1888 11.7321 800 79.4375 914.446 486.662
686 0 69.2241 11.9178 825 79.3818 914.021 486.905
687 0 72.1575 11.5442 833 80.6795 915.376 486.838
688 0 75.2487 12.5716 946 78.2558 914.723 484.945
689 0 76.2516 11.3703 867 80.8616 915.37 485.765
690 0 78.0969 11.4985 898 79.1136 914.949 484.322
691 0 81.133 11.5859 940 79.8745 914.732 482.819
692 0 84.1146 11.8766 999 77.8539 915.486 482.445
693 0 84.1053 11.4618 964 80.2624 915.161 480.716
694 0 88.0698 11.5022 1013 80.3722 914.868 478.866
695 0 90.0975 10.8993 982 80.2505 914.864 476.4
696 0 94.1374 11.4088 1074 79.0317 914.506 476.74
697 0 97.1416 11.4472 1112 79.8921 914.209 474.336
698 0 100.153 12.0017 1202 79.6847 913.925 474.491
699 1 54.0375 9.75249 527 75.2106 912.454 498.252
700 0 54.0569 10.4889 567 72.1552 912.044 496.677
701 0 57.0654 11.0575 631 70.0127 914.572 497.07
702 0 58.0506 11.0938 644 66.8106 913.118 496.55
703 0 60.0432 10.5757 635 68.537 913.472 494.296
704 0 62.0321 11.5102 714 66.9482 913.842 495.929
705 0 63.0861 11.2862 712 69.6517 914.388 494.841
706 0 64.0738 10.9249 700 70.4386 914.154 491.526
707 0 63.0922 10.6828 674 73.4332 913.982 491.359
708 0 65.0965 11.1066 723 72.8686 913.837 490.817
709 0 68.0964 11.3662 774 72.593 913.181 489.804
710 0 71.0933 11.07 787 71.277 913.717 490.543
711 0 71.1236 10.6294 756 72.922 913.775 489.37
712 0 72.0462 11.6176 837 71.9797 913.001 488.455
713 0 76.1147 11.5089 876 72.1005 913.599 487.256
714 0 76.1012 11.1562 849 72.3757 913.823 487.585
715 0 80.0441 11.8435 948 72.1403 914.823 485.304
716 0 82.2218 11.469 943 73.7476 914.265 484.984
717 0 85.1026 11.5038 979 74.4331 914.356 483.126
718 0 87.069 12.2432 1066 72.6332 914.84 483.887
719 0 90.1287 11.0731 998 72.6844 915.165 479.27
720 0 92.0696 11.6542 1073 72.5023 915.624 478.449
721 0 96.1066 12.0075 1154 73.1386 914.976 478.722
722 0 99.0812 11.6773 1157 74.8124 914.458 477.763
723 0 103.1 11.9592 1233 74.0795 914.613 476.809
724 0 105.169 11.6575 1226 72.6737 915.079 472.827
725 0 105.173 10.5445 1109 75.7178 914.896 475.177
726 1 61.0655 10.6279 649 69.584 915.089 500.2
727 0 60.041 9.90989 595 71.5866 915.25 499.489
728 0 62.066 11.3105 702 82.7892 914.712 494.709
729 0 64.0434 10.5397 675 70.8904 914.647 496.311
730 0 64.0362 10.4785 671 72.1624 914.481 497.745
731 0 67.0743 10.9282 733 73.0628 914.482 495.907
732 0 70.1086 10.7975 757 71.1136 914.873 495.856
733 0 72.0535 10.7143 772 70.7163 914.177 494.15
734 0 74.0952 10.9184 809 71.5451 914.414 493.24
735 0 77.0566 11.1217 857 72.5158 914.679 491.513
736 0 78.1022 10.9984 859 72.6857 914.723 489.626
737 0 82.0584 11.5406 947 72.0465 914.6 486.908
738 0 82.1305 11.5913 952 73.6639 914.565 485.904
739 0 85.0779 11.225 955 75.0555 914.687 483.605
740 0 86.0449 11.0872 954 76.1855 915.007 481.654
741 0 91.1512 11.4206 1041 75.9059 914.012 480.943
742 0 94.124 11.6017 1092 76.2628 913.593 478.705
743 0 95.0795 11.2012 1065 80.3765 913.265 476.739
744 0 98.0892 11.1327 1092 77.6841 914.158 475.572
745 1 54.0403 9.73348 526 71.8479 914.059 499.057
746 0 55.0138 10.1247 557 73.2244 915.49 497.887
747 0 58.0765 11.02 640 79.675 915.333 497.361
748 0 58.0961 11.5326 670 79.6955 915.148 495.402
749 0 60.0968 12.0639 725 76.2166 915.007 495.677
750 0 62.1123 12.5096 777 75.74 915.629 494.65
751 0 62.179 11.9976 746 76.8043 914.902 492.933
752 0 64.1646 12.0316 772 79.0207 914.184 492.298
753 0 65.0998 12.0891 787 80.2618 914.825 491.08
754 0 68.0825 11.7798 802 81.3479 914.666 490.378
755 0 69.1888 12.4153 859 81.5483 914.976 488.815
756 0 71.1576 12.1702 866 82.6074 914.523 488.976
757 0 74.1377 12.3689 917 83.8452 914.252 487.437
758 0 76.1633 12.657 964 85.0736 914.669 485.143
759 0 77.394 12.6496 979 87.81 914.52 484.386
760 0 78.1389 12.3626 966 87.7557 915.282 482.03
761 0 81.1437 12.4717 1012 88.5346 914.896 481.262
762 0 84.2197 12.9305 1089 87.1717 914.725 477.966
763 0 85.299 12.5676 1072 87.1595 914.73 477.84
764 0 86.183 11.9165 1027 90.776 914.574 477.278
765 0 89.3804 12.3069 1100 91.3818 914.259 473.206
766 0 89.3742 11.3679 1016 95.3543 914.65 471.28
767 0 91.4619 11.1631 1021 95.9657 914.435 469.472
768 0 93.3451 11.1736 1043 97.9837 914.301 464.417
769 1 52.1886 9.17825 479 99.1942 915.238 487.125
770 0 51.1737 10.6891 547 96.5759 916.194 484.488
771 0 54.0648 11.0238 596 94.9748 915.518 481.614
772 0 54.1424 11.1004 601 93.4942 914.729 483.622
773 0 59.0583 11.8019 697 91.8106 914.224 491.473
774 0 60.0492 11.1076 667 95.3463 913.793 490.445
775 0 61.0849 10.7064 654 96.2829 913.546 487.983
776 0 64.0559 10.9123 699 95.2318 914.961 485.19
777 0 63.0778 10.4474 659 97.4476 914.744 483.272
778 0 69.1293 11.0807 766 94.6306 914.749 482.924
779 0 69.0804 11.1609 771 94.7289 914.777 482.375
780 0 69.0646 10.9752 758 97.0554 914.665 481.594
781 0 69.0561 10.7883 745 97.5329 914.399 479.07
782 0 73.0967 11.2043 819 97.8584 914.308 476.744
783 0 75.0502 10.8327 813 100.373 913.985 475.881
784 0 84.157 11.6687 982 95.114 914.218 476.036
785 0 85.1235 12.1705 1036 95.7172 914.407 470.162
786 0 87.1415 11.9002 1037 96.7772 914.688 470.216
787 0 92.1836 11.7591 1084 97.2878 915.324 467.366
788 0 93.1151 11.9637 1114 95.1643 915.251 465.708
789 0 97.1456 11.3438 1102 97.4338 914.656 463.307
790 0 100.139 11.3342 1135 96.7577 914.509 462.115
791 1 54.0729 8.95088 484 87.1901 914.698 491.023
792 0 58.0498 11.6624 677 91.9985 914.109 493.939
793 0 61.0306 12.0923 738 90.1301 913.942 493.477
794 0 60.0425 10.9922 660 88.6712 914.442 495.385
795 0 63.095 11.6808 737 88.0353 914.985 491.46
796 0 64.0864 11.2348 720 88.8611 915.014 491.954
797 0 65.119 11.072 721 88.5492 915.473 492.341
798 0 68.0861 11.9261 812 87 915.085 489.632
799 0 71.144 11.6524 829 86.8275 914.75 487.731
800 0 74.1771 12.4432 923 85.2264 915.141 488.391
801 0 77.1489 12.6638 977 85.3777 914.912 486.877
802 0 79.1372 12.055 954 87.9455 914.948 485.692
803 0 79.0855 12.0629 954 89.3103 914.77 484.012
804 0 84.1483 12.9652 1091 88.3886 914.663 482.938
805 0 87.1054 12.3184 1073 92.0932 914.462 482.127
806 0 89.1928 12.7364 1136 92.1875 915.535 480.198
807 0 93.1987 13.1547 1226 90.2985 914.934 480.657
808 0 93.0521 13.2614 1234 91.6248 914.552 478.19
809 0 96.0876 12.9257 1242 93.8808 914.129 474.471
810 0 100.107 13.2958 1331 92.9436 914.677 474.674
811 0 101.094 12.889 1303 95.1742 914.265 472.436
812 0 105.154 13.2758 1396 94.9914 914.572 470.65
813 0 107.159 13.158 1410 96.5482 913.973 468.923
814 0 109.168 12.5677 1372 99.6319 913.184 466.395
815 0 108.12 11.6075 1255 101.61 914.053 467.53
816 0 111.16 12.4955 1389 100.683 915.102 465.981
817 0 113.202 12.2171 1383 100.991 914.648 463.106
818 0 119.121 13.3478 1590 99.4836 914.743 453.418
819 0 121.156 12.8512 1557 100.381 915.465 451.184
820 0 126.106 13.2428 1670 98.5491 915.397 449.452
821 0 130.101 13.5049 1757 98.4189 914.442 448.781
822 0 135.139 13.5194 1827 99.202 914.245 447.128
823 0 139.117 13.7367 1911 100.872 914.092 441.575
824 0 144.115 14.0444 2024 100.483 914.148 440.768
825 0 150.09 13.4986 2026 102.767 914.006 439.362
826 1 83.1333 10.3569 861 98.6887 913.553 483.247
827 0 87.1627 12.3562 1077 95.5487 913.631 481.328
828 0 91.2311 12.1669 1110 97.5955 914.652 480.104
829 0 91.1358 12.5417 1143 95.0525 914.029 476.571
830 0 93.1206 11.963 1114 96.7864 914.276 479.504
831 0 95.2043 12.0583 1148 99.7108 913.809 479.659
832 0 97.1434 11.8999 1156 98.9542 914.189 478.341
833 0 98.0989 11.9267 1170 99.5855 913.332 475.756
834 0 100.168 11.3309 1135 99.4485 913.881 474.454
835 0 104.099 11.9501 1244 99.2227 913.969 471.026
836 0 108.098 12.1094 1309 98.5966 913.191 470.547
837 0 108.179 12.1558 1315 97.1863 913.234 465.116
838 0 108.162 11.9636 1294 97.9784 913.914 461.859
839 0 112.112 11.8542 1329 96.6132 912.749 460.687
840 0 119.22 11.9527 1425 94.3368 912.627 456.736
841 0 122.126 11.8893 1452 94.2548 912.414 453.875
842 0 127.119 11.4224 1452 94.947 912.585 452.959
843 0 130.152 11.1946 1457 95.884 912.33 451.41
844 1 71.1072 9.87241 702 88.7051 912.697 478.677
845 0 79.0508 11.3345 896 88.4944 911.955 479.038
846 0 82.1606 11.5505 949 89.3699 911.571 475.993
847 0 87.2544 11.541 1007 91.6723 911.646 476.267
848 0 90.2564 11.2901 1019 92.8989 912.057 473.529
849 0 93.0749 10.9912 1023 79.1926 912.251 473.371
850 0 95.0468 10.0582 956 81.3672 911.998 472.29
851 0 98.0797 9.85933 967 81.303 912.924 470.35
852 0 102.069 9.93444 1014 81.2978 912.747 472.368
853 0 105.13 10.7486 1130 81.1319 912.408 468.04
854 0 109.117 10.9149 1191 81.4861 912.319 468.266
855 0 112.102 11.1862 1254 82.047 911.968 466.296
856 1 58.0619 9.57598 556 78.0324 911.55 494.498
857 0 61.0466 10.4674 639 75.4742 911.446 492.033
858 0 62.0664 10.666 662 75.8731 911.95 493.012
859 0 65.125 10.38 676 76.9024 912.994 492.303
860 0 65.0881 11.0005 716 76.8561 913.694 491.112
861 0 67.1032 10.5211 706 78.7649 913.534 488.977
862 0 72.2501 11.0588 799 78.0851 913.33 489.049
863 0 74.0909 11.1485 826 79.5605 914.18 487.195
864 0 75.1306 11.0075 827 80.8875 913.227 485.087
865 0 79.0996 11.3907 901 79.1598 912.796 483.847
866 0 81.0953 11.9366 968 70.7789 912.778 483.248
867 0 83.0723 11.2553 935 79.2856 912.316 481.609
868 0 84.0726 11.1213 935 79.0492 912.015 481.378
869 0 89.1114 12.2431 1091 76.9734 912.114 479.775
870 0 91.0776 12.0557 1098 77.9199 912.681 478.085
871 0 93.1111 11.932 1111 78.4068 913.158 478.044
872 0 98.1346 12.4727 1224 87.357 912.218 474.607
873 0 99.0785 11.4959 1139 90.2739 912.166 473.853
874 0 102.078 11.6676 1191 89.9589 912.228 472.005
875 1 55.1195 10.2505 565 84.5805 911.86 498.209
876 0 56.0735 9.71939 545 76.8752 911.796 496.338
877 0 59.1106 10.9625 648 80.9645 912.381 496.011
878 0 59.0846 12.0674 713 80.547 912.157 494.7
879 0 63.0661 11.6069 732 78.2036 911.693 495.747
880 0 63.0633 12.3685 780 79.6308 912.408 492.332
881 0 67.1252 11.6499 782 79.867 912.574 492.483
882 0 66.0833 11.6974 773 80.7814 912.753 491.189
883 0 70.0794 11.701 820 82.6817 913.229 490.962
884 0 70.0432 11.6928 819 85.1258 913.364 489.166
885 0 75.0634 12.4295 933 83.6142 912.781 485.501
886 0 77.0761 12.4422 959 84.0845 912.064 483.337
887 0 78.0745 12.6033 984 82.6301 912.32 483.267
888 0 81.035 11.7727 954 83.8491 912.576 483.167
889 0 81.0669 12.2985 997 83.992 912.912 481.838
890 0 86.0517 12.2136 1051 82.3558 912.244 480.196
891 0 89.1029 12.6707 1129 81.1577 913.524 479.332
892 0 92.1512 12.4903 1151 80.3727 913.661 478.079
893 0 95.256 11.7263 1117 82.5989 913.708 476.316
894 0 96.0937 11.9779 1151 82.7984 913.5 474.91
895 0 101.132 12.2612 1240 86.2218 912.774 471.536
896 1 56.0641 10.488 588 86.8248 911.374 494.959
897 0 57.1379 11.376 650 82.0062 911.908 492.495
898 0 58.0264 11.3052 656 77.2165 913.322 492.962
899 0 60.0889 11.2999 679 76.863 912.884 494.272
900 0 61.1195 10.6349 650 75.7969 913.155 492.263
901 0 63.0989 11.3948 719 73.0682 912.476 490.538
902 0 63.0579 11.1802 705 74.0936 913.142 491.526
903 0 66.0675 11.7153 774 73.4005 913.472 489.598
904 0 69.0893 11.5069 795 73.8453 913.512 486.758
905 0 71.1355 10.9369 778 75.3368 913.97 486.595
906 0 72.0708 11.3638 819 74.9341 913.968 484.32
907 0 75.124 10.862 816 76.5956 913.8 482.305
908 0 77.0757 11.6509 898 75.1459 913.359 482.899
909 0 79.0416 11.9178 942 75.3026 913.882 480.849
910 0 82.0476 11.3593 932 77.4388 913.571 479.196
911 0 84.0672 11.4075 959 78.7529 913.831 478.163
912 0 88.0557 12.0265 1059 72.83 914.801 475.139
913 0 90.0557 11.7594 1059 73.1719 914.684 474.183
914 0 94.116 11.8896 1119 73.1063 913.873 474.613
915 0 95.1109 12.1753 1158 73.1805 913.902 474.452
916 0 97.1153 10.8428 1053 76.4957 913.795 471.309
917 0 102.121 11.9564 1221 75.2506 913.252 472.215
918 1 55.105 10.6524 587 76.3322 914.026 494.337
919 0 56.1244 10.6549 598 78.4097 914.298 494.624
920 0 58.1966 11.1519 649 76.5948 912.995 489.467
921 0 60.0649 10.9881 660 73.9758 912.945 492.879
922 0 62.0541 11.9412 741 72.4143 913.91 493.042
923 0 66.0436 12.1284 801 71.1036 913.401 492.593
924 0 67.0519 12.453 835 72.8946 912.638 490.172
925 0 67.0484 11.9168 799 74.7672 912.941 489.504
926 0 72.0314 12.328 888 75.5912 912.522 489.412
927 0 73.084 12.3283 901 76.4639 913.375 487.882
928 0 71.0713 10.9608 779 80.5032 912.476 490.879
929 0 76.0582 11.2019 852 79.5916 911.452 488.649
930 0 77.0889 11.3895 878 79.6355 912.149 488.072
931 0 80.0454 11.431 915 79.3902 911.985 487.455
932 0 84.0567 11.6826 982 79.389 911.441 485.503
933 0 85.0805 10.7193 912 81.0647 911.113 484.36
934 0 88.062 11.367 1001 79.1668 910.712 483.074
935 0 90.0794 10.735 967 80.4219 911.489 481.687
936 0 96.063 11.888 1142 77.6839 911.474 480.614
937 0 97.0329 11.089 1076 79.3996 910.846 478.821
938 0 100.057 11.1537 1116 78.9534 910.893 479.445
939 1 52.0186 10.5924 551 76.4229 910.719 502.668
940 0 55.0744 11.4209 629 72.903 911.199 500.423
941 0 57.0396 11.904 679 71.5832 910.504 500.112
942 0 56.0633 11.5227 646 73.6656 910.551 500.837
943 0 59.0728 11.4604 677 74.0798 910.573 500.127
944 0 60.0723 11.919 716 74.7891 910.79 499.937
945 0 61.1013 11.8001 721 75.1748 910.605 498.975
946 0 61.1013 11.8492 724 125.307 910.612 498.983
947 0 64.0794 12.0163 770 76.8584 910.496 494.003
948 0 67.0421 11.8135 792 76.4444 910.895 494.288
949 0 69.1204 11.3859 787 76.3291 912.13 491.112
950 0 72.0625 12.1006 872 74.4679 912.7 491.08
951 0 74.0875 12.3503 915 80.5049 911.488 490.613
952 0 75.1142 11.4226 858 82.8345 911.648 489.422
953 0 79.1075 11.5918 917 85.0851 913.106 486.75
954 0 80.1352 11.3932 913 80.1522 912.731 483.813
955 0 83.1003 10.9867 913 81.0318 912.375 481.115
956 0 84.1099 11.3304 953 72.6443 912.253 478.132
957 0 89.0763 11.2825 1005 73.9094 912.149 475.485
958 1 46.1623 10.1815 470 67.2362 913.483 501.262
959 0 47.083 10.4709 493 67.7424 912.795 502.097
960 0 50.0199 11.0356 552 69.3152 913.344 502.335
961 0 53.0469 11.405 605 69.9041 913.119 500.684
962 0 54.0876 11.9991 649 65.8983 912.884 498.02
963 0 56.065 11.3975 639 66.4257 912.737 497.153
964 0 57.0151 11.9091 679 65.1399 912.473 498.479
965 0 58.0325 11.6314 675 66.7452 913.08 498.721
966 0 57.0934 10.6492 608 71.3438 913.364 493.355
967 0 61.0293 10.8145 660 71.6576 914.027 496.72
968 0 64.0657 11.9097 763 70.7169 913.322 494.393
969 0 64.0527 11.1002 711 73.3812 913.72 491.738
970 0 69.067 11.8436 818 72.3105 913.324 491.229
971 0 69.0496 12.0348 831 74.1059 913.696 490.185
972 0 74.0904 12.3498 915 74.5508 912.986 488.221
973 0 75.1469 11.8701 892 76.2287 913.318 487.955
974 0 78.0872 12.6141 985 76.936 913.781 486.545
975 0 81.1331 12.3377 1001 78.8372 913.48 484.945
976 0 81.131 11.352 921 84.0695 913.664 481.043
977 0 85.2785 12.8637 1097 81.4403 913.866 482.481
978 0 89.2556 12.6042 1125 83.3422 913.792 479.892
979 0 91.2367 12.9663 1183 93.5892 914.97 477.936
980 0 96.1405 13.6363 1311 95.0976 914.217 477.174
981 1 50.1714 10.9624 550 96.94 914.765 499.927
982 0 51.1209 11.4043 583 89.7324 915.057 498.345
983 0 51.0555 11.3602 580 90.9655 915.49 496.779
984 0 53.1236 11.5768 615 90.7333 914.732 493.917
985 0 57.1498 12.161 695 91.2604 914.056 494.676
986 0 56.0762 11.9124 668 87.4581 914.846 496.831
987 0 57.0678 11.828 675 88.2726 914.274 495.102
988 0 59.1085 11.9441 706 88.6261 914.313 494.123
989 0 62.1184 11.9127 740 90.1919 912.591 494.522
990 0 63.0751 12.3028 776 89.1314 912.845 492.125
991 0 67.0666 12.0328 807 89.824 912.428 492.744
992 0 68.1182 11.4801 782 93.2724 912.558 490.991
993 0 70.0956 12.7397 893 91.7223 913.333 490.345
994 0 70.135 12.533 879 94.3914 913.276 488.896
995 0 75.0904 12.718 955 94.6953 912.861 487.85
996 0 76.0956 11.8009 898 98.9811 913.07 484.957
997 0 79.0728 12.7098 1005 96.4746 913.805 484.593
998 0 82.171 12.4862 1026 99.2661 913.339 483.375
999 0 82.0834 12.3898 1017 101.029 912.541 482.473
1000 0 86.1358 12.0624 1039 102.426 913.253 482.659
1001 0 89.0747 12.4614 1110 102.626 913.196 479.731
1002 0 92.1834 12.5836 1160 103.19 913.725 478.396
1003 0 92.0944 11.9551 1101 105.637 913.914 477.686
1004 0 95.1429 11.7297 1116 106.659 914.193 475.137
1005 0 98.1424 11.4018 1119 106.396 914.899 474.336
1006 0 102.097 11.9788 1223 103.977 915.078 474.679
1007 1 57.0352 10.9055 622 107.135 915.367 494.881
1008 0 59.069 10.9364 646 101.526 915.316 493.327
1009 0 60.1148 10.4134 626 96.3163 914.765 483.733
1010 0 62.1542 11.3749 707 94.3564 914.379 483.025
1011 0 68.1474 12.6197 860 98.1581 914.673 489.706
1012 0 71.093 12.5891 895 98.4503 913.945 489.174
1013 0 71.131 12.2731 873 99.9679 913.288 487.629
1014 0 75.1502 12.7611 959 98.4849 913.983 488.691
1015 0 77.1279 12.5765 970 99.3 913.361 486.19
1016 0 80.0954 12.8722 1031 98.2619 913.715 486.912
1017 0 82.1291 13.0039 1068 97.9195 913.374 486.832
1018 0 85.091 13.1271 1117 97.6562 915.523 484.559
1019 0 85.0957 12.6681 1078 98.9239 914.641 483.961
1020 0 88.1108 12.8248 1130 99.8752 914.477 482.035
1021 0 91.1336 12.8493 1171 101.76 915.316 481.62
1022 0 94.105 12.9961 1223 102.499 915.065 480.141
1023 0 97.0694 12.7126 1234 104.925 915.066 477.801
1024 0 99.0822 12.636 1252 104.572 914.961 476.838
1025 0 101.081 13.138 1328 104.026 914.466 473.724
1026 0 106.106 12.7043 1348 104.529 914.115 473.427
1027 0 109.118 13.3159 1453 101.866 914.167 472.446
1028 0 111.096 13.1148 1457 92.385 913.684 471.125
1029 0 114.096 12.4194 1417 93.3578 915.064 468.119
1030 0 117.107 12.7063 1488 93.4106 913.853 467.201
1031 0 123.07 13.1714 1621 94.5657 914.579 463.612
1032 1 68.0862 10.7951 735 91.8054 914.135 493.303
1033 0 71.1922 11.6867 832 91.1935 913.963 489.8
1034 0 71.0643 11.5107 818 90.6565 915.463 489.238
1035 0 76.0466 11.8085 898 88.3619 914.719 488.305
1036 0 78.0603 11.6577 910 87.9341 914.29 487.206
1037 0 80.0551 11.1798 895 88.7207 914.855 485.401
1038 0 82.1226 11.1784 918 88.4804 914.764 484.113
1039 0 84.0409 11.4349 961 89.1613 913.921 481.798
1040 0 87.0713 11.1747 973 89.3422 915.23 480.963
1041 0 87.0793 10.7029 932 89.9979 914.675 475.814
1042 0 86.0357 10.1121 870 95.7034 914.774 472.439
1043 0 91.1326 11.1157 1013 93.4195 913.927 471.663
1044 0 91.1156 10.6129 967 94.9028 914.187 469.71
1045 0 97.0587 10.5915 1028 94.8259 914.359 469.025
1046 0 105.136 12.3459 1298 104.62 913.44 472.171
1047 0 109.178 12.3651 1350 100.436 913.964 469.39
1048 0 111.16 12.1087 1346 96.8574 913.825 467.54
1049 1 56.0721 9.84446 552 81.6993 914.116 493.031
1050 0 60.0915 10.3509 622 86.4614 914.629 494.44
1051 0 62.0563 11.9247 740 90.1554 915.224 492.389
1052 0 64.0698 11.4407 733 85.9168 913.468 494.93
1053 0 67.0615 12.2723 823 82.1276 913.343 494.755
1054 0 69.0889 11.5069 795 89.6642 914.135 493.556
1055 0 67.0471 11.4397 767 91.9974 915.121 492.107
1056 0 71.0539 12.0894 859 90.4994 914.191 491.254
1057 0 76.1593 11.1477 849 102.125 914.254 488.609
1058 0 79.1385 11.9411 945 99.5048 914.354 488.848
1059 0 81.1454 11.4486 929 100.349 914.104 487.789
1060 0 84.1603 11.7276 987 97.7812 913.93 484.651
1061 0 87.1724 11.5977 1011 98.7517 914.136 483.018
1062 0 87.1747 12.3086 1073 96.2833 914.523 483.01
1063 0 92.1508 12.0889 1114 97.053 914.525 482.5
1064 0 94.1614 11.852 1116 97.8808 915.342 479.866
1065 0 98.065 11.9105 1168 95.3134 914.702 477.473
1066 1 52.0578 9.68154 504 88.6706 913.673 500.45
1067 0 52.0765 10.6766 556 84.75 913.921 494.504
1068 0 55.1513 11.0786 611 83.0344 913.522 495.167
1069 0 57.0638 11.566 660 80.5197 914.333 498.633
1070 0 57.0622 10.8478 619 82.5719 913.754 498.695
1071 0 59.0924 10.7966 638 83.3542 913.788 497.577
1072 0 60.1574 10.805 650 84.4477 914.391 497.374
1073 0 63.0475 10.7221 676 85.1775 914.263 497.077
1074 0 65.0897 11.3228 737 84.5237 914.179 495.455
1075 0 65.0609 11.3125 736 86.9755 914.495 493.857
1076 0 68.0519 11.2267 764 84.8416 914.428 492.763
1077 0 69.0197 11.3156 781 87.0794 914.461 492.178
1078 0 73.0746 11.8098 863 86.5759 914.009 490.14
1079 0 74.1067 11.6184 861 89.2404 913.431 489.415
1080 0 77.0996 11.7381 905 90.2586 913.756 488.965
1081 0 80.055 12.2041 977 88.4289 914.22 487.606
1082 0 82.1306 11.9079 978 88.8068 914.055 486.257
1083 0 84.0822 11.5839 974 90.306 914.605 485.467
1084 0 86.2333 12.0603 1040 89.0625 914.26 483.6
1085 0 88.1595 12.432 1096 87.1752 914.425 482.336
1086 0 92.1486 12.686 1169 89.9136 915.032 480.95
1087 0 95.1519 12.5168 1191 87.5021 914.741 477.98
1088 0 98.1016 11.8856 1166 87.5197 914.19 477.333
1089 0 101.127 12.4299 1257 99.2936 914.348 474.797
1090 1 55.094 10.6182 585 97.4735 915.067 498.629
1091 0 55.1009 10.635 586 129.126 915.078 498.527
1092 0 61.0838 10.854 663 96.1885 914.842 496.813
1093 0 62.1126 11.8977 739 94.5264 913.583 497.181
1094 0 61.1143 11.7485 718 95.1393 914.989 496.937
1095 0 66.0354 12.4327 821 91.9403 914.378 494.82
1096 0 68.0986 12.4085 845 90.8982 914.181 493.819
1097 0 71.0935 12.3781 880 89.417 914.03 492.4
1098 0 74.1985 13.1674 977 88.3521 914.216 490.573
1099 0 74.1493 13.4189 995 88.0653 915.198 492.931
1100 0 78.2045 13.1706 1030 86.8621 914.928 490.2
1101 0 80.1452 13.1386 1053 85.7683 914.67 488.232
1102 0 83.1902 13.0304 1084 85.2279 914.02 486.594
1103 0 84.0896 13.0575 1098 89.3843 914.648 485.26
1104 0 86.0724 12.838 1105 89.7665 913.831 484.114
1105 0 89.1416 12.9681 1156 90.7033 914.4 483.273
1106 0 91.1515 12.5286 1142 92.9334 914.205 480.909
1107 0 94.1451 12.7144 1197 93.4219 914.167 479.519
1108 0 96.0943 12.8832 1238 95.059 914.141 478.237
1109 0 98.0794 11.7864 1156 97.0675 913.616 477.926
1110 0 103.093 12.028 1240 96.354 913.743 476.224
1111 0 104.095 12.037 1253 98.7558 913.683 473.603
1112 0 109.156 12.1661 1328 97.5038 913.55 471.99
1113 0 112.115 12.3444 1384 94.3577 914.036 469.059
1114 1 62.0961 10.5321 654 94.1865 914.017 494.924
1115 0 58.0504 10.6631 619 96.6462 915.879 490.964
1116 0 60.1131 11.1124 668 94.5704 916.524 490.283
1117 0 64.0523 11.1784 716 96.3506 915.349 490.212
1118 0 67.0827 11.851 795 93.0226 915.171 490.286
1119 0 68.0698 11.7233 798 93.6942 915.337 488.589
1120 0 69.0554 11.5415 797 94.5872 914.941 486.207
1121 0 74.0478 11.7492 870 92.0828 915.267 486.329
1122 0 75.1444 10.899 819 90.6044 915.939 487.092
1123 0 76.0813 11.5666 880 90.7557 915.55 483.989
1124 0 79.1101 11.4903 909 92.2838 915.813 484.333
1125 0 81.0884 11.173 906 94.6181 915.33 481.485
1126 0 81.08 11.3222 918 97.4564 916.658 480.684
1127 0 86.1071 11.6367 1002 97.2964 915.416 477.475
1128 0 86.0668 10.9915 946 100.49 914.634 476.438
1129 0 90.0988 11.3986 1027 100.302 915.02 471.375
1130 1 46.0531 9.29362 428 98.486 914.813 489.628
1131 0 48.0415 10.0954 485 98.6804 915.006 492.493
1132 0 53.0271 10.6549 565 95.2885 916.088 495.264
1133 0 51.1623 10.1637 520 98.6481 914.462 493.871
1134 0 56.1168 11.2088 629 95.1018 914.526 493.48
1135 0 55.0705 10.4048 573 100.721 914.614 492.846
1136 0 60.0561 11.2062 673 95.7667 915.877 493.828
1137 0 61.119 10.5368 644 95.1071 915.3 495.568
1138 0 63.1762 10.6369 672 94.7961 916.101 495.124
1139 0 63.111 10.3152 651 96.8418 915.989 493.688
1140 0 67.1293 11.3065 759 94.892 915.264 492.652
1141 0 68.1687 11.2075 764 96.4018 914.52 490.013
1142 0 73.2098 11.829 866 94.358 913.994 488.054
1143 0 72.2536 10.9199 789 98.9937 913.489 485.068
1144 0 76.203 10.8132 824 103.904 913.716 482.671
1145 0 79.1224 11.8171 935 102.155 913.058 478.789
1146 0 81.1374 11.9304 968 104.019 913.083 483.086
1147 0 80.1764 11.0881 889 108.596 912.713 482.637
1148 0 86.1779 11.9636 1031 106.455 913.247 480.359
1149 0 86.1924 11.8688 1023 108.402 913.066 477.933
1150 0 88.2196 10.8593 958 99.0678 913.076 479.793
1151 0 91.1395 11.1258 1014 98.9655 912.536 478.458
1152 0 94.2196 10.9107 1028 99.7208 912.019 474.329
1153 0 95.1558 10.7718 1025 100.831 911.805 470.672
1154 1 50.0176 10.4963 525 95.9695 911.842 497.362
1155 0 51.0436 10.7163 547 98.8026 911.826 497.037
1156 0 56.0411 11.0633 620 95.5016 911.711 497.569
1157 0 57.09 11.2454 642 89.9657 912.497 498.343
1158 0 59.1204 11.1468 659 90.827 912.534 497.675
1159 0 58.0885 11.6546 677 91.3914 912.873 497.306
1160 0 57.1219 10.6439 608 93.8174 912.169 497.41
1161 0 61.0572 10.9406 668 93.9461 911.573 496.154
1162 0 61.1091 10.8658 664 94.5497 911.437 495.374
1163 0 63.1236 10.5349 665 95.5865 911.821 493.967
1164 0 65.1781 10.6631 695 95.6302 911.643 493.168
1165 0 68.1151 11.3191 771 95.0104 911.678 490.568
1166 0 72.1642 11.2105 809 94.4598 911.496 490.858
1167 0 71.1432 10.5843 753 97.4276 912.361 490.211
1168 0 75.1544 11.4697 862 95.1705 912.441 487.113
1169 0 78.1798 11.7038 915 95.3038 912.592 485.88
1170 0 80.1631 11.6512 934 96.651 912.678 484.855
1171 0 81.1499 11.9778 972 96.1543 912.57 483.802
1172 0 83.1171 11.1168 924 98.448 912.392 482.488
1173 0 89.1025 12.0086 1070 92.4421 911.808 483.318
1174 0 87.0531 11.9812 1043 102.301 911.486 477.716
1175 0 88.0791 11.3421 999 99.3984 911.532 477.055
1176 0 94.0838 12.6589 1191 94.251 911.534 477.725
1177 0 97.0575 12.2608 1190 95.5084 912.663 475.671
1178 0 96.1701 12.2595 1179 96.3673 912.581 471.489
1179 0 99.1709 12.3121 1221 97.1933 912.508 469.029
1180 0 104.174 12.7096 1324 95.3119 912.894 466.742
1181 0 107.158 12.2156 1309 96.9335 912.904 464.519
1182 0 109.143 12.4882 1363 96.4109 913.508 464.332
1183 0 111.19 11.6917 1300 98.6577 912.858 463.887
1184 1 62.1186 9.85212 612 92.5376 912.253 488.776
1185 0 64.1756 10.9699 704 91.8906 912.508 487.901
1186 0 66.1848 11.9967 794 91.8866 912.623 490.593
1187 0 69.071 12.9143 892 88.1738 912.167 493.344
1188 0 74.1477 13.0415 967 87.5284 912.431 492.856
1189 0 73.1554 13.4918 987 88.6981 912.594 491.66
1190 0 76.091 13.037 992 89.4466 912.109 490.492
1191 0 79.0964 12.9336 1023 90.5376 913.265 489.822
1192 0 81.0955 12.7257 1032 92.0688 912.688 488.93
1193 0 82.1151 13.4811 1107 90.9684 913.164 487.594
1194 0 85.14 13.4602 1146 92.1457 912.328 486.99
1195 0 86.1368 12.9793 1118 95.8095 912.139 484.156
1196 0 88.1 13.4279 1183 95.918 912.403 483.25
1197 0 94.1694 13.6456 1285 94.7027 912.786 481.251
1198 0 94.1464 13.5746 1278 97.1784 912.224 480.726
1199 0 100.12 13.9633 1398 95.4134 912.413 479.401
1200 0 102.141 13.9611 1426 97.0463 912.253 478.404
1201 1 55.1145 11.2675 621 103.758 912.134 500.242
1202 0 52.0389 9.76192 508 98.2028 913.059 494.004
1203 0 52.0383 9.64674 502 101.147 912.771 491.189
1204 0 54.0299 10.9014 589 98.4737 913.501 491.834
1205 0 56.0512 10.4012 583 100.153 913.583 492.81
1206 0 57.0407 10.5889 604 99.7103 912.659 492.684
1207 0 59.0448 10.6529 629 100.464 913.7 491.321
1208 0 63.0353 10.5814 667 99.6642 913.66 490.783
1209 0 65.0607 10.9436 712 98.184 913.802 491.055
1210 0 68.0561 11.2407 765 98.2092 913.706 489.552
1211 0 70.134 10.7081 751 99.4447 913.182 487.602
1212 0 73.0271 11.1876 817 97.798 913.681 485.919
1213 0 79.1082 11.124 880 96.9023 913.001 486.201
1214 0 80.112 11.6961 937 97.9755 912.371 483.853
1215 0 82.0883 11.0734 909 100.477 912.406 484.112
1216 0 86.0618 11.4685 987 99.7741 912.697 481.954
1217 1 44.0367 9.42396 415 86.8048 913.219 503.901
1218 0 47.0682 10.4317 491 85.7862 912.916 502.98
1219 0 49.1205 10.3419 508 86.1949 913.065 501.268
1220 0 51.1188 11.1505 570 83.6737 912.953 502.64
1221 0 51.1576 10.3015 527 86.186 912.882 501.393
1222 0 52.0798 10.7911 562 86.8096 913.299 499.283
1223 0 55.1084 12.049 664 87.4277 913.223 500.334
1224 0 57.0726 11.3715 649 85.322 912.425 497.903
1225 0 57.1026 10.8576 620 88.15 912.49 496.558
1226 0 59.1139 10.8096 639 88.0235 912.829 496.46
1227 0 61.0801 12.3281 753 95.3612 913.02 498.394
1228 0 64.0109 12.7166 814 91.5504 911.91 497.215
1229 0 66.0638 12.7453 842 91.6069 912.127 497.679
1230 0 68.0094 12.8218 872 91.5837 912.117 494.642
1231 0 68.0251 12.1426 826 94.1078 912.512 495.127
1232 0 73.0207 12.6813 926 91.3261 912.346 493.844
1233 0 74.0683 12.61 934 91.2655 912.828 492.433
1234 0 76.041 12.4275 945 91.9132 912.758 492.426
1235 0 78.0528 12.4147 969 92.8153 912.542 488.729
1236 0 79.076 12.1149 958 89.215 913.371 488.286
1237 0 82.0591 11.9426 980 90.5347 913.754 487.38
1238 0 85.1141 12.5361 1067 89.329 913.703 485.212
1239 0 88.0442 11.8918 1047 90.5072 913.67 482.401
1240 0 92.0338 11.9195 1097 90.8341 913.505 481.871
1241 1 51.0226 10.5639 539 93.2542 914.475 501.538
1242 0 52.0297 10.8784 566 93.9505 914.482 501.122
1243 0 53.0517 11.1401 591 94.3113 913.953 500.492
1244 0 55.0554 11.5702 637 94.1272 913.964 499.463
1245 0 57.0675 11.9332 681 92.5874 915.266 499.186
1246 0 60.07 11.8195 710 94.0084 914.448 497.072
1247 0 61.0477 12.351 754 93.0544 913.204 496.096
1248 0 62.104 11.9477 742 94.279 913.404 495.112
1249 0 64.1162 12.1654 780 94.15 913.215 494.088
1250 0 67.0499 11.9165 799 94.5957 913.623 493.143
1251 0 69.1078 12.0392 832 95.4411 913.802 492.347
1252 0 69.1131 12.3276 852 95.9648 914.485 491.673
1253 0 73.054 12.3333 901 95.2697 914.954 490.616
1254 0 75.104 11.5573 868 94.4401 915.007 488.838
1255 0 77.109 11.7885 909 95.1826 913.882 487.273
1256 0 80.0587 11.3667 910 96.0418 914.23 483.391
1257 0 82.0801 11.8665 974 93.9107 913.793 484.062
1258 0 85.1015 11.4099 971 97.9485 913.825 481.185
1259 0 89.1836 12.3005 1097 96.8386 913.656 480.138
1260 0 93.1168 11.942 1112 101.183 914.174 476.897
1261 1 50.0828 10.0833 505 92.604 914.156 501.507
1262 0 49.131 10.7875 530 94.7924 913.766 502.466
1263 0 51.1055 11.8187 604 97.3378 914.247 502.536
1264 0 55.1152 11.9749 660 95.8379 913.918 502.515
1265 0 56.0911 12.2123 685 94.3051 914.826 500.739
1266 0 57.0423 12.1489 693 95.9004 913.808 501.178
1267 0 60.0896 12.7476 766 93.6227 913.727 500.413
1268 0 62.0613 12.3426 766 94.7742 913.946 498.569
1269 0 65.0693 12.7556 830 92.0217 913.392 496.163
1270 0 65.05 12.6979 826 95.4153 913.527 496.656
1271 0 68.0766 12.2068 831 96.6161 914.528 495.097
1272 0 69.0825 12.7818 883 96.1586 913.881 493.721
1273 0 74.2523 12.8346 953 96.1983 913.81 493.354
1274 0 74.0676 12.5966 933 98.4437 914.524 490.707
1275 0 78.1086 12.9435 1011 97.1751 914.552 489.979
1276 0 80.091 13.1226 1051 97.8316 914.725 488.092
1277 0 82.2062 12.3957 1019 101.4 914.551 486.571
1278 0 84.1554 12.6789 1067 103.233 913.348 484.924
1279 0 87.1984 13.303 1160 103.715 913.403 483.832
1280 0 90.2786 12.3507 1115 106.538 913.328 479.872
1281 1 47.1602 10.4961 495 101.065 912.818 501.147
1282 0 47.212 11.0565 522 101.948 913.404 499.266
1283 0 50.2565 10.4663 526 101.559 913.637 498.302
1284 0 51.3158 11.2441 577 98.7279 913.979 498.478
1285 0 54.2445 12.0197 652 98.592 914.281 497.13
1286 0 55.0285 11.8666 653 90.951 913.632 499.524
1287 0 56.0298 11.8865 666 91.7943 913.528 499.384
1288 0 58.036 11.803 685 91.8204 913.456 499.369
1289 0 59.0352 11.8404 699 91.8727 913.336 498.74
1290 0 63.0434 11.7855 743 91.3297 913.487 497.393
1291 0 65.0383 11.6547 758 90.7638 913.728 494.675
1292 0 67.0657 12.3014 825 88.9612 914.073 493.522
1293 0 66.0604 11.8831 785 90.3465 913.703 493.367
1294 0 69.0551 11.918 823 90.9575 913.738 490.417
1295 0 72.1026 11.553 833 91.8355 913.827 488.857
1296 0 75.0527 12.3646 928 89.0463 913.881 487.847
1297 0 77.0623 12.2498 944 88.6208 912.933 486.505
1298 0 78.0836 11.9359 932 89.8423 914.236 485.765
1299 0 78.0364 11.7125 914 92.5438 914.47 485.299
1300 0 81.11 12.3413 1001 94.018 914.078 484.811
1301 0 85.0462 12.7813 1087 93.9825 913.13 481.874
1302 0 87.068 11.8643 1033 97.9051 913.79 480.462
1303 0 90.0848 11.6335 1048 103.162 913.852 479.344
1304 0 92.1145 11.388 1049 105.29 914.629 475.509
1305 0 94.0686 11.7468 1105 103.548 914.796 475.688
1306 0 97.0616 12.0336 1168 102.79 914.897 474.132
1307 0 100.158 12.2506 1227 101.588 914.943 471.965
1308 0 106.133 12.2959 1305 103.008 913.425 473.53
1309 1 59.0876 9.93441 587 100.422 912.838 497.671
1310 0 60.073 10.2708 617 98.9611 912.279 495.648
1311 0 55.1157 9.30769 513 90.6296 913.932 488.934
1312 0 60.1168 10.5129 632 84.4763 913.674 492.498
1313 0 63.0709 10.2107 644 85.5559 913.8 492.092
1314 0 65.0479 11.1918 728 92.842 914.084 495.401
1315 0 70.067 11.1465 781 92.9731 913.729 494.597
1316 0 71.0719 12.1286 862 92.7448 913.493 491.991
1317 0 74.0264 12.0903 895 92.714 913.513 492.084
1318 0 74.0749 11.0024 815 96.8748 913.652 489.945
1319 0 79.062 11.8262 935 93.8449 913.834 488.381
1320 0 79.0842 11.6458 921 95.5299 914.309 487.761
1321 0 84.0884 11.3333 953 95.6212 914.043 485.568
1322 0 86.1097 11.5202 992 94.254 914.119 485.408
1323 0 88.0425 11.006 969 96.4881 914.158 481.198
1324 0 91.0576 11.4323 1041 95.2853 915.474 482.066
1325 0 94.1566 10.7693 1014 96.6351 914.642 479.593
1326 0 95.0667 11.1501 1060 96.2585 914.646 478.727
1327 0 100.083 11.6703 1168 93.8973 915.497 478.33
1328 0 102.097 11.5576 1180 94.8653 914.561 475.731
1329 0 106.098 11.7345 1245 96.5173 913.131 473.937
1330 0 107.059 12.0494 1290 98.7822 914.15 471.219
1331 0 111.129 11.3832 1265 98.9905 914.428 471.617
1332 0 113.077 11.6912 1322 99.1747 913.66 467.382
1333 0 117.129 12.0209 1408 99.0021 913.882 466.153
1334 0 118.118 11.9287 1409 99.8652 913.323 463.532
1335 0 122.131 12.1837 1488 97.8159 913.128 458.372
1336 1 56.0607 9.40052 527 92.3852 912.222 495.548
1337 0 57.0551 10.2708 586 93.6877 914.954 494.108
1338 0 57.0437 10.641 607 92.2636 914.236 492.119
1339 0 63.0391 11.2629 710 94.0563 914.982 491.616
1340 0 65.0428 11.5309 750 93.936 913.859 492.22
1341 0 67.0589 12.4219 833 93.0432 914.136 491.837
1342 0 68.0774 12.0892 823 95.3572 914.62 490.6
1343 0 71.0563 12.2157 868 95.8629 914.644 488.84
1344 0 73.0533 12.0323 879 97.3026 914.049 488.552
1345 0 73.04 12.7327 930 97.3527 914.268 487.922
1346 0 75.0539 12.4444 934 98.9497 914.458 486.448
1347 0 77.0203 13.0355 1004 99.0697 914.245 485.706
1348 0 78.0275 12.5853 982 101.118 913.949 485.363
1349 0 79.1638 11.9625 947 97.6737 913.3 488.574
1350 0 82.096 12.059 990 97.9768 913.971 487.486
1351 0 86.2464 13.1484 1134 95.3783 913.274 485.393
1352 0 89.2082 13.4741 1202 94.2804 913.574 482.901
1353 0 91.261 13.2916 1213 95.075 912.89 482.407
1354 0 93.2539 13.1362 1225 95.9837 912.526 483.865
1355 0 96.2265 14.2268 1369 93.9752 912.274 482.939
1356 0 97.1342 13.4556 1307 95.4132 913.235 480.833
1357 0 100.29 13.9097 1395 94.3426 913.377 479.562
1358 0 101.223 13.2875 1345 95.1561 913.099 478.737
1359 0 103.313 12.6509 1307 96.961 912.973 478.392
1360 0 106.34 12.8268 1364 95.8064 913.153 476.466
1361 0 110.38 12.5928 1390 92.6863 912.791 474
1362 0 115.158 12.4958 1439 91.2363 912.471 473.522
1363 1 60.1662 11.7674 708 84.8432 912.589 499.21
1364 0 60.1732 11.3506 683 86.1362 912.575 499.167
1365 0 62.3135 12.2927 766 84.6841 912.577 497.868
1366 0 63.0309 12.2004 769 83.4837 911.68 500.276
1367 0 64.049 12.3187 789 83.9848 911.539 497.773
1368 0 67.0393 11.9631 802 84.1958 911.594 496.763
1369 0 67.0883 12.1482 815 84.9583 911.152 494.855
1370 0 70.1916 12.067 847 92.1476 911.555 495.426
1371 0 73.0301 12.0224 878 92.0866 911.459 494.022
1372 0 74.0343 13.0345 965 90.3212 912.442 492.787
1373 0 76.059 12.0038 913 91.3812 912.681 492.332
1374 0 76.0956 12.2215 930 92.2978 912.104 490.023
1375 0 79.0998 12.4779 987 90.0983 911.603 488.177
1376 0 81.1614 12.6538 1027 90.6456 911.558 487.457
1377 0 84.043 12.7316 1070 85.5738 911.645 487.069
1378 0 83.0524 12.4379 1033 89.7531 911.216 486.536
1379 0 83.0859 12.8421 1067 88.3814 911.56 485.809
1380 0 85.1474 12.6604 1078 91.616 911.678 486.48
1381 0 83.0825 12.9751 1078 95.5315 911.558 485.051
1382 0 86.068 12.9084 1111 95.2268 911.47 484.312
1383 0 89.0768 14.0216 1249 90.7798 911.581 484.246
1384 0 90.108 13.4394 1211 91.0933 911.328 484.174
1385 0 94.1164 13.8446 1303 87.9394 911.743 481.955
1386 0 94.1027 13.3259 1254 88.6515 911.904 481.663
1387 0 98.0708 12.96 1271 87.347 911.614 479.999
1388 0 101.106 12.7687 1291 86.7041 911.885 477.077
1389 0 101.106 12.749 1289 133.285 912.874 477.032
1390 0 108.148 13.3058 1439 83.0208 910.323 473.987
1391 1 57.0808 10.2311 584 76.9932 910.558 503.115
1392 0 60.0501 10.5079 631 76.8827 910.491 501.705
1393 0 58.0434 10.2337 594 79.1212 911.152 499.623
1394 0 63.0785 11.4302 721 77.5381 910.682 499.631
1395 0 63.0932 11.5226 727 78.3769 911.422 499.333
1396 0 65.0828 11.5238 750 80.2907 911.484 496.379
1397 0 67.0548 11.4831 770 82.187 911.256 495.553
1398 0 69.0533 12.179 841 83.7586 911.478 494.782
1399 0 71.0412 12.3449 877 85.4641 911.32 492.572
1400 0 72.0531 12.0744 870 90.1759 911.285 492.678
1401 0 73.0628 12.1676 889 92.8414 910.615 491.697
1402 0 75.0727 12.388 930 93.9172 910.667 491.096
1403 0 77.1012 12.8014 987 94.5866 910.75 489.733
1404 0 79.0972 12.4657 986 96.0913 910.961 488.831
1405 0 80.0579 12.6783 1015 96.8325 910.702 486.779
1406 0 81.0595 12.1762 987 99.3343 911.202 486.881
1407 0 84.0685 12.0735 1015 100.415 911.739 486.733
1408 0 88.1184 12.9712 1143 98.3097 911.344 484.382
1409 0 87.065 12.2667 1068 101.935 911.769 483.007
1410 0 93.0859 13.4392 1251 99.4293 911.62 482.751
1411 0 95.1221 12.3946 1179 102.559 910.491 479.427
1412 0 98.1081 12.578 1234 103.583 910.763 477.306
1413 0 100.144 12.2124 1223 107.368 911.284 476.581
1414 0 103.124 12.6934 1309 106.856 911.442 475.949
1415 0 107.062 12.8243 1373 107.551 911.484 472.37
1416 0 111.13 13.1918 1466 107.728 911.387 472.834
1417 0 115.199 12.2918 1416 111.992 912.327 471.319
1418 0 120.128 12.753 1532 111.28 912.388 468.852
1419 1 67.1091 10.699 718 111.272 911.522 494.642
1420 0 69.1552 10.8741 752 113.463 911.438 494.035
1421 0 72.0706 11.5997 836 113.66 911.233 493.477
1422 0 75.0538 12.1779 914 114.43 911.877 490.888
1423 0 79.05 12.1822 963 111.65 911.513 490.615
1424 0 80.1162 11.8703 951 115.227 911.128 489.904
1425 0 81.0746 11.952 969 116.405 911.268 488.27
1426 0 83.068 11.9059 989 116.888 911.176 485.945
1427 0 86.1179 11.7165 1009 118.257 911.201 484.463
1428 0 90.0643 11.9692 1078 116.758 911.947 483.532
1429 0 92.0614 11.5358 1062 118.038 911.807 482.86
1430 0 96.1171 11.6629 1121 116.955 911.889 481.758
1431 0 98.0687 11.8794 1165 113.378 912.319 480.499
1432 1 55.0196 10.0873 555 101.332 912.04 503.577
1433 0 57.05 11.1306 635 95.211 912.227 501.83
1434 0 58.0352 11.2518 653 94.3201 912.608 501.482
1435 0 60.0185 10.3301 620 95.5936 911.927 500.032
1436 0 62.0268 11.0597 686 94.6487 911.662 498.94
1437 0 65.0227 11.3806 740 92.527 911.562 498.423
1438 0 62.085 10.389 645 99.3395 912.598 498.567
1439 0 65.0552 10.5449 686 99.0554 912.44 498.701
1440 0 67.0229 10.6829 716 99.2975 912.543 497.148
1441 0 70.0432 10.6363 745 99.2711 912.264 496.078
1442 0 73.0264 10.9413 799 98.5982 911.841 493.927
1443 0 73.0188 10.8191 790 100.633 912.581 492.565
1444 0 74.0398 10.0486 744 102.282 912.387 492.198
1445 0 78.0383 10.7896 842 101.006 911.994 491.134
1446 0 79.0359 10.7799 852 103.491 911.986 489.181
1447 0 85.1038 10.8103 920 102.646 912.482 487.285
1448 0 88.0195 10.5204 926 101.921 912.63 487.6
1449 0 89.021 10.0763 897 104.814 912.204 485.805
1450 1 51.0438 9.61918 491 103.118 913.66 505.244
1451 0 53.071 10.3446 549 102.204 913.295 502.036
1452 0 53.0545 10.7625 571 112.594 913.072 501.317
1453 0 55.0362 10.266 565 107.331 913.331 499.896
1454 0 54.029 9.79104 529 99.2212 913.357 502.575
1455 0 54.0279 9.42105 509 101.371 912.434 502.008
1456 0 55.0257 9.39561 517 101.325 911.456 500.766
1457 0 56.0294 8.79896 493 103.574 912.28 500.929
1458 0 59.0395 9.50211 561 100.216 913 499.834
1459 0 63.0082 9.34799 589 99.416 912.912 500.368
1460 0 62.036 9.52673 591 99.2826 912.492 498.797
1461 0 61.0606 9.31861 569 101.517 912.917 498.076
1462 0 67.0223 9.44462 633 100.22 912.694 496.193
1463 0 66.0381 8.94938 591 100.371 913.061 495.083
1464 0 69.0708 9.78706 676 100.676 912.981 492.632
1465 0 67.0558 8.48547 569 103.257 913.134 495.236
1466 0 73.1225 9.38152 686 103.367 913.461 491.685
1467 0 76.0764 10.082 767 101.97 912.563 492.712
1468 0 78.0529 9.55762 746 104.709 912.436 490.925
1469 0 82.1323 9.78909 804 103.774 912.444 491.072
1470 0 83.0896 9.61613 799 104.179 912.985 486.721
1471 1 126.181 10.1997 1287 107.242 913.05 465.832
1472 0 132.346 10.669 1412 106.822 913.132 463.669
1473 0 133.334 10.7774 1437 110.235 913.446 463.031
1474 0 135.578 10.872 1474 107.01 913.402 462.607
1475 0 138.283 10.8618 1502 107.144 913.354 459.998
1476 0 143.262 11.65 1669 105.714 913.847 457.015
1477 0 146.337 10.7765 1577 108.546 913.177 455.935
1478 0 150.179 11.0734 1663 106.903 913.173 452.014
1479 0 153.306 10.4497 1602 109.037 912.719 449.481
1480 0 159.288 10.2581 1634 107.505 912.2 447.942
1481 0 163.213 10.5567 1723 107.775 912.833 446.443
1482 0 167.377 10.1388 1697 109.034 912.071 441.177
1483 0 175.359 11.0858 1944 105.748 912.44 441.855
1484 0 182.38 11.4651 2091 104.598 912.374 438.357
1485 0 187.461 10.8076 2026 106.711 912.21 436.809
1486 1 62.1497 10.1529 631 102.312 912.338 493.761
1487 0 64.1486 9.58711 615 103.247 912.826 494.478
1488 0 65.0849 10.325 672 103.643 912.531 492.065
1489 0 67.1501 9.00966 605 106.936 912.881 490.929
1490 0 66.2766 9.6565 640 107.838 912.338 489.727
1491 0 71.0946 9.74758 693 106.267 912.854 489.797
1492 0 75.2628 10.2973 775 104.843 912.148 489.435
1493 0 79.2541 11.7344 930 100.956 911.98 487.291
1494 0 82.2562 11.2575 926 100.51 911.89 489.117
1495 0 82.1949 10.8766 894 102.385 911.616 487.488
1496 0 85.2413 11.4029 972 100.365 911.851 486.526
1497 0 89.2794 11.0216 984 100.238 912.724 486.633
1498 0 91.2615 10.7493 981 100.726 912.852 483.268
1499 0 92.2382 10.1043 932 101.985 912.563 482.6
1500 0 97.2586 11.0941 1079 99.1613 912.288 480.348
1501 0 102.127 10.0267 1024 100.487 912.827 479.874
1502 0 102.239 10.7591 1100 99.8427 913.213 477.458
1503 0 103.166 10.9533 1130 100.102 912.927 474.37
1504 0 105.188 10.0297 1055 102.028 913.08 472.667
1505 0 111.176 11.1445 1239 98.6368 913.146 470.753
1506 0 113.117 9.83051 1112 100.698 912.976 470.425
1507 0 117.099 11.1273 1303 99.3239 912.22 465.53
1508 0 119.313 10.1414 1210 102.292 911.408 462.279
1509 0 124.231 10.3115 1281 101.671 911.632 460.804
1510 0 130.174 11.3925 1483 97.5091 911.655 463.157
1511 0 135.248 11.4678 1551 97.9078 912.257 461.232
1512 0 139.241 11.5124 1603 98.156 911.991 459.361
1513 0 144.158 11.1336 1605 99.066 911.874 457.27
1514 0 149.221 12.257 1829 95.8283 911.925 455.627
1515 0 153.226 11.9366 1829 97.6894 912.636 450.394
1516 0 156.29 11.709 1830 97.5388 913.15 451.913
1517 0 160.169 11.6752 1870 98.5187 913.034 448.194
1518 0 165.215 11.9057 1967 97.8205 912.94 447.892
1519 0 166.199 11.8713 1973 98.8089 912.07 444.536
1520 0 173.162 11.4921 1990 99.4472 911.597 441.367
1521 0 179.39 12.13 2176 97.637 911.888 438.956
1522 0 183.292 11.6208 2130 99.8526 911.78 435.816
1523 0 189.339 10.6634 2019 101.421 911.86 437.36
1524 0 193.307 11.743 2270 101.91 913.009 429.836
1525 0 200.293 11.9075 2385 101.694 912.779 428.019
1526 0 211.337 13.3625 2824 96.1098 912.538 427.911
1527 0 215.441 12.3282 2656 105.592 912.728 420.934
1528 0 221.459 12.3093 2726 108.261 912.641 415.796
1529 0 228.555 12.1984 2788 107.539 912.4 412.678
1530 0 236.334 12.2116 2886 107.204 913.602 411.709
1531 1 186.221 10.8795 2026 105.496 913.882 438.876
1532 0 192.254 11.0271 2120 104.857 913.383 433.504
1533 0 198.215 11.2656 2233 103.073 913.011 431.81
1534 0 203.261 11.4827 2334 104.807 913.027 428.115
1535 0 209.262 11.5453 2416 106.329 912.445 422.248
1536 0 214.183 11.0326 2363 109.028 912.29 419.262
1537 0 221.38 11.5593 2559 108.179 912.605 416.113
1538 0 227.42 11.8679 2699 109.431 911.882 413.16
1539 0 235.331 12.3656 2910 109.966 912.669 408.899
1540 0 239.391 11.876 2843 111.899 912.288 406.358
1541 0 246.39 11.9566 2946 113.364 912.479 400.949
1542 0 254.349 12.5812 3200 113.225 912.187 401.992
1543 0 262.352 12.2926 3225 114.822 912.952 395.234
1544 0 270.305 12.7411 3444 114.977 912.111 391.193
1545 0 277.348 13.5137 3748 116.076 912.061 381.399
1546 0 284.309 12.9788 3690 117.003 911.784 378.264
1547 1 77.116 9.21987 711 91.0577 911.949 487.321
1548 0 79.0957 9.57069 757 91.3778 912.647 484.712
1549 0 83.0752 10.0872 838 88.7064 911.909 483.02
1550 0 82.0693 9.78442 803 91.7248 912.24 480.082
1551 0 84.1178 9.90278 833 95.7767 912.019 478.616
1552 0 87.1518 9.93668 866 90.157 911.805 481.185
1553 0 87.2024 9.40341 820 91.339 912.293 479.813
1554 0 91.2099 9.90024 903 92.7054 912.591 477.884
1555 0 96.1825 9.78349 941 94.1137 913.014 477.95
1556 0 96.2018 9.83349 946 96.5423 913.051 477.154
1557 0 99.1987 9.69771 962 97.6767 913.142 474.583
1558 0 103.204 10.271 1060 97.4028 913.203 473.861
1559 0 105.377 10.192 1074 98.7989 913.408 472.804
1560 0 109.342 10.115 1106 99.3626 913.303 468.567
1561 0 109.313 9.99886 1093 99.5014 913.198 466.222
1562 0 115.356 10.4199 1202 99.0241 913.207 461.461
1563 0 115.246 10.3951 1198 100.77 913.387 459.63
1564 0 117.321 10.8335 1271 99.2368 913.102 454.437
1565 0 125.334 10.5797 1326 98.5581 913.376 452.507
1566 0 125.354 12.0538 1511 95.2422 912.81 445.285
1567 0 129.394 12.0253 1556 96.2179 913.039 444.447
1568 1 73.2051 8.40105 615 96.839 914.345 478.512
1569 0 75.2116 9.05446 681 96.8282 914.201 477.52
1570 0 78.1774 10.0413 785 97.1974 913.176 476.506
1571 0 83.0286 11.2853 937 93.3586 913.825 479.967
1572 0 81.2311 10.1439 824 97.4648 913.326 478.661
1573 0 84.2555 10.3969 876 97.1164 913.933 477.701
1574 0 86.2958 10.2207 882 98.4297 913.729 476.167
1575 0 89.2152 9.94225 887 99.0338 913.537 474.211
1576 0 92.3034 10.498 969 96.8586 913.532 474.488
1577 0 95.2146 10.6601 1015 95.13 912.944 473.173
1578 0 95.1517 10.7618 1024 93.918 914.178 474.717
1579 0 97.1375 10.4697 1017 94.5664 913.954 471.048
1580 0 99.1061 11.3616 1126 91.4041 913.498 469.727
1581 0 100.199 10.7386 1076 94.9461 913.981 466.76
1582 0 100.15 9.84522 986 95.6562 913.606 464.103
1583 0 106.244 10.5041 1116 92.2177 913.686 465.25
1584 1 53.0523 7.29468 387 91.9742 913.429 489.979
1585 0 60.0108 9.51495 571 86.1331 913.047 491.799
1586 0 61.0176 9.81684 599 87.6077 913.013 490.673
1587 0 63.053 10.4833 661 88.3056 913.448 490.495
1588 0 64.0564 9.50724 609 82.6338 914.772 496.642
1589 0 62.0069 9.80536 608 83.2895 913.918 495.554
1590 0 65.0179 9.90496 644 83.1009 914.116 493.27
1591 0 68.044 10.1846 693 81.3853 914.29 493.427
1592 0 70.0362 10.1947 714 80.923 913.402 493.113
1593 0 70.0375 10.0946 707 83.1471 913.069 491.105
1594 0 71.0455 10.0217 712 84.0295 913.546 491.119
1595 0 73.0399 10.6243 776 83.3956 913.2 488.024
1596 0 76.0386 9.71875 739 84.3451 913.359 488.345
1597 0 77.0488 10.2013 786 86.0662 912.627 485.475
1598 0 80.0513 10.8306 867 83.917 912.478 484.325
1599 0 83.0991 10.7342 892 83.3128 913.226 484.135
1600 0 86.0572 10.5627 909 83.4786 913.515 482.036
1601 0 89.1211 10.6821 952 83.084 913.005 480.37
1602 0 90.105 9.97725 899 85.0056 913.358 480.76
1603 0 94.1111 11.0614 1041 83.1182 913.244 479.636
1604 0 94.0426 9.9742 938 86.5032 912.577 477.507
1605 0 98.0755 10.6551 1045 85.179 912.688 475.463
1606 0 100.057 10.4541 1046 85.0182 912.404 474.813
1607 0 104.074 10.4734 1090 83.589 912.748 475.091
1608 0 107.087 10.7203 1148 85.0235 912.953 471.577
1609 0 110.081 11.1009 1222 84.8699 913.151 470.905
1610 0 112.072 11.2338 1259 86.3638 912.898 468.403
1611 0 116.051 11.3312 1315 85.035 913.3 471.185
1612 0 122.128 11.7254 1432 82.5936 912.878 467.576
1613 0 124.206 11.6903 1452 84.7776 912.366 463.085
1614 1 68.0602 10.1822 693 82.241 913.316 491.821
1615 0 73.0543 11.1971 818 80.934 912.665 490.873
1616 0 74.0635 11.0581 819 82.6996 913.596 488.309
1617 0 75.0522 12.1382 911 80.955 913.314 486.864
1618 0 77.0429 11.9154 918 81.988 913.413 485.349
1619 0 80.0507 11.7925 944 82.1091 913.448 485.579
1620 0 83.0625 11.9428 992 81.8972 913.678 482.312
1621 0 85.0572 11.5922 986 83.1501 913.18 482.104
1622 0 86.0329 11.914 1025 82.3532 913.159 480.904
1623 0 90.0561 12.0703 1087 82.3183 912.889 480.273
1624 0 91.0839 11.8682 1081 83.839 912.278 478.47
1625 0 94.0989 11.8599 1116 84.4498 912.643 477.232
1626 0 95.1521 12.149 1156 85.173 912.941 474.94
1627 0 99.064 12.2648 1215 85.0156 913.098 473.925
1628 0 99.0465 12.378 1226 86.6574 912.938 471.418
1629 0 104.16 11.9144 1241 88.3828 912.915 471.752
1630 0 107.103 12.2499 1312 87.471 912.896 471.3
1631 0 111.084 12.018 1335 88.9184 912.741 470.324
1632 0 112.15 12.4744 1399 89.0593 911.784 468.683
1633 0 115.094 12.0857 1391 91.2976 911.819 468.132
1634 0 120.24 12.999 1563 89.8337 911.871 466.324
1635 0 122.172 12.4497 1521 92.3156 912.121 464.043
1636 0 125.227 12.7689 1599 93.1094 911.431 461.006
1637 0 129.183 12.8499 1660 93.9398 912.218 458.717
1638 0 132.249 12.1513 1607 97.4412 913.052 455.652
1639 0 137.213 12.6009 1729 96.3418 911.906 455.381
1640 0 139.25 13.5799 1891 93.6108 912.585 450.662
1641 0 143.246 13.7735 1973 91.8738 912.172 448.581
1642 0 147.212 13.9662 2056 91.0282 911.499 446.47
1643 0 149.214 13.0952 1954 93.7047 911.494 442.204
1644 1 83.1913 8.36626 696 90.3707 912.266 478.136
1645 0 87.1345 9.9157 864 92.8252 912.323 478.045
1646 0 90.0944 10.1116 911 88.7058 913.187 481.294
1647 0 94.1172 11.6876 1100 86.3264 912.913 478.799
1648 0 94.1127 11.635 1095 128.559 912.923 478.695
1649 0 100.129 12.0844 1210 99.505 913.687 474.261
1650 0 103.146 12.0024 1238 101.41 913.232 473.843
1651 0 105.113 12.4247 1306 101.743 912.224 470.855
1652 0 109.098 12.3742 1350 101.984 912.538 470.532
1653 0 113.132 12.6931 1436 100.925 912.318 468.382
1654 0 115.116 11.875 1367 103.584 912.623 464.04
1655 0 118.105 12.1164 1431 102.154 912.199 464.479
1656 0 123.166 11.9189 1468 101.762 911.254 464.102
1657 0 127.08 11.4259 1452 101.219 911.556 462.737
1658 1 66.0538 10.0221 662 91.5725 911.505 492.494
1659 0 70.067 10.2902 721 89.5229 912.264 493.302
1660 0 72.0522 10.8394 781 89.7414 912.854 492.54
1661 0 73.0317 10.6255 776 90.9832 912.411 490.63
1662 0 76.0618 11.6879 889 100.678 912.926 486.525
1663 0 79.0464 11.8285 935 100.618 912.603 486.342
1664 0 77.0197 9.68583 746 96.437 912.657 488.741
1665 0 82.0421 11.8841 975 100.833 913.089 483.369
1666 0 84.0865 10.7865 907 96.5733 913.225 485.073
1667 0 85.1018 10.7871 918 96.2396 912.925 483.159
1668 0 85.0624 10.4159 886 99.0203 912.903 482.946
1669 0 90.0451 10.9723 988 98.3522 912.86 480.356
1670 0 93.0347 11.8235 1100 108.854 913.839 475.854
1671 0 96.0546 12.1077 1163 108.117 913.634 475.363
1672 0 98.0364 12.3016 1206 108.058 913.235 474.36
1673 0 100.084 12.0999 1211 108.273 913.5 474.053
1674 0 102.151 11.9235 1218 110.191 912.603 471.633
1675 0 105.13 12.3752 1301 108.214 912.589 471.122
1676 0 107.157 11.9358 1279 109.344 912.561 468.12
1677 0 111.125 12.4725 1386 107.137 912.931 468.62
1678 0 113.125 12.5259 1417 106.747 913.242 465.054
1679 0 118.228 13.0933 1548 104.593 912.565 462.987
1680 0 118.158 12.1955 1441 107.172 912.012 460.396
1681 1 66.0701 9.79263 647 102.266 912.79 490.926
1682 0 68.0441 10.2287 696 99.5345 912.784 487.228
1683 0 69.0206 10.8229 747 97.7805 913.506 486.847
1684 0 71.0374 11.1631 793 98.459 913.875 485.84
1685 0 73.0497 10.2944 752 94.9282 912.904 486.918
1686 0 72.0281 10.5375 759 94.7549 912.954 487.173
1687 0 76.0736 10.7265 816 93.6274 913.408 485.413
1688 0 79.0667 10.5607 835 94.4335 913.853 485.165
1689 0 79.0776 10.2937 814 95.9975 913.733 484
1690 0 85.1531 10.44 889 95.4117 913.204 482.974
1691 0 85.1399 10.6648 908 94.5121 912.727 481.53
1692 0 86.0883 10.1756 876 96.0788 913.282 479.345
1693 0 91.0824 10.3752 945 95.163 913.706 475.418
1694 0 93.1209 10.1481 945 95.781 912.997 474.219
1695 0 95.0593 10.4251 991 95.116 912.938 471.129
1696 1 50.0849 10.2426 513 96.8207 913.316 495.739
1697 0 51.1245 10.0735 515 97.6252 913.961 495.468
1698 0 50.0976 10.5793 530 97.8509 913.974 493.87
1699 0 54.0351 10.3081 557 96.0557 914.226 495.449
1700 0 53.0418 10.1807 540 94.4426 914.07 493.567
1701 0 53.0519 9.53783 506 95.8439 913.769 495.208
1702 0 55.0708 10.5864 583 93.6844 914.122 495.491
1703 0 57.1135 10.4354 596 94.0872 914.19 492.279
1704 0 59.0696 10.2591 606 94.7558 913.465 492.101
1705 0 62.1587 10.7628 669 93.4828 913.368 491.463
1706 0 63.1937 10.1751 643 94.6423 914.033 491.073
1707 0 64.0887 10.345 663 95.3424 913.207 488.842
1708 0 68.0922 10.0452 684 95 913.028 488.029
1709 0 68.0942 10.7792 734 94.8256 912.631 487.142
1710 0 68.1925 10.1624 693 97.5556 912.902 485.934
1711 0 72.0764 10.5305 759 95.6047 913.012 486.665
1712 0 74.1551 10.8556 805 95.5876 912.789 484.484
1713 0 77.1162 10.7241 827 95.6191 912.757 482.428
1714 0 80.1031 10.6987 857 95.9066 913.054 481.761
1715 0 83.0761 10.4723 870 95.3172 912.498 482.068
1716 0 83.0668 10.4976 872 116.663 912.48 482.15
1717 0 88.0858 10.5238 927 95.6764 911.676 476.686
1718 0 91.1776 10.3973 948 95.5559 911.641 477.28
1719 0 95.1437 11.4669 1091 93.9881 911.924 473.291
1720 1 44.0812 10.2084 450 96.2244 911.196 497.471
1721 0 47.1221 10.0165 472 95.947 912.866 494.33
1722 0 51.1155 11.2882 577 88.8423 912.232 493.931
1723 0 51.0593 11.3593 580 89.9017 913.11 493.053
1724 0 54.1089 11.4399 619 85.2197 913.388 494.994
1725 0 56.1252 11.0645 621 86.2609 913.47 496.193
1726 0 58.0753 11.6228 675 86.5407 912.582 494.004
1727 0 59.0918 12.4383 735 84.7184 911.827 493.872
1728 0 61.0724 11.822 722 87.3934 912.698 492.578
1729 0 65.0835 12.2919 800 86.2788 912.828 492.802
1730 0 65.2149 12.4971 815 87.5914 912.876 492.102
1731 0 65.1753 11.7069 763 92.4797 912.62 491.225
1732 0 68.1684 12.4838 851 91.376 912.553 489.833
1733 0 68.1828 12.5691 857 92.9708 912.456 488.95
1734 0 72.1332 12.4076 895 93.3777 913.019 488.847
1735 0 73.183 12.7625 934 94.1156 912.882 487.04
1736 0 76.171 12.5901 959 95.4974 912.69 485.155
1737 0 77.1923 13.1101 1012 96.4832 913.624 484.795
1738 0 81.0776 12.9876 1053 96.1301 913.344 484.683
1739 0 80.1071 12.4958 1001 100.124 913.969 482.065
1740 0 85.0941 12.7858 1088 99.2068 912.913 480.822
1741 0 87.066 12.5996 1097 100.07 913.377 479.896
1742 0 90.1007 12.7524 1149 99.879 912.514 479.266
1743 0 92.1032 12.6923 1169 101.125 913.255 477.943
1744 0 93.1866 12.3086 1147 102.69 912.881 476.279
1745 0 97.0843 12.7003 1233 102.623 913.185 473.114
1746 0 100.19 13.0752 1310 102.066 912.671 471.206
1747 0 104.183 12.6988 1323 103.193 912.918 469.33
1748 0 107.162 12.6724 1358 103.703 913.223 466.836
1749 1 56.1718 10.8417 609 99.2709 913.678 492.144
1750 0 56.0337 11.4752 643 99.3624 913.095 489.165
1751 0 61.0375 11.8124 721 96.6879 911.928 489.082
1752 0 62.0746 11.8084 733 97.8036 911.09 486.95
1753 0 65.042 12.4227 808 96.3465 911.512 486.786
1754 0 64.1153 12.4307 797 97.2371 911.703 485.612
1755 0 66.106 12.1169 801 98.2285 912.157 485.111
1756 0 68.1176 12.4637 849 97.5925 912.352 483.505
1757 0 74.0864 12.2965 911 97.8771 913.249 484.645
1758 0 76.0352 12.1786 926 101.015 913.08 488.455
1759 0 77.0651 12.2624 945 101.257 912.981 487.723
1760 0 80.0575 12.4286 995 100.46 913.257 485.89
1761 0 82.0224 12.1065 993 101.403 913.944 484.077
1762 0 84.0308 12.0551 1013 100.964 913.673 483.116
1763 0 87.041 12.4539 1084 101.249 913.565 481.115
1764 0 91.0677 13.0343 1187 99.642 913.453 479.399
1765 0 93.0815 12.9134 1202 99.2978 913.99 479.031
1766 0 96.0718 12.9695 1246 98.996 913.208 476.842
1767 0 97.0924 11.8856 1154 100.893 913.306 475.322
1768 0 99.0945 12.4326 1232 101.036 912.752 473.418
1769 1 56.0464 10.2772 576 94.9462 913.188 497.118
1770 0 57.0456 10.6757 609 95.7061 912.818 493.225
1771 0 57.096 10.7888 616 89.974 912.354 490.261
1772 0 59.0426 10.9921 649 85.2928 912.083 490.766
1773 0 61.0301 10.9782 670 85.5821 912.343 489.784
1774 0 63.0314 10.8676 685 86.8803 912.304 488.053
1775 0 67.0378 11.0684 742 86.3181 912.004 487.887
1776 0 70.044 11.8211 828 85.4698 912.092 487.385
1777 0 72.078 11.5569 833 88.8031 911.152 490.604
1778 0 71.1141 12.0932 860 90.7337 911.624 487.312
1779 0 75.0716 12.0019 901 90.4562 912.151 487.667
1780 0 77.1083 12.4889 963 88.7009 912.161 486.3
1781 0 78.0489 12.3384 963 89.9242 912.163 484.298
1782 0 81.1152 12.0816 980 90.1878 912.43 482.598
1783 0 84.0693 12.6562 1064 88.9624 912.802 481.137
1784 0 87.0944 12.2855 1070 89.1215 912.357 480.483
1785 0 88.0902 12.1012 1066 90.8884 912.809 478.211
1786 0 93.0715 12.571 1170 90.253 912.777 476.294
1787 0 96.1901 12.6936 1221 91.502 912.784 474.136
1788 0 100.151 12.9904 1301 92.6111 913.493 472.633
1789 1 52.0135 10.728 558 95.8477 913.364 496.367
1790 0 54.0348 10.8263 585 93.7162 913.663 496.152
1791 0 55.0333 11.1751 615 93.6374 912.789 495.889
1792 0 58.0493 11.6453 676 86.3033 912.309 493.694
1793 0 61.085 12.4417 760 89.2171 911.507 492.542
1794 0 62.0202 12.4314 771 86.1193 912.73 492.999
1795 0 65.0154 12.92 840 85.4548 912.911 491.594
1796 0 65.0395 12.823 834 86.3309 913.454 490.175
1797 0 68.0468 12.8735 876 86.1393 913.45 489.113
1798 0 70.04 12.9355 906 86.7318 912.93 488.828
1799 0 73.0439 12.8553 939 87.2034 912.257 487.723
1800 0 72.0818 12.6662 913 89.2914 912.929 487.361
1801 0 77.0874 12.8685 992 88.2349 911.337 485.688
1802 0 79.0864 13.5042 1068 87.1695 911.858 486.836
1803 0 81.0641 13.0637 1059 90.3003 911.785 483.9
1804 0 83.0932 13.3465 1109 90.706 912.202 483.204
1805 0 83.1098 12.4293 1033 94.4114 912.286 484.357
1806 0 86.1387 13.0255 1122 93.9733 911.972 482.415
1807 0 90.0623 13.635 1228 93.9047 912.778 481.803
1808 0 90.0952 12.7421 1148 97.2962 912.8 480.199
1809 0 93.132 13.4003 1248 97.1146 912.439 478.54
1810 0 95.1193 13.1624 1252 99.5407 911.947 475.933
1811 0 101.136 14.1492 1431 94.6799 911.909 473.552
1812 0 103.125 14.1285 1457 95.8916 911.82 471.996
1813 0 106.126 14.3603 1524 96.7933 911.926 468.82
1814 0 110.267 14.211 1567 98.0996 911.987 467.377
1815 0 114.127 13.5989 1552 99.8441 911.998 465.137
1816 1 59.0249 10.5549 623 95.1011 912.864 493.13
1817 0 64.0664 11.5817 742 94.6375 912.933 493.57
1818 0 67.0251 13.1592 882 89.3469 913.274 492.351
1819 0 67.0487 12.5879 844 88.3389 912.682 492.98
1820 0 71.0867 12.9701 922 87.4317 912.679 491.567
1821 0 73.1153 13.1026 958 88.4113 913.162 489.215
1822 0 77.1406 13.0022 1003 86.8604 912.846 487.478
1823 0 78.0771 12.667 989 88.9444 913.142 486.869
1824 0 80.064 12.6399 1012 91.1492 912.803 483.332
1825 0 82.1446 12.7823 1050 91.4714 913.226 482.061
1826 0 84.1109 12.2457 1030 92.8068 913.215 482.469
1827 0 85.1832 12.0681 1028 94.214 913.17 480.463
1828 0 89.0831 12.2133 1088 94.3952 912.803 479.135
1829 0 92.0873 11.7063 1078 95.0464 913.315 478.191
1830 0 94.0768 11.9477 1124 95.2171 913.155 476.961
1831 0 98.0877 11.9383 1171 95.5867 913.044 474.897
1832 1 53.036 10.0875 535 97.129 913.336 497.464
1833 0 58.0397 11.4577 665 93.418 913.263 496.4
1834 0 60.0246 12.5782 755 86.9801 911.625 497.048
1835 0 56.0392 11.2243 629 90.256 912.7 497.048
1836 0 58.0109 11.222 651 93.6713 912.949 497.014
1837 0 58.0269 10.9087 633 96.6035 913.07 495.706
1838 0 59.0195 11.3183 668 95.8278 913.148 496.536
1839 0 64.0485 11.8348 758 94.7559 913.479 494.852
1840 0 64.014 11.3725 728 96.6937 912.92 493.639
1841 0 67.0329 11.6957 784 95.3508 912.925 492.034
1842 0 68.0461 10.9191 743 94.9058 913.456 489.922
1843 0 73.0553 11.7172 856 91.4474 913.578 490.593
1844 0 73.0646 11.7704 860 92.9988 913.163 487.967
1845 0 75.0532 11.272 846 97.7766 912.674 485.985
1846 0 78.0569 11.8631 926 94.8294 913.239 485.262
1847 0 81.1057 11.5898 940 94.7862 912.935 483.669
1848 0 83.0842 11.5184 957 94.3103 912.646 482.532
1849 0 87.1158 12.1907 1062 93.4369 912.981 480.165
1850 0 92.0717 12.4142 1143 93.4672 912.948 477.725
1851 0 94.1139 12.6761 1193 91.9832 912.963 476.265
1852 1 47.0422 10.0123 471 94.3142 912.524 501.038
1853 0 49.0506 10.6217 521 92.8695 912.56 500.328
1854 0 51.0125 11.3698 580 90.7017 912.974 497.75
1855 0 54.0624 11.8752 642 96.6854 912.142 497.201
1856 0 57.0869 11.4737 655 97.1527 911.869 496.246
1857 0 58.0198 12.0131 697 95.0961 911.845 495.888
1858 0 57.0476 11.4816 655 98.2504 912.185 494.35
1859 0 62.0263 12.7204 789 93.9366 913.763 493.911
1860 0 62.0352 11.6708 724 96.8052 912.843 493.511
1861 0 64.041 12.6169 808 94.8725 913.4 492.059
1862 0 64.0403 12.5858 806 95.4802 913.073 491.594
1863 0 63.0151 11.1243 701 100.073 913.251 487.89
1864 0 68.0209 12.5991 857 95.0677 912.956 489.012
1865 0 71.0492 12.5406 891 95.0157 913.499 488.118
1866 0 74.0393 12.9796 961 93.8606 913.828 486.736
1867 0 74.0344 12.6833 939 94.4611 913.667 485.665
1868 0 78.0447 12.5057 976 94.5666 913.421 484.99
1869 0 81.0261 12.9464 1049 93.367 913.223 483.497
1870 0 83.023 12.4544 1034 94.7747 913.719 482.271
1871 0 85.0407 13.2642 1128 93.3147 913.958 481.112
1872 0 90.0578 13.2359 1192 92.3372 913.758 479.963
1873 1 46.0486 10.945 504 93.4623 912.986 499.758
1874 0 47.0557 11.497 541 92.7708 913.235 499.279
1875 0 47.0385 11.4799 540 92.6148 913.891 497.926
1876 0 48.0728 12.5643 604 91.3361 911.942 496.379
1877 0 48.0527 11.862 570 93.6193 913.67 496.546
1878 0 50.0257 12.6135 631 92.7702 913.96 495.607
1879 0 54.0406 12.5276 677 91.6869 912.737 494.873
1880 0 55.0356 12.6282 695 91.4978 913.275 492.984
1881 0 56.0376 12.6522 709 91.7969 913.513 492.144
1882 0 56.0401 12.384 694 93.6297 913.426 491.647
1883 0 61.0301 12.9608 791 90.378 913.274 490.815
1884 0 62.1283 12.5708 781 88.6914 913.627 491.245
1885 0 62.1318 12.6022 783 137.296 914.623 491.331
1886 0 65.1059 13.2707 864 91.3206 913.779 488.049
1887 0 70.0567 13.3178 933 90.135 913.419 486.875
1888 0 72.0438 13.2142 952 90.7405 913.204 485.941
1889 0 74.0328 13.1563 974 93.039 912.726 484.7
1890 0 73.0545 12.785 934 96.2024 912.496 483.323
1891 0 79.033 13.4248 1061 94.0141 912.623 484.047
1892 0 80.1006 13.3582 1070 96.2897 912.148 482.307
1893 1 44.0154 10.8826 479 98.6764 913.038 501.67
1894 0 46.0339 11.4915 529 96.3573 912.552 501.159
1895 0 46.0236 11.8418 545 98.3303 911.839 499.323
1896 0 47.0173 12.1657 572 96.4371 911.566 499.734
1897 0 51.0496 13.1049 669 94.9043 912.561 499.093
1898 0 50.0387 12.6102 631 98.3439 912.146 498.417
1899 0 53.0304 13.0868 694 95.9582 912.339 497.87
1900 0 53.0559 12.8355 681 98.6388 911.963 497.157
1901 0 55.0378 13.6452 751 96.6245 912.033 497.446
1902 0 55.0593 12.8225 706 100.501 911.812 496.258
1903 0 57.0532 13.2157 754 99.3488 912.277 495.366
1904 0 60.1069 13.5758 816 97.826 912.13 494.262
1905 0 60.0603 13.7196 824 98.4684 911.777 495.046
1906 0 63.0604 13.7487 867 98.3426 912.51 494.219
1907 0 64.0703 13.7349 880 98.2557 911.449 492.635
1908 0 66.0783 13.7867 911 98.8869 912.084 491.554
1909 0 68.0679 14.0007 953 98.469 911.788 491.526
1910 0 72.1394 13.9591 1007 97.7924 911.087 489.977
1911 0 72.0526 14.0453 1012 98.6255 911.095 488.869
1912 0 74.0916 13.9152 1031 99.582 911.014 487.807
1913 0 76.0591 13.5027 1027 100.979 911.14 485.357
1914 0 80.0519 13.7661 1102 99.9764 911.745 483.828
1915 0 83.0516 13.2327 1099 101.652 911.668 483.261
1916 1 43.0055 11.4636 493 102.156 911.795 502.444
1917 0 45.0389 11.3679 512 101.904 910.971 500.871
1918 0 47.0761 12.1718 573 97.1379 911.241 499.892
1919 0 47.0445 12.3287 580 101.322 911.228 500.364
1920 0 49.1342 12.2725 603 101.914 910.252 499.511
1921 0 50.0181 13.2952 665 100.335 912.099 498.165
1922 0 53.0556 13.6838 726 97.9532 911.51 498.041
1923 0 53.0319 12.6528 671 102.265 912.07 496.927
1924 0 56.0251 13.1905 739 99.6238 911.261 496.988
1925 0 55.0187 13.5772 747 100.581 911.727 496.542
1926 0 57.0449 13.726 783 99.9527 911.3 495.678
1927 0 59.0217 13.2663 783 99.6003 911.852 495.513
1928 0 62.0946 13.8015 857 97.9592 911.145 493.994
1929 0 62.0321 13.0255 808 100.585 910.917 492.772
1930 0 64.04 13.9132 891 97.688 911.145 492.067
1931 0 66.0499 13.5655 896 97.9152 910.877 491.52
1932 0 68.0693 14.0592 957 96.1964 910.468 489.764
1933 0 70.0757 14.2132 996 95.739 910.622 488.604
1934 0 73.0666 13.6177 995 96.7256 910.797 488.256
1935 0 75.0976 13.1562 988 98.2318 911.194 486.421
1936 0 75.072 13.7335 1031 99.5946 911.312 485.422
1937 0 78.046 13.3511 1042 99.6334 911.243 484.485
1938 0 81.0595 13.8664 1124 99.0694 911.191 483.678
1939 0 82.1848 13.3358 1096 101.823 911.282 482.494
1940 0 84.0946 13.4254 1129 101.463 911.443 480.577
1941 0 88.1436 13.9545 1230 99.5943 911.346 479.142
1942 0 88.1948 13.4022 1182 101.956 910.794 477.778
1943 0 91.1371 13.573 1237 100.634 911.191 477.065
1944 0 93.0717 13.0007 1210 101.783 911.772 474.758
1945 0 96.1033 13.0068 1250 99.916 910.817 472.107
1946 1 49.0472 10.4797 514 98.0156 910.605 494.086
1947 0 52.0518 10.9314 569 95.0246 911.23 493.779
1948 0 53.0573 11.3274 601 94.629 911.852 490.709
1949 0 53.0288 11.8426 628 86.3981 911.594 489.412
1950 0 55.0248 10.3953 572 90.8479 911.142 489.633
1951 0 61.1182 11.2242 686 87.6837 911.099 490.859
1952 0 60.0553 11.6559 700 88.3057 910.986 489.793
1953 0 65.0791 11.5859 754 87.7149 910.911 490.11
1954 0 68.0838 12.0734 822 88.556 910.734 487.569
1955 0 71.0807 12.0004 853 88.7819 911.086 488.939
1956 0 73.0512 11.3619 830 91.6217 911.423 486.346
1957 0 74.0447 11.8712 879 91.2969 911.046 484.973
1958 0 76.0501 12.3603 940 90.8681 910.558 483.354
1959 0 79.0594 12.0669 954 93.8344 910.176 483.919
1960 0 82.0401 12.3964 1017 92.824 909.951 482.843
1961 0 87.0638 12.531 1091 92.319 910.437 481.887
1962 0 88.045 12.664 1115 92.7803 910.443 481.651
1963 0 91.0271 12.5457 1142 93.7618 910.648 480.362
1964 0 95.0606 13.0338 1239 92.2793 910.246 477.395
1965 0 97.1082 12.9443 1257 93.1408 910.714 475.562
1966 0 99.0331 12.6422 1252 94.6422 910.684 473.308
1967 1 49.0603 9.90619 486 95.3683 910.728 497.973
1968 0 53.0592 11.0443 586 95.6775 911.348 498.174
1969 0 54.0478 11.5453 624 92.4022 910.665 496.396
1970 0 57.0284 12.5201 714 97.3235 911.374 496.669
1971 0 57.0137 12.1901 695 98.7036 911.761 496.081
1972 0 59.0354 12.8228 757 97.4042 911.736 496.486
1973 0 61.047 12.7934 781 99.0115 910.782 494.164
1974 0 64.0325 12.9465 829 97.9686 911.095 494.425
1975 0 73.026 16.2956 1190 81.9487 910.504 489.789
1976 0 72.0952 15.5905 1124 86.4199 910.654 490.901
1977 0 71.0642 13.7904 980 93.4745 910.766 491.769
1978 0 74.0144 13.673 1012 93.1769 910.422 490.501
1979 0 76.0532 13.8587 1054 93.9269 909.756 489.606
1980 0 78.0476 14.0043 1093 93.3806 910.696 488.249
1981 0 77.0364 14.0713 1084 93.7592 910.417 488.649
1982 0 82.0558 14.1611 1162 92.5189 911.236 486.05
1983 0 84.0804 13.9985 1177 92.6746 911.189 483.688
1984 0 87.0578 14.5535 1267 91.3283 911.145 482.547
1985 0 89.0422 14.2292 1267 91.2163 911.03 481.435
1986 0 93.0494 14.0033 1303 91.1297 911.171 480.307
1987 0 94.0808 14.2962 1345 91.2989 911.165 478.425
1988 0 94.0561 13.6195 1281 93.0109 910.86 477.973
1989 0 96.0544 14.0754 1352 91.8632 910.304 476.141
1990 0 100.076 14.0993 1411 90.4876 910.493 476.488
1991 0 102.091 12.9493 1322 93.649 910.161 477.482
1992 0 101.052 12.6568 1279 95.853 909.938 473.82
1993 0 106.106 13.2226 1403 93.7185 910.463 474.312
1994 0 109.123 13.4161 1464 92.8135 910.109 472.073
1995 0 110.128 13.1484 1448 94.5186 910.448 469.945
1996 0 115.203 13.5761 1564 93.0339 910.22 468.45
1997 0 116.177 12.9888 1509 95.7276 910.539 465.447
1998 0 121.084 13.3048 1611 94.4966 910.834 465.531
1999 0 123.209 13.2539 1633 95.7397 911.007 462.562
2000 0 123.234 13.2188 1629 164.864 911.002 462.47
2001 0 130.242 13.1141 1708 96.3607 910.529 456.05
2002 0 133.116 13.7099 1825 95.937 909.701 453.178
2003 0 139.169 14.2489 1983 94.6016 910.334 451.232
2004 0 141.124 13.9027 1962 95.8231 910.061 448.326
2005 0 146.204 14.042 2053 95.7487 909.922 445.583
2006 0 151.262 13.9427 2109 96.9943 909.929 444.819
2007 0 155.353 14.8114 2301 95.9144 909.586 439.242
2008 0 160.188 14.7327 2360 97.1784 910.089 438.308
2009 0 161.184 14.3004 2305 99.4503 910.679 433.542
2010 0 166.146 13.1331 2182 103.964 910.048 434.423
2011 0 170.186 12.786 2176 105.582 910.464 433.569
2012 0 175.213 13.5321 2371 105.286 910.263 427.431
2013 0 181.182 13.3512 2419 105.976 909.829 425.346
2014 0 184.226 13.6246 2510 105.712 909.36 424.217
2015 0 191.274 14.3459 2744 104.34 909.508 420.407
2016 0 194.305 14.5904 2835 105.488 910.095 416.16
2017 0 197.392 14.4484 2852 105.945 909.96 414.552
2018 0 204.203 14.8921 3041 104.886 910.034 413.949
2019 0 209.189 15.3497 3211 103.254 909.534 409.836
2020 0 211.145 15.0228 3172 104.928 909.011 406.817
2021 0 215.224 15.1517 3261 105.027 909.238 403.483
2022 0 223.325 15.1841 3391 104.468 909.228 401.976
2023 0 227.302 15.0329 3417 104.904 908.841 399.329
2024 0 230.24 14.9149 3434 105.426 909.556 393.038
2025 0 237.472 15.0291 3569 104.77 909.565 391.801
2026 0 245.474 15.3499 3768 102.903 910.017 390.013
2027 0 251.307 15.6263 3927 101.839 909.632 388.626
2028 0 258.369 15.1295 3909 102.874 909.299 384.619
2029 0 263.347 14.1107 3716 106.191 909.738 382.395
2030 0 271.361 14.3388 3891 106.313 909.935 379.557
2031 0 275.341 14.3531 3952 108.48 909.914 375.537
2032 0 280.484 16.4466 4613 102.101 909.88 369.194
2033 0 286.366 14.3244 4102 109.292 909.986 370.577
2034 0 293.444 16.0507 4710 103.434 909.485 365.908
2035 0 298.379 15.9026 4745 104.044 909.4 364.168
2036 0 303.372 15.8221 4800 105.244 909.028 361.062
2037 0 311.369 16.0517 4998 103.591 908.524 357.559
2038 0 317.352 15.4434 4901 106.157 909.681 355.524
2039 0 322.388 15.7016 5062 106.041 909.519 348.34
2040 0 329.396 15.8745 5229 105.534 908.74 346.154
2041 0 338.291 15.998 5412 105.009 909.688 342.642
2042 0 345.366 16.1973 5594 104.514 909.089 341.47
2043 0 348.505 15.3427 5347 108.461 908.875 338.58
2044 0 356.414 16.0684 5727 105.87 909.415 332.025
2045 0 366.473 16.6806 6113 103.542 909.615 332.375
2046 0 373.406 16.3174 6093 104.776 909.055 327.511
2047 0 377.413 15.8924 5998 105.936 908.879 325.157
2048 0 384.387 15.9579 6134 105.391 909.016 322.575
2049 0 387.404 14.876 5763 109.048 909.492 318.612
2050 0 394.382 16.271 6417 103.678 909.756 315.445
2051 0 398.407 15.9987 6374 105.016 909.382 309.433
2052 0 399.451 16.3124 6516 104.332 909.564 301.329
2053 0 403.293 16.9008 6816 103.143 908.687 302.858
2054 0 407.35 17.0934 6963 103.533 909.428 305.162
2055 0 406.366 16.5663 6732 105.614 909.144 304.326
2056 0 404.436 16.3858 6627 106.648 909.881 302.149
2057 0 402.489 15.7992 6359 107.84 909.995 299.79
2058 0 405.644 17.2787 7009 103.563 910.164 301.918
2059 0 403.508 16.9736 6849 103.637 909.637 300.113
2060 0 403.582 16.532 6672 105.163 909.468 299.407
2061 0 407.525 16.6076 6768 105.394 910.302 300.067
2062 0 409.478 16.9508 6941 103.822 910.429 300.811
2063 0 409.503 17.0475 6981 103.768 909.996 300.735
2064 0 408.376 16.5779 6770 104.587 910.505 300.829
2065 0 408.372 16.6344 6793 104.288 910.251 299.788
2066 0 407.341 17.0348 6939 100.33 910.029 298.437
2067 0 410.631 17.8725 7339 98.5623 909.177 301.037
2068 0 410.655 17.7351 7283 99.6073 909.134 297.311
2069 0 410.564 17.476 7175 98.7744 909.284 301.494
2070 0 409.627 17.5135 7174 97.5696 909.182 300.868
2071 0 405.738 15.9068 6454 100.783 909.069 296.757
2072 0 407.632 17.0963 6969 96.8483 908.839 298.79
2073 0 406.724 16.719 6800 97.0052 908.649 298.48
2074 0 404.886 16.454 6662 97.0222 908.754 297.565
2075 0 405.101 16.2774 6594 97.1113 908.743 298.643
2076 0 406.254 17.0189 6914 96.9096 908.65 292.395
2077 0 406.227 15.5184 6304 97.9875 909.107 299.568
2078 0 409.336 16.5903 6791 94.082 908.632 301.568
2079 0 408.055 16.3164 6658 94.1805 908.624 301.76
