time division length width area intensity CMx CMy
0 0 43.0277 13.0846 563 135.885 98.3552 503.128
1 0 43.0212 12.2963 529 136.977 98.707 502.223
2 0 45.0213 12.5274 564 132.546 98.7855 502.495
3 0 47.0662 12.578 592 128.375 98.2804 502.426
4 0 48.0336 12.2414 588 126.405 98.648 501.553
5 0 50.0158 12.576 629 121.396 98.7202 500.572
6 0 50.0261 12.5934 630 120.698 98.3825 499.721
7 0 52.0131 12.0547 627 118.668 99.0925 501.108
8 0 55.0569 13.0592 719 113.65 98.8498 498.951
9 0 57.0256 12.6259 720 110.932 98.8542 499.521
10 0 58.0625 13.0721 759 111.219 98.4506 498.507
11 0 60.047 13.0564 784 109.188 98.1837 496.148
12 0 60.0492 12.7062 763 109.644 99.1206 496.385
13 0 63.0553 12.7666 805 108.837 98.7528 495.006
14 0 65.0401 13.2226 860 106.53 98.2895 494.891
15 0 67.0561 12.5716 843 108.115 98.0664 493.384
16 0 70.0401 13.1782 923 106.323 98.7876 492.301
17 0 73.0519 12.9908 949 106.615 97.7208 490.606
18 0 75.0943 12.6774 952 105.409 97.2668 490.909
19 0 78.0774 13.7684 1075 102.22 97.3684 489.056
20 0 80.0867 12.9984 1041 104.803 97.145 488.65
21 0 81.0776 13.8386 1122 103.775 96.3904 487.439
22 0 85.0838 13.0577 1111 104.653 96.7642 485.767
23 0 89.0721 13.4947 1202 101.68 97.0524 483.971
24 0 93.0592 14.1738 1319 101.252 97.4056 481.832
25 0 93.1685 13.0624 1217 103.611 98.0698 479.89
26 0 99.1163 13.9533 1383 102.356 97.6905 478.067
27 0 101.142 13.3773 1353 105.091 97.1567 475.572
28 1 52.0537 11.2576 586 98.6024 96.645 502.92
29 0 53.0178 11.996 636 97.1808 96.1682 501.653
30 0 57.135 12.4442 711 97.1871 96.3361 499.546
31 0 59.0489 13.3449 788 97.467 97.7779 497.665
32 0 58.0145 12.7554 740 97.2027 96.9108 499.528
33 0 63.0433 12.5152 789 95.6274 96.7199 497.199
34 0 63.0371 12.9448 816 96.6238 96.5674 495.748
35 0 66.0266 12.5707 830 95.9301 97.3434 496.508
36 0 68.0488 12.7996 871 95.8599 97.3548 495.538
37 0 71.047 12.6817 901 95.8812 97.0444 491.895
38 0 73.0822 13.4232 981 93.2528 96.5148 491.601
39 0 75.0894 13.2775 997 93.6991 96.3551 489.606
40 0 80.0766 13.2998 1065 92.2629 96.2892 488.076
41 0 83.1142 13.5236 1124 91.6005 96.105 487.5
42 0 84.0375 13.0775 1099 94.7598 96.5632 486.633
43 0 88.0772 13.42 1182 92.9594 95.9805 484.485
44 0 91.1576 13.3505 1217 92.3878 96.5456 479.959
45 0 94.1509 13.011 1225 93.7624 96.4661 478.832
46 0 96.1967 13.2957 1279 92.9875 96.5504 478.611
47 0 99.1536 12.6067 1250 93.8784 96.6808 477.019
48 0 102.145 12.776 1305 93.5058 96.741 473.021
49 0 107.105 13.4447 1440 90.4188 95.7375 473.553
50 0 111.102 12.7991 1422 91.8305 95.628 471.395
51 1 60.0897 10.4843 630 88.0635 95.4095 497.619
52 0 63.0993 12.2505 773 84.3066 95.5382 495.724
53 0 64.0866 12.1242 777 85.1158 95.9112 495.344
54 0 65.0494 12.2061 794 85.107 96 494.264
55 0 69.0808 12.0439 832 85.9447 96.5337 492.835
56 0 71.11 12.4877 888 85.134 96.3671 491.464
57 0 72.1431 12.6277 911 86.7914 96.0088 489.565
58 0 76.0616 12.9106 982 85.8432 96.7159 490.481
59 0 76.0778 12.5135 952 88.583 97.0336 489.45
60 0 79.0751 12.1404 960 89.876 96.3792 488.928
61 0 82.11 13.0069 1068 90.1198 96.0637 486.063
62 0 85.0364 13.2061 1123 89.7631 96.1665 485.402
63 0 87.065 13.4957 1175 88.8945 95.966 483.876
64 0 88.1086 12.7683 1125 92.8142 96.1849 481.788
65 0 94.2471 13.0084 1226 90.0375 96.9388 482.091
66 1 46.0631 11.3106 521 88.7927 95.9885 506.445
67 0 47.1127 11.4831 541 90.2643 95.8004 504.773
68 0 48.1222 11.5331 555 89.3604 94.8108 503.007
69 0 49.1242 12.7229 625 86.0608 94.8832 501.603
70 0 51.1383 12.476 638 87.8009 94.9812 501.723
71 0 54.0523 12.7284 688 89.5887 95.2515 502.092
72 0 55.0394 12.7182 700 85.4914 95.2743 501.853
73 0 52.0173 11.6307 605 91.2413 96.481 502.162
74 0 54.0266 12.3643 668 89.6213 96.2081 501.045
75 0 57.0111 11.6469 664 92.1626 96.7139 499.971
76 0 59.0294 12.0957 714 89.9636 96.2787 499.755
77 0 60.0271 11.3282 680 90.7529 96.5603 498.547
78 0 61.0145 11.7841 719 91.4673 96.7942 497.305
79 0 64.0358 11.7903 755 91.1298 96.5748 495.515
80 0 67.0411 12.1269 813 89.6851 96.9914 494.26
81 0 70.0359 12.3794 867 89.0012 96.8547 493.925
82 0 71.0596 12.6795 901 89.6149 97.0056 492.192
83 0 72.0348 12.4245 895 89.6715 96.1832 490.782
84 0 74.0783 12.3383 914 90.3873 96.9289 489.922
85 0 80.0926 12.3982 993 89.6808 96.6636 489.838
86 0 81.0701 12.5817 1020 88.6608 97.0216 487.973
87 0 82.0458 12.5174 1027 90.3359 96.9075 487.228
88 0 85.1323 12.5217 1066 89.47 97.2036 484.796
89 0 87.0568 12.4746 1086 90.0654 96.396 483.325
90 0 90.0321 13.0287 1173 88.3274 97.9795 484.223
91 0 92.0506 12.8951 1187 89.3311 97.2342 482.836
92 0 97.1476 13.8964 1350 85.9415 97.2778 479.491
93 0 103.079 13.7467 1417 94.2788 97.1362 477.507
94 0 105.068 13.5911 1428 96.5 97.1071 473.937
95 0 107.099 12.7359 1364 98.948 96.6723 472.391
96 0 111.113 13.7427 1527 94.5802 96.1572 472.817
97 0 113.055 13.2944 1503 93.2242 95.6507 471.335
98 0 117.05 13.0542 1528 95.3763 95.8181 469.794
99 1 63.0861 11.3496 716 93.4036 96.7081 496.158
100 0 64.0341 11.3377 726 91.9793 96.8719 497.113
101 0 67.0238 12.0256 806 88.2258 96.5062 495.144
102 0 69.0279 11.6764 806 91.1241 96.0782 492.834
103 0 71.0343 12.6277 897 88.5886 96.8239 490.028
104 0 71.0408 12.6688 900 86.4367 95.8878 490.114
105 0 73.0439 11.7327 857 89.6814 96.3664 490.317
106 0 76.0744 12.146 924 88.6732 96.8615 489.87
107 0 80.1095 12.9323 1036 87.5695 96.4981 488.937
108 0 82.0628 13.3922 1099 87.8116 96.0637 487.427
109 0 84.0741 13.1075 1102 89.1851 95.2241 486.015
110 0 86.0788 13.3715 1151 90.2129 96.2276 483.626
111 0 91.0539 13.0582 1189 87.0723 96.1413 482.874
112 0 91.0666 12.5073 1139 88.9447 95.6313 482.319
113 0 95.0862 13.3142 1266 87.6872 94.9771 480.542
114 0 96.0402 13.3798 1285 87.5113 95.6778 479.833
115 0 100.07 13.2307 1324 88.432 95.2213 477.908
116 0 102.049 12.9546 1322 89.8169 95.2799 476.968
117 0 108.079 13.7677 1488 88.3616 95.881 475.913
118 0 110.051 12.7668 1405 88.9495 94.4463 471.224
119 0 114.186 12.7511 1456 84.8839 95.2363 465.126
120 1 56.0716 10.6471 597 85.8291 94.9196 493.487
121 0 58.0437 11.2329 652 84.3144 95.3589 493.893
122 0 59.0892 11.1188 657 85.5175 95.5251 491.228
123 0 62.0699 12.1959 757 86.7834 95.1136 497.086
124 0 62.0347 11.7193 727 88.9037 95.4594 496.303
125 0 66.0291 12.4339 821 87.4872 95.3484 495.272
126 0 68.0786 12.2652 835 89.1736 94.1114 493.693
127 0 70.1003 12.582 882 88.9694 93.7902 493.035
128 0 71.0451 12.0065 853 93.4994 93.8839 491.612
129 0 74.0984 12.3484 915 93.471 94.7071 490.299
130 0 76.0335 12.0605 917 90.1516 93.7372 490.31
131 0 79.0333 11.9823 947 89.2196 95.0042 488.845
132 0 82.1223 11.7873 968 89.1684 95.2758 486.909
133 0 83.2006 11.7788 980 89.0296 95.4704 485.645
134 0 87.1666 11.8738 1035 88.1275 95.742 485.256
135 0 89.1746 11.9765 1068 85.8858 95.6039 483.424
136 0 92.1266 12.0486 1110 85.0775 94.8838 482.459
137 0 95.1122 12.4274 1182 83.8596 95.0702 480.409
138 0 97.2259 11.9207 1159 85.3978 94.7783 479.047
139 0 102.143 12.6196 1289 83.9977 94.8891 475.597
140 0 105.16 12.4192 1306 85.8783 95.4089 476.675
141 0 106.13 11.957 1269 89.275 94.8069 475.344
142 1 57.153 11.268 644 89.8618 96.2717 499.89
143 0 59.0853 11.4242 675 89.8015 96.243 497.553
144 0 61.1585 12.4921 764 90.5537 95.788 496.19
145 0 62.1693 11.533 717 84.3668 95.1939 497.324
146 0 64.0642 11.6602 747 83.3173 95.245 496.351
147 0 64.1678 11.766 755 90.8728 95.6185 496.348
148 0 66.1839 11.3018 748 94.5749 95.7393 493.971
149 0 69.1729 12.0712 835 92.8156 95.6347 493.187
150 0 71.1848 12.0391 857 94.2439 95.7106 492.116
151 0 74.2768 12.0899 898 95.2049 95.6893 490.96
152 0 75.1071 12.622 948 95.6308 95.6023 490.003
153 0 78.198 12.0336 941 94.9724 94.7226 489.42
154 0 79.2406 12.1402 962 95.8649 94.2588 488.35
155 0 80.1514 12.1021 970 97.432 94.4515 486.093
156 0 84.1964 11.8176 995 97.8261 94.8221 486.323
157 0 86.201 12.6101 1087 96.253 95.4508 484.848
158 0 88.1594 11.9102 1050 99.1229 95.0914 481.931
159 0 92.256 12.2594 1131 97.4421 95.0822 480.231
160 0 93.2182 12.0899 1127 98.9618 94.8474 479.268
161 0 96.1544 12.2511 1178 96.8209 94.5925 476.842
162 0 99.3153 11.7505 1167 96.4199 93.8955 475.452
163 0 103.249 12.3585 1276 94.7688 93.8511 473.002
164 0 109.387 13.3563 1461 88.9973 93.4648 471.872
165 0 111.416 13.2836 1480 89.4446 93.6818 468.245
166 0 115.45 13.3651 1543 88.8568 93.6222 466.174
167 0 116.61 12.4603 1453 93.4907 94.3056 465.054
168 0 117.131 11.3206 1326 90.9879 93.46 466.849
169 0 120.164 11.942 1435 90.5031 94.0502 465.751
170 0 125.127 12.3715 1548 91.2655 93.4276 464.037
171 0 130.181 12.1062 1576 90.8357 94.2862 460.811
172 0 135.258 11.7183 1585 92.0833 93.6997 458.926
173 0 138.27 12.3599 1709 91.1422 93.9503 456.138
174 0 144.255 11.9302 1721 94.2005 93.5206 452.995
175 0 148.23 12.2107 1810 96.0276 93.3238 450.746
176 0 152.263 13.0367 1985 96.2207 94.0725 447.785
177 0 159.226 13.0757 2082 95.8828 93.9462 445.14
178 0 160.291 11.242 1802 95.3169 94.2136 445.461
179 0 168.143 12.5667 2113 96.5343 94.1751 439.322
180 1 79.4187 10.7279 852 86.1408 94.4836 482.651
181 0 83.3272 11.4128 951 83.3712 94.6067 482.873
182 0 83.0823 11.3863 946 83.5465 93.2907 483.746
183 0 88.0921 11.3404 999 83.4484 92.8198 482.156
184 0 91.2064 11.2163 1023 94.8495 94.2649 480.173
185 0 93.2697 11.4078 1064 94.0188 93.7914 477.883
186 0 95.1145 10.7449 1022 92.6879 92.7955 476.617
187 0 98.0677 10.9924 1078 91.1623 92.975 477.382
188 0 100.084 10.5112 1052 90.0076 93.057 475.655
189 0 103.107 11.1534 1150 89.647 93.1783 472.776
190 0 107.064 10.6852 1144 87.514 93.2229 474.257
191 0 108.08 10.8438 1172 89.459 93.0478 469.574
192 0 113.083 11.1865 1265 88.204 93.1874 469.217
193 0 117.128 11.6369 1363 86.4938 92.6361 467.931
194 0 118.109 11.6418 1375 85.0553 93.1455 466.739
195 0 124.182 11.2738 1400 86.39 92.8871 465.471
196 0 126.196 11.2603 1421 87.2372 93.1351 463.593
197 0 131.233 11.11 1458 87.0268 92.9664 459.659
198 0 134.201 10.6258 1426 87.4053 92.6038 461.485
199 0 138.213 11.4317 1580 86.0747 92.7399 456.877
200 0 145.203 12.2105 1773 84.5488 93.1292 454.588
201 0 147.225 12.2262 1800 85.2011 93.1467 451.849
202 0 152.206 12.148 1849 108.532 93.7707 450.808
203 0 157.171 11.5861 1821 108.498 93.3136 450.065
204 0 160.347 12.4044 1989 106.907 94.369 445.698
205 0 167.22 12.1277 2028 107.405 94.1578 445.781
206 0 169.17 11.7988 1996 109.341 93.776 441.956
207 0 176.227 11.7916 2078 108.885 92.7411 442.837
208 0 181.154 13.4471 2436 104.688 92.8978 437.035
209 0 184.178 12.1024 2229 105.823 92.9426 433.896
210 0 192.25 12.7802 2457 102.389 92.7094 431.272
211 0 196.261 12.57 2467 104.031 93.2979 430.971
212 0 201.226 12.9357 2603 104.197 92.582 424.207
213 1 211.274 16.0928 3400 93.21 92.87 414.878
214 0 218.246 14.9556 3264 97.5135 92.7393 413.79
215 0 223.282 13.4673 3007 102.399 91.9608 415.603
216 1 255.5 18.3874 4698 83.3765 91.994 393.516
217 0 252.279 20.406 5148 80.5932 92.3347 386.666
218 0 256.583 19.8571 5095 81.2394 92.4634 385.977
219 0 257.316 17.2784 4446 88.9447 92.6727 385.275
220 0 264.31 16.1893 4279 91.8331 92.4735 387.341
221 0 269.359 14.3452 3864 98.7233 92.0761 385.385
222 1 57.074 9.05842 517 96.9768 91.7253 498.203
223 0 60.0599 10.2231 614 92.5961 91.4772 495.886
224 0 61.0357 9.79755 598 79.6839 94.2558 492.789
225 0 64.0772 11.1584 715 94.8769 94.5986 493.828
226 0 66.0549 11.2936 746 98.126 94.4115 491.791
227 0 69.0643 11.0766 765 97.7699 93.7346 491.825
228 0 71.0699 12.2415 870 94.1655 95.1529 489.001
229 0 74.0466 11.6683 864 93.4711 94.7384 489.645
230 0 73.0261 11.9135 870 94.1851 95.0839 488.185
231 0 76.0367 11.718 891 94.5791 94.018 487.899
232 0 78.0384 11.4687 895 94.3899 93.6603 488.07
233 0 81.0384 11.5748 938 93.0075 94.1119 485.614
234 0 85.056 11.757 1000 91.961 94.142 483.969
235 0 87.0811 11.9199 1038 93.1127 93.6397 484.642
236 0 88.1008 11.816 1041 95.8098 93.5668 481.565
237 0 93.0637 12.1422 1130 95.538 93.0513 481.303
238 0 96.0931 12.3422 1186 94.855 92.9165 479.42
239 1 51.0473 10.2258 522 92.3793 92.4291 502.238
240 0 51.0459 10.0694 514 95.2004 93.3502 500.288
241 0 52.0206 10.6112 552 94.6141 93.2717 500.252
242 0 55.0229 11.2862 621 90.8358 92.9452 499.591
243 0 54.0113 11.2199 606 84.1716 91.5545 500.238
244 0 56.078 11.4305 641 83.0328 91.2792 496.641
245 0 56.0468 10.9373 613 88.1077 92.8711 498.786
246 0 59.2642 11.4572 679 83.7791 91.7747 491.99
247 0 56.0359 10.0828 565 93.0407 92.1221 500.635
248 0 64.2101 11.8517 761 81.7806 90.979 494.725
249 0 60.1739 10.4697 630 88.3127 90.4381 496.852
250 0 62.0703 10.617 659 87.8042 91.0015 493.766
251 0 58.0843 8.59096 499 79.986 92.2224 486.477
252 0 62.1136 9.53092 592 76.6824 92.3108 488.728
253 0 62.1678 9.07223 564 76.2553 92.8812 488.791
254 0 62.1686 8.94342 556 77.5755 92.714 485.721
255 0 67.1021 10.1636 682 81.6804 92.7331 491.261
256 0 68.0526 10.727 730 86.7781 93.2699 491.41
257 0 70.1031 10.6129 744 86.8105 93.9933 492.013
258 0 72.0834 10.8208 780 84.5718 95.2859 489.951
259 0 74.0862 11.3516 841 83.082 94.8882 488.238
260 0 76.0744 10.3583 788 86.2754 93.3655 488.529
261 0 78.0485 10.5447 823 88.0231 94.4338 489.533
262 0 79.0351 10.8939 861 90.2892 94.0012 485.973
263 0 84.1246 11.5543 972 88.9774 94.4126 482.318
264 0 90.1123 12.3956 1117 85.5533 94.4252 481.94
265 0 90.092 12.01 1082 88.1081 95.1386 480.137
266 0 94.1257 12.2177 1150 88.0183 94.3044 479.003
267 0 95.1235 11.1644 1062 91.2928 94.4539 478.593
268 0 99.0711 11.9106 1180 90.7737 94.1356 476.368
269 0 101.121 11.2538 1138 92.1845 94.0923 476.802
270 0 106.062 11.9647 1269 89.5973 93.6336 473.524
271 0 107.14 11.6297 1246 89.996 93.1621 472.019
272 0 109.117 10.9424 1194 93.2655 92.6323 471.527
273 1 62.0765 11.0348 685 89.8599 93.1124 495.226
274 0 64.0574 11.1775 716 88.2807 93.0265 494.179
275 0 57.0308 10.2225 583 83.0343 94.2624 486.038
276 0 61.0998 10.622 649 81.7781 94.0786 495.476
277 0 64.071 10.8161 693 81.4084 94.3117 493.195
278 0 67.0863 10.7026 718 80.7089 94.4666 492.691
279 0 67.0358 10.5466 707 80.7892 93.6393 492.29
280 0 70.0666 10.7041 750 81.0547 93.7027 491.327
281 0 71.044 10.4161 740 82.0689 93.2554 488.593
282 0 73.0968 10.6845 781 82.6197 93.3854 488.382
283 0 76.0904 10.9606 834 82.8741 93.0252 487.205
284 0 78.0388 10.6357 830 82.3169 93.8446 485.56
285 0 81.0742 11.1749 906 81.9194 93.7185 483.446
286 0 84.1093 11.1759 940 83.0457 92.2915 483.246
287 0 87.0686 11.3474 988 84.0466 92.1275 481.345
288 0 90.0739 10.8911 981 84.2752 91.8379 479
289 0 94.0805 11.6921 1100 84.7591 91.9118 477.002
290 0 96.085 11.6668 1121 86.6896 92.7993 475.388
291 1 49.0526 9.84657 483 89.4017 91.7308 499.482
292 0 51.0374 10.0906 515 88.9301 91.6194 498.728
293 0 54.1051 10.7199 580 85.9414 92.1793 498.343
294 0 54.0463 11.0091 595 88.5597 91.4706 497.415
295 0 56.051 11.7215 657 89.3973 91.2664 496.335
296 0 58.0393 12.2675 712 89.6475 93.1166 495.636
297 0 58.0254 12.3739 718 89.9485 92.8301 495.77
298 0 59.0757 12.3232 728 89.8668 93.4437 495.938
299 0 60.03 11.6109 697 92.1406 93.9785 495.399
300 0 63.0356 12.1836 768 91.1484 93.6354 494.387
301 0 65.0775 12.754 830 89.641 93.7578 493.869
302 0 67.0184 12.2504 821 91.1949 93.3313 493.89
303 0 67.0115 12.6247 846 91.5615 93.1277 492.746
304 0 67.0376 11.0833 743 85.8654 92.7402 495.043
305 0 68.0616 11.519 784 86.3878 92.1543 492.398
306 0 72.0179 11.7749 848 86.0507 92.6344 492.513
307 0 74.0629 11.0312 817 87.3133 93.284 492.195
308 0 77.0621 12.3537 952 85.9097 92.9506 488.855
309 0 78.1039 11.7792 920 87.8163 93.0706 489.208
310 0 81.0394 12.4631 1010 86.3901 93.0198 487.428
311 0 82.0541 11.724 962 88.6809 94.0042 487.634
312 0 86.0809 12.0817 1040 87.9471 92.1933 487.026
313 0 89.0887 11.887 1059 88.628 92.9575 484.288
314 0 91.0715 12.331 1123 88.4755 92.935 484.765
315 0 93.0704 11.8405 1102 89.2423 93.2613 483.24
316 0 96.0589 12.7005 1220 88.2697 92.8893 481.822
317 0 98.0614 11.7477 1152 89.5469 93.9045 481.172
318 1 51.0374 10.6784 545 88.4495 93.2789 503.539
319 0 53.037 11.0677 587 88.4651 93.2146 503.463
320 0 54.0218 11.9026 643 88.2131 93.2597 503.74
321 0 56.0389 11.492 644 88.8727 92.4752 503.154
322 0 57.0213 11.8201 674 87.9243 92.2685 502.042
323 0 55.0142 11.0335 607 89.0428 91.9358 502.956
324 0 56.0727 11.7883 661 86.8578 91.4539 501.303
325 0 60.0348 11.4267 686 86.4577 91.293 501.805
326 0 58.089 10.9659 637 89.3642 91.0644 501.011
327 0 60.0585 11.3889 684 89.8363 91.5015 499.17
328 0 65.0135 11.936 776 87.1134 91.7513 499.331
329 0 67.0724 11.6292 780 87.082 91.468 498.368
330 0 67.046 11.246 754 90.9151 90.8355 498.196
331 0 68.0557 11.0645 753 92.4382 91.1155 495.564
332 0 72.0531 11.2556 811 91.6572 90.5216 493.528
333 0 75.0568 10.8718 816 93.2279 90.185 492.045
334 0 76.0492 11.532 877 93.2463 89.9099 491.751
335 0 80.0508 11.78 943 93.5048 89.9841 490.734
336 0 83.101 11.48 954 93.5964 90.1111 488.309
337 0 86.0682 11.8975 1024 93.249 90.7246 485.792
338 1 45.0264 10.1274 456 92.7127 89.5307 506.939
339 0 47.0282 10.5894 498 91.1345 88.8112 506.978
340 0 48.0246 10.807 519 90.6628 88.5626 506.617
341 0 49.0466 11.0507 542 86.4207 89.3653 506.816
342 0 51.0299 11.7186 598 83.4548 88.7191 506.192
343 0 51.0163 11.6629 595 84.6 88.5563 506.024
344 0 53.0716 11.6635 619 83.475 88.7221 504.745
345 0 54.0166 11.515 622 84.2974 88.2942 505.047
346 0 56.052 11.5072 645 83.9442 88.4698 503.874
347 0 55.0397 11.41 628 83.8408 88.2309 503.475
348 0 58.1553 11.3145 658 84.459 87.8754 502.654
349 0 58.056 12.0918 702 82.4544 88.5456 501.59
350 0 61.0649 11.8399 723 82.0055 88.7524 501.469
351 0 64.063 12.4409 797 81.542 88.7102 500.053
352 0 66.1132 12.1156 801 83.5705 88.5119 498.99
353 0 68.0978 12.5701 856 83.9544 88.4895 498.128
354 0 69.0668 12.1332 838 87.1516 88.568 497.314
355 0 72.0779 12.8333 925 87.2908 88.827 495.947
356 0 73.0742 12.0289 879 93.2582 88.2025 494.465
357 0 77.1247 12.7456 983 88.0671 88.5015 494.477
358 0 77.0385 11.8382 912 93.2829 88.4046 491.571
359 0 78.0852 12.2815 959 95.5256 88.9781 491.942
360 0 80.0892 12.3612 990 96.6333 89.1515 491.54
361 0 82.1448 12.6606 1040 98.0279 88.9529 489.857
362 0 85.0929 12.3159 1048 96.8397 88.9284 489.136
363 0 89.0673 12.732 1134 90.2416 89.4383 488.37
364 0 91.0902 12.8334 1169 95.2387 89.7742 486.67
365 0 94.1022 13.9423 1312 94.8346 90.205 485.939
366 0 96.1363 13.252 1274 108.781 89.5675 483.484
367 0 101.109 13.4804 1363 106.957 89.7153 482.245
368 0 104.07 13.5197 1407 106.832 90.091 478.962
369 0 108.091 13.0816 1414 107.8 89.7567 479.073
370 1 56.0082 11.0162 617 100.995 89.8493 504.796
371 0 57.0289 10.6437 607 94.9654 90.3773 503.282
372 0 58.0217 11.2199 651 99.8372 89.914 502.748
373 0 59.0659 11.7665 695 93.3957 91.3583 500.968
374 0 63.0701 12.6684 799 103.73 91.2791 499.632
375 0 61.0401 11.943 729 98.4595 91.7106 500.974
376 0 65.0556 12.6046 820 97.3427 90.3427 499.512
377 0 67.0833 12.0447 808 99.6683 90.4852 498.619
378 0 68.0431 11.9777 815 100.883 90.681 497.578
379 0 70.0187 12.4252 870 100.42 90.6966 496.157
380 0 72.0555 12.7541 919 101.188 90.7084 494.986
381 0 72.0414 12.4928 900 103.226 90.58 494.066
382 0 77.0588 13.4702 1038 100.856 91.1541 491.968
383 0 79.0431 13.1574 1040 103.912 91.0413 492.237
384 0 80.0154 13.11 1049 105.007 91.3527 490.42
385 0 83.0669 13.146 1092 104.438 90.707 488.8
386 0 85.0302 13.1953 1122 105.59 91.2032 488.758
387 0 88.0707 12.8533 1132 107.385 90.1078 485.711
388 0 91.0552 13.7389 1251 104.246 91.0903 484.432
389 0 92.0421 12.9071 1188 108.947 91.1616 482.532
390 0 97.0522 13.4773 1308 107.854 91.2615 481.627
391 0 100.1 13.5265 1354 107.651 90.8065 479.974
392 0 103.078 12.9901 1339 109.711 91.2845 477.71
393 0 105.05 13.0986 1376 110.174 91.25 475.94
394 0 110.134 13.4472 1481 109.924 91.2998 475.194
395 0 114.093 13.9535 1592 107.226 91.3329 474.271
396 1 64.0659 11.9564 766 111.89 90.9308 497.856
397 0 65.0362 12.7314 828 106.483 90.343 496.914
398 0 66.0361 12.5386 828 105.316 91.0809 496.43
399 0 66.0496 12.642 835 106.502 91.1832 495.388
400 0 70.0305 12.2518 858 99.4441 91.7203 493.255
401 0 72.069 12.5852 907 98.8258 92.064 493.828
402 0 72.0842 11.7501 847 105.942 91.5455 492.593
403 0 74.0345 11.8323 876 105.337 91.3493 491.978
404 0 78.0663 12.5662 981 103.28 92.4394 492.744
405 0 78.0862 11.5001 898 107.594 92.3886 491.078
406 0 82.0534 11.785 967 106.875 92.2017 489.408
407 0 85.0841 12.4465 1059 104.464 92.6525 488.23
408 0 86.0664 12.1418 1045 105.613 92.6727 487.261
409 0 89.077 11.8998 1060 106.975 92.0245 485.14
410 0 94.041 12.1224 1140 104.157 91.8368 484.449
411 0 98.1066 12.8941 1265 101.29 91.1881 483.167
412 0 98.1629 12.0514 1183 105.378 91.4041 481.18
413 1 51.1377 11.2833 577 104.258 91.8752 504.028
414 0 52.0418 11.2986 588 105.274 91.869 503.418
415 0 54.0218 11.9211 644 110.255 92.5047 501.29
416 0 56.0369 12.813 718 105.075 91.5042 501.308
417 0 57.0233 12.4861 712 98.1348 90.6011 500.813
418 0 57.0845 12.4377 710 99.3408 90.5408 501.425
419 0 61.0088 13.1129 800 95.7562 90.2712 500.602
420 0 62.0382 12.7341 790 96.8443 90.7329 498.595
421 0 61.0459 12.2039 745 99.1141 90.7087 498.384
422 0 66.0496 12.097 799 96.8135 89.9787 497.074
423 0 68.0725 12.6483 861 95.6016 90.6005 495.456
424 0 70.1137 13.1929 925 95.0843 90.0865 494.627
425 0 72.0781 12.9582 934 97.0878 90.06 493.196
426 0 74.0717 12.6499 937 98.9264 90.1462 492.207
427 0 76.0528 12.9647 986 100.632 89.925 491.329
428 0 78.1214 12.583 983 102.015 90.3235 491.516
429 0 79.2109 12.7634 1011 100.047 90.2552 489.444
430 0 81.1307 12.0793 980 102.77 90.1122 489.833
431 0 85.0972 13.3965 1140 97.5456 90.4605 489.17
432 0 85.0997 12.3972 1055 101.727 90.5554 486.472
433 0 90.1882 12.5959 1136 103.284 90.9754 485.137
434 0 92.1201 12.5597 1157 107.228 90.6629 485.731
435 0 93.0843 12.6015 1173 107.187 90.7127 485.38
436 1 50.091 11.7187 587 110.3 90.063 505.6
437 0 53.0528 11.8184 627 108.115 89.3046 504.938
438 0 54.0757 12.5195 677 97.4417 89.6617 503.171
439 0 54.0712 12.5945 681 98.8032 89.9912 504.166
440 0 58.0604 12.9865 754 94.3647 90.2228 502.416
441 0 59.0812 12.4236 734 94.3965 89.9728 502.638
442 0 58.1012 12.6331 734 93.7888 90.812 501.409
443 0 62.0503 12.1192 752 92.6689 90.3418 499.783
444 0 61.0677 11.8393 723 94.2697 89.769 497.971
445 0 63.069 12.2088 770 94.1961 89.661 498.312
446 0 64.1152 12.0876 775 94.1187 89.831 498.163
447 0 66.0837 12.0302 795 93.6943 90.2931 496.27
448 0 69.0538 12.2948 849 91.1355 90.0318 495.886
449 0 70.1021 12.1394 851 91.4971 90.0106 494.9
450 0 72.142 12.0457 869 91.3003 89.9356 495.413
451 0 76.0995 12.4048 944 90.3676 90.4809 492.53
452 1 38.0713 10.8743 414 95.442 89.6667 511.15
453 0 40.0202 10.3198 413 97.046 89.54 512.024
454 0 39.0316 11.0167 430 99.7674 89.2907 510.067
455 0 42.0474 11.3919 479 95.0522 90.5052 509.374
456 0 42.1133 12.2052 514 94.1829 91.2023 508.984
457 0 43.1022 12.1571 524 93.9733 91.7443 507.231
458 0 46.1525 12.1337 560 93.75 91.3643 506.243
459 0 48.0401 12.4063 596 92.4614 91.8356 506.649
460 0 49.0179 12.3628 606 92.3845 91.2508 506.535
461 0 49.0388 12.3372 605 94.5074 90.4678 504.26
462 0 50.006 12.0985 605 96.6215 90.4545 504.474
463 0 50.175 12.4564 625 96.2144 90.6352 503.893
464 0 52.1649 12.8631 671 98.8748 90.9359 503.437
465 0 52.1291 12.9486 675 99.44 90.6696 503.667
466 0 54.0454 13.1926 713 98.6031 91.1585 503.868
467 0 57.085 13.2784 758 96.8377 91.1055 503.512
468 0 58.0389 12.5778 730 99.1904 89.9808 502.273
469 0 61.0574 13.6756 835 95.2455 91.309 500.017
470 0 61.1086 13.4842 824 96.0158 91.71 499.534
471 0 63.1258 13.782 870 94.5885 90.9632 499.561
472 0 65.0599 13.8027 898 96.4254 90.1292 496.909
473 0 66.1242 13.5654 897 97.6388 91.2497 497.902
474 0 68.1346 13.033 888 99.6284 89.9471 496.541
475 0 72.1929 13.4362 970 97.899 91.3629 495.332
476 0 72.0906 13.8853 1001 98.1109 90.6244 494.8
477 1 38.1485 12.6348 482 108.801 91.0477 509.203
478 0 39.0359 12.5782 491 108.035 90.4033 510.033
479 0 41.0695 13.538 556 104.46 90.5018 509.119
480 0 41.0091 13.241 543 101.182 90.6593 510.532
481 0 42.0122 13.139 552 103.225 90.4909 508.73
482 0 42.0175 13.3278 560 103.83 90.2393 509.479
483 0 45.021 13.527 609 101.488 89.9261 508.731
484 0 46.0137 13.5829 625 102.922 90.0208 508.11
485 0 46.0201 14.1894 653 101.213 90.3614 507.683
486 0 49.0394 13.3362 654 101.766 90.7691 506.067
487 0 51.028 14.0119 715 99.9944 91.2769 506.397
488 0 50.0196 14.0345 702 101.838 91.3689 504.761
489 0 51.0365 13.5981 694 102.434 91.5836 505.856
490 0 51.0258 13.9341 711 106.591 90.3418 505.163
491 0 55.0841 14.1602 780 103.629 90.4974 504.418
492 0 56.0129 14.4074 807 103.831 90.4746 504.652
493 0 58.0205 14.064 816 106.154 91.0564 503.201
494 0 59.0147 14.2337 840 105.557 90.9345 502.437
495 0 60.03 14.3428 861 106.618 90.4274 501.142
496 0 63.0262 15.2318 960 103.767 89.9417 501.088
497 0 63.0774 14.9499 943 109.163 90.6946 500.504
498 0 67.0422 15.0502 1009 109.537 90.7017 500.104
499 0 65.0364 14.2382 926 118.249 90.7181 500.703
500 0 66.0724 13.5306 894 122.388 90.2774 499.661
501 0 69.042 13.499 932 122.822 90.0182 499.383
502 0 70.0402 13.8635 971 123.997 89.8568 497.956
503 0 72.0365 13.8263 996 124.152 89.8474 496.936
504 0 74.0921 14.1581 1049 122.515 90.1268 496.807
505 0 77.0499 14.0429 1082 120.183 90.0203 495.7
506 0 78.0907 13.8429 1081 114.056 90.3164 492.804
507 0 81.0652 13.6433 1106 114.828 89.9864 491.285
508 0 85.1326 13.8372 1178 115.665 89.7912 490.579
509 0 88.1521 13.6922 1207 116.716 90.0348 488.792
510 0 91.0838 13.7456 1252 116.982 90.6478 488.16
511 1 44.0467 11.8284 521 119.979 89.7447 509.887
512 0 47.0215 11.8882 559 118.161 89.8157 506.75
513 0 52.1008 12.9748 676 119.493 89.2056 503.05
514 0 52.0386 13.2017 687 120.066 89.9316 502.575
515 0 55.0552 13.1686 725 117.428 89.5959 504.687
516 0 55.0172 13.414 738 117.828 89.8875 501.992
517 0 56.0412 13.1154 735 117.814 89.6544 502.324
518 0 60.05 13.5554 814 110.779 89.8366 500.966
519 0 62.0833 13.0953 813 112.621 90.0627 503.536
520 0 65.1635 13.2129 861 111.775 90.0639 501.655
521 0 67.0629 12.8536 862 112.326 89.7355 500.993
522 0 68.0854 13.1159 893 115.832 89.8376 498.99
523 0 70.0434 13.2061 925 114.123 89.8259 498.475
524 0 71.1024 12.5594 893 116.853 90.0011 496.657
525 0 76.0914 13.5758 1033 114.523 90.4376 496.316
526 0 77.0721 13.0527 1006 118.847 89.9324 493.954
527 0 79.083 14.2382 1126 115.844 89.9627 492.617
528 0 82.0606 13.3438 1095 117.563 89.4913 491.905
529 0 84.1388 13.9056 1170 116.029 89.3496 489.976
530 0 87.1637 14.0425 1224 116.124 88.7753 488.024
531 0 88.1381 13.1839 1162 119.002 88.7005 487.664
532 0 92.2169 13.1104 1209 118.626 89.4872 486.316
533 0 96.257 14.0353 1351 114.585 89.2628 486.541
534 0 98.1006 13.0784 1283 116.037 89.7872 483.723
535 0 101.134 13.6651 1382 114.451 89.3654 483.122
536 0 104.175 12.9877 1353 116.276 89.2217 481.345
537 0 108.213 13.0206 1409 115.762 88.7225 479.577
538 0 111.173 13.2856 1477 113.392 88.3805 476.985
539 0 114.189 13.0923 1495 115.066 88.4555 475.142
540 0 119.19 13.6002 1621 112.262 88.3911 473.972
541 0 122.242 13.1133 1603 112.132 89.2371 470.823
542 0 126.202 13.5893 1715 110.887 89.2093 470.287
543 0 131.329 14.0411 1844 110.725 88.8265 467.993
544 0 136.234 14.8274 2020 107.688 88.4352 467.331
545 0 140.214 14.6276 2051 110.738 88.8323 465.271
546 0 144.274 15.0686 2174 110.675 89.0225 462.811
547 0 148.281 14.776 2191 111.169 89.3418 459.631
548 0 152.281 14.7359 2244 112.212 89.2161 456.994
549 0 154.15 14.687 2264 112.935 88.7072 456.981
550 0 160.222 14.4861 2321 112.431 88.9341 455.239
551 0 164.284 13.641 2241 114.825 89.1156 453.007
552 0 168.258 13.5269 2276 115.556 89.6204 450.199
553 0 175.164 14.0611 2463 112.411 88.799 447.5
554 0 181.359 14.237 2582 111.477 89.139 445.99
555 0 188.274 14.5798 2745 111.354 88.812 442.077
556 0 195.349 14.2104 2776 112.117 89.505 438.558
557 0 203.296 13.9452 2835 112.625 88.9795 434.814
558 0 210.374 14.3934 3028 110.475 88.216 432.342
559 0 216.298 15.0626 3258 108.994 87.6765 431.155
560 0 222.39 14.9018 3314 110.385 88.0422 427.448
561 0 232.379 14.8421 3449 111.904 88.1122 422.891
562 0 240.371 14.9394 3591 114.273 88.5439 419.992
563 0 249.239 13.806 3441 121.37 88.447 415.505
564 0 259.367 15.4376 4004 116.857 88.3302 410.124
565 1 211.451 14.216 3006 124.686 88.491 437.478
566 0 219.278 15.2637 3347 122.197 87.9803 433.179
567 0 227.414 14.8672 3381 127.423 88.5546 428.231
568 0 234.308 15.3047 3586 125.69 87.7398 422.846
569 0 242.271 15.4992 3755 123.742 87.8298 420.539
570 0 251.368 15.4196 3876 122.214 87.4814 414.778
571 0 257.408 14.9102 3838 122.068 88.0125 411.605
572 1 50.1886 13.0309 654 132.474 87.5535 511.099
573 0 53.2951 14.7481 786 128.386 88.9008 509.134
574 0 55.2135 14.3805 794 128.621 88.6662 508.419
575 0 55.2149 15.1589 837 129.835 87.7156 507.778
576 0 59.1723 14.4831 857 131.131 87.8401 505.922
577 0 60.2924 14.6951 886 132.752 87.8104 504.661
578 0 62.2461 15.5833 970 132.164 87.9691 504.432
579 0 65.3607 15.0243 982 135.077 87.3992 503.262
580 0 67.3171 15.2264 1025 135.091 88.04 502.35
581 0 69.2254 15.4279 1068 136.357 88.4457 500.543
582 0 72.3235 15.0297 1087 136.079 88.6118 499.41
583 0 74.3813 15.5416 1156 134.48 87.5917 497.628
584 0 74.2689 15.5785 1157 137.719 88.1608 495.424
585 0 80.2145 15.6954 1259 134.716 87.4654 494.778
586 0 81.3061 15.7676 1282 136.726 87.7465 493.723
587 0 84.2154 15.6385 1317 136.972 87.7365 492.599
588 0 87.3487 15.627 1365 137.503 86.918 492.739
589 0 88.2989 15.8666 1401 137.45 87.2712 491.817
590 0 90.2696 15.4426 1394 140.328 87.9046 490.217
591 0 93.1415 15.5677 1450 139.379 88.0055 489.612
592 1 47.2413 13.1453 621 153.137 87.6103 511.531
593 0 48.2084 13.5039 651 154.238 87.2965 510.76
594 0 49.1483 14.324 704 153.402 87.1776 509.643
595 0 52.2205 14.0558 734 151.653 87.8338 508.27
596 0 54.234 14.5112 787 149.32 86.4422 507.06
597 0 55.1989 14.5836 805 151.22 87.4683 506.065
598 0 57.1258 14.932 853 149.906 88.0574 505.945
599 0 58.1608 14.0817 819 155.482 87.591 505.84
600 0 61.1509 14.6686 897 152.729 87.9877 503.774
601 0 62.1565 14.8335 922 154.728 88.1594 503.09
602 0 65.1138 15.2502 993 152.418 88.4048 502.701
603 0 66.1124 15.0804 997 154.435 88.1655 500.658
604 0 69.1209 14.8725 1028 154.732 88.1479 500.288
605 0 69.0989 14.7904 1022 158.651 87.6967 499.442
606 0 73.1632 14.9255 1092 157.259 87.022 498
607 0 76.1268 15.1327 1152 155.035 87.4627 496.17
608 0 77.1726 15.0571 1162 156.54 88.0172 494.501
609 0 80.1922 15.5252 1245 156.516 87.7357 493.586
610 0 83.2266 15.4157 1283 156.194 87.3874 493.412
611 0 83.1469 15.2982 1272 159.197 87.2138 493.06
612 0 85.18 15.4849 1319 159.475 86.8271 491.279
613 0 91.1108 15.4757 1410 157.493 87.1007 490.35
614 0 91.1998 15.0878 1376 161.238 86.8576 488.266
615 0 94.2399 15.8532 1494 157.137 86.3367 486.607
616 0 98.1453 15.8948 1560 156.814 86.3936 483.772
617 0 102.145 15.7227 1606 154.461 86.6407 482.634
618 0 105.281 15.6249 1645 153.974 87.0432 480.236
619 0 110.261 15.8624 1749 152.894 87.4031 478.127
620 0 114.249 15.7637 1801 150.757 87.0822 476.455
621 1 62.2256 12.2136 760 153.312 86.8342 501.524
622 0 66.1579 13.0143 861 149.79 86.7154 499.449
623 0 68.1481 12.8543 876 151.503 86.0925 498.308
624 0 69.2182 13.3491 924 150.46 86.4188 496.855
625 0 71.2046 13.4261 956 150.737 86.2866 494.512
626 0 74.2185 13.7163 1018 148.104 86.664 494.775
627 0 76.1488 13.2898 1012 152.901 86.3893 493.12
628 0 78.1821 13.8011 1079 151.047 86.4977 491.918
629 0 80.3105 13.8338 1111 150.842 86.9748 490.901
630 0 82.1821 13.7013 1126 154.092 88.1048 489.568
631 0 84.2472 14.0183 1181 152.604 87.7773 489.13
632 0 87.281 14.0466 1226 153.392 87.0946 487.045
633 0 90.2632 14.0367 1267 151.617 87.1018 486.132
634 0 93.2859 13.7534 1283 152.361 88.3562 483.359
635 0 97.3422 13.9405 1357 149.626 87.9329 481.086
636 0 98.2806 14.2144 1397 148.538 88.6263 480.815
637 0 103.319 14.1891 1466 148.678 88.4918 479.154
638 0 105.333 13.8607 1460 149.331 89.061 477.138
639 0 109.301 13.7418 1502 150.667 88.8109 474.088
640 0 114.358 14.131 1616 148.607 88.2283 472.84
641 0 117.304 13.9808 1640 149.069 88.1427 471.516
642 0 122.41 14.1328 1730 148.691 88.7474 469.598
643 0 124.416 14.0014 1742 147.972 88.4133 467.011
644 1 70.3281 10.9629 771 139.115 87.7562 495.38
645 0 72.3621 11.249 814 138.496 87.5209 494.776
646 0 74.2708 11.7004 869 136.036 88.1876 491.98
647 0 76.2877 11.745 896 138.051 88.7612 490.257
648 0 77.2619 11.2992 873 139.625 88.1409 486.987
649 0 79.3788 11.3254 899 138.677 89.0156 487.573
650 0 79.2061 11.893 942 137.985 88.5021 485.019
651 0 84.317 12.2039 1029 134.69 87.8455 483.76
652 0 86.3488 12.1368 1048 134.369 87.8989 483.423
653 0 89.4026 12.069 1079 134.807 87.9008 481.653
654 0 92.3717 12.0708 1115 133.653 87.8404 480.437
655 0 92.3377 11.7179 1082 132.031 87.7292 480.09
656 0 96.4291 12.3096 1187 127.897 88.658 478.759
657 0 98.5669 12.0527 1188 127.109 88.5783 476.753
658 0 102.256 11.6277 1189 127.953 88.3541 473.68
659 0 106.415 11.7747 1253 124.964 88.6233 472.809
660 1 59.1572 8.48586 502 109.279 87.9382 499.713
661 0 60.147 9.14427 550 104.718 88.42 498.358
662 0 61.0691 8.20382 501 91.7685 89.4671 498.924
663 0 59.12 7.32408 433 91.7413 90.0785 500.032
664 0 62.1847 7.4134 461 94.0434 89.2495 498.373
665 0 62.1169 7.61467 473 96.0592 89.0824 496.173
666 0 64.1402 7.3277 470 94.6723 89.4574 498.33
667 0 64.1645 7.247 465 93.7011 88.8301 499.692
668 0 69.1258 6.7558 467 94.7794 89.1884 496.73
669 0 71.135 7.05701 502 94.4382 89.4522 495.552
670 0 70.1144 7.10267 498 95.2229 89.4116 495.518
671 0 76.0588 7.02088 534 94.5768 89.7509 495.011
672 0 77.1024 6.96476 537 96.1322 89.9032 492.22
673 0 79.0673 7.36082 582 96.3935 89.3299 490.014
674 1 21.0087 5.56913 117 94.9487 89.1111 517.709
675 0 24.0051 6.20702 149 91.7383 88.3087 516.966
676 0 26.0043 5.999 156 93.5897 88.6603 516.147
677 0 26.0121 6.72764 175 91.24 88.6571 515.589
678 0 27.0498 6.21077 168 93.2381 88.756 515.571
679 1 44.0708 8.10061 357 87.8207 88.6471 508.387
680 0 40.0631 5.01709 201 93.6119 89.0995 514.174
681 0 41.0261 5.11869 210 95.5714 89.2476 511.024
682 0 42.0256 5.90117 248 95.0282 89.9032 510.214
683 0 43.0646 5.34082 230 97.313 89.8435 506.874
684 0 45.0599 6.74658 304 96.125 90.4342 507.806
685 0 50.0784 6.11042 306 97.2484 90.232 506.487
686 0 49.0561 6.72699 330 97.5636 89.9273 504.845
687 1 112.28 8.16705 917 113.973 91.5791 465.732
688 0 118.355 9.48842 1123 110.575 90.6216 464.386
689 0 121.291 9.84412 1194 111.019 90.9682 463.39
690 0 124.326 9.41077 1170 114.269 90.7325 462.913
691 0 127.465 9.72814 1240 115.234 90.1702 461.834
692 0 130.401 9.43241 1230 117.05 90.774 462.354
693 1 62.1535 8.14113 506 104.217 90.7233 501.769
694 0 62.1659 7.99474 497 107.165 90.4105 497.942
695 0 63.2203 7.89303 499 108.419 90.511 497.693
696 0 66.1267 8.63494 571 107.308 90.1121 497.194
697 0 66.1668 7.90427 523 109.214 90.0306 500.256
698 0 69.1355 8.5195 589 109.355 89.6435 497.443
699 0 70.2026 8.17633 574 109.418 88.8031 497.118
700 0 68.2399 8.07446 551 110.973 88.3412 497.189
701 0 71.2537 8.85568 631 107.472 89.3423 496.628
702 0 73.1305 8.56003 626 106.647 89.0192 496.537
703 0 72.2336 8.65248 625 111.794 89.3664 496.192
704 0 73.1449 8.13453 595 114.635 89.2269 498.987
705 0 73.178 8.37684 613 118.413 89.9723 497.005
706 0 74.1047 8.64992 641 113.515 89.5991 494.239
707 0 77.148 9.39752 725 111.183 89.4166 494.004
708 0 78.1221 8.87072 693 112.505 88.987 495.649
709 0 78.1213 9.03723 706 112.397 88.6827 495.625
710 0 77.1286 9.07576 700 110.163 88.9557 495.11
711 0 72.0595 7.66033 552 91.375 88.9638 495.65
712 1 128.155 4.33068 555 120.477 88.2703 447.207
713 1 83.2227 7.78634 648 116.69 88.1003 439.088
714 1 64.0676 9.44315 605 117.793 88.8116 436.612
715 0 63.1397 10.1838 643 116.403 89.3173 434.143
716 0 66.0711 10.413 688 114.371 88.7965 435.469
717 1 95.3732 8.76557 836 108.343 88.5419 436.611
718 1 68.0868 10.7216 730 114.36 89.2671 431.371
