time division length width area intensity CMx CMy
0 0 51.013 12.4282 634 136.459 1149.03 489.577
1 0 51.0805 12.0007 613 135.15 1149.33 488.76
2 0 55.0534 12.497 688 128.964 1149.22 487.898
3 0 55.0264 11.5944 638 130.61 1148.69 487.685
4 0 56.027 11.8157 662 127.678 1149.02 486.471
5 0 58.0271 12.4597 723 122.285 1148.84 485.609
6 0 59.1152 12.4672 737 119.452 1148.36 485.944
7 0 63.0654 12.1144 764 116.552 1149.12 484.809
8 0 63.0522 12.1328 765 114.676 1148.82 485.039
9 0 67.1195 12.3064 826 109.519 1148.72 483.954
10 0 68.0753 12.5449 854 109.749 1148.43 482.032
11 0 71.1223 12.6543 900 106.423 1148.26 481.25
12 0 74.1512 12.6633 939 104.575 1149.21 480.208
13 0 76.0532 12.8989 981 103.437 1148.7 478.184
14 0 78.111 12.9815 1014 102.083 1148.33 476.549
15 0 83.1261 12.9803 1079 99.4968 1148.1 474.286
16 0 86.1676 13.1372 1132 97.939 1148.86 472.694
17 0 89.0863 12.9088 1150 97.9156 1147.81 470.371
18 1 47.0506 11.4557 539 100.174 1147.55 491.455
19 0 49.0604 12.2706 602 97.3256 1147.35 490.801
20 0 50.1376 12.5654 630 98.7175 1147.43 491.035
21 0 54.0325 13.4179 725 95.6952 1146.54 490.633
22 0 53.0104 12.0165 637 89.0455 1147.51 491.496
23 0 54.0911 12.2386 662 89.0151 1147.52 489.71
24 0 55.1046 12.3583 681 89.0382 1147.56 489.821
25 0 58.0333 12.2171 709 87.5952 1148.47 489.121
26 0 59.0797 11.8145 698 89.1619 1148.09 488.235
27 0 60.1023 13.1775 792 87.1174 1147.58 487.095
28 0 62.0379 12.1216 752 88.9907 1147.09 488.165
29 0 65.062 12.6187 821 88.6309 1146.58 485.163
30 0 65.0665 12.6332 822 135.603 1145.58 485.158
31 0 70.0664 13.0733 916 88.6168 1147.88 483.076
32 0 73.2124 12.7028 930 89.4925 1147.43 484.092
33 0 75.0964 13.2097 992 89.129 1147.24 481.207
34 0 78.098 13.5855 1061 91.5815 1146.92 478.969
35 0 81.1403 13.3965 1087 90.4949 1147.72 478.619
36 0 84.0454 13.1833 1108 91.9702 1147.75 477.266
37 0 87.1346 13.3931 1167 91.1662 1147.04 475.144
38 0 91.1079 13.8737 1264 91.1345 1146.82 474.035
39 0 95.1443 14.0103 1333 94.6339 1146.96 470.95
40 1 46.0279 11.341 522 92.9138 1146.97 494.098
41 0 48.05 11.6962 562 89.7438 1147 494.085
42 0 49.0199 12.6887 622 86.3858 1147.48 493.22
43 0 51.0756 12.8633 657 85.1324 1146.63 491.499
44 0 51.0667 12.6893 648 83.2022 1146.75 492.631
45 0 52.0432 12.3551 643 84.2877 1146.61 492.49
46 0 54.0618 12.7077 687 82.4061 1146.74 492.78
47 0 57.013 12.8567 733 82.2851 1146.83 489.85
48 0 58.0571 13.0217 756 82.1892 1146.89 488.702
49 0 60.0483 12.9729 779 82.3004 1145.82 488.501
50 0 61.0608 13.4129 819 81.8449 1145.65 489.299
51 0 63.0323 13.152 829 82.5223 1146.05 488.922
52 0 65.0496 13.359 869 83.0886 1146.19 486.017
53 0 66.0477 13.2631 876 84.5365 1146.42 484.263
54 0 68.0476 13.6081 926 84.0184 1146.31 483.994
55 0 69.0564 13.5686 937 84.4941 1147.12 482.424
56 0 73.0345 13.7332 1003 84.5962 1146.8 480.912
57 0 75.0765 14.0124 1052 85.7719 1146.63 479.211
58 0 77.2388 13.9826 1080 86.2074 1147.31 477.926
59 0 79.1019 13.8303 1094 87.4936 1147.22 478.456
60 0 84.122 13.7538 1157 86.0544 1146.44 477.189
61 0 83.1643 13.1667 1095 89.1406 1146.2 475.437
62 0 87.0876 13.5266 1178 87.4677 1146.36 473.579
63 0 91.1794 14.1041 1286 86.388 1146.22 471.893
64 0 95.1888 13.8462 1318 88.4833 1146.4 470.471
65 0 96.1416 13.6361 1311 89.4554 1147.33 469.544
66 0 98.1021 14.4645 1419 88.3742 1146.84 468.429
67 0 103.128 14.0795 1452 89.3685 1146.75 466.288
68 0 105.183 14.1658 1490 90.7913 1146.32 464.987
69 0 110.161 14.6603 1615 89.0978 1146.54 462.062
70 0 115.162 14.866 1712 89.6332 1146.4 460.738
71 0 118.153 14.5573 1720 90.1372 1146.38 459.036
72 0 121.226 14.5679 1766 92.3001 1146.31 457.275
73 0 125.229 13.9584 1748 93.7094 1146.66 454.325
74 0 131.249 15.0325 1973 95.7293 1146.34 452.494
75 0 133.272 14.2641 1901 98.4755 1146.89 449.92
76 0 139.294 15.0616 2098 95.2793 1146.65 448.606
77 0 141.307 14.5498 2056 96.1984 1146.82 445.268
78 0 147.266 14.4432 2127 97.1584 1147.17 442.129
79 0 153.208 14.2486 2183 96.8049 1146.9 440.354
80 0 156.207 14.0839 2200 97.4586 1147.12 438.966
81 0 161.252 14.2138 2292 98.5406 1147.18 434.935
82 0 167.231 14.3275 2396 98.1912 1147.42 433.935
83 0 171.195 14.7493 2525 97.5901 1146.53 430.448
84 0 173.322 14.6779 2544 99.3888 1146.99 427.6
85 0 180.188 13.991 2521 101.646 1146.67 425.663
86 0 186.143 13.3822 2491 103.474 1147 425.986
87 0 191.155 13.4498 2571 105.771 1147.02 420.04
88 0 198.179 13.952 2765 104.493 1147.21 418.17
89 0 204.29 14.5577 2974 102.893 1146.45 414.32
90 0 208.19 13.8287 2879 105.617 1147.95 411.056
91 0 216.223 14.1613 3062 104.036 1147.5 406.87
92 0 222.152 14.193 3153 103.908 1147.18 401.186
93 0 230.196 14.3009 3292 103.164 1146.65 397.687
94 1 45.0187 9.61822 433 85.7044 1147.19 490.97
95 0 48.0319 10.264 493 87.9473 1146.75 490.852
96 0 47.1418 10.5214 496 75.248 1145.51 495.496
97 0 48.0457 9.34528 449 72.3742 1146.32 495.154
98 0 51.0615 10.2817 525 74.6324 1146.44 494.314
99 0 51.0991 8.57159 438 76.9909 1146.44 493.559
100 0 54.0682 9.76544 528 75.3466 1146.43 493.026
101 0 57.0444 9.67667 552 74.5761 1147.26 490.283
102 0 56.0389 8.95806 502 75.5558 1146.6 489.179
103 0 59.0951 10.2547 606 71.8053 1146.9 488.855
104 0 62.1004 10.2737 638 71.9467 1146.45 486.279
105 0 63.0388 10.8187 682 72.7889 1146.87 486.548
106 0 67.0756 11.1814 750 72.1867 1146.98 484.435
107 0 68.0591 11.0345 751 73.0639 1146.61 483.241
108 0 70.0928 10.6002 743 73.9085 1146.08 482.618
109 0 73.0417 11.1854 817 80.1212 1144.88 481.366
110 0 76.0901 11.2761 858 78.5886 1145.73 480.114
111 0 78.0517 10.5443 823 79.904 1146.13 477.704
112 0 81.1413 11.6463 945 76.6836 1145.87 477.168
113 0 84.1668 11.2277 945 76.4265 1145.98 475.127
114 1 43.0191 9.29819 400 70.6175 1147.24 497.975
115 0 42.0215 9.20957 387 69.646 1146.85 498.173
116 0 44.0208 9.99526 440 69.2705 1146.56 496.941
117 0 45.0228 10.6835 481 69.079 1146.8 496.705
118 0 47.0293 10.1001 475 70.2126 1145.85 495.693
119 0 47.0914 10.7875 508 71.5335 1146.48 494.844
120 0 48.0776 11.211 539 69.7941 1145.96 493.653
121 0 48.0975 10.6658 513 70.0819 1146.73 493.758
122 0 51.1173 11.3269 579 66.8739 1146.65 491.927
123 0 52.0584 11.1029 578 67.1107 1146.96 490.178
124 0 54.1461 10.4163 564 69.0089 1147.24 490.489
125 0 51.0375 9.48322 484 72.4484 1147.05 493.085
126 0 54.1126 10.0346 543 71.744 1145.82 491.317
127 0 55.0375 10.4111 573 72.3735 1145.26 490.539
128 0 54.0403 9.0488 489 75.9611 1145.43 490.309
129 0 58.0475 10.8876 632 73.1535 1146.18 488.373
130 0 58.0475 10.8187 628 113.654 1147.16 488.401
131 0 63.0902 11.0952 700 72.2043 1146.44 486.519
132 0 64.0747 11.7987 756 71.0661 1145.8 485.857
133 0 66.0758 11.6382 769 71.1534 1145.82 484.715
134 0 66.0758 11.6079 767 129.403 1145.83 484.679
135 0 70.1228 12.1359 851 71.5217 1146.07 482.992
136 0 72.1217 11.9104 859 71.6345 1145.4 482.579
137 0 74.0596 11.7878 873 71.9473 1145.65 480.981
138 0 76.1406 12.0698 919 72.0501 1145.34 480.949
139 0 80.1014 12.3344 988 71.4251 1145.49 479.352
140 0 81.0706 12.2486 993 71.2578 1146.2 479.919
141 0 84.1254 12.41 1044 72.3439 1145.62 477.255
142 0 85.0396 11.771 1001 74.1409 1146.46 476.09
143 0 88.091 11.42 1006 74.992 1146.27 475.647
144 0 91.0596 11.7945 1074 74.2914 1145.98 473.032
145 0 95.0675 12.1387 1154 73.7478 1145.54 472.625
146 0 97.0852 12.0719 1172 72.8481 1145.49 470.507
147 0 97.0852 11.9895 1164 138.567 1145.48 470.419
148 0 104.063 12.8961 1342 71.9926 1145.87 467.48
149 1 55.0268 11.3217 623 72.9695 1146.16 490.878
150 0 59.0695 11.4611 677 74.2127 1146.09 490.041
151 0 59.0695 11.4611 677 141.563 1146.08 489.916
152 0 62.0919 12.095 751 71.4421 1145.99 486.469
153 0 61.0567 11.2027 684 67.9474 1145.16 486.975
154 0 63.0791 11.2557 710 68.1211 1144.75 487.431
155 0 66.042 11.7955 779 67.294 1144.94 485.827
156 0 68.1212 12.052 821 67.7235 1145.26 485.42
157 0 69.0551 12.5407 866 67.0647 1145.89 483.624
158 0 70.0624 12.0607 845 69.0414 1145.59 482.928
159 0 72.0436 11.729 845 70.9609 1145.58 481.602
160 0 77.0515 11.9401 920 70.8283 1145.41 480.551
161 0 79.1349 12.0933 957 71.4253 1145.19 479.723
162 0 80.1027 12.5838 1008 71.9206 1144.44 476.289
163 0 84.0719 12.5607 1056 71.4896 1144.53 476.361
164 0 86.0849 11.9301 1027 71.9844 1144.22 474.35
165 0 88.0978 12.5429 1105 71.4398 1144.59 472.873
166 0 92.1181 12.3646 1139 72.3521 1144.58 470.723
167 0 93.1286 12.2197 1138 73.4323 1145.31 469.576
168 0 96.1071 12.6317 1214 71.6895 1144.86 467.075
169 0 102.281 13.3945 1370 70.192 1145.36 466.971
170 0 103.156 12.6895 1309 74.1444 1144.91 464.852
171 0 108.142 13.057 1412 73.0135 1145.44 461.965
172 0 110.141 12.7927 1409 74.2441 1144.95 461.612
173 1 58.2017 10.6182 618 75.7508 1145.73 486.377
174 0 61.0859 11.2301 686 74.8965 1145.36 486.173
175 0 62.1527 11.8096 734 73.7125 1145.05 484.572
176 0 64.0657 11.9409 765 72.9438 1146 484.205
177 0 62.1164 11.2531 699 71.6295 1144.32 484.824
178 0 66.0966 11.226 742 69.7803 1144.59 483.398
179 0 68.1737 11.2653 768 69.5885 1144.37 483.177
180 0 69.0342 11.4871 793 69.2812 1144.31 482.551
181 0 71.0593 11.3286 805 69.8547 1144.35 481.825
182 0 75.0537 11.2586 845 70.3964 1144.09 479.928
183 0 76.0668 11.5556 879 71.7918 1143.65 478.693
184 0 81.0925 11.9123 966 70.9224 1144.42 478.058
185 0 83.0866 12.2162 1015 72.3192 1144.1 476.133
186 0 84.0487 12.1239 1019 75.1335 1144.83 474.586
187 0 88.0918 12.907 1137 73.635 1145.06 473.071
188 0 90.0456 12.6714 1141 73.7905 1144.9 468.922
189 0 93.1253 12.9825 1209 74.4061 1145.26 467.861
190 0 97.0757 13.1032 1272 72.7044 1144.48 466.536
191 0 98.0547 13.1967 1294 74.3539 1144.6 465.741
192 0 104.115 13.2834 1383 81.4671 1144.37 463.385
193 0 106.087 13.3664 1418 81.0233 1143.94 461.799
194 0 108.063 12.6778 1370 80.2416 1144.35 456.845
195 0 113.058 13.2676 1500 78.518 1144.24 457.201
196 0 115.086 13.1728 1516 79.221 1144.28 454.513
197 0 120.083 13.1576 1580 77.8247 1144.36 453.753
198 0 122.162 12.5899 1538 78.6866 1143.72 451.456
199 0 128.18 13.208 1693 78.2245 1143.73 451.76
200 0 132.407 13.2622 1756 78.4983 1143.98 446.375
201 0 135.157 13.1254 1774 78.1443 1144.14 447.016
202 1 74.3362 11.5422 858 87.2937 1144.09 476.621
203 0 77.2395 11.4061 881 87.1998 1143.72 474.434
204 0 81.0947 11.8873 964 86.0446 1145.38 478.1
205 0 81.063 11.1888 907 88.5513 1145.4 478.152
206 0 84.0416 12.125 1019 88.1982 1145.03 475.561
207 0 87.0518 11.901 1036 90.2394 1144.1 474.416
208 0 89.1048 12.2777 1094 89.6252 1144.14 472.204
209 0 93.0767 12.0438 1121 87.438 1144.26 470.637
210 0 95.0917 11.7886 1121 88.339 1143.88 468.624
211 0 98.0641 12.8895 1264 88.3283 1144.1 467.087
212 0 102.052 12.4937 1275 96.5114 1143.65 464.51
213 0 105.086 12.4089 1304 96.4003 1144.07 463.816
214 0 108.09 12.6746 1370 96.0577 1143.95 462.829
215 0 111.083 11.892 1321 97.0136 1143.16 460.79
216 0 116.076 12.3023 1428 96.1618 1143.5 459.302
217 1 59.0693 9.73433 575 88.8261 1143.9 488.03
218 0 62.05 10.7494 667 84.3328 1143.7 487.525
219 0 63.0588 11.3862 718 84.11 1143.8 485.681
220 0 64.0752 11.3773 729 85.6447 1144.2 484.682
221 0 66.1453 12.0795 799 83.9562 1143.77 484.021
222 0 68.0777 11.6778 795 85.0893 1143.93 482.521
223 0 71.1624 12.3801 881 84.2111 1144.01 481.695
224 0 73.0315 11.9537 873 85.5384 1144.22 479.331
225 0 76.0891 11.71 891 85.4624 1143.62 479.559
226 0 77.0722 12.3261 950 85.5421 1143.26 477.589
227 0 78.0289 12.0468 940 86.3872 1142.88 477.048
228 0 85.0445 11.982 1019 96.0216 1143.52 475.152
229 0 85.088 12.728 1083 95.7913 1143.08 472.877
230 0 87.0509 12.2227 1064 95.9023 1143.82 471.905
231 0 91.1287 12.828 1169 94.0359 1143.25 470.509
232 0 93.0534 12.1543 1131 95.5349 1143.2 469.224
233 0 94.0795 12.3406 1161 95.7804 1143.67 469.027
234 0 97.0599 12.7241 1235 95.817 1143.59 466.883
235 0 100.09 12.8285 1284 97.0981 1143.13 466.445
236 0 102.133 12.4543 1272 98.8412 1142.88 463.414
237 0 105.063 12.4212 1305 97.6046 1142.79 462.493
238 0 109.116 12.7479 1391 95.3221 1142.89 461.44
239 0 111.085 12.594 1399 97.1394 1142.37 460.227
240 0 115.236 12.6263 1455 97.477 1142.63 457.293
241 0 119.187 12.493 1489 94.9147 1142.84 456.873
242 0 122.21 11.5211 1408 94.9524 1143.05 453.643
243 1 62.0751 10.8578 674 81.1231 1142.39 486.092
244 0 63.0739 10.3054 650 82.4923 1143.27 486.14
245 0 65.051 10.5609 687 83.6317 1142.96 485.125
246 0 66.0724 10.9425 723 84.397 1143.56 485.333
247 0 69.1383 11.3541 785 84.4624 1142.39 485.62
248 0 70.1006 11.3694 797 86.1506 1142.2 483.046
249 0 72.1054 11.0117 794 87.9786 1141.66 483.33
250 0 77.1017 12.1009 933 85.4159 1142.37 480.833
251 0 78.1271 12.0189 939 86.9553 1142.78 479.847
252 0 81.1708 11.8762 964 87.611 1142.87 478.946
253 0 81.0785 11.754 953 89.3242 1142.64 476.852
254 0 83.0609 11.1966 930 89.5312 1142.48 476.523
255 0 86.0712 11.7229 1009 88.334 1144.12 474.958
256 0 88.0554 11.6063 1022 88.8679 1143.53 472.804
257 0 92.0674 12.6212 1162 85.9862 1144.19 471.499
258 0 94.1419 12.29 1157 86.2161 1143.84 469.79
259 0 97.0966 12.5751 1221 85.7371 1143.72 468.45
260 0 100.048 12.1141 1212 87.0809 1143.05 468.295
261 0 102.112 12.4373 1270 88.822 1144.19 467.554
262 0 105.104 12.4924 1313 89.1805 1143.86 464.512
263 0 107.129 12.751 1366 88.2767 1143.37 464.28
264 0 110.162 12.999 1432 89.2095 1143.88 463.958
265 0 114.214 13.6061 1554 88.6371 1144.28 458.494
266 0 116.095 13.6009 1579 88.43 1143.62 459.522
267 0 118.162 12.8214 1515 90.3571 1144.04 456.569
268 0 124.202 13.0674 1623 89.7092 1143.54 456.209
269 0 128.233 13.3351 1710 89.3298 1143.78 452.781
270 1 74.0745 11.3534 841 87.7206 1143.38 482.086
271 0 76.1383 11.5579 880 85.7386 1143.12 481.384
272 0 78.1732 11.8583 927 86.8759 1142.64 478.489
273 0 80.1367 12.0669 967 94.7828 1143.91 478.129
274 0 78.1334 10.6357 831 85.876 1142.93 480.668
275 0 81.1155 11.083 899 85.0222 1143.19 479.558
276 0 82.1083 11.6797 959 83.4161 1143.08 478.255
277 0 85.1643 11.0257 939 83.2066 1143.13 476.658
278 0 87.2318 11.9796 1045 82.5081 1143.18 474.073
279 0 88.1387 10.8465 956 84.5858 1142.18 475.508
280 0 92.1795 10.9243 1007 85.0407 1142.54 473.566
281 0 95.2254 11.415 1087 85.1509 1142.28 470.945
282 0 97.1872 11.3801 1106 86.0271 1142.45 469.986
283 0 101.193 11.5324 1167 84.7035 1141.99 468.314
284 0 102.157 11.4334 1168 85.3562 1142.86 468.478
285 1 56.1484 10.7394 603 88.7164 1142.26 488.317
286 0 58.0344 10.2698 596 89.547 1142.73 488.721
287 0 61.1086 10.8332 662 88.2946 1142.31 487.926
288 0 60.0703 11.1203 668 88.8443 1142.07 486.428
289 0 62.0494 11.2491 698 88.1447 1142.09 484.095
290 0 64.0635 11.6603 747 88.083 1143.03 484.72
291 0 66.3277 10.9758 728 93.4849 1143.47 483.673
292 0 67.2525 11.2858 759 93.8419 1143.2 483.619
293 0 67.1654 11.4642 770 94.4169 1143.71 481.235
294 0 68.1487 11.2695 768 95.2396 1142.83 480.625
295 0 72.1532 11.6696 842 94.0309 1142.71 480.78
296 0 73.1818 11.5739 847 95.5667 1142.48 479.077
297 0 75.3118 11.2997 851 95.8778 1141.77 477.683
298 0 77.2187 11.4869 887 95.7678 1142.79 478.269
299 0 80.2065 11.6699 936 95.6741 1143.2 477.271
300 0 82.1918 11.9112 979 95.3483 1142.81 476.531
301 0 83.2019 12.3074 1024 94.1631 1143.08 475.362
302 0 85.2263 11.6396 992 95.9526 1142.67 474.184
303 0 85.2284 11.5102 981 96.3303 1142.64 473.564
304 0 90.3248 12.7872 1155 93.5645 1143.23 472.449
305 0 94.255 13.3149 1255 91.5458 1142.79 471.832
306 0 95.2276 12.9794 1236 93.7799 1143.14 470.641
307 0 98.3389 12.945 1273 94.5994 1143.1 468.815
308 1 51.0122 9.84079 502 86.3924 1142.45 493.209
309 0 54.0598 10.7104 579 82.8912 1143.83 491.636
310 0 57.0228 10.8378 618 80.7961 1143.82 491.972
311 0 57.0225 11.5744 660 77.2652 1144.44 491.939
312 0 59.0142 10.7771 636 78.1887 1142.75 491.599
313 0 60.0354 12.2927 738 77.2439 1142.37 490.588
314 0 62.0113 12.2236 758 76.3259 1142.46 490.28
315 0 64.0317 11.791 755 76.6384 1142.64 489.913
316 0 65.069 11.7721 766 77.7102 1142.11 489.542
317 0 68.085 12.0731 822 75.2664 1143.04 488.102
318 0 68.1238 12.0956 824 75.7876 1142.46 487.212
319 0 71.1618 12.1132 862 75.0128 1142.52 486.176
320 0 72.1275 11.8956 858 76.2995 1143.07 485.783
321 0 74.0839 11.622 861 76.6469 1142.12 484.576
322 0 74.115 11.2663 835 77.7365 1142.01 485.16
323 0 76.0767 10.7523 818 75.0037 1141.63 485.505
324 0 78.0824 11.3982 890 73.4292 1142.48 483.952
325 0 81.0773 10.4345 846 76.3818 1141.27 481.102
327 0 85.0941 11.1524 949 73.666 1141.26 480.725
328 0 85.2115 8.97766 765 77.3137 1141.74 478.728
329 1 46.0648 10.9628 505 73.2 1140.96 499.804
330 0 47.045 11.1383 524 71.9428 1141.26 498.802
331 0 48.0165 10.8296 520 72.5404 1140.56 498.285
332 0 48.1223 10.12 487 72.6407 1141.03 497.634
334 0 49.026 11.0553 542 71.1845 1141.92 496.133
335 0 48.0471 9.26174 445 76.0697 1141.73 497.647
336 0 48.034 8.97281 431 77.4455 1142.01 496.833
337 0 52.0412 10.0497 523 74.7935 1141.96 494.633
338 0 51.054 9.5585 488 75.3463 1142.47 493.99
339 0 53.0659 9.85567 523 74.4914 1142.01 493.48
340 0 58.0567 10.0419 583 74.5678 1140.55 493.451
341 0 60.0496 10.3581 622 74.1013 1141.56 492.124
342 0 62.0532 10.5232 653 73.8913 1140.86 490.813
343 0 64.0653 10.3176 661 74.9864 1140.7 491.977
344 0 65.108 10.4288 679 73.8247 1140.77 489.535
345 0 65.108 10.4135 678 118.701 1140.78 489.497
346 0 72.0766 10.9467 789 73.5894 1140.43 487.056
347 0 75.0603 11.4042 856 72.6262 1140.17 487.49
348 0 75.0714 11.3758 854 74.2623 1139.72 485.788
349 0 78.073 11.6045 906 75.0728 1139.53 483.63
350 0 80.074 12.0264 963 73.812 1140.44 482.139
351 0 83.1572 11.6166 966 75.6418 1140.02 481.712
352 0 87.0529 11.4873 1000 76.317 1139.73 481.113
353 1 46.0484 10.5541 486 77.2613 1140.4 500.634
354 0 47.0316 10.6311 500 78.314 1140.38 499.438
355 0 48.0919 11.3949 548 78.7372 1140.69 498.327
356 0 49.0215 11.3624 557 81.2675 1139.3 498.939
357 0 49.0397 11.0115 540 79.2259 1140.15 499.567
358 0 49.0806 10.7986 530 81.6604 1139.86 498.408
359 0 51.1176 11.1116 568 81.5511 1140.56 497.687
360 0 52.0828 10.8865 567 82.716 1140.67 497.395
361 0 54.0894 11.3331 613 83.6068 1140.51 495.83
362 0 55.0631 10.8239 596 82.1879 1140.48 495.775
363 0 57.024 11.8371 675 74.5422 1140.77 495.524
364 0 60.1564 11.4867 691 78.1563 1141.13 494.353
365 0 60.1422 11.3232 681 81.2673 1141.52 493.536
366 0 62.0451 11.4111 708 82.8362 1141.22 491.14
367 0 64.1027 11.466 735 82.2939 1141.17 491.171
368 0 66.1022 11.0284 729 83.8148 1141.48 489.102
369 0 69.0426 11.8767 820 84.3976 1141.27 488.767
370 0 71.1395 11.9624 851 85.1469 1141.17 485.239
371 0 73.1103 12.3238 901 85.1754 1141.48 483.007
372 0 75.0236 11.4497 859 86.9918 1141 484.615
373 0 79.0705 11.8122 934 87.136 1141.66 483.468
374 0 79.1304 11.5632 915 88.3924 1142.37 482.363
375 0 84.0928 11.9868 1008 87.0208 1141.92 480.697
376 0 86.089 12.0921 1041 87.7531 1141.65 477.788
377 0 89.0809 11.9217 1062 89.3362 1141.81 475.923
378 0 92.0696 12.2407 1127 89.1712 1142.13 474.525
379 0 96.0877 12.5927 1210 88.2248 1141.7 473.208
380 0 98.0883 11.877 1165 93.4549 1141.66 470.378
381 1 53.0621 10.0448 533 89.5591 1141.85 494.994
382 0 55.0364 10.2296 563 89.3517 1142.12 494.963
383 0 55.0539 11.3343 624 85.3734 1141.73 493.697
384 0 59.0396 11.9073 703 81.367 1142.54 491.718
385 0 61.0562 12.4476 760 84.1566 1141.78 490.361
386 0 62.0278 12.1881 756 80.4577 1142.22 491.304
387 0 64.0285 12.0259 770 81.1766 1141.42 489.278
388 0 68.0516 12.2113 831 77.7605 1142.3 488.38
389 0 69.0362 12.4717 861 80.6307 1142.32 485.898
390 0 72.0373 12.3964 893 80.5274 1142.39 485.031
391 0 73.0983 12.3669 904 80.3396 1141.49 483.284
392 0 75.034 12.4877 937 80.0555 1141.79 482.088
393 0 77.0379 12.6301 973 79.8006 1141.84 482.117
394 0 79.0637 12.2053 965 80.8197 1142.01 480.782
395 0 83.078 11.9045 989 79.9393 1141.96 478.834
396 0 85.0302 12.031 1023 80.1222 1142.05 478.163
397 0 89.0358 12.5118 1114 79.1041 1141.24 476.859
398 0 93.1118 12.383 1153 78.9636 1142.26 475.168
399 0 96.0567 12.8153 1231 88.3566 1142.73 473.103
400 0 99.0828 12.3129 1220 89.7 1143.14 469.988
401 1 54.0221 10.7178 579 90.3955 1142.95 492.425
402 0 57.0064 11.1917 638 93.4075 1143.1 491.143
403 0 59.0192 11.5047 679 95.0943 1143.24 488.947
404 0 59.1667 12.0169 711 95.7496 1142.27 489.992
405 0 59.0674 12.1895 720 86.9375 1141.45 490.704
406 0 63.0369 12.9924 819 85.9658 1141.25 490.024
407 0 64.0567 12.926 828 87.3394 1141.6 489.349
408 0 66.0949 12.83 848 88.4033 1141.88 489.04
409 0 66.0248 12.6922 838 90.7506 1141.48 485.993
410 0 68.0852 13.4537 916 88.4116 1141.13 485.374
411 0 71.0566 12.8489 913 89.3494 1140.68 486.314
412 0 72.0308 13.2999 958 89.2985 1140.76 485.433
413 0 73.0385 13.1848 963 89.7466 1141.34 481.999
414 0 76.0411 13.4664 1024 88.8496 1141.16 483.855
415 0 77.0692 13.0662 1007 91.2939 1141.45 480.691
416 0 80.0756 12.8129 1026 90.6813 1140.66 478.762
417 0 82.1035 13.4221 1102 88.7432 1141.14 476.912
418 0 85.0641 13.672 1163 87.8504 1141.54 478.78
419 0 87.1348 13.3471 1163 89.3766 1141.29 476.301
420 0 87.1908 13.0174 1135 91.1656 1141.66 474.781
421 0 91.0586 13.0795 1191 89.717 1141.16 473.123
422 0 94.1079 12.9957 1223 89.2576 1140.72 472.392
423 0 96.1206 13.171 1266 88.966 1141.45 471.058
424 0 96.0372 12.9013 1239 91.1388 1140.83 468.801
425 0 98.1136 12.6384 1240 91.8516 1140.79 468.008
426 0 101.082 13.1279 1327 91.6609 1140.95 466.03
427 0 103.083 12.7567 1315 93.616 1140.75 465.052
428 0 105.084 12.371 1300 94.1208 1141.1 464.238
429 0 107.074 12.1318 1299 94.9738 1141.05 460.928
430 0 112.156 13.08 1467 91.0538 1140.93 458.57
431 0 115.195 12.5092 1441 89.7571 1141.46 453.613
432 0 118.226 12.6707 1498 90.1302 1141.45 450.334
433 0 123.134 12.4824 1537 92.7586 1141.93 451.514
434 0 128.224 12.9695 1663 92.8599 1141.69 447.541
435 0 134.166 12.7901 1716 92.0385 1141.67 446.128
436 1 69.2615 10.02 694 83.3213 1142.09 481.053
437 0 71.1227 10.4608 744 83.6116 1140.97 477.77
438 0 75.1574 11.456 861 79.6713 1141.22 477.175
439 0 77.0431 12.1231 934 81.5642 1141.5 482.439
440 0 79.0972 11.8841 940 81.683 1141.76 480.374
441 0 82.0723 12.2209 1003 80.0778 1141.57 479.045
442 0 83.0598 11.895 988 80.1964 1142.57 476.398
443 0 87.0544 12.4405 1083 79.1579 1142.07 476.609
444 0 89.0699 12.4621 1110 80.5478 1141.82 473.372
445 0 93.0496 12.4127 1155 82.1212 1141.24 473.706
446 0 96.0736 12.8964 1239 81.0056 1141.11 472.61
447 0 98.0942 12.7123 1247 81.8789 1142.01 468.751
448 0 101.111 12.3033 1244 83.1198 1141.53 467.883
449 0 104.054 13.2431 1378 81.4644 1141.33 466.762
450 0 107.083 12.8125 1372 81.1108 1141.49 464.168
451 0 111.105 13.3837 1487 79.3107 1141.82 464.814
452 0 115.088 13.6331 1569 80.1969 1141.36 463.099
453 0 118.071 13.1108 1548 82.5814 1141.26 462.049
454 0 119.085 13.1586 1567 82.8003 1140.86 459.583
455 0 124.063 13.0417 1618 83.8096 1141.93 458.033
456 0 129.07 13.5275 1746 84.1764 1142.08 453.246
457 1 76.0546 11.5443 878 84.3872 1141.76 483.524
458 0 77.0663 11.5096 887 90.1082 1140.85 480.407
459 0 80.0691 12.8264 1027 86.7205 1141.83 479.477
460 0 82.0665 12.0756 991 83.0827 1141.91 478.19
461 0 85.0632 12.0381 1024 83.9834 1141.73 476.405
462 0 89.0353 12.9612 1154 83.201 1141.6 475.096
463 0 90.0503 12.2709 1105 85.5357 1141.53 473.754
464 0 95.0986 12.1453 1155 85.8216 1142.35 471.303
465 0 97.0475 12.8288 1245 84.3743 1142.08 470.737
466 0 99.047 11.9741 1186 88.1492 1142.41 469.611
467 0 101.079 12.3468 1248 87.4856 1142.42 467.603
468 0 107.137 13.2914 1424 96.4284 1141.25 466.006
469 0 111.184 13.3023 1479 96.2988 1142.27 463.402
470 0 112.184 12.9163 1449 96.2547 1142.81 461.639
471 0 116.169 13.5493 1574 94.9924 1141.92 458.675
472 0 120.109 13.5127 1623 95.9729 1141.24 456.846
473 0 122.125 13.6745 1670 95.882 1142.32 456.317
474 0 127.148 13.787 1753 96.2396 1141.04 452.246
475 0 131.176 13.2875 1743 97.7028 1142.48 451.387
476 0 133.212 13.4522 1792 97.1535 1141.84 450.089
477 0 136.228 13.3599 1820 97.867 1141.8 447.348
478 0 141.165 13.2115 1865 97.9437 1141.74 446.122
479 0 146.135 14.4661 2114 94.3117 1141.65 441.62
480 1 82.1617 11.1487 916 90.5044 1140 479.81
481 0 84.1388 11.9327 1004 88.0727 1140.01 479.692
482 0 85.0892 11.9757 1019 91.2758 1140.21 478.638
483 0 89.1849 12.3115 1098 88.8552 1140.03 476.278
484 0 90.1245 12.3718 1115 87.8144 1140.37 474.064
485 0 95.3089 13.5349 1290 86.5791 1140.6 471.589
486 0 98.18 13.2817 1304 86.941 1140.96 467.656
487 0 101.157 13.5038 1366 85.0908 1141.35 466.963
488 0 103.089 13.1925 1360 84.9529 1141.03 467.877
489 0 106.131 13.7661 1461 82.898 1141.28 466.131
490 0 110.265 13.5311 1492 85.6709 1140.48 465.298
491 0 115.155 13.4428 1548 83.7474 1140.94 462.96
492 0 117.19 13.4739 1579 87.2052 1140.66 462.559
493 0 122.17 13.2274 1616 88.4196 1141.32 459.212
494 0 124.19 13.2056 1640 87.7195 1141.47 457.226
495 1 65.0507 10.4534 680 90.5176 1140.34 485.099
496 0 65.0161 10.8896 708 84.8093 1139.6 483.778
497 0 68.0512 10.6684 726 83.2631 1140.45 481.959
498 0 74.0479 12.0463 892 89.093 1140.35 484.194
499 0 73.0393 11.309 826 81.1465 1140.53 485.909
500 0 75.0399 10.6343 798 82.4348 1140.28 485.508
501 0 77.0129 11.102 855 82.3006 1140.17 483.359
502 0 81.0861 11.3706 922 80.6464 1139.66 483.236
503 0 82.0282 10.7768 884 81.974 1139.95 481.937
504 0 85.1219 11.6304 990 80.4768 1140.33 479.523
505 0 85.0671 10.4623 890 82.8393 1140.63 478.325
506 0 91.0883 11.8347 1078 79.5668 1140.98 476.239
507 0 94.1265 11.7714 1108 80.8809 1140.88 473.92
508 0 96.1041 11.1754 1074 82.1546 1140.9 474.633
509 0 99.0779 11.4859 1138 77.8348 1140.64 473.718
510 0 103.048 11.1986 1154 76.9185 1141.1 470.263
511 1 54.0445 10.6209 574 75.3345 1140.49 492.265
512 0 53.0749 10.57 561 77.3708 1141.05 491.964
513 0 55.1255 11.2471 620 78.1855 1140.53 490.694
514 0 59.0471 12.092 714 76.556 1141.05 491.521
515 0 61.044 11.8767 725 78.8414 1141.33 490.263
516 0 62.0491 11.9422 741 79.7274 1141.65 488.748
517 0 63.0232 12.4557 785 78.521 1141.2 491.369
518 0 64.0344 12.7744 818 76.6565 1140.98 490.455
519 0 63.0461 11.2775 711 83.706 1140.86 491.428
520 0 66.0334 11.7365 775 84.3226 1141.25 491.399
521 0 68.019 11.9526 813 83.7134 1140.58 490.256
522 0 71.0477 12.1749 865 83.6127 1141.26 488.807
523 0 72.112 12.5638 906 83.4029 1141.09 487.959
524 0 76.0325 13.0339 991 82.1907 1141.02 486.254
525 0 79.0683 13.0014 1028 83.5856 1141.66 485.141
526 0 81.1076 12.8471 1042 85.3647 1140.82 485.342
527 0 83.1334 12.5461 1043 87.5149 1140.89 484.229
528 0 85.0698 12.4016 1055 89.5403 1140.41 481.813
529 0 87.0911 12.6534 1102 88.294 1140.46 481.165
530 0 91.1324 12.5202 1141 87.9991 1139.82 478.441
531 0 95.0793 12.8314 1220 87.1549 1138.81 479.098
532 0 98.1045 12.9046 1266 87.0506 1139.55 476.533
533 1 53.0767 12.3406 655 88.7038 1139.7 498.42
534 0 54.0785 11.9641 647 88.7759 1140.17 497.728
535 0 56.1 12.5134 702 90.6011 1139.87 496.815
536 0 57.1477 13.0014 743 87.1413 1139.86 495.614
537 0 59.0778 12.8305 758 87.4604 1139.18 495.451
538 0 60.0969 12.8792 774 87.3437 1138.99 494.946
539 0 62.1111 13.4919 838 86.2279 1139.17 493.314
540 0 62.1262 12.7643 793 81.6318 1139.26 495.15
541 0 63.0592 12.5755 793 80.4565 1139.06 494.348
542 0 66.0949 12.6787 838 78.6468 1139 493.119
543 0 69.0439 12.76 881 78.7923 1138.78 492.519
544 0 70.0742 13.0148 912 77.7204 1138.36 492.674
545 0 73.0666 13.2071 965 78.829 1138.89 490.281
546 0 77.0717 13.0917 1009 77.885 1138.97 489.702
547 0 78.103 13.4054 1047 76.9102 1139.35 487.865
548 0 82.0532 12.9185 1060 78.2198 1139.1 487.477
549 0 83.0845 12.5776 1045 79.6182 1138.53 486.497
550 0 86.0831 12.8481 1106 78.7703 1138.77 484.159
551 0 89.1013 12.7159 1133 79.8164 1139.26 482.325
552 1 48.0729 11.6074 558 84.3172 1139.24 499.477
553 0 50.0644 12.3241 617 80.6888 1138.62 499.653
554 0 51.055 12.2613 626 80.8115 1138.99 497.986
555 0 53.0453 12.5742 667 83.042 1138.66 498.289
556 0 54.146 12.9649 702 82.6339 1139.37 497.657
557 0 56.0717 12.5197 702 82.6496 1138.63 498.825
558 0 56.1018 12.5843 706 84.5397 1138.05 496.803
559 0 58.0926 12.9104 750 83.944 1138.07 496.933
560 0 60.1364 12.904 776 85.0606 1138.62 494.934
561 0 62.0925 13.0773 812 84.9988 1138.66 495.156
562 0 62.081 12.4676 774 88.5775 1138.52 493.801
563 0 65.1129 13.1157 854 87.9145 1138.68 493.081
564 0 65.0876 12.8135 834 81.012 1138.62 491.922
565 0 69.1094 11.8942 822 82.4964 1139.55 493.403
566 0 68.0153 12.3943 843 81.2076 1139.24 491.217
567 0 73.0196 13.0102 950 80.6747 1139.91 489.868
568 0 75.1042 12.689 953 81.1962 1139.19 488.276
569 0 78.0435 12.6083 984 79.56 1139.31 488.148
570 0 81.1099 12.292 997 80.678 1138.23 485.918
571 0 85.0621 13.0963 1114 78.4111 1139.25 486.428
572 0 86.166 12.5804 1084 82.2168 1138.16 485.495
573 0 89.1332 13.0255 1161 82.1042 1139.47 482.381
574 0 92.1786 12.5843 1160 83.1603 1139.14 480.309
575 0 95.0997 13.386 1273 82.6159 1138.44 480.992
576 1 52.0137 10.9971 572 86.6119 1138.4 501.566
577 0 53.0365 11.4827 609 86.8046 1138.71 501.466
578 0 57.0399 11.7286 669 88.42 1139.29 498.768
579 0 58.062 12.435 722 87.0138 1138.63 498.697
580 0 60.0359 12.9089 775 87.0619 1138.87 497.179
581 0 59.0814 11.6957 691 88.0333 1138.33 496.713
582 0 59.0681 11.9692 707 86.1033 1138.62 497.037
583 0 64.039 12.2113 782 83.3389 1137.51 496.208
584 0 63.0718 11.8278 746 86.3472 1137.98 494.047
585 0 67.0819 12.2388 821 85.704 1137.28 492.408
586 0 68.0936 11.7485 800 87.625 1137.54 491.534
587 0 71.0544 12.2019 867 86.3253 1137.65 490.363
588 0 71.0555 12.2299 869 141.847 1137.64 490.384
589 0 75.1295 12.4186 933 87.5691 1137.14 489.098
590 0 78.0991 12.2024 953 90.064 1137.73 488.471
591 0 81.066 12.792 1037 89.19 1137.91 486.248
592 0 84.0761 12.7266 1070 90.7252 1137.97 485.426
593 0 87.1172 12.7644 1112 91.3399 1137.5 483.864
594 0 89.0464 12.7686 1137 91.3078 1137.61 481.371
595 0 93.0801 13.2359 1232 88.5763 1138.18 478.934
596 0 95.0752 13.4104 1275 88.7278 1136.89 477.832
597 0 98.077 12.8267 1258 91.368 1137.67 477.053
598 0 101.063 13.17 1331 91.5973 1139.88 478.024
599 0 105.065 12.9919 1365 93.422 1139.09 476.33
600 0 106.095 12.4323 1319 95.9378 1139.51 474.259
601 0 111.174 13.0516 1451 94.8325 1139.52 472.291
602 0 114.113 13.3464 1523 95.6349 1139.89 470.115
603 0 115.175 12.6764 1460 97.1979 1139.31 466.964
604 1 60.0521 10.8572 652 95.6334 1139.98 493.271
605 0 62.0901 11.6283 722 97.9945 1139.06 495.116
606 0 65.169 11.3551 740 93.0784 1137.87 490.624
607 0 69.1923 12.5014 865 93.6023 1138.28 491.49
608 0 71.1694 13.4889 960 91.4042 1138.78 490.351
609 0 73.1757 13.5428 991 91.6276 1138.5 490.678
610 0 75.1726 13.2229 994 93.6086 1138.17 488.288
611 0 77.2061 13.4057 1035 92.6628 1138.04 489.586
612 0 78.1574 13.5624 1060 93.4566 1137.62 486.899
613 0 80.1215 13.3547 1070 94.3065 1137.92 486.676
614 0 83.1261 12.9923 1080 95.2435 1137.42 484.784
615 0 85.0621 13.1668 1120 95.4893 1136.29 483.6
616 0 89.1333 13.2723 1183 95.3973 1136.95 482.359
617 0 91.0855 13.4709 1227 94.3211 1137.01 481.299
618 0 93.1249 13.1544 1225 95.3641 1137.64 479.445
619 0 97.1392 13.1564 1278 95.2543 1138.11 477.607
620 1 51.051 10.2447 523 94.6405 1136.77 501.206
621 0 53.03 11.2201 595 88.4857 1136.99 500.166
622 0 54.0039 11.7029 632 87.9114 1136.81 497.723
623 0 55.0465 11.6265 640 83.6812 1136.16 497.561
624 0 57.0394 11.7813 672 80.5938 1136.49 496.865
625 0 58.0431 11.6638 677 80.8523 1136.38 496.328
626 0 59.0205 12.3178 727 79.945 1136.75 494.774
627 0 60.0861 12.8482 772 80.1567 1136.52 495.18
628 0 63.0944 12.2356 772 81.3109 1136.71 494.969
629 0 63.0882 12.0149 758 83.0185 1137.11 493.257
630 0 68.0937 13.3639 910 80.9725 1138.29 492.579
631 0 71.0346 13.5286 961 81.5609 1138.18 490.26
632 0 71.0528 13.0607 928 85.459 1137.41 488.982
633 0 74.052 13.1259 972 85.3117 1137.42 487.005
634 0 78.0943 13.4581 1051 84.0552 1138.67 486.903
635 0 80.0505 13.454 1077 84.3695 1138.29 483.76
636 0 83.042 13.74 1141 82.7362 1138.88 484.301
637 0 87.0302 13.1449 1144 93.0271 1138.61 482.341
638 0 90.0556 13.0253 1173 92.4109 1139.19 480.408
639 0 92.0933 13.0194 1199 94.1726 1139.53 477.088
640 1 47.0207 10.4635 492 96.8089 1138.07 500.079
641 0 49.0107 11.6301 570 92.4421 1137.98 499.551
642 0 50.0365 12.1311 607 92.0181 1138.43 498.074
643 0 53.0438 12.1221 643 93.5428 1138.21 496.196
644 0 54.0636 12.7443 689 90.5907 1138.13 496.099
645 0 55.0781 12.3461 680 91.6368 1137.74 495.376
646 0 56.0672 12.2888 689 92.7388 1138.72 495.938
647 0 60.0178 11.8965 714 92.8137 1139.6 494.356
648 0 61.0634 12.3478 754 92.6286 1138.81 493.306
649 0 64.1052 12.4795 800 91.18 1139.82 493.212
650 0 62.1494 12.3091 765 93.3503 1139.74 490.897
651 0 64.1674 11.8908 763 94.4653 1139.1 489.717
652 0 68.1854 12.4953 852 92.3815 1139.32 488.708
653 0 71.1508 13.0005 925 91.7784 1139.26 487.624
654 0 70.1608 12.4286 872 94.3498 1139.27 486.401
655 0 74.1404 12.5033 927 89.2632 1139.29 486.369
656 0 76.1301 12.0714 919 88.4233 1140.18 484.573
657 0 80.2046 12.3434 990 86.1424 1140.1 484.341
658 0 81.0412 11.0808 898 81.3163 1140.53 481.276
659 0 83.0612 11.7383 975 80.3456 1140.73 481.3
660 0 85.0519 11.5694 984 83.7398 1140.86 478.989
661 0 87.1262 11.8219 1030 82.9835 1141.11 477.702
662 0 91.1034 12.4254 1132 82.8781 1141.03 476.817
663 0 93.0877 11.6449 1084 83.1651 1141.14 475.903
664 0 97.121 11.5629 1123 86.3081 1140.51 473.561
665 1 52.0865 11.0777 577 86.1993 1140.03 496.312
666 0 54.0506 11.7113 633 84.5719 1140.51 497.36
667 0 56.0584 11.8805 666 84.982 1140.29 495.152
668 0 57.1248 12.1313 693 86.4892 1140.51 495.231
669 0 57.0922 12.3309 704 88.0781 1140.18 493.712
670 0 60.2503 12.3817 746 88.1823 1140.22 493.363
671 0 64.1516 12.3925 795 101.981 1140.34 491.211
672 0 66.1629 12.6204 835 101.109 1140.47 491.109
673 0 66.1629 12.6657 838 154.152 1141.46 491.061
674 0 68.1311 12.5787 857 102.519 1139.52 488.471
675 0 69.1012 12.8797 890 100.18 1138.9 487.864
676 0 70.2035 12.8056 899 99.8298 1139.34 487.849
677 0 72.1324 13.392 966 87.2774 1139.66 486.289
678 0 74.0747 12.6494 937 89.0192 1139.73 484.382
679 0 76.1176 13.3478 1016 86.9055 1139.61 485.173
680 0 79.0476 12.853 1016 87.1211 1140.51 483.803
681 0 79.0575 12.1304 959 89.0459 1140.09 480.617
682 0 82.0828 12.3656 1015 88.2335 1140.53 480.286
683 0 85.1254 12.8751 1096 88.7217 1140.1 478.766
684 0 88.0278 12.4393 1095 90.758 1140.91 477.821
685 0 91.0396 12.7637 1162 90.2298 1140.63 475.316
686 0 93.0523 12.8207 1193 90.8432 1140.3 474.783
687 0 95.1249 12.6991 1208 92.4619 1141.62 474.469
688 0 98.1103 12.3229 1209 94.0281 1140.93 472.543
689 0 101.081 12.8312 1297 93.4433 1141.34 472.772
690 0 105.055 13.0694 1373 95.4304 1141.27 472.615
691 0 107.102 13.0904 1402 98.8131 1140.63 471.463
692 0 109.088 12.8336 1400 100.366 1141.48 467.692
693 0 113.124 13.3571 1511 99.5546 1141.18 467.334
694 0 115.086 12.7296 1465 102.839 1141.11 465.45
695 0 119.175 13.0061 1550 102.377 1141.26 463.68
696 0 122.193 12.4311 1519 105.115 1140.81 463.492
697 0 125.109 12.8608 1609 104.557 1140.46 462.948
698 1 65.1224 11.1943 729 98.6584 1139.84 494.495
699 0 68.0848 12.0144 818 93.0501 1139.16 493.303
700 0 69.0993 12.5761 869 92.2727 1139 489.287
701 0 71.0761 11.6776 830 90.7253 1139.16 489.302
702 0 71.0455 11.2463 799 97.4255 1138.63 487.976
703 0 74.0708 11.7725 872 95.3566 1138.94 486.982
704 0 75.0511 11.3656 853 98.5018 1138.63 487.039
705 0 76.036 11.8102 898 98.7717 1139.55 486.667
706 0 79.0731 11.6222 919 99.2829 1139.24 483.471
707 0 81.0399 11.9447 968 99.6488 1139.33 484.1
708 0 84.0487 12.0287 1011 99.1138 1138.72 482.796
709 0 85.0388 11.8769 1010 100.028 1138.53 482.882
710 0 88.133 12.1748 1073 96.589 1139.12 482.389
711 0 91.1087 12.5235 1141 96.05 1138.78 482.023
712 0 94.076 12.4261 1169 96.6741 1138.04 481.583
713 0 96.1089 12.746 1225 97.551 1138.16 480.725
714 0 99.1097 12.7636 1265 96.6158 1138.83 479.779
715 0 99.0969 11.9378 1183 101.972 1139.56 477.337
716 0 104.125 12.7731 1330 100.231 1138.95 477.504
717 0 106.173 12.6303 1341 101.509 1138.9 474.486
718 0 110.232 12.4283 1370 101.646 1139.31 473.65
719 0 112.261 12.8896 1447 100.628 1139.42 472.095
720 0 114.244 13.0072 1486 100.103 1139.8 469.343
721 0 118.216 12.4095 1467 101.759 1139.58 469.893
722 0 119.184 11.7969 1406 104.972 1138.99 466.989
723 0 124.232 11.9051 1479 103.963 1138.97 462.469
724 0 127.278 12.186 1551 103.361 1139.24 462.671
725 1 65.1127 11.3035 736 91.3478 1139.17 493.557
726 0 67.1584 12.1057 813 88.5387 1138.94 494.476
727 0 69.1564 11.7126 810 92.1679 1139.25 491.551
728 0 70.0781 11.687 819 88.3504 1138.89 491.416
729 0 73.0546 12.3196 900 86.5211 1139.3 490.024
730 0 73.0874 11.6026 848 87.9151 1139.66 491.386
731 0 77.047 12.2523 944 87.5275 1139.56 490.31
732 0 78.0635 12.0671 942 87.5244 1139.77 488.287
733 0 81.0769 11.8406 960 86.8323 1139.06 487.262
734 0 83.0607 11.4976 955 93.3487 1139.54 484.995
735 0 85.0488 10.7585 915 96.118 1139.55 483.881
736 0 87.0554 11.8545 1032 93.6744 1139.61 481.287
737 0 92.0632 11.5138 1060 89.5302 1139.26 481.253
738 0 92.0677 11.0354 1016 92.2717 1139.57 476.718
739 0 96.0867 11.3231 1088 91.7656 1139.58 475.503
740 0 100.049 12.294 1230 90.361 1139.17 474.154
741 0 102.092 11.666 1191 93.1982 1138.52 471.631
742 0 104.129 11.1208 1158 94.6986 1138.28 469.797
743 0 108.121 12.3843 1339 95.0762 1137.95 467.276
744 0 110.199 11.5246 1270 104.481 1139.33 464.326
745 0 115.266 12.7271 1467 104.53 1138.53 463.588
746 0 117.219 12.916 1514 104.057 1139.48 462.491
747 1 52.1143 9.63268 502 95.3645 1140.11 497.422
748 0 54.0642 12.1707 658 92.6231 1139.31 499.15
749 0 55.0892 11.436 630 94.9873 1139.5 497.887
750 0 55.0132 12.1607 669 96.6054 1140.58 496.559
751 0 58.0168 12.4964 725 96.1876 1140.2 496.688
752 0 57.112 11.5212 658 95.7143 1139.09 497.494
753 0 58.1152 11.1847 650 95.7631 1139.62 498.426
754 0 62.0506 11.2328 697 90.2826 1140.07 495.455
755 0 63.1231 10.9627 692 90.0578 1140.28 495.133
756 0 66.1445 11.3388 750 88.8293 1139.85 493.576
757 0 67.0608 10.4681 702 92.0157 1139.39 494.09
758 0 71.071 10.8764 773 89.8616 1140.07 493.004
759 0 71.052 11.9631 850 93.1706 1139.92 490.262
760 0 74.0684 11.4219 846 94.0579 1140.26 489.966
761 0 76.0532 12.0705 918 94.2222 1139.91 488.164
762 0 79.044 11.9048 941 93.7609 1139.89 486.175
763 0 82.0819 11.9515 981 94.4597 1139.45 486.469
764 0 86.1071 12.1941 1050 94.5029 1139.18 484.297
765 0 88.0549 11.5042 1013 98.0286 1138.89 484.206
766 0 93.063 12.2498 1140 96.3465 1139.18 481.612
767 0 95.0922 12.5247 1191 96.6935 1139.48 481.386
768 1 48.049 11.6756 561 103.749 1139.58 502.415
769 0 49.0162 11.8736 582 97.5601 1140.78 501.259
770 0 52.1166 12.0115 626 97.8291 1140.05 498.657
771 0 54.0138 12.5153 676 95.8861 1140.33 499.371
772 0 54.0127 12.7192 687 92.163 1140.92 499.601
773 0 59.0524 12.6328 746 106.653 1141.21 499.2
774 0 60.0758 12.2512 736 109.018 1140.75 497.17
775 0 61.0177 12.4718 761 109.641 1140.5 495.283
776 0 62.029 12.6231 783 107.808 1141.96 493.949
777 0 65.041 12.3153 801 106.864 1141.67 493.647
778 0 66.0504 13.0204 860 104.803 1141.43 492.192
779 0 67.055 13.1086 879 103.131 1141.32 492.076
780 0 70.0689 13.2727 930 100.891 1141.16 491.912
781 0 73.0878 12.8202 937 99.9765 1141.01 490.704
782 0 74.0258 13.0765 968 100.618 1140.73 489.55
783 0 77.0118 13.3876 1031 99.9602 1140.48 487.578
784 0 77.0666 13.5467 1044 99.5 1140.42 487.231
785 0 80.0767 13.5745 1087 100 1140.58 485.177
786 0 84.0263 13.0554 1097 100.577 1140.83 484.118
787 0 84.0847 13.3794 1125 100.662 1141.28 482.549
788 0 88.1165 13.4254 1183 98.9138 1140.3 479.507
789 0 90.1082 13.284 1197 101.615 1139.83 477.856
790 0 93.1104 13.2316 1232 102.83 1139.69 476.545
791 0 95.0622 13.4123 1275 102.725 1139.73 475.336
792 0 96.1953 13.4518 1294 102.65 1139.74 473.761
793 0 101.135 12.8145 1296 103.052 1140.03 473.327
794 1 46.0168 11.9522 550 102.124 1140.69 498.682
795 0 49.0445 13.5387 664 95.4608 1141.15 497.093
796 0 49.0539 13.6585 670 97.7284 1141.24 496.198
797 0 53.0292 13.6152 722 101.636 1141.5 496.068
798 0 56.1054 14.4728 812 100.913 1141.38 495.133
799 0 56.0689 14.5892 818 100.197 1140.85 493.403
800 0 59.0969 14.1463 836 99.4163 1141.27 495.089
801 0 62.2236 14.1265 879 98.4824 1141.06 494.123
802 0 63.1541 13.9817 883 98.1495 1141.09 493.631
803 0 64.0672 14.8282 950 96.2558 1140.97 493.085
804 0 67.1412 14.5216 975 98.0246 1140.85 492.094
805 0 69.0576 13.7132 947 101.556 1140.72 492.054
806 0 71.1347 13.6783 973 102.489 1141.78 491.084
807 0 72.1151 14.2134 1025 101.465 1141.13 490.76
808 0 75.1242 14.2963 1074 101.561 1140.77 489.555
809 0 78.1269 14.8988 1164 101.212 1140.33 488.834
810 0 79.2736 14.2544 1130 103.849 1140.87 489.12
811 0 82.1503 14.863 1221 102.433 1140.47 487.481
812 0 83.1857 14.5217 1208 104.874 1140.51 488.68
813 0 87.1409 14.5856 1271 104.975 1140.13 486.158
814 0 89.1102 14.353 1279 106.897 1139.22 486.009
815 0 91.1674 14.8737 1356 105.768 1139.25 484.979
816 0 93.1756 15.4118 1436 105.549 1140.35 483.62
817 0 96.1683 15.7328 1513 104.357 1139.89 483.453
818 0 100.278 15.437 1548 105.818 1139.87 481.311
819 0 103.142 15.6483 1614 105.287 1140.58 479.597
820 0 107.225 14.7074 1577 106.943 1140.43 479.831
821 0 110.157 14.4522 1592 107.885 1139.46 476.961
822 0 117.244 15.4805 1815 104.577 1139.29 475.258
823 0 119.177 14.8267 1767 107.346 1139.04 473.656
824 0 124.184 14.9053 1851 106.349 1139.12 472.262
825 0 127.102 14.4923 1842 107.325 1138.81 471.003
826 0 133.12 14.1001 1877 106.465 1138.81 469.901
827 0 138.128 14.4576 1997 104.508 1138.83 467.639
828 1 72.0635 15.0978 1088 112.308 1139.96 495.913
829 0 73.0647 15.5479 1136 109.436 1139.38 494.813
830 0 77.1177 16.1053 1242 104.712 1139.58 493.65
831 0 79.0876 15.9064 1258 108.227 1139.17 491.766
832 0 82.064 16.0972 1321 105.774 1139.64 489.503
833 0 84.1161 16.394 1379 104.899 1138.83 489.087
834 0 89.0882 16.3546 1457 102.596 1139.5 487.848
835 0 91.0661 16.6912 1520 103.061 1139.56 487.243
836 0 95.1224 16.2527 1546 104.922 1138.81 484.23
837 0 98.1342 16.5386 1623 102.713 1138.79 482.696
838 0 100.077 16.4173 1643 103.415 1139.59 480.82
839 0 103.117 16.6509 1717 102.006 1138.56 479.2
840 0 108.075 16.8124 1817 100.94 1138.35 476.836
841 0 114.084 17.0927 1950 100.439 1138.07 474.178
842 0 116.123 16.207 1882 104.505 1138.34 473.969
843 0 120.1 16.095 1933 105.292 1138.04 469.953
844 0 124.065 15.5966 1935 104.588 1138.31 468.403
845 1 64.0125 14.9502 957 112.74 1137.66 493.754
846 0 66.0276 15.1452 1000 113.244 1137.36 492.84
847 0 70.0404 15.5482 1089 112.208 1137.24 491.008
848 0 71.0187 15.9535 1133 114.084 1137.57 488.876
849 0 74.0669 15.9855 1184 114.878 1137.91 487.253
850 0 76.0491 15.8187 1203 116.224 1137.77 486.667
851 0 80.0304 15.9689 1278 113.915 1138.48 485.285
852 0 81.057 16.1368 1308 114.761 1138.21 483.682
853 0 82.0375 16.3949 1345 115.618 1138.06 482.361
854 0 86.0735 16.1257 1388 114.795 1137.83 482.568
855 0 88.087 16.5518 1458 112.877 1137.39 479.931
856 0 89.1312 15.8867 1416 115.516 1137.69 479.059
857 0 93.0454 16.3576 1522 113.106 1137.45 477.309
858 0 97.0641 16.2985 1582 113.656 1138.02 476.206
859 0 101.073 16.2457 1642 113.835 1137.88 475.58
860 0 105.089 16.5479 1739 112.586 1138.58 473.745
861 0 108.115 16.8894 1826 112.349 1138.48 470.64
862 0 111.143 16.6002 1845 114.57 1138.15 469.672
863 0 117.108 16.6855 1954 114.132 1138.94 467.392
864 0 119.117 16.3453 1947 116.672 1137.93 463.396
865 0 124.138 17.0455 2116 112.8 1137.62 462.065
866 0 131.156 17.0332 2234 102.053 1137.8 459.859
867 0 132.105 16.4566 2174 113.885 1138.07 456.822
868 0 138.079 16.6861 2304 110.729 1137.96 453.785
869 0 145.101 16.4575 2388 109.076 1137.97 451.573
870 0 149.07 16.3883 2443 109.314 1138.16 449.586
871 1 79.0403 13.7525 1087 115.046 1138.62 482.543
872 0 82.0355 14.4328 1184 112.128 1138.05 481.84
873 0 83.0433 15.0885 1253 112.936 1138.48 480.228
874 0 88.0693 15.2721 1345 111.724 1138.5 478.734
875 0 91.0584 15.2979 1393 111.64 1138.17 479.063
876 0 93.0449 14.6918 1367 115.015 1137.83 475.88
877 0 97.0527 14.7033 1427 115.864 1138.62 474.247
878 0 101.073 15.0486 1521 115.686 1138.27 472.401
879 0 103.103 14.8201 1528 117.611 1137.95 470.486
880 0 107.07 14.8968 1595 118.681 1137.66 466.346
881 0 110.17 15.5578 1714 117.504 1137.77 465.671
882 0 115.169 15.0475 1733 120.054 1138.43 463.458
883 0 119.088 15.0561 1793 121.446 1138.59 461.397
884 0 123.264 15.049 1855 122.818 1138.88 459.377
885 0 128.114 15.3769 1970 122.61 1138.86 454.91
886 1 70.0932 10.8284 759 123.02 1138.43 481.005
887 0 75.1393 11.7515 883 118.84 1138.48 479.216
888 0 76.1467 11.2021 853 123.067 1138.7 477.394
889 0 78.1645 11.4502 895 122.34 1138.65 475.848
890 0 75.1239 11.3679 854 124.706 1138.13 471.594
891 0 84.1869 12.2584 1032 118.538 1139.31 471.164
892 0 80.1804 11.7485 942 124.585 1139.23 467.57
893 0 88.1628 11.8758 1047 122.823 1139.17 466.469
894 0 89.1621 12.1913 1087 121.702 1138.85 465.554
895 0 94.1196 11.9316 1123 121.846 1138.78 462.805
896 0 98.2374 11.9506 1174 124.177 1138.03 460.369
897 0 100.066 11.7422 1175 123.495 1138.61 457.666
898 0 103.267 12.2789 1268 121.748 1139.06 455.867
899 0 106.167 12.226 1298 123.343 1139.19 455.752
900 0 112.162 12.2323 1372 124.272 1139.05 452.759
901 0 116.198 13.0381 1515 121.135 1138.36 450.367
902 0 120.237 12.2591 1474 124.467 1139.05 448.849
903 0 123.27 12.3713 1525 125.763 1139.35 445.172
904 1 65.0497 8.63955 562 107.009 1139.78 477.5
905 0 74.1355 10.9529 812 111.4 1140.02 480.876
906 0 78.0601 11.9908 936 107.502 1139.99 479.989
907 0 79.1204 11.9185 943 109.68 1139.94 477.748
908 0 81.182 11.3818 924 111.617 1139.66 476.7
909 0 84.1023 11.9616 1006 109.747 1140.04 475.82
910 0 86.1476 11.8401 1020 112.257 1139.75 473.15
911 0 89.0736 12.1024 1078 112.208 1140.05 473.355
912 0 88.2175 11.3016 997 121.393 1140.36 469.136
913 0 93.2896 10.58 987 121.73 1140.31 466.847
914 0 93.1764 10.8826 1014 119.81 1139.47 462.841
915 0 99.3019 11.5204 1144 116.535 1139.34 464.656
916 0 104.232 11.1865 1166 119.62 1139.57 462.701
917 0 106.317 10.9296 1162 118.279 1139.23 463.751
918 0 111.248 10.9395 1217 116.376 1139.23 461.906
919 0 117.086 10.3343 1210 105.345 1139.5 462.755
920 0 118.108 8.97486 1060 103.139 1138.87 459.769
921 0 123.137 9.23358 1137 101.926 1139.16 455.128
922 1 69.0624 9.22355 637 88.3124 1140.39 488.202
923 0 69.096 9.55193 660 89.1273 1139.8 485.677
924 0 68.1128 9.60171 654 93.2125 1139.13 484.472
925 0 73.1035 9.86273 721 90.9653 1139.1 483.824
926 0 78.0722 9.65773 754 106.036 1139.53 482.243
927 0 79.0728 9.35847 740 106.515 1140.36 479.95
928 0 83.0312 9.91193 823 103.493 1139.54 478.021
929 0 86.0883 9.44379 813 102.936 1138.65 479.75
930 0 86.0748 9.79381 843 104.076 1139.24 476.582
931 0 88.165 9.9586 878 104.54 1139.02 475.295
932 0 91.0855 9.74908 888 104.659 1138.53 475.538
933 0 93.1632 9.76781 910 104.009 1138.03 473.837
934 0 94.1447 9.77219 920 103.976 1137.56 474.69
935 0 97.1566 9.69568 942 104.204 1138.23 472.555
936 0 102.108 8.67707 886 105.077 1138.22 471.056
937 0 102.135 9.63434 984 103.127 1137.52 470.968
938 0 104.139 9.785 1019 103.257 1137.41 468.048
939 0 107.168 10.6188 1138 98.8858 1137.22 468.217
940 0 110.182 10.3828 1144 99.5184 1137.54 467.19
941 0 114.263 11.4297 1306 97.4349 1136.87 468.569
942 0 118.333 11.831 1400 97.9714 1136.84 466.39
943 0 120.286 11.6223 1398 99.9313 1136.75 464.734
944 0 124.345 11.074 1377 102.201 1136.91 462.755
945 0 129.243 11.312 1462 102.005 1136.68 460.183
946 0 129.243 11.3507 1467 136.266 1136.66 460.042
947 0 139.294 12.4843 1739 101.321 1136.47 455.833
948 0 139.238 11.9939 1670 104.675 1136.75 452.093
949 0 144.321 12.5623 1813 96.0138 1137.79 452.641
950 0 149.241 12.6105 1882 95.8289 1138.31 450.437
951 0 151.202 12.5395 1896 104.505 1137.17 446.243
952 0 157.224 11.3914 1791 108.543 1137.46 445.704
953 0 162.154 12.1243 1966 110.376 1138.74 443.724
954 0 167.169 12.7117 2125 108.942 1138.34 441.848
955 0 169.154 11.9418 2020 113.506 1137.98 438.297
956 0 172.281 11.8237 2037 105.058 1137.95 436.159
957 0 178.253 12.645 2254 103.906 1137.91 433.991
958 0 184.313 12.8803 2374 103.188 1138.57 429.206
959 0 190.327 12.3629 2353 104.247 1137.66 425.736
960 0 194.298 11.8838 2309 106.069 1138.38 423.703
961 0 201.332 11.856 2387 105.862 1138.47 418.765
962 0 207.473 12.5077 2595 102.856 1137.54 415.664
963 1 63.2337 10.4058 658 94.538 1138.87 488.967
964 0 65.1815 10.8927 710 96.7634 1135.94 491.494
965 0 64.2151 10.4025 668 94.6752 1136.99 489.395
966 0 68.0453 10.6694 726 95.2025 1136.15 489.985
967 0 70.0527 11.0774 776 95.3814 1136.83 491.147
968 0 72.0461 11.1734 805 95.8 1136.21 490.591
969 0 72.0921 11.0969 800 97.6388 1136.56 487.744
970 0 75.0211 11.2102 841 96.9168 1136.29 486.397
971 0 77.0569 11.1736 861 97.7329 1136.7 483.282
972 0 81.2307 11.9167 968 97.0269 1136.93 484.129
973 0 82.236 11.5886 953 98.2529 1137.34 482.48
974 0 83.2081 11.6455 969 100.253 1138.01 480.756
975 0 85.4781 12.1786 1041 99.8501 1137.97 480.916
976 0 84.2487 10.6589 898 97.9955 1138.07 480.253
977 0 86.2409 10.8765 938 96.3785 1138.34 480.777
978 0 90.3347 11.8006 1066 93.8584 1138.57 478.512
979 0 91.2198 10.6666 973 103.154 1139.45 477.496
980 1 41.3305 9.0248 373 96.9973 1139.82 501.421
981 0 42.2205 9.18984 388 98.2216 1140.39 501.802
982 0 41.2062 9.78008 403 89.5856 1139.64 500.878
983 0 43.0254 10.18 438 88.9178 1137.61 500.511
984 0 43.0189 9.87939 425 92.8282 1137.54 479.671
985 0 45.0275 9.81623 442 92.5113 1137.17 477.964
986 0 46.0373 9.73123 448 90.7165 1137.02 479.02
987 0 47.0291 10.2277 481 89.5572 1136.7 480.719
988 0 48.0229 10.5366 506 87.9723 1137.08 485.502
989 0 50.042 10.1914 510 88.6039 1136.59 494.206
990 0 46.2242 9.64862 446 81.5807 1137.05 499.177
991 0 49.1086 10.0186 492 81.4817 1136.82 497.799
992 0 49.0891 9.77814 480 83.2271 1136.86 496.9
993 0 56.1076 11.977 672 76.4345 1137.65 487.717
994 0 53.0994 10.7534 571 82.4273 1137.24 488.571
995 0 55.1511 10.4259 575 83.4139 1136.96 486.904
996 0 56.136 10.243 575 84.2504 1137.06 488.623
997 0 60.1471 11.6049 698 80.616 1137.84 490.036
998 0 62.1067 11.6735 725 81.2566 1137.54 491.77
999 0 63.1646 11.3671 718 83.5613 1136.68 488.099
1000 0 64.1392 11.974 768 82.3477 1137.62 488.794
1001 0 67.1049 12.0855 811 81.455 1137.47 490.1
1002 0 67.1116 11.5479 775 83.8826 1138.04 488.973
1003 0 69.1285 12.4406 860 81.9337 1138.61 487.899
1004 0 68.09 11.9841 816 84.1998 1138.56 486.205
1005 0 72.119 12.3269 889 82.6547 1139.87 487.433
1006 0 74.1237 13.0458 967 80.606 1139.77 485.669
1007 0 74.0567 12.5985 933 87.926 1140.42 484.75
1008 0 75.1292 12.6715 952 82.9181 1140.2 482.37
1009 0 77.0806 12.5972 971 82.7878 1139.62 482.848
1010 0 78.0664 12.9761 1013 82.5893 1139.24 481.364
1011 0 78.0997 12.0103 938 85.7985 1139.28 481.268
1012 0 80.144 11.7538 942 86.9968 1139.03 478.421
1013 0 82.1921 11.9233 980 86.3235 1138.83 475.894
1014 0 84.198 12.1974 1027 86.9387 1139.27 470.645
1015 0 87.2847 11.789 1029 88.3897 1138.4 470.279
1016 0 91.1589 12.8457 1171 86.8113 1138.77 469.447
1017 1 48.1275 10.2021 491 89.9409 1138.6 488.346
1018 0 49.0397 11.3378 556 88.2158 1140.37 487.029
1019 0 52.0526 11.5268 600 85.8017 1139.65 487.957
1020 0 54.1659 12.074 654 86.9969 1139.85 491.398
1021 0 54.1327 12.2292 662 89.2734 1140.43 489.542
1022 0 59.1366 12.0061 710 86.7845 1140.86 497.465
1023 0 59.1883 11.928 706 89.5 1140.81 495.901
1024 0 60.1704 12.5643 756 86.9669 1140.45 495.12
1025 0 61.155 12.6564 774 87.7674 1140.22 492.601
1026 0 63.0756 11.8746 749 90.2296 1139.85 492.226
1027 0 67.0544 12.7956 858 88.4895 1140.15 490.162
1028 0 67.0949 12.1768 817 90.2889 1139.57 489.518
1029 0 71.044 12.0348 855 89.0421 1140.6 489.258
1030 0 72.1178 12.0775 871 90.5476 1139.45 486.116
1031 0 74.0413 12.5065 926 89.5713 1140.37 485.981
1032 0 77.0679 12.3527 952 89.5683 1139.91 484.237
1033 0 80.0519 12.4919 1000 90.144 1139.98 482.697
1034 0 83.0282 12.0923 1004 91.2032 1140.48 482.241
1035 0 86.2106 12.4579 1074 92.013 1138.87 481.82
1036 0 89.2652 12.8157 1144 90.6119 1138.44 479.95
1037 0 91.2468 12.8224 1170 90.3598 1139.05 475.852
1038 0 94.2293 12.0451 1135 90.37 1138.97 475.922
1039 1 51.1745 11.1384 570 91.2912 1138.07 496.977
1040 0 53.1873 11.6005 617 80.1151 1139.63 496.757
1041 0 55.1112 12.2298 674 77.1187 1139.55 495.976
1042 0 55.0255 10.7768 593 82.1282 1139.08 497.874
1043 0 56.0315 11.6006 650 80.9231 1138.35 495.788
1044 0 57.0256 10.8898 621 81.0676 1138.57 494.796
1045 0 61.0401 10.7962 659 81.0486 1138.76 494.047
1046 0 60.0364 10.427 626 81.6406 1138.64 493.856
1047 0 64.043 11.3674 728 80.2143 1138.88 491.488
1048 0 65.0377 11.3934 741 78.7395 1138.67 491.806
1049 0 69.0476 11.8179 816 77.4044 1139.21 489.763
1050 0 72.0352 11.9108 858 77.3788 1139.37 489.544
1051 0 73.1692 11.8356 866 77.343 1139.81 489.044
1052 0 77.0611 12.7561 983 75.705 1139.48 489.406
1053 0 79.0853 12.4043 981 76.2294 1139.04 487.508
1054 0 81.0761 12.0134 974 83.4507 1139.34 486.383
1055 0 84.0463 12.2908 1033 83.2023 1140.67 486.41
1056 0 87.0735 12.6904 1105 85.3303 1139.71 483.492
1057 0 90.0446 12.3827 1115 85.6144 1139.88 481.878
1058 0 92.0589 12.0684 1111 87.117 1140.02 480.7
1059 1 50.1073 10.5174 527 84.2543 1139.98 502.977
1060 0 53.0867 10.9067 579 82.9482 1140.24 498.801
1061 0 56.1124 12.1542 682 82.2185 1140.37 497.639
1062 0 58.0682 12.1237 704 81.5696 1140.22 498.545
1063 0 59.1095 12.2146 722 84.7022 1138.93 497.535
1064 0 61.0636 12.9701 792 82.4748 1140.31 496.247
1065 0 63.1289 12.3715 781 83.8143 1139.3 495.999
1066 0 65.0463 12.2067 794 84.4761 1138.98 495.49
1067 0 64.0861 12.7173 815 84.4871 1139.16 494.604
1068 0 67.0622 12.7195 853 84.4091 1138.88 493.066
1069 0 70.0785 13.228 927 81.6365 1139.44 491.879
1070 0 71.0512 13.0751 929 81.6157 1139.02 492.682
1071 0 74.0512 12.8155 949 81.725 1139.14 491.556
1072 0 77.0916 12.3619 953 93.1364 1140.63 489.1
1073 0 79.0461 12.7267 1006 92.7237 1140.35 489.709
1074 0 81.1309 12.4983 1014 95.1548 1139.99 486.944
1075 0 84.1251 12.8737 1083 94.879 1140.28 485.521
1076 0 87.1491 13.5859 1184 90.5997 1140.26 485.054
1077 0 88.0944 12.5774 1108 94.5857 1140.26 484.229
1078 0 92.1121 12.3437 1137 94.6297 1139.85 481.533
1079 0 96.0933 12.0196 1155 95.6935 1139.14 480.114
1080 1 52.0505 11.143 580 94.3034 1139.81 502.084
1081 0 52.0537 11.7763 613 92.6705 1140.14 501.274
1082 0 55.0695 12.5478 691 94.5022 1139.87 500.179
1083 0 57.018 12.5224 714 94.7801 1140.47 498.852
1084 0 56.1523 12.6442 710 84.9493 1138.57 498.838
1085 0 59.056 13.3433 788 80.8794 1138.82 498.882
1086 0 61.0397 13.4503 821 85.3946 1139.27 496.104
1087 0 63.0417 13.0549 823 83.3973 1139.11 495.953
1088 0 64.1135 12.4623 799 84.7184 1138.76 495.205
1089 0 66.0664 12.8507 849 95.7161 1138.72 493.879
1090 0 68.0609 13.15 895 95.6313 1139.23 493.118
1091 0 68.0714 13.1626 896 138.084 1139.24 493.166
1092 0 74.0582 14.097 1044 94.1475 1138.84 491.216
1093 0 74.054 13.6792 1013 96.2201 1139.1 489.966
1094 0 76.0697 13.1327 999 97.1261 1140.33 489.929
1095 0 77.11 13.3186 1027 97.8705 1139.52 488.504
1096 0 80.1099 13.082 1048 97.4752 1139.53 489.146
1097 0 80.0758 13.6745 1095 96.9616 1139.57 486.965
1098 0 84.1318 13.1223 1104 98.586 1139.77 485.578
1099 0 88.1457 13.7386 1211 97.7333 1140.94 486.357
1100 0 90.1362 13.2355 1193 99.171 1140.53 482.995
1101 0 95.2517 13.984 1332 101.248 1140.52 479.101
1102 0 98.1744 13.7612 1351 101.385 1139.84 477.918
1103 0 100.203 13.6423 1367 105.97 1140.48 476.235
1104 0 103.253 13.9658 1442 104.947 1139.67 475.336
1105 0 107.235 14.0905 1511 106.189 1140.34 475.683
1106 0 110.199 14.2652 1572 106.334 1140.09 474.147
1107 0 113.304 14.3861 1630 107.051 1140.02 472.121
1108 0 118.319 14.0806 1666 109.124 1139.93 469.756
1109 0 123.177 13.6552 1682 104.699 1139.85 468.982
1110 1 64.0825 12.4215 796 103.898 1139.84 497.79
1111 0 65.1605 12.4002 808 106.173 1139.7 495.952
1112 0 68.1413 13.2665 904 105.269 1139.5 494.036
1113 0 72.1727 13.537 977 106.31 1139.94 492.45
1114 0 75.1852 14.3379 1078 112.587 1140 491.823
1115 0 77.1157 14.1216 1089 114.646 1140.32 490.154
1116 0 81.1201 14.2135 1153 113.505 1141.01 488.716
1117 0 81.0728 13.7284 1113 112.701 1140.24 488.367
1118 0 85.0763 14.1167 1201 110.654 1140 487.61
1119 0 87.0341 13.8681 1207 111.184 1140.15 487.463
1120 0 89.0875 13.8852 1237 111.434 1139.55 485.456
1121 0 90.1036 13.4179 1209 112.657 1139.82 484.411
1122 0 94.0717 13.5216 1272 111.417 1140.69 482.73
1123 0 98.0864 13.8755 1361 108.748 1140.14 480.979
1124 0 103.077 14.2612 1470 107.156 1140.4 480.11
1125 0 106.161 14.5062 1540 106.936 1140.09 479.243
1126 0 108.074 13.7035 1481 110.207 1141.02 477.552
1127 1 57.042 12.8151 731 112.869 1139.56 502.505
1128 0 59.1058 13.2982 786 111.431 1138.35 500.238
1129 0 62.0866 13.4651 836 110.648 1138.88 497.825
1130 0 65.0908 13.7193 893 105.822 1138.44 497.337
1131 0 64.0197 12.8086 820 110.722 1139.21 498.595
1132 0 67.0571 12.7503 855 109.146 1140.01 497.429
1133 0 68.0604 12.8856 877 108.722 1139.46 496.616
1134 0 70.0982 13.153 922 107.72 1139.42 495.752
1135 0 72.051 13.8235 996 108.622 1139.55 494.487
1136 0 74.0245 12.8606 952 109.796 1139.8 493.434
1137 0 79.0885 12.9981 1028 106.863 1139.3 492.387
1138 0 81.0399 13.3144 1079 105.613 1140.18 490.82
1139 0 82.0525 14.186 1164 103.411 1139.95 489.977
1140 0 85.044 13.4989 1148 105.227 1139.34 488.532
1141 0 87.1491 13.4597 1173 105.185 1138.87 486.668
1142 0 89.0692 13.0797 1165 105.941 1138.7 485.388
1143 0 93.0935 14.1041 1313 103.791 1138.72 484.486
1144 0 97.0926 13.6571 1326 107.728 1139.04 483.799
1145 0 98.0912 13.5588 1330 110.826 1138.98 482.138
1146 0 102.126 13.6401 1393 110.833 1139.02 481.47
1147 0 105.223 14.0084 1474 110.776 1138.61 480.18
1148 0 108.214 13.806 1494 110.92 1139.07 477.148
1149 1 57.0865 13.0153 743 114.997 1138.75 502.077
1150 0 57.106 13.1685 752 101.028 1139.04 502.64
1151 0 60.0444 14.0396 843 99.325 1138.28 500.796
1152 0 62.0482 14.4404 896 95.5156 1137.51 499.224
1153 0 63.0259 13.9942 882 97.8424 1137.29 498.468
1154 0 68.1624 13.952 951 99.4816 1138.69 498.281
1155 0 67.0939 13.9059 933 103.028 1138.6 496.393
1156 0 73.132 13.838 1012 99.7332 1138.28 496.245
1157 0 74.1127 13.2906 985 100.865 1138.92 493.962
1158 0 78.0512 13.6961 1069 99.9196 1138.98 493.94
1159 0 79.0655 13.8999 1099 100.866 1139.37 492.547
1160 0 81.0567 14.1012 1143 98.9011 1138.7 491.325
1161 0 85.1197 14.0625 1197 100.109 1138.11 490.444
1162 0 88.1311 13.6615 1204 101.041 1137.88 488.062
1163 0 90.2144 14.2106 1282 100.383 1138.23 488.014
1164 0 94.1071 14.4516 1360 98.825 1137.77 486.19
1165 0 95.1213 13.898 1322 102.253 1137.86 484.244
1166 1 46.0317 13.2517 610 98.1197 1137.38 508.023
1167 0 46.0751 13.847 638 98.3495 1138.44 506.944
1168 0 49.0082 13.8752 680 98.4912 1138.5 505.666
1169 0 49.0195 14.4636 709 99.2003 1138.71 503.444
1170 0 51.0506 14.3779 734 93.0681 1138.21 506.067
1171 0 56.0245 13.9403 781 106.85 1137.86 504.391
1172 0 56.0478 14.3627 805 107.147 1137.58 503.073
1173 0 54.0164 14.4956 783 108.102 1137.32 504.545
1174 0 59.0735 14.3719 849 111.973 1137.04 501.901
1175 0 59.0445 13.7185 810 111.605 1136.89 501.377
1176 0 61.0516 14.1684 865 110.028 1136.94 500.281
1177 0 64.0498 13.833 886 110.968 1137.81 498.937
1178 0 65.0526 14.127 919 111.112 1137.54 498.133
1179 0 67.0778 13.939 935 112.934 1137.65 494.675
1180 0 71.0389 14.8229 1053 108.379 1137.82 494.455
1181 0 74.0754 13.8103 1023 110.907 1137.89 493.723
1182 0 75.0729 14.0797 1057 112.297 1138.42 492.473
1183 0 77.0766 13.7785 1062 112.928 1137.76 492.773
1184 0 79.1014 14.2981 1131 111.085 1137.53 491.336
1185 0 81.1278 14.4833 1175 111.005 1137.63 491.26
1186 0 81.0511 13.9418 1130 114.811 1137.86 491.097
1187 0 87.0759 14.6539 1276 109.792 1138.06 490.091
1188 0 89.0659 14.0009 1247 114.204 1137.81 488.445
1189 0 92.0968 14.8648 1369 111.992 1137.98 487.545
1190 0 95.0685 14.8735 1414 110.039 1137.41 487.017
1191 0 99.0629 14.3545 1422 111.151 1138.63 484.418
1192 0 101.088 14.4627 1462 112.184 1138.03 483.641
1193 0 105.085 14.3693 1510 110.719 1138.3 481.023
1194 0 109.097 13.7951 1505 112.757 1137.54 479.715
1195 0 113.166 14.5009 1641 111.351 1137.15 478.397
1196 0 116.076 14.2924 1659 112.286 1137.45 475.96
1197 1 58.0766 14.1193 820 115.933 1138.29 500.24
1198 0 61.0552 14.0529 858 116.631 1137.78 499.855
1199 0 61.0705 14.6552 895 117.39 1137.93 498.454
1200 0 64.0432 15.3802 985 114.379 1137.72 497.486
1201 0 65.091 14.2416 927 119.114 1138.09 496.65
1202 0 68.0439 14.6523 997 118.662 1137.98 494.936
1203 0 72.1443 14.4987 1046 118.16 1138 493.794
1204 0 74.0481 14.9227 1105 118.427 1137.92 492.183
1205 0 77.0357 15.2267 1173 118.328 1137.92 491.604
1206 0 78.0608 14.6809 1146 121.277 1137.04 491.656
1207 0 82.0521 15.1977 1247 120.269 1138.12 491.083
1208 0 83.0331 15.1144 1255 122.256 1137.97 490.053
1209 0 85.0697 14.9172 1269 124.287 1138.11 488.809
1210 0 89.0334 15.1067 1345 123.757 1138.03 487.975
1211 0 90.05 15.4914 1395 123.791 1137.69 486.191
1212 0 93.028 14.802 1377 125.035 1138.2 484.462
1213 0 99.045 15.2961 1515 123.059 1138.39 482.796
1214 0 99.0449 15.3062 1516 177.691 1138.4 482.888
1215 0 106.063 15.3211 1625 121.775 1137.55 480.625
1216 0 111.101 15.1304 1681 121.366 1137.67 477.165
1217 0 115.134 15.1736 1747 121.334 1137.52 474.636
1218 0 119.14 15.5951 1858 119.879 1137.53 473.19
1219 1 59.1479 12.8322 759 124.779 1137.61 501.501
1220 0 63.0769 13.2695 837 122.004 1137.52 499.814
1221 0 64.0612 14.1115 904 119.963 1137.44 498.337
1222 0 65.0573 13.6188 886 121.989 1137.9 496.392
1223 0 68.0745 14.1316 962 119.695 1137.51 495.679
1224 0 72.0893 13.9272 1004 119.34 1137.15 493.547
1225 0 73.1447 14.6012 1068 118.595 1137.21 492.842
1226 0 75.1015 14.7933 1111 119.367 1137.34 490.446
1227 0 79.1312 15.1015 1195 118.16 1137.7 488.467
1228 0 80.0995 14.7192 1179 119.847 1137.47 487.677
1229 0 84.1925 14.7163 1239 119.378 1137.56 485.964
1230 0 87.1937 14.5194 1266 119.991 1137.57 485.122
1231 0 87.1946 14.7257 1284 121.343 1138.17 484.093
1232 0 92.175 15.4055 1420 117.391 1137.91 482.125
1233 0 95.2215 15.0596 1434 118.205 1138.42 479.716
1234 0 97.2275 15.51 1508 118.139 1138.41 477.903
1235 0 100.277 15.1679 1521 120.473 1138.17 475.475
1236 0 102.403 15.3511 1572 120.623 1138.02 473.733
1237 0 107.405 15.3531 1649 119.944 1138.41 473.487
1238 0 108.234 14.8197 1604 123.479 1138.37 470.034
1239 0 113.273 15.6878 1777 120.387 1138.31 469.482
1240 0 117.345 15.6887 1841 120.84 1138.18 467.902
1241 0 121.244 15.4894 1878 122.019 1138.94 464.54
1242 0 125.26 15.6794 1964 121.102 1139.06 464.31
1243 0 127.206 15.3688 1955 123.25 1138.8 462.17
1244 0 132.28 15.6637 2072 121.213 1139.29 460.495
1245 0 137.302 15.5715 2138 120.294 1139.79 457.854
1246 0 140.232 15.8024 2216 120.189 1138.95 455.921
1247 0 145.251 15.5523 2259 120.389 1137.77 454.261
1248 0 149.183 15.9536 2380 119.314 1138.01 453.071
1249 0 155.154 15.7778 2448 119.365 1137.82 449.58
1250 0 160.315 16.0933 2580 118.741 1138.31 447.535
1251 0 162.194 15.6787 2543 120.923 1138.44 447.638
1252 0 169.122 15.5982 2638 120.314 1139.2 443.034
1253 0 174.188 15.8507 2761 119.43 1139.58 439.342
1254 0 179.25 15.7992 2832 120.153 1139.67 437.134
1255 0 187.28 16.0188 3000 118.702 1138.72 434.455
1256 0 191.196 15.8685 3034 118.603 1138.77 431.109
1257 0 199.22 16.5947 3306 114.611 1138.33 426.98
1258 0 206.299 15.6715 3233 119.459 1138.34 420.526
1259 0 212.308 15.5058 3292 121.553 1138.19 419.123
1260 0 220.286 15.0849 3323 122.672 1138.64 413.64
1261 0 231.396 15.1688 3510 121.442 1138.44 410.003
1262 0 239.256 15.0801 3608 121.376 1138.31 404.072
1263 1 183.281 14.1913 2601 123.201 1138.88 433.418
1264 0 186.235 14.1005 2626 127.136 1138.71 429.433
1265 0 195.435 14.808 2894 123.311 1139.27 423.58
1266 0 202.266 14.6539 2964 123.021 1138.19 422.95
1267 0 208.305 15.3669 3201 120.589 1138.19 416.176
1268 0 214.25 14.7585 3162 121.874 1138.26 414.922
1269 0 223.271 14.8385 3313 122.288 1137.73 408.884
1270 0 229.321 14.9136 3420 123.553 1137.9 405.384
1271 0 237.284 14.7208 3493 123.668 1138.86 400.948
1272 0 242.337 14.3684 3482 126.201 1138.23 397.626
1273 0 249.224 14.4047 3590 126.619 1138.47 393.257
1274 0 257.185 14.8804 3827 125.612 1138.96 385.57
1275 0 265.415 14.8296 3936 125.093 1139.03 382.188
1276 0 276.271 14.9418 4128 124.147 1139.31 375.982
1277 0 394.744 16.2789 6426 118.445 1138.96 314
1278 1 306.299 20.2482 6202 103.38 1137.8 345.311
1279 0 306.288 18.4793 5660 111.366 1137.82 352.707
1280 0 314.275 14.306 4496 125.235 1137.78 353.29
1281 0 326.399 14.277 4660 125.607 1137.41 346.376
1282 0 373.63 21.8532 8165 93.4599 1137.8 309.724
1283 0 374.634 22.2163 8323 95.2668 1138.33 304.926
1284 0 377.73 21.9336 8285 98.6249 1138.55 301.721
1285 0 377.561 16.3656 6179 119.343 1138.88 320.024
1286 0 387.512 15.0911 5848 122.09 1138.59 321.717
1287 0 388.452 12.8227 4981 129.492 1138.53 334.549
1288 0 390.375 12.5187 4887 131.235 1138.47 339.2
1289 1 103.143 11.7701 1214 109.27 1139.57 453.177
1290 0 106.199 11.9775 1272 108.351 1139.53 460.112
1291 0 111.116 11.7445 1305 108.444 1139.69 466.601
1292 0 114.1 11.8843 1356 109.496 1140.09 466.693
1293 0 119.167 11.5048 1371 110.005 1139.61 464.811
1294 0 124.118 12.2383 1519 109.151 1139.73 462.664
1295 1 67.0607 11.2137 752 94.1636 1140.03 492.247
1296 0 70.0792 11.3015 792 94.3826 1140.24 491.168
1297 0 71.0772 12.4512 885 91.0339 1139.13 489.895
1298 0 73.1022 10.8205 791 94.1087 1140.31 489.104
1299 0 76.0847 10.37 789 94.3739 1140.5 488.683
1300 0 77.1093 10.9585 845 97.5728 1140.48 482.396
1301 0 83.0968 11.3241 941 93.9267 1139.51 484.547
1302 0 86.1928 11.4743 989 92.8777 1140.16 482.253
1303 0 88.1333 11.1195 980 93.051 1140.1 481.344
1304 0 91.1286 11.599 1057 93.5118 1139.83 479.909
1305 0 94.2567 11.6172 1095 98.1151 1139.98 478.018
1306 1 52.0186 9.95798 518 91.6699 1140.53 500.336
1307 0 54.2026 11.1987 607 93.7908 1139.63 495.778
1308 0 57.2106 12.3229 705 92.0114 1139.1 496.858
1309 0 59.0773 11.6119 686 100.943 1138.22 494.853
1310 0 60.1025 12.2957 739 98.8674 1137.84 495.754
1311 0 62.1356 12.006 746 98.7011 1139.21 496.755
1312 0 63.2387 12.3817 783 98.1788 1138.69 494.438
1313 0 63.1745 12.1251 766 100.265 1138.88 494.288
1314 0 65.2017 12.331 804 98.6592 1138.66 492.367
1315 0 66.2599 12.2246 810 98.1679 1138.56 493.08
1316 0 69.2491 12.2745 850 98.1376 1138.19 490.746
1317 0 71.2812 12.3595 881 96.9852 1138.14 490.395
1318 0 71.2812 12.1771 868 98.5979 1138.27 489.742
1319 0 74.2632 11.7016 869 97.931 1138.44 488.81
1320 0 76.2578 12.3659 943 95.3924 1138.85 487.126
1321 0 79.288 12.5113 992 94.1502 1138.59 486.842
1322 0 80.2806 12.5186 1005 93.6577 1138.58 485.987
1323 0 81.3511 12.4276 1011 94.5134 1138.64 483.121
1324 0 85.4183 12.2339 1045 93.312 1139.91 481.353
1325 0 86.3712 11.7169 1012 94.0978 1139.06 479.776
1326 0 88.4498 11.5094 1018 93.4607 1139.14 479.086
1327 0 87.2979 9.37022 818 86.5501 1140.2 481.295
1328 0 92.2418 9.1065 840 84.4298 1139.21 479.508
1329 1 49.2473 10.3762 511 79.5832 1137.82 501.266
1330 0 52.2671 10.7525 562 81.4911 1138.56 501.557
1331 0 52.2123 11.0319 576 80.9514 1139.19 501.073
1332 0 55.0746 11.0577 609 73.7668 1137.52 499.783
1333 0 52.098 10.9025 568 76.9437 1137.98 500.349
1334 0 53.0745 10.2686 545 78.4092 1137.93 500.101
1335 0 56.0994 9.66143 542 78.214 1137.66 499.089
1336 0 58.1135 10.3418 601 76.5258 1137.15 497.399
1337 0 62.1381 11.0238 685 74.8555 1138.23 495.781
1338 0 62.1334 10.8315 673 76.2199 1137.41 495.633
1339 0 64.0987 10.7803 691 76.5543 1137.73 494.965
1340 0 66.0883 11.5452 763 78.3866 1136.68 495.429
1341 0 69.0937 11.7232 810 79.8765 1137.35 494.04
1342 0 71.0645 11.9469 849 79.3239 1137.68 493.033
1343 0 72.1351 11.4923 829 80.6598 1137.75 493.064
1344 0 75.1466 11.9633 899 80.2247 1137.39 490.726
1345 0 77.1522 11.6653 900 81.1789 1137.64 491.707
1346 0 79.1048 11.6934 925 81.2108 1137.98 488.623
1347 0 81.1039 11.849 961 81.8949 1138.11 487.673
1348 0 84.1298 12.029 1012 80.6314 1137.97 486.117
1349 0 87.1726 11.4027 994 81.5423 1138.02 485.577
1350 0 90.1592 11.9012 1073 80.8714 1138.6 484.171
1351 0 90.2092 11.4733 1035 82.7372 1138.14 481.886
1352 0 95.2649 12.0716 1150 80.5887 1138.51 480.523
1353 1 52.268 10.8479 567 84.8007 1137.6 500.519
1354 0 53.2935 11.1271 593 84.9393 1137.16 501.228
1355 0 54.2336 10.8604 589 86.6316 1137.05 500.428
1356 0 56.259 11.9625 673 84.1293 1137.99 499.21
1357 0 59.2094 12.3291 730 81.1507 1138.3 499.451
1358 0 62.1626 11.4056 709 85.196 1138 498.748
1359 0 62.165 11.7429 730 85.7726 1138.05 496.766
1360 0 63.2483 12.0003 759 85.7813 1138.13 496.937
1361 0 65.1791 11.4761 748 88.4652 1137.97 496.541
1362 0 66.1598 11.5024 761 88.0683 1136.61 494.932
1363 0 69.107 12.2853 849 86.6879 1136.93 494.14
1364 0 72.125 12.4645 899 86.6085 1137.06 492.323
1365 0 74.1535 12.2044 905 86.9989 1136.79 493.443
1366 0 78.1953 13.3 1040 85.751 1135.85 492.468
1367 0 78.1422 12.7972 1000 88.871 1135.92 490.871
1368 0 81.1269 12.9673 1052 89.2224 1136.27 489.524
1369 0 84.1471 13.108 1103 89.4959 1135.94 488.646
1370 0 86.1502 13.4184 1156 89.6263 1136 487.515
1371 0 87.1125 12.7651 1112 94.4883 1135.49 486.081
1372 0 90.2074 13.8015 1245 92.2112 1136.63 484.598
1373 0 94.114 13.3243 1254 93.5981 1136.84 484.39
1374 0 94.1623 13.7316 1293 94.9528 1136.25 482.756
1375 0 97.2071 13.5381 1316 95.054 1136.38 482.428
1376 0 99.1683 13.6636 1355 94.924 1136.42 480.55
1377 0 103.181 14.5182 1498 87.8785 1136.63 479.503
1378 0 103.202 13.7884 1423 92.8559 1136.28 479.715
1379 0 104.173 13.7272 1430 91.9259 1136.61 479.146
1380 0 105.155 13.8273 1454 97.3927 1136.63 477.889
1381 0 107.26 14.7679 1584 97.5606 1136.4 478.482
1382 0 107.198 14.4779 1552 97.3763 1136.61 477.807
1383 0 107.087 13.0268 1395 91.2953 1136.52 479.852
1384 1 55.0703 11.9484 658 93.1383 1135.48 504.108
1385 0 59.026 12.3505 729 93.7764 1135.84 502.709
1386 0 60.0434 12.4243 746 92.697 1135.94 502.981
1387 0 61.0203 12.8154 782 89.9744 1135.82 502.694
1388 0 63.0245 13.2012 832 87.8774 1135.99 501.195
1389 0 63.0245 13.2012 832 164.605 1136.99 501.06
1390 0 66.0763 12.8791 851 88.9918 1134.58 499.28
1391 0 67.062 12.6301 847 90.4357 1135 497.263
1392 0 70.0746 12.872 902 89.5066 1135.1 497.79
1393 0 72.0566 13.1702 949 91.0632 1135.67 494.322
1394 0 75.0457 13.605 1021 90.7493 1135.57 494.343
1395 0 75.0866 12.399 931 95.4318 1136.21 492.24
1396 1 36.0538 11.3996 411 97.0438 1136.35 510.372
1397 0 38.0819 12.2368 466 96.3455 1136.26 509.433
1398 0 39.0243 12.1207 473 98.3002 1136.43 508.008
1399 0 42.0253 12.8494 540 93.0926 1136.37 506.231
1400 0 42.0419 13.7006 576 93.1996 1136.85 506.111
1401 0 44.0797 13.9974 617 90.0972 1136.31 503.747
1402 0 43.1167 13.4287 579 94.7185 1136.46 502.881
1403 0 43.0806 12.7203 548 99.6533 1136.45 505.153
1404 0 43.1106 12.2708 529 102.204 1136.77 504.149
1405 0 44.0104 12.2244 538 103.745 1136.35 503.416
1406 0 45.0339 13.0124 586 103.271 1136.8 502.578
1407 0 45.0341 12.5461 565 106.404 1137.42 503.053
1408 0 48.0568 12.6725 609 105.773 1137.02 502.084
1409 0 48.0623 12.6503 608 107.355 1137.48 501.919
1410 0 50.0771 12.8801 645 107.569 1137.29 501.747
1411 0 50.0922 12.6766 635 110.153 1136.15 500.003
1412 0 51.1202 13.0086 665 109.86 1136.43 501.093
1413 0 54.1238 12.9333 700 111.236 1136.94 499.55
1414 0 55.0312 13.2652 730 111.482 1137.12 498.392
1415 0 55.0831 12.5991 694 114.854 1137.01 497.643
1416 0 58.0407 12.8875 748 114.489 1136.85 496.68
1417 0 61.1022 13.2728 811 112.401 1137.73 496.412
1418 0 63.1505 13.5074 853 111.512 1137.66 494.959
1419 0 65.0898 13.274 864 113.059 1137.3 494.266
1420 0 64.1188 13.2878 852 114.222 1137.49 494.029
1421 0 67.1131 12.8291 861 115.648 1137.1 493.914
1422 0 68.0877 13.3651 910 114.152 1137.76 491.564
1423 0 71.1208 12.9357 920 115.322 1137.48 489.966
1424 0 73.0633 13.3446 975 113.986 1137.16 490.107
1425 0 74.0704 12.6096 934 117.227 1137.31 488.087
1426 0 77.1498 12.8192 989 114.928 1137.21 486.539
1427 0 79.1178 12.5635 994 115.062 1136.99 487.801
1428 1 35.1248 13.0962 460 126.361 1137.45 504.72
1429 0 35.0905 13.28 466 125.642 1137.36 504.97
1430 0 38.0334 14.2506 542 122.432 1137.46 503.642
1431 0 40.0973 13.9411 559 123.826 1137.93 503.041
1432 0 42.0607 14.3127 602 120.601 1137.44 502.395
1433 0 43.1191 14.3556 619 120.468 1136.91 500.475
1434 0 43.019 14.668 631 118.876 1137.37 500.217
1435 0 46.0684 14.4134 664 115.491 1137.07 499.613
1436 0 49.096 14.8892 731 112.824 1136.81 498.373
1437 0 51.2301 14.6398 750 111.201 1136.77 497.709
1438 0 51.1752 14.7142 753 113.648 1137.58 497.272
1439 0 53.0995 14.3504 762 112.588 1137.56 496.766
1440 0 56.0691 14.4108 808 111.896 1137.75 494.589
1441 0 57.1062 14.4643 826 112.507 1137.47 494.162
1442 0 59.1249 14.7146 870 110.671 1137.05 493.32
1443 0 60.1418 15.3637 924 109.239 1137.83 492.856
1444 0 59.1392 15.3029 905 111.141 1137.43 490.659
1445 0 64.1126 15.0048 962 109.746 1136.91 490.617
1446 0 65.0968 15.0699 981 110.794 1136.91 488.193
1447 0 66.2706 14.7426 977 112.272 1137.35 488.716
1448 0 69.2889 14.8797 1031 111.73 1137.59 486.426
1449 0 71.0901 14.4605 1028 113.554 1136.98 486.126
1450 0 73.1268 14.9056 1090 112.128 1137.47 485.432
1451 0 77.1693 14.4099 1112 113.752 1137.04 483.895
1452 0 79.1878 14.2951 1132 114.237 1136.74 483.087
1453 1 36.1424 13.2808 480 126.969 1137.03 500.204
1454 0 39.151 13.2819 520 124.25 1137.99 499.737
1455 0 43.1683 14.1307 610 119.715 1137.17 498.966
1456 0 44.1172 14.0082 618 120.298 1136.13 497.542
1457 0 45.1119 14.2978 645 118.011 1136.88 498.383
1458 0 45.2866 14.0439 636 118.895 1137.54 497.145
1459 0 46.1437 14.4549 667 118.474 1137.44 496.043
1460 0 50.1922 14.1855 712 115.865 1136.97 496.128
1461 0 48.1889 14.5677 702 118.658 1137.24 495.024
1462 0 51.2019 14.6284 749 117.055 1137.13 493.542
1463 0 52.1861 14.8507 775 117.063 1137.24 492.599
1464 0 54.1281 14.8721 805 117.307 1137.22 492.667
1465 0 57.1221 15.3706 878 114.161 1137.3 493.107
1466 0 56.0707 14.4995 813 120.203 1137.57 491.392
1467 0 59.2643 14.6969 871 117.729 1136.74 490.862
1468 0 62.1514 15.2853 950 115.627 1136.72 490.032
1469 0 64.156 15.2129 976 116.371 1136.98 489.619
1470 0 64.1575 15.0099 963 119.048 1137.4 488.256
1471 0 67.2176 14.5944 981 121.145 1137.13 487.117
1472 0 70.1356 14.8142 1039 120.682 1137.14 485.841
1473 0 72.2532 15.0028 1084 121.395 1137.47 485.067
1474 0 75.1608 15.4735 1163 119.938 1137.73 483.898
1475 0 77.191 15.222 1175 122.241 1137.68 482.464
1476 0 81.2566 15.408 1252 122.028 1138.17 480.475
1477 0 80.2664 14.9751 1202 127.518 1137.45 479.674
1478 0 84.2234 15.1027 1272 126.639 1137.54 478.416
1479 0 89.1287 15.1915 1354 125.62 1136.98 478.542
1480 0 90.1565 14.8519 1339 128.385 1136.45 475.613
1481 0 91.1782 15.4752 1411 128.318 1137.08 474.033
1482 0 95.2987 15.2048 1449 130.057 1136.3 473.284
1483 0 99.1876 15.1229 1500 130.892 1136.72 473.212
1484 0 104.179 15.2046 1584 129.97 1136.71 471.294
1485 0 106.154 15.5058 1646 130.273 1136.59 470.707
1486 0 111.126 15.352 1706 130.842 1136.7 468.988
1487 0 115.107 15.3249 1764 131.005 1137.24 467.138
1488 1 59.158 11.2749 667 133.06 1136.63 494.132
1489 0 59.1175 12.0776 714 132.408 1136.98 493.21
1490 0 61.0925 12.5056 764 131.813 1136.6 491.802
1491 0 64.0767 12.6879 813 130.228 1137.05 490.2
1492 0 66.0995 13.162 870 129.369 1136.32 489.825
1493 0 67.0593 13.0183 873 129.385 1136.26 488.231
1494 1 25.0042 6.15896 154 103.325 1135.45 512.506
1495 0 24.0081 6.53945 157 103.14 1135.18 511.879
1496 0 27.0065 7.44265 201 97.9602 1135.57 511.816
1497 0 27.0024 6.81421 184 98.7989 1136.15 513.174
1498 0 30.035 7.02514 211 96.3649 1136.31 511.716
1499 0 31.0275 7.70284 239 96.5858 1136.1 509.067
1500 0 32.0146 7.5278 241 95.4315 1135.68 508.95
1501 0 32.0457 7.02122 225 95.7378 1136.18 507.72
1502 0 35.0218 7.16696 251 95.6295 1136.76 506.518
1503 0 33.0328 7.17469 237 93.2996 1136.46 507.101
1504 0 34.069 6.8097 232 92.4267 1136.47 506.711
1505 0 34.0064 6.99869 238 88.9328 1136.6 506.727
1506 0 35.0131 7.02595 246 88.0041 1136.38 505.951
1507 0 45.0223 5.01973 226 88.8982 1135.77 504.925
1508 1 106.113 11.9872 1272 120.292 1135.84 459.906
1509 0 109.117 10.7591 1174 123.746 1136.21 453.733
1510 0 114.051 10.9162 1245 120.854 1136.2 453.962
1511 0 119.083 11.3787 1355 118.807 1136.93 452.601
1512 0 120.098 9.76706 1173 124.991 1136.68 445.752
1513 0 124.07 9.51879 1181 125.83 1136.55 443.897
1514 0 132.114 12.088 1597 114.608 1136.66 449.172
1515 1 70.0489 6.88091 482 96.7801 1136.58 487.751
1516 0 73.0988 8.33118 609 93.8046 1137.36 486.787
1517 1 32.0279 6.15089 197 83.0964 1137.33 508.437
1518 0 31.0067 5.41818 168 84.0952 1137.35 508.804
1519 0 32.0085 6.49827 208 80.7452 1136.77 508.971
1520 0 32.0242 7.18206 230 80.287 1136.46 508.53
1521 0 30.0151 7.19638 216 79.7639 1137.06 507.125
1522 0 31.1112 6.71784 209 79.7081 1136.86 506.799
1523 0 30.1318 6.40518 193 79.8756 1137.12 507.456
1524 0 34.054 7.63493 260 78.7885 1138.27 506.431
1525 1 1 2 2 70 1139.5 485.5
1526 1 33.1173 7.15639 237 80.5823 1138.33 503.54
1527 0 36.1003 8.42099 304 78.0395 1138.49 505.145
1528 0 38.0417 9.01642 343 76.7872 1138.42 504.638
1529 0 40.0974 8.45442 339 77.764 1138.17 504.372
1530 1 111.183 5.81025 646 102.676 1138 472.916
1531 0 113.197 5.8747 665 105.647 1138.23 473.538
1532 0 112.127 6.59073 739 105.296 1137.93 475.365
1533 0 114.158 7.99768 913 106.285 1137.38 469.816
1534 0 118.205 7.88462 932 106.085 1137.35 469.398
1535 1 130.08 3.51322 457 104.79 1136.77 487.991
1536 0 128.128 5.47888 702 107.046 1136.72 470.957
1537 0 129.165 6.6814 863 105.829 1137.05 464.198
1538 0 133.174 4.46034 594 106.992 1136.33 468.471
1539 0 135.131 5.49098 742 107.652 1137.12 455.95
1540 1 84.1028 7.22925 608 98.4013 1136.8 476.87
1541 0 86.1538 7.98572 688 95.9477 1137.13 475.86
1542 0 87.1676 7.76665 677 97.5953 1136.75 472.817
1543 0 85.2003 7.88729 672 100.35 1136.73 473.512
1544 0 96.3184 6.99762 674 95.4926 1136.88 470.717
1545 0 97.3474 7.81736 761 95.1761 1137.01 467.227
1546 0 98.1697 6.91659 679 98.6583 1136.84 465.479
1547 0 98.3056 7.42583 730 98.411 1136.65 463.984
1548 0 103.388 8.64704 894 97.2919 1136.98 463.326
1549 0 102.377 8.0487 824 99.54 1136.51 459.631
1550 0 107.312 9.477 1017 95.6293 1136.56 460.097
1551 1 0 0 0 -nan -nan -nan
1552 0 15.0028 3.53266 53 94.5849 1134.98 510.264
1553 1 36.0324 7.68752 277 92.6968 1135.14 501.639
1554 0 35.0503 7.61762 267 92.2734 1135.52 499.835
1555 0 32.0243 7.55677 242 93.8843 1135.67 498.686
1556 0 34.0594 7.51627 256 94.1406 1136.08 499.121
1557 1 23.0062 4.34665 100 86.23 1138.49 506.86
1558 0 26.0026 4.76875 124 85.3226 1138.59 506.54
1559 0 32.0376 7.36636 236 104.898 1136.8 471.424
1560 1 64.2303 4.12578 265 104.687 1136.94 474.838
1561 0 70.23 5.3396 375 100.757 1137.24 478.197
1562 0 71.2077 4.19898 299 104.736 1137.17 473.344
1563 1 276.658 9.02558 2497 134.67 1137.41 349.423
1564 0 271.539 5.43568 1476 120.364 1137.67 407.888
1565 0 279.84 4.93496 1381 122.875 1137.79 397.646
1566 0 335.773 6.9124 2321 136.617 1136.87 336.851
1567 0 340.593 5.95726 2029 140.811 1137 339.973
1568 0 347.988 6.46574 2250 141.656 1137.39 326.351
1569 1 96.4491 8.92698 861 114.142 1137.06 433.69
1570 0 97.5326 9.89413 965 112.473 1136 429.808
1571 0 94.3409 4.42014 417 110.221 1136.37 462.58
1572 0 102.272 4.57602 468 105.677 1136.87 453.712
1573 0 105.356 4.36615 460 106.785 1137.34 450.867
1574 1 0 0 1 108 1137 463
1575 1 59.0298 2.64273 156 85.7692 1138.69 508.865
1576 0 61.0427 5.53711 338 81.287 1138.76 501.036
1577 0 60.0307 4.94747 297 81.5758 1138.27 502.091
1578 1 39.053 8.60368 336 78.631 1139.26 504.622
1579 0 39.0375 8.40218 328 79.0915 1139.02 505.262
1580 0 41.0374 8.96743 368 78.7826 1138.4 504.288
1581 0 39.0542 9.08992 355 83.1887 1139.01 503.265
1582 0 45.0473 10.4113 469 78.693 1138.55 503.29
1583 0 45.0963 7.16245 323 85.8947 1139.01 506.628
1584 1 75.4253 7.91511 597 94.057 1137.9 487.394
1585 0 75.2068 7.48603 563 96.2842 1137.65 484.753
1586 0 81.2882 8.4022 683 94.53 1137.8 485.531
1587 0 83.24 8.37338 697 94.8006 1138.19 485.973
1588 0 86.2813 8.68091 749 94.6622 1139.02 483.9
1589 0 84.3185 6.70079 565 99.938 1138.28 479.237
1590 0 90.2158 8.32448 751 96.8535 1138.51 477.193
1591 0 90.2839 7.43211 671 99.2653 1138.55 474.769
1592 0 95.2102 8.17139 778 96.946 1137.86 476.814
1593 0 96.2613 7.89518 760 98.4513 1137.25 474.795
1594 0 99.1556 7.41259 735 100.246 1137.79 473.05
1595 0 101.138 7.02013 710 100.341 1137.37 471.348
1596 0 105.201 8.35544 879 96.289 1137.49 473.42
1597 0 114.21 5.27098 602 102.719 1136.82 469.523
1598 0 113.145 7.07059 800 98.9838 1136.68 464.325
1599 0 114.23 7.65996 875 97.3989 1137.46 461.965
1600 1 33.0389 8.20246 271 90.7343 1138.12 505.089
1601 0 34.0144 9.055 308 90.013 1137.25 504.912
1602 0 35.0115 7.76888 272 92.2316 1137.45 503.515
1603 0 31.0222 7.86534 244 94.3279 1137.44 504.373
1604 0 35.0218 8.70887 305 93.6623 1136.68 502.751
1605 0 39.0166 9.22684 360 99.375 1136.7 502.067
1606 1 76.3681 7.41147 566 98.1855 1136.47 484.009
1607 0 78.1178 8.51279 665 94.8872 1136.62 484.947
1608 0 81.4189 8.38872 683 94.7438 1136.92 483.261
1609 0 84.1861 8.64751 728 93.8091 1137.01 482.08
1610 0 86.2343 9.27705 800 92.4162 1136.73 480.466
1611 0 87.2246 8.69021 758 93.9433 1137.08 479.954
1612 0 89.1931 7.93784 708 95.4619 1136.74 476.867
1613 1 44.036 8.0843 356 88.5758 1136.85 500.531
1614 0 46.0989 7.72253 356 88.882 1136.96 501.435
1615 0 45.0823 9.02793 407 87.0884 1136.4 500.541
1616 0 45.0314 8.52739 384 88.4479 1137.04 501.706
1617 0 51.065 7.85273 401 89.1945 1136.64 499.404
1618 0 53.0663 8.64955 459 88.7277 1136.64 497.974
1619 1 120.151 7.0744 850 93.9212 1136.57 474.172
1620 0 121.197 10.5778 1282 88.28 1136.84 466.488
1621 1 61.0823 9.69184 592 86.7483 1136.38 494.905
1622 0 62.101 9.43624 586 87.0785 1136.28 495.532
1623 0 64.0693 9.77068 626 88.7556 1136.16 491.173
1624 0 66.089 9.03327 597 88.7806 1135.52 493.452
1625 0 70.1018 9.68592 679 87.7909 1136.03 493.057
1626 0 74.046 10.588 784 86.9936 1136.4 489.537
1627 0 77.1225 11.2548 868 84.447 1136.63 488.662
1628 1 41.0061 10.4863 430 88.6651 1136.39 503.486
1629 0 41.0247 10.5546 433 94.3072 1136.29 502.792
1630 0 46.0206 11.9294 549 93.2696 1136.38 502.568
1631 0 47.02 12.0162 565 93.8566 1136.41 502.257
1632 0 44.038 10.7861 475 87.28 1136.07 503.712
1633 0 45.0277 10.7711 485 86.4557 1135.94 504.703
1634 0 44.0371 10.0597 443 89.5192 1135.91 503.463
1635 0 46.0638 10.2684 473 89.6258 1135.93 501.647
1636 0 48.0644 10.798 519 88.1426 1135.26 501.609
1637 0 49.07 11.0047 540 89.5593 1136.39 497.996
1638 0 51.0215 11.3874 581 88.0103 1137.08 498.241
1639 0 51.0838 9.20056 470 92.5553 1135.83 498.457
1640 0 53.0667 10.157 539 90.987 1136.68 495.64
1641 0 55.0308 10.7031 589 89.4244 1136.56 496.056
1642 0 57.054 10.1658 580 90.731 1135.95 495.803
1643 0 57.1124 10.4181 595 90.321 1136.11 496.109
1644 0 61.045 10.697 653 89.0597 1136.59 495.715
1645 0 63.0516 9.96009 628 91.051 1136.6 495.312
1646 0 65.0665 10.4201 678 89.8879 1137.16 493.878
1647 0 67.0689 11.0334 740 89.8514 1137.1 493.092
1648 0 67.0689 11.0185 739 123.839 1137.11 493.093
1649 0 72.0749 10.5723 762 91.5591 1137.78 493.428
1650 0 75.0709 11.0829 832 91.2163 1137.31 491.815
1651 0 78.0699 11.9252 931 90.4404 1136.54 489.29
1652 0 80.0731 11.1648 894 92.1365 1136.85 486.502
1653 0 83.097 11.1195 924 93.4318 1136.64 485.649
1654 0 84.095 10.94 920 95.475 1136.87 484.897
1655 1 49.0234 11.2599 552 98.2464 1136.16 500.768
1656 0 50.0323 11.9123 596 100.601 1135.46 501.02
1657 0 52.0176 12.342 642 100.749 1136.19 500.039
1658 0 47.0588 10.54 496 95.9052 1136.64 501.532
1659 0 51.1041 10.6254 543 93.8858 1137.38 505.238
1660 0 50.1171 11.1339 558 95.2079 1137.7 502.242
1661 0 53.0339 11.0872 588 94.0731 1137.27 502.735
1662 0 54.0143 11.4044 616 94.1818 1137.31 500.157
1663 0 55.039 10.5562 581 97.6626 1137.07 499.282
1664 0 58.0807 10.8298 629 96.1781 1137.44 499.463
1665 0 63.0251 12.2967 775 93.6955 1137.65 496.519
1666 0 63.0124 11.7278 739 97.0785 1137.41 494.953
1667 0 65.0513 11.7446 764 97.3469 1137.33 494.219
1668 0 67.0379 11.7844 790 97.1051 1137.44 493.352
1669 0 70.0648 11.0469 774 98.9638 1137.53 492.26
1670 0 73.0474 11.2803 824 98.6735 1138.14 490.223
1671 0 75.0556 11.4315 858 97.5967 1138.02 490.916
1672 0 78.0383 10.9305 853 99.6893 1137.73 489.693
1673 0 80.0302 10.9459 876 99.9543 1138.05 488.626
1674 1 41.0211 10.653 437 104.208 1137.2 504.352
1675 0 43.0154 11.833 509 99.1415 1137.26 505.114
1676 0 44.0079 12.2251 538 97.6729 1137.18 503.77
1677 0 45.0129 12.1965 549 97.4044 1137.44 503.843
1678 0 46.0177 12.1692 560 96.3054 1137.89 503.125
1679 0 43.0595 11.4028 491 100.701 1137.19 504.23
1680 0 46.0424 11.1419 513 100.669 1136.57 503.123
1681 0 46.0455 11.3583 523 101.155 1136.89 502.356
1682 0 46.0237 11.581 533 101.375 1136.33 502.334
1683 0 48.0367 11.1581 536 103.028 1137.09 500.55
1684 0 51.0445 11.1275 568 102.528 1137.57 500.632
1685 0 50.0999 10.8783 545 104.91 1137.11 499.442
1686 0 53.0526 11.4038 605 102.425 1137.08 499.063
1687 0 54.0707 10.9486 592 103.108 1137.67 498.468
1688 0 56.0425 11.3128 634 102.748 1137.94 497.29
1689 0 58.0875 10.7252 623 103.868 1137.94 497.074
1690 0 59.0472 10.8218 639 104.64 1137.69 495.504
1691 0 62.0747 11.3895 707 102.454 1137.5 494.711
1692 0 62.041 10.7187 665 104.648 1138.4 494.556
1693 0 66.0524 11.0821 732 102.275 1138.9 493.648
1694 0 68.061 10.6816 727 103.553 1138.37 492.146
1695 0 69.0712 10.8873 752 102.971 1138.08 491.056
1696 0 73.0394 10.9119 797 103.029 1138.69 490.25
1697 0 76.0671 11.0955 844 102.05 1139.18 488.045
1698 0 78.0866 11.0006 859 102.374 1138.88 486.583
1699 0 82.0186 11.4364 938 100.667 1139.01 485.507
1700 1 44.0127 10.7923 475 102.263 1139.3 503.008
1701 0 46.0295 11.384 524 101.38 1138.94 501.525
1702 0 47.0459 11.5419 543 100.825 1139.34 501.319
1703 0 48.0259 11.6396 559 101.599 1139.6 499.612
1704 0 46.0253 10.4508 481 100.349 1138.58 501.073
1705 0 50.0276 10.9739 549 99.7614 1138.64 500.046
1706 0 49.0415 10.8683 533 100.642 1139.16 500.897
1707 0 53.0583 11.346 602 98.5017 1138.52 498.915
1708 0 53.0697 10.9479 581 100.482 1138.42 497.905
1709 0 55.0713 11.2581 620 100.19 1138 497.323
1710 0 57.0731 11.3539 648 100.231 1138.39 496.818
1711 0 59.0466 12.3293 728 97.3201 1138.51 496.026
1712 0 61.0723 11.8057 721 99.3037 1138.46 494.139
1713 0 61.0768 11.4937 702 100.685 1138.53 494.281
1714 0 64.1655 11.6885 750 100.261 1138.91 492.045
1715 0 66.0735 11.805 780 99.6577 1138.47 491.358
1716 0 66.0678 11.7758 778 139.402 1138.47 491.38
1717 0 72.0554 12.4071 894 97.4497 1137.76 489.43
1718 0 75.0716 11.9885 900 98.8122 1137.88 489.628
1719 0 77.09 12.4011 956 97.7322 1138.2 488.194
1720 0 79.1346 12.8515 1017 96.3422 1137.94 487.805
1721 0 80.1035 12.5463 1005 97.995 1138.47 485.298
1722 0 83.1524 12.5192 1041 97.0893 1137.71 483.444
1723 0 85.1413 11.9801 1020 97.8529 1138.22 482.114
1724 0 88.2195 11.12 981 99.0846 1138.56 481.709
1725 0 92.1647 12.0328 1109 97.0063 1138.51 479.827
1726 0 95.2128 12.0677 1149 97.2742 1137.44 477.023
1727 0 100.194 12.2562 1228 95.6995 1136.72 475.55
1728 0 103.213 12.2272 1262 93.8819 1137.59 473.043
1729 0 107.103 11.699 1253 90.0192 1137.6 473.005
1730 1 57.0796 12.4388 710 95.6141 1137.98 497.156
1731 0 58.0442 12.3699 718 96.8134 1137.7 495.936
1732 0 59.1628 12.7614 755 95.4146 1137.72 494.489
1733 0 61.0945 12.6034 770 96.1 1137.56 493.991
1734 0 63.1394 12.9238 816 95.2096 1138.1 494.059
1735 0 64.1073 13.2902 852 94.892 1137.95 492.609
1736 0 66.1043 12.8131 847 96.6659 1137.63 491.876
1737 0 68.1 12.7313 867 96.6713 1138.64 489.582
1738 0 74.107 12.293 911 95.5016 1138.11 490.858
1739 0 74.2292 13.108 973 94.6269 1138.56 489.317
1740 0 74.2518 12.7135 944 96.0953 1137.5 486.993
1741 0 76.1654 12.7223 969 96.5562 1137.75 486.201
1742 0 79.2873 13.1673 1044 95.431 1136.89 485.634
1743 0 83.2317 13.0599 1087 95.218 1137.67 484.378
1744 0 86.2233 13.4998 1164 93.8763 1137.34 482.808
1745 0 90.3978 13.0645 1181 93.8654 1137.62 481.734
1746 0 91.196 13.005 1186 95.7428 1137.25 479.175
1747 0 92.1572 12.5438 1156 96.8469 1137.58 477.097
1748 0 93.1558 12.5703 1171 97.6038 1137.92 476.157
1749 0 100.113 12.8855 1290 95.7977 1138.15 473.647
1750 0 102.36 12.6515 1295 95.6548 1137.36 473.536
1751 0 106.291 12.7386 1354 95.1654 1136.43 471.056
1752 0 108.213 12.8635 1392 95.6588 1136.71 470.069
1753 0 110.238 12.4186 1369 96.992 1137.1 468.741
1754 0 115.349 12.5705 1450 95.9145 1136.48 466.937
1755 0 116.346 12.927 1504 95.1137 1136.88 467.574
1756 0 119.249 13.0315 1554 94.4652 1137.09 464.266
1757 0 122.308 12.3868 1515 96.0422 1138.17 462.471
1758 0 127.392 12.8579 1638 94.1343 1137.67 459.919
1759 0 131.283 12.7587 1675 93.5152 1137.58 460.551
1760 0 136.288 13.4348 1831 92.1961 1137.74 458.475
1761 0 140.271 12.6255 1771 93.7651 1138.16 456.463
1762 0 144.358 13.3834 1932 92.148 1138.01 453.484
1763 0 148.308 13.0404 1934 93.7058 1138.01 452.043
1764 0 153.269 12.8923 1976 94.3467 1137.9 450.376
1765 0 157.313 12.4656 1961 95.616 1138.53 447.658
1766 0 165.255 13.3128 2200 92.4191 1137.72 445.733
1767 0 169.275 13.0734 2213 94.6182 1138.2 441.306
1768 0 174.359 13.4148 2339 94.2963 1137.94 439.595
1769 0 178.251 13.3183 2374 94.3286 1137.97 435.961
1770 0 182.304 13.8285 2521 93.6422 1137.76 433.226
1771 0 187.196 13.9319 2608 93.0882 1137.66 431.141
1772 0 193.298 14.0922 2724 93.2691 1137.4 428.883
1773 0 198.183 14.0678 2788 94.0664 1137.62 424.249
1774 0 203.277 14.2761 2902 94.0996 1137.56 421.459
1775 0 211.238 13.3641 2823 97.2008 1137.1 419.729
1776 0 217.166 12.1013 2628 100.935 1137.13 417.783
1777 0 226.375 12.8239 2903 98.9693 1136.62 413.926
1778 0 233.437 12.7186 2969 103.36 1136.81 408.112
1779 1 64.1738 10.7209 688 90.2006 1136.83 488.875
1780 0 66.2607 11.2133 743 88.3701 1136.71 488.497
1781 0 67.1056 11.9066 799 89.9662 1136.93 485.717
1782 0 72.0546 12.6432 911 87.6652 1137.83 486.041
1783 0 71.1366 11.3444 807 95.3742 1138.02 485.015
1784 0 76.1 12.0368 916 92.7544 1137.56 483.904
1785 0 78.1672 11.7313 917 94.2356 1137.83 481.696
1786 0 80.2512 11.6509 935 95.0535 1137.54 480.475
1787 0 82.2633 12.5329 1031 92.2367 1137.29 477.861
1788 0 84.2936 11.7803 993 88.8298 1137.81 477.8
1789 0 85.342 11.4949 981 96.578 1137.44 477.243
1790 0 88.3412 11.2405 993 97.1682 1137.38 474.365
1791 0 92.3363 11.6097 1072 95.9692 1136.71 472.44
1792 0 96.2742 11.488 1106 95.3852 1137.52 472.248
1793 0 98.2965 11.4958 1130 96.6558 1137.06 469.388
1794 0 102.295 10.8901 1114 96.8977 1137.41 470.134
1795 0 105.516 10.9936 1160 96.6897 1137.35 467.577
1796 0 108.49 11.1992 1215 96.437 1137.7 466.732
1797 1 63.1257 10.3603 654 88.0153 1138.33 490.829
1798 0 66.068 10.6406 703 88.4765 1138.37 490.313
1799 0 67.0533 10.4395 700 86.6971 1137.3 490.503
1800 0 68.1056 10.8067 736 87.1848 1137.36 488.73
1801 0 71.051 10.6543 757 87.1506 1136.05 489.365
1802 0 73.0904 10.3434 756 87.7434 1136.64 488.738
1803 0 76.0791 10.6074 807 87.4238 1136.82 486.291
1804 0 77.0656 10.7181 826 87.2203 1137.23 483.523
1805 0 81.1091 11.2688 914 85.4103 1137.12 484.919
1806 0 84.1161 11.1394 937 86.2465 1136.76 481.981
1807 0 87.0904 11.1034 967 86.09 1137.55 483.398
1808 0 87.0928 10.9883 957 86.8809 1137.51 482.855
1809 0 90.1764 10.8011 974 88.4815 1137.23 478.669
1810 0 93.1251 11.2644 1049 87.1697 1136.99 478.651
1811 0 95.1307 11.5525 1099 87.1492 1136.84 478.263
1812 0 99.0976 11.8267 1172 85.6954 1136.56 475.53
1813 0 101.127 11.4905 1162 87.0491 1136.76 474.916
1814 0 101.162 10.9923 1112 89.7221 1136.9 471.436
1815 0 105.154 11.7827 1239 87.5214 1136.84 472.412
1816 0 109.214 11.8758 1297 88.1557 1137.3 469.747
1817 0 112.175 11.7139 1314 89.5342 1137.45 468.19
1818 0 113.283 11.2727 1277 90.6695 1137.84 466.087
1819 0 119.234 11.708 1396 89.033 1137.49 463.842
1820 0 123.243 11.5544 1424 89.4333 1137.5 461.895
1821 0 127.186 11.2827 1435 90.1338 1137.91 460.094
1822 0 131.198 11.2349 1474 89.9403 1137.59 457.286
1823 0 136.251 11.5522 1574 89.533 1137.75 457.209
1824 0 140.184 11.7489 1647 90.0334 1137.18 453.086
1825 0 143.241 11.5121 1649 90.8666 1137.67 452.257
1826 0 150.218 10.7378 1613 92.2945 1137.65 453.762
1827 0 156.24 11.5207 1800 92.0333 1137.57 449.689
1828 0 160.188 11.2555 1803 93.2141 1137.2 448.628
1829 0 165.205 12.1728 2011 92.4371 1137.45 442.224
1830 0 168.162 11.596 1950 94.9985 1137.2 440.528
1831 0 174.338 12.0112 2094 94.1208 1137.22 438.2
1832 0 177.257 11.4015 2021 96.6596 1137.34 435.409
1833 0 183.259 11.6938 2143 97.0859 1136.98 433.392
1834 0 189.207 12.008 2272 97.2544 1136.68 430.932
1835 0 192.387 11.7212 2255 98.1814 1136.23 427.206
1836 0 198.333 12.6857 2516 99.719 1136.61 426.174
1837 0 202.259 11.8165 2390 102.741 1136.63 422.489
1838 0 210.294 12.7393 2679 100.816 1136.98 419.566
1839 0 214.279 12.8151 2746 102.069 1137.18 415.894
1840 0 221.332 12.9895 2875 102.713 1136.7 410.051
1841 0 228.321 13.2664 3029 102.13 1136.79 405.289
1842 0 237.387 13.6149 3232 97.6204 1137.43 401.856
1843 0 243.352 13.6716 3327 98.0664 1137.55 398.48
1844 0 250.32 13.4228 3360 99.3801 1137.01 393.819
1845 0 259.363 14.3582 3724 98.3032 1136.53 390.58
1846 0 267.394 13.9756 3737 98.878 1137.37 387.833
1847 1 284.299 20.0388 5697 80.9314 1137.18 366.135
1848 0 292.355 20.5572 6010 79.8215 1136.88 360.211
1849 0 292.302 14.7279 4305 97.4053 1137.25 375.416
1850 0 301.45 15.5018 4673 95.7464 1137.27 365.363
1851 0 310.366 15.2594 4736 94.6632 1137.32 363.675
1852 0 318.448 14.7151 4686 98.0433 1137.2 356.983
1853 0 328.436 14.6117 4799 98.0852 1136.89 353.694
1854 1 72.0417 10.8409 781 85.5698 1138.52 488.941
1855 0 76.0492 11.7424 893 85.3192 1138.84 487.437
1856 0 76.0647 11.5034 875 86.9966 1138.17 486.118
1857 0 79.1072 10.8081 855 87.3099 1137.52 484.409
1858 0 82.1264 12.2129 1003 83.5035 1137.28 482.361
1859 0 82.0529 12.2116 1002 83.6796 1137.82 483.148
1860 0 87.118 12.5003 1089 82.6483 1137.22 479.798
1861 0 92.1236 13.4819 1242 77.8502 1137.94 476.018
1862 0 89.034 11.2541 1002 86.2585 1137.66 478.851
1863 0 94.018 15.3162 1440 73.8924 1138.05 472.036
1864 0 110.052 15.2565 1679 68.1721 1138 463.832
1865 0 118.122 13.7908 1629 71.7618 1138.49 465.931
1866 0 116.05 14.2353 1652 73.3868 1138.47 465.909
1867 0 108.061 15.0748 1629 75.8742 1138.06 466.279
1868 0 112.069 14.7409 1652 77.3014 1137.81 465.446
1869 0 112.062 12.4752 1398 84.7024 1137.5 467.993
1870 0 116.151 11.7261 1362 83.5815 1137.44 464.567
1871 1 65.1127 12.4246 809 82.5476 1137.95 493.083
1872 0 66.0764 11.9407 789 80.5703 1137.88 492.757
1873 0 67.0289 12.1589 815 81.8699 1137.37 489.494
1874 0 69.0251 12.5172 864 81.8715 1137.23 490.049
1875 0 71.0271 13.4737 957 82.908 1138.08 488.334
1876 0 74.0231 13.82 1023 81.8612 1138.16 487.964
1877 0 75.0861 12.9585 973 85.1696 1138.33 487.714
1878 0 73.0493 12.4436 909 88.6678 1138.53 486.993
1879 0 76.0849 12.1838 927 89.5933 1137.43 485.584
1880 0 79.0359 12.3868 979 88.4515 1138.17 485.487
1881 0 81.0474 13.0664 1059 87.169 1138.31 483.383
1882 0 83.0458 13.053 1084 87.9779 1138.19 483.348
1883 0 85.0668 13.3425 1135 87.77 1138.05 481.011
1884 0 87.0478 12.9124 1124 89.1637 1138.92 480.545
1885 0 87.0478 12.9469 1127 161.23 1139.91 480.516
1886 0 92.091 13.3672 1231 88.7539 1138.94 478.64
1887 0 96.0418 13.3588 1283 88.3726 1138.68 477.598
1888 0 99.048 13.8317 1370 86.7453 1138.44 476.31
1889 0 100.042 13.5443 1355 87.5742 1137.97 473.29
1890 0 103.092 14.2202 1466 85.7933 1137.69 472.09
1891 0 105.11 12.9293 1359 88.6063 1138.03 472.395
1892 0 109.038 13.5641 1479 86.7579 1137.4 470.384
1893 0 112.043 13.0931 1467 87.8548 1138.51 469.214
1894 0 115.077 13.2434 1524 85.1325 1138.34 466.122
1895 0 119.111 13.7854 1642 84.1851 1137.62 464.202
1896 0 122.036 13.455 1642 84.8362 1137.3 462.937
1897 0 126.275 13.423 1695 84.6726 1137.46 461.296
1898 0 130.156 13.261 1726 84.5394 1137.03 458.265
1899 0 134.135 12.9795 1741 84.7191 1137.03 456.464
1900 0 139.131 12.4774 1736 85.4983 1136.92 454.326
1901 1 72.0844 13.068 942 88.9968 1136.69 489.048
1902 0 72.1134 13.3956 966 85.8675 1136.54 488.346
1903 0 77.1058 13.3323 1028 84.1527 1137.01 485.803
1904 0 76.101 12.1023 921 85.8252 1137.11 486.802
1905 0 76.0746 12.0277 915 88.8361 1136.89 485.987
1906 0 80.0804 11.7257 939 87.59 1137.62 487.347
1907 0 81.0804 12.1114 982 86.2668 1136.63 484.769
1908 0 85.1073 12.5841 1071 85.0299 1137.35 482.42
1909 0 87.0922 11.8036 1028 86.9523 1137.14 482.425
1910 0 90.1942 12.0961 1091 85.0687 1136.34 479.584
1911 0 92.1248 11.289 1040 85.5058 1136.15 479.63
1912 0 95.1182 11.5435 1098 86.1503 1136.07 478.15
1913 0 100.169 12.1295 1215 85.2584 1136.17 474.08
1914 0 102.158 11.6975 1195 86.5138 1136.72 473.071
1915 0 105.153 12.3154 1295 85.3629 1136.68 467.882
1916 0 110.073 11.8921 1309 85.3201 1137.03 468.678
1917 0 115.144 12.8361 1478 84.0913 1136.31 465.065
1918 0 119.108 11.4937 1369 87.4112 1136.44 464.045
1919 0 124.198 12.9873 1613 88.9678 1136.56 460.883
1920 0 123.169 11.5289 1420 88.1711 1135.25 463.399
1921 0 132.116 12.1333 1603 84.7199 1136.42 458.721
1922 1 71.1072 14.1336 1005 77.9721 1135.96 488.126
1923 0 72.0702 13.2232 953 80.6946 1136.61 487.848
1924 0 75.123 13.6709 1027 79.1996 1135.64 486.769
1925 0 77.0874 13.1799 1016 81.0433 1136.37 485.53
1926 0 76.0551 12.9117 982 82.6538 1135.84 483.224
1927 0 81.0722 13.3338 1081 82.7604 1136.72 483.231
1928 0 84.1132 13.2559 1115 82.374 1135.72 482.848
1929 0 85.0775 12.4005 1055 83.9062 1135.68 480.28
1930 0 88.1324 12.6174 1112 83.1286 1136.22 477.405
1931 0 91.1498 12.7921 1166 84.5489 1135.94 477.872
1932 0 94.1108 12.4747 1174 85.5196 1135.35 477.325
1933 0 97.201 12.6645 1231 85.6312 1135.47 474.401
1934 0 99.2054 12.6001 1250 83.7608 1135.76 472.544
1935 0 99.0473 12.8524 1273 85.2459 1136.3 468.687
1936 0 105.194 12.843 1351 85.4375 1136.44 468.301
1937 0 108.065 12.6683 1369 91.8152 1136.38 468.876
1938 0 115.179 13.4052 1544 88.4242 1136.28 466.829
1939 0 120.171 13.3726 1607 85.995 1136.29 467.457
1940 1 67.1245 12.2161 820 83.6902 1136.25 491.184
1941 0 68.0841 12.0733 822 83.4282 1136.16 490.83
1942 0 72.1156 13.104 945 79.3693 1135.68 490.217
1943 0 73.1619 12.5475 918 82.0033 1136.2 488.355
1944 0 76.156 13.433 1023 74.9042 1136.68 489.128
1945 0 78.1599 12.935 1011 80.9258 1135.54 490.21
1946 0 81.0724 12.421 1007 82.6048 1135.46 489.225
1947 0 83.1531 12.7957 1064 81.2265 1136.07 487.498
1948 0 86.119 12.4247 1070 82.6551 1136.61 485.793
1949 0 89.1508 12.6079 1124 81.9004 1136.33 484.019
1950 0 92.1104 13.1798 1214 82.0923 1135.9 481.431
1951 0 94.1357 12.6732 1193 83.7661 1135.74 479.361
1952 0 97.0631 12.5279 1216 84.0732 1135.5 480.799
1953 0 99.0823 12.3937 1228 84.7451 1135.48 478.34
1954 0 103.132 12.8282 1323 83.5744 1135.53 477.221
1955 0 106.166 12.6594 1344 82.7582 1135.69 474.928
1956 1 55.1686 11.0389 609 82.9622 1135.82 500.773
1957 0 56.0382 11.278 632 83.5364 1135.54 498.419
1958 0 59.1089 11.7918 697 82.396 1135.1 497.303
1959 0 61.0514 12.5141 764 79.9241 1134.85 496.237
1960 0 61.0983 12.6681 774 79.2726 1135.04 495.929
1961 0 63.0779 12.3181 777 79.9395 1135.47 495.463
1962 0 65.1296 12.2064 795 81.0226 1135.49 494.493
1963 0 68.1086 13.082 891 79.3704 1135.85 493.932
1964 0 69.11 12.6031 871 80.5235 1135.39 492.065
1965 0 71.1124 12.6279 898 80.118 1135.72 491.832
1966 0 76.1553 12.6977 967 79.8862 1135.73 490.07
1967 0 76.103 13.0218 991 81.4561 1135.34 488.955
1968 0 80.0594 13.1277 1051 80.6965 1135.87 488.808
1969 0 82.0772 13.1583 1080 80.1491 1135.43 486.933
1970 0 84.1752 13.1393 1106 81.406 1135.72 484.375
1971 0 88.1696 13.5194 1192 79.3112 1135.97 484.935
1972 0 89.0555 13.1042 1167 80.3693 1135.72 484.262
1973 0 92.1007 13.963 1286 78.2799 1135.58 483.367
1974 0 95.1145 13.2577 1261 79.2466 1135.85 482.188
1975 0 96.0758 13.4373 1291 80.1077 1134.53 480.501
1976 0 100.108 13.2757 1329 80.088 1135.27 479.51
1977 0 102.092 13.3017 1358 81.9219 1135.35 477.352
1978 0 105.081 13.2754 1395 81.2674 1134.8 475.611
1979 0 110.152 13.9353 1535 80.3238 1134.13 475.046
1980 0 111.112 12.5099 1390 83.518 1135 474.083
1981 0 116.118 13.0385 1514 82.1288 1134.59 473.314
1982 0 120.091 12.9068 1550 83.7548 1135.42 470.954
1983 0 123.068 13.1229 1615 83.7864 1135.64 466.877
1984 0 128.138 13.6416 1748 81.865 1135.75 467.128
1985 0 131.102 13.6916 1795 82.6975 1135.53 463.542
1986 0 138.171 13.201 1824 84.301 1135.8 460.497
1987 1 74.0525 12.4236 920 89.1967 1135.75 490.68
1988 0 78.0754 12.5648 981 88.6473 1135.67 489.086
1989 0 80.0855 13.4981 1081 87.716 1135.23 487.43
1990 0 80.1001 12.9088 1034 86.0261 1135.03 486.451
1991 0 83.0264 13.0079 1080 83.1509 1134.73 486.119
1992 0 86.1062 12.9607 1116 83.5905 1134.59 483.537
1993 0 88.0473 13.1066 1154 84.4411 1135.2 482.444
1994 0 92.1544 13.2495 1221 84.0491 1134.82 482.183
1995 0 94.0492 13.6099 1280 87.1391 1135.21 480.249
1996 0 95.0581 13.3392 1268 89.791 1135.01 478.778
1997 0 98.05 13.0036 1275 91.6565 1135.31 475.642
1998 0 100.053 13.1131 1312 91.1753 1135.67 475.472
1999 0 104.058 13.3002 1384 90.8078 1135.85 473.764
2000 0 104.058 13.3867 1393 155.136 1135.85 473.698
2001 0 109.07 12.9275 1410 92.0908 1135.31 472.168
2002 0 112.107 13.282 1489 92.5534 1134.54 467.897
2003 0 117.145 13.94 1633 92.0821 1135.18 467.591
2004 0 121.195 14.2498 1727 91.1534 1134.85 466.31
2005 0 123.312 13.8105 1703 93.2337 1134.85 463.033
2006 0 128.203 13.7984 1769 93.6094 1134.83 463.034
2007 0 131.441 13.6639 1796 94.9566 1134.34 459.008
2008 0 137.28 14.139 1941 94.8078 1134.94 457.656
2009 0 142.384 13.6954 1950 96.5051 1135.38 454.108
2010 0 146.321 13.9761 2045 97.4225 1134.69 450.188
2011 1 77.3959 11.4993 890 90.0708 1135.25 488.603
2012 0 79.4699 11.539 917 92.4318 1135.09 486.523
2013 0 82.4287 11.8527 977 91.8813 1134.88 485.655
2014 0 85.4321 12.15 1038 91.8526 1134.33 483.842
2015 0 87.3724 12.5097 1093 92.6889 1134.55 482.394
2016 0 91.3662 12.0614 1102 94.2151 1135.2 479.503
2017 0 94.232 12.1296 1143 95.9405 1135.4 479.057
2018 0 97.1519 12.4033 1205 96.0266 1135.61 478.09
2019 0 100.269 12.4466 1248 96.3798 1135.43 476.884
2020 0 102.156 12.3635 1263 97.1425 1134.73 475.854
2021 0 106.283 13.5017 1435 94.0334 1134.89 474.463
2022 0 109.375 12.0777 1321 97.2006 1134.8 472.366
2023 0 113.225 12.7092 1439 96.1723 1134.38 470.3
2024 0 118.339 13.1402 1555 94.908 1135.13 469.53
2025 0 118.217 12.3586 1461 97.5654 1135.1 466.792
2026 0 124.334 13.1179 1631 95.3421 1135.52 464.32
2027 0 129.473 12.9139 1672 95.4922 1135.17 460.388
2028 1 69.5853 11.4536 797 96.7328 1134.58 490.813
2029 0 75.2679 12.5552 945 93.5026 1135.02 487.647
2030 0 77.0623 12.5094 964 94.2251 1135.63 488.324
2031 0 79.2027 12.6258 1000 95.48 1135.9 485.85
2032 0 79.102 11.9719 947 94.8268 1135.62 486.504
2033 0 84.068 12.3353 1037 96.4397 1136.06 484.246
2034 0 87.0636 12.577 1095 96.9425 1135.73 482.647
2035 0 89.0576 12.7895 1139 95.7849 1135.57 481.485
2036 0 93.0825 12.4083 1155 98.3957 1134.79 479.958
2037 0 96.0917 12.998 1249 98.5492 1134.66 478.114
2038 0 99.1071 13.2584 1314 101.699 1135.96 475.361
2039 0 103.068 13.0497 1345 100.48 1135.83 473.701
2040 0 105.132 12.4796 1312 101.82 1135.08 471.514
2041 0 110.107 12.4424 1370 101.414 1135.86 471.533
2042 0 113.086 12.8398 1452 101.158 1135.46 470.468
2043 0 118.138 12.8748 1521 101.808 1135.25 467.22
2044 0 123.095 13.5424 1667 101.144 1135.98 464.191
2045 1 62.0539 11.2966 701 99.7019 1135.92 492.108
2046 0 65.1001 12.1352 790 98.219 1135.15 491.39
2047 0 67.0457 12.4393 834 99.9712 1135.41 490.18
2048 0 70.0416 12.3355 864 101.678 1135.53 488.907
2049 0 71.027 11.9532 849 105.41 1135.93 488.194
2050 0 74.0421 12.4794 924 103.793 1136.18 486.968
2051 0 78.039 12.5194 977 101.885 1135.78 485.74
2052 0 77.0336 12.6049 971 103.9 1135.96 484.91
2053 0 81.0904 13.3061 1079 101.733 1134.85 482.956
2054 0 83.0984 13.5622 1127 100.715 1135.46 483.333
2055 0 85.1114 13.0535 1111 102.483 1135.04 481.993
2056 0 87.0935 12.9057 1124 102.738 1135.66 480.353
2057 0 89.1054 13.0856 1166 103.006 1135.73 478.979
2058 0 93.0926 13.406 1248 101.426 1135.76 478.083
2059 0 95.1499 13.3579 1271 101.179 1135.15 475.824
2060 0 98.1474 13.0722 1283 101.203 1134.99 475.161
2061 0 100.254 13.0468 1308 101.889 1135.7 473.237
2062 0 104.191 12.7938 1333 101.365 1135.89 471.677
2063 1 54.0735 11.4659 620 100.026 1135.25 494.65
2064 0 55.0836 11.1648 615 100.511 1135.79 494.733
2065 0 57.0851 12.0347 687 97.9651 1135.78 494.083
2066 0 58.1085 12.2874 714 98.4986 1135.52 493.343
2067 0 61.1196 12.4346 760 96.4842 1134.77 492.634
2068 0 62.0647 11.9069 739 96.4005 1135.03 492.945
2069 0 63.0291 12.2483 772 94.8614 1135.04 492.171
2070 0 63.0523 12.4658 786 95.4466 1135.01 490.492
2071 0 67.0494 11.9315 800 95.2788 1135.02 489.541
2072 0 66.0281 11.9798 791 95.7168 1134.65 488.282
2073 0 71.081 12.5631 893 93.6517 1134.41 485.615
2074 0 73.0352 12.8705 940 92.6947 1134.62 484.258
2075 0 74.0375 12.6963 940 94.7415 1134.51 482.243
2076 0 77.0346 13.124 1011 94.2077 1135.09 479.824
2077 0 79.0497 12.8021 1012 95.2213 1135.07 478.186
2078 0 81.0492 13.0785 1060 94.0698 1134.45 476.964
2080 0 82.0799 12.6828 1041 95.9664 1134.53 475.372
2081 0 88.133 12.2996 1084 95.9714 1134.7 474.104
2082 0 90.0789 12.8332 1156 94.3183 1135.38 471.344
2083 1 47.0153 9.63516 453 90.5232 1135.08 495.519
2084 0 49.0456 9.60331 471 87.9618 1135.32 496.713
2085 0 51.0749 10.1028 516 86.6202 1135.7 496.521
2086 0 52.2789 10.6161 555 82.2306 1134.52 494.067
2087 0 54.1674 11.2983 612 80.6748 1134.58 492.74
2088 0 54.113 10.9585 593 78.0742 1133.85 494.118
2089 0 54.0811 10.6692 577 78.8908 1134.35 491.983
2090 0 56.0964 11.3911 639 76.9343 1134.71 491.721
2091 0 59.1129 11.1651 660 76.2939 1135.42 490.364
2092 0 62.1341 10.6061 659 76.217 1134.99 489.178
2093 0 63.1381 11.3244 715 74.9916 1135.37 488.186
2094 0 67.1108 12.0696 810 71.8025 1135.75 487.617
2095 0 67.1334 11.4697 770 73.8948 1135.75 486.606
2096 0 69.1091 11.6483 805 73.4745 1135.29 485.324
2097 0 73.1587 11.7826 862 72.2935 1134.32 483.706
2098 0 73.1258 11.5965 848 73.5849 1134.49 483.946
2099 0 78.1343 11.5058 899 73.1969 1134.53 482.746
2100 0 80.1454 12.0157 963 73.7684 1134.32 480.753
2101 0 82.1274 11.6892 960 74.5833 1134.7 480.942
2102 0 84.0285 11.9007 1000 75.641 1134.27 480.22
2103 0 85.1253 12.2173 1040 76.1567 1134.65 476.823
2104 0 89.0605 12.2389 1090 76.0184 1135.71 474.679
2105 0 90.1269 11.85 1068 78.3511 1135.63 473.662
2106 0 92.1163 11.3769 1048 79.813 1134.94 473.431
2107 0 96.1597 11.4913 1105 80.324 1135.39 473.205
2108 0 101.134 11.5391 1167 79.4499 1135.35 471.194
2109 0 103.061 11.5563 1191 81.047 1135.17 468.463
2110 1 56.0402 9.99282 560 81.1089 1134.12 493.009
2111 0 57.036 10.2041 582 78.957 1134.56 492.172
2112 0 59.0217 10.0472 593 77.7302 1135.06 490.363
2113 0 60.0699 10.3712 623 78.3852 1134.81 490.413
2114 0 62.1075 10.4013 646 79.1532 1134.98 489.204
2115 0 64.0445 11.1017 711 77.2124 1134.71 486.89
2116 0 65.1012 10.1073 658 79.5274 1134.7 485.002
2117 0 68.1214 11.0244 751 78.3941 1134.69 485.747
2118 0 70.0727 11.0029 771 78.6874 1135.85 483.755
2119 0 71.1157 10.9821 781 80.3188 1135.78 485.152
2120 0 71.0941 10.6479 757 80.5997 1135.93 482.929
2121 0 73.0343 10.2007 745 81.1315 1136.06 481.06
2122 0 77.0276 10.8533 836 79.2727 1136.13 480.27
2123 0 79.0146 10.2766 812 80.1502 1136.18 478.776
2124 0 78.0341 9.35488 730 84.0452 1136.79 479.968
2125 0 80.0382 8.09614 648 85.6219 1135.73 481.315
2126 0 81.0763 8.72018 707 85.5743 1135.2 480.19
2127 0 80.0562 7.3948 592 87.5963 1136.22 480.039
2128 1 45.0346 9.74807 439 81.4533 1136.77 497.383
2129 0 47.0637 9.09406 428 82.7523 1136.43 495.666
2130 0 49.087 8.82107 433 82.3718 1136.21 493.028
2131 0 51.0366 9.85566 503 80.9304 1136.63 493.173
2132 0 49.057 7.74608 380 86.3079 1136.79 495.013
2133 0 51.0538 7.81529 399 85.0677 1137.14 496.441
2134 0 50.0474 8.63182 432 85.2824 1136.99 493.6
2135 0 53.055 8.6891 461 83.577 1137.26 493.948
2136 0 55.0621 9.31675 513 82.0838 1137.37 491.706
2137 0 58.0949 9.03694 525 82.6629 1137.63 491.4
2138 0 57.0866 8.39076 479 82.3215 1137.47 490.405
2139 0 65.069 10.4197 678 76.8555 1136.61 488.24
2140 0 66.0826 10.2448 677 77.6573 1136.33 488.917
2141 0 69.1302 9.99563 691 78.2272 1136.11 489.343
2142 0 70.0654 10.5473 739 77.8755 1136.07 487.037
2143 0 71.0326 10.0799 716 77.7919 1136.05 487.358
2144 0 75.0899 11.0135 827 77.1814 1136.3 482.08
2145 0 79.0782 11.5202 911 76.2755 1136.04 480.828
2146 0 77.1008 11.3099 872 80.781 1136.34 482.151
2147 0 80.0983 11.823 947 80.9282 1136.27 480.241
2148 0 81.0755 12.1615 986 82.4696 1137.45 481.516
2149 0 82.1156 12.4459 1022 83.7084 1137.02 480.458
2150 0 84.0369 11.6258 977 87.3767 1136.97 478.14
2151 0 88.08 12.2389 1078 86.8367 1137.01 477.764
2152 0 88.0606 13.9109 1225 86.1494 1137.01 477.856
2153 0 88.0463 12.9023 1136 88.7826 1136.68 476.665
2154 0 90.0452 12.3605 1113 93.4483 1137.21 477.084
2155 0 92.0754 12.9133 1189 91.1758 1137.14 476.939
2156 0 93.0548 12.67 1179 94.302 1136.78 474.662
2157 0 97.0574 12.3844 1202 95.1373 1136.94 473.772
2158 0 102.056 12.356 1261 94.613 1137.22 473.266
2159 0 104.06 12.3005 1280 94.1188 1136.58 470.69
2160 0 108.126 12.6242 1365 93.4557 1137.69 468.87
2161 0 110.174 12.217 1346 95.9651 1137.72 466.005
2162 1 59.0354 10.7224 633 96.0032 1137.12 491.981
2163 0 60.0248 11.1454 669 96.0448 1137.72 492.567
2164 0 61.0287 11.2734 688 97.2674 1137.47 490.997
2165 0 60.0367 12.4924 750 96.3733 1137.54 491.123
2166 0 61.0273 13.1089 800 97.6962 1137.95 490.582
2167 0 62.0266 12.8977 800 99.6912 1138.13 491.199
2168 0 59.0867 14.0472 830 97.6494 1138.12 491.318
2169 0 61.0382 12.5331 765 104.648 1138.23 491.69
2170 0 64.0198 12.7773 818 101.987 1137.74 490.628
2171 0 64.0326 12.5249 802 104.343 1138.07 490.271
2172 0 64.0207 12.5584 804 105.547 1137.79 489.718
2173 0 63.0209 12.7259 802 105.581 1137.83 489.471
2174 0 63.023 11.6624 735 109.351 1139.01 489.067
2175 0 65.0109 12.3825 805 105.727 1138.56 489.916
2176 0 65.0245 11.5803 753 107.344 1138.21 489.084
2177 0 64.0315 12.1034 775 106.732 1138.38 488.143
2178 0 64.0246 12.0266 770 107.475 1138.35 488.27
2179 0 65.0241 12.3646 804 110.413 1137.36 491.694
2180 0 62.019 11.2869 700 111.01 1138.06 489.783
2181 0 64.0182 11.1062 711 110.321 1137.85 489.731
2182 0 64.022 11.7616 753 107.68 1137.86 488.753
2183 0 63.0293 10.63 670 110.2 1138.33 490.069
2184 0 63.0265 10.9002 687 107.638 1138.38 490.448
2185 0 63.024 11.5829 730 105.279 1138.62 490.388
2186 0 63.042 10.6754 673 108.588 1138.16 489.857
2187 0 63.0158 11.3146 713 109.066 1137.64 491.554
2188 0 63.0426 10.7864 680 105.468 1138.27 490.644
2189 0 64.0149 10.935 700 104.141 1137.69 490.6
2190 0 63.0765 10.9233 689 103.662 1138.26 491.132
2191 0 65.0441 11.1309 724 100.605 1137.73 490.229
2192 0 63.0179 11.6316 733 98.0696 1137.99 489.482
2193 0 65.0322 11.1483 725 98.3517 1137.9 488.84
2194 0 64.0584 12.2232 783 94.3333 1138.41 488.032
2195 0 65.099 11.5363 751 95.4061 1137.84 489.895
2196 0 66.081 11.7583 777 92.9498 1138.16 489.242
2197 0 65.0531 11.7904 767 92.189 1138.42 488.473
2198 0 65.059 11.6817 760 91.9421 1137.51 489.741
2199 0 63.0297 11.1376 702 93.4473 1137.64 489.65
2200 0 65.068 11.2344 731 91.1601 1137.76 489.252
2201 0 65.0531 12.1286 789 90.7148 1137.64 491.307
2202 0 66.0212 12.4657 823 88.7667 1138.58 491.458
2203 0 67.0446 12.887 864 82.9977 1138.84 489.191
2204 0 67.077 12.6273 847 83.0886 1137.97 489.432
2205 0 65.0407 12.3615 804 83.6915 1138.41 489.821
2206 0 67.0376 12.1574 815 82.0687 1138.45 489.777
2207 0 67.0606 12.2725 823 81.729 1137.71 489.904
2208 0 66.015 12.073 797 82.0314 1138.31 490.393
2209 0 68.0262 11.9366 812 80.9101 1137.36 489.921
2210 0 65.0889 12.4138 808 78.7772 1138.44 490.193
2211 0 67.0504 11.8269 793 78.0277 1138.29 490.139
2212 0 64.0525 11.4594 734 76.0191 1138.26 491.48
2213 0 67.0545 11.349 761 80.3456 1138.18 490.59
2214 0 67.0296 11.2935 757 80.1083 1138.76 490.287
2215 0 66.0432 11.4471 756 80.9511 1138.72 492.86
2216 0 64.0302 10.9792 703 81.7155 1138.77 490.815
2217 0 66.0314 12.7969 845 75.7195 1137.92 491.974
2218 0 63.0369 11.1998 706 80.6303 1137.75 491.282
2219 0 61.0336 10.9448 668 80.7919 1137.68 490.56
2220 0 65.0634 10.9278 711 79.7384 1138.24 491.847
2221 0 64.0366 11.0718 709 79.2116 1137.11 491.375
2222 0 63.0477 11.3248 714 78.4762 1137.66 491.237
2223 0 64.0362 11.0562 708 77.2387 1137.51 492.414
2224 0 62.0397 10.5094 652 79.6503 1137.84 493.032
2225 0 65.0282 11.6257 756 75.3095 1138.29 492.294
2226 0 63.0554 10.6732 673 76.1545 1138 490.945
2227 0 65.0714 11.5719 753 73.9668 1137.49 491.231
2228 0 65.0441 11.5153 749 73.8892 1137.62 491.541
2229 0 65.035 11.2247 730 73.6794 1137.83 492.486
2230 0 63.0692 12.0503 760 67.6592 1137.56 492.354
2231 0 64.0246 11.9798 767 73.5085 1136.57 491.128
2232 0 63.0566 11.7513 741 72.6221 1137.46 492.404
2233 0 63.013 11.1088 700 72.9357 1137.69 493.084
2234 0 64.057 11.1775 716 73.5978 1136.99 492.609
2235 0 67.0249 10.608 711 71.3994 1137.61 495.014
2236 0 65.0628 9.34481 608 71.6349 1137.19 491.798
2237 0 67.0464 9.17274 615 69.9837 1137.31 489.878
2238 0 66.0615 9.85446 651 70.2857 1137.13 491.424
2239 0 66.0343 10.222 675 69.4696 1137.5 489.359
2240 0 66.0327 9.60131 634 69.7256 1137.76 489.989
2241 0 69.0373 10.8782 751 68.8136 1137.06 490.057
2242 0 69.0676 10.1495 701 68.4394 1136.86 490.599
2243 0 69.0216 9.73608 672 68.5521 1136.91 490.964
2244 0 70.0815 10.7732 755 66.8053 1136.8 487.461
2245 0 69.0295 9.44524 652 68.8405 1136.9 488.011
2246 0 73.0883 10.2752 751 66.9427 1136.14 485.586
2247 0 71.0622 10.0898 717 68.2538 1136.26 485.621
2248 0 73.0567 10.6903 781 66.7388 1136.71 484.795
2249 0 73.0932 10.2061 746 67.244 1136.49 484.964
2250 0 74.1149 10.6321 788 66.1041 1136.9 482.972
2251 0 80.0612 12.353 989 64.0637 1136.87 482.023
2252 0 83.0777 12.7712 1061 62.573 1136.54 484.123
2253 0 82.1123 11.3868 935 64.8503 1136.61 485.532
2254 0 82.0863 10.9032 895 65.6369 1136.71 484.565
2255 0 85.0853 11.3063 962 63.501 1136.94 480.425
2256 0 85.1517 10.8865 927 64.0917 1136.83 480.136
2257 0 86.0902 10.5587 909 65.2079 1136.81 480.908
2258 0 90.1774 10.8675 980 64.5265 1137.01 478.141
2259 0 90.1133 11.1637 1006 65.0686 1136.46 472.859
2260 0 94.1874 12.008 1131 63.3811 1136.26 474.026
2261 0 98.0353 11.7815 1155 64.1437 1136.69 472.92
2262 0 101.074 11.1997 1132 66.5044 1136.72 470.945
2263 0 103.135 11.9552 1233 66.1103 1137.12 468.165
2264 0 107.167 11.5054 1233 66.7802 1137.28 467.353
2265 1 56.0261 9.54912 535 69.9327 1137.32 492.88
2266 0 57.104 10.297 588 71.4524 1137.69 490.1
2267 0 60.1101 11.063 665 69.797 1137.11 490.803
2268 0 61.1076 11.4879 702 69.396 1137.46 493.214
2269 0 64.0422 11.9765 767 68.3338 1137.39 491.992
2270 0 64.1077 11.7771 755 69.0768 1137.54 489.657
2271 0 64.0794 11.1268 713 68.8738 1137.09 487.546
2272 0 66.0646 11.6704 771 67.8962 1136.99 487.414
2273 0 68.0305 11.2303 764 69.038 1137.89 485.971
2274 0 69.0759 11.6394 804 68.8085 1138.24 485.889
2275 0 73.0449 12.1706 889 68.2958 1137.69 485.211
2276 0 75.0412 11.567 868 70.4827 1137.5 484.457
2277 0 76.0563 11.3469 863 71.3152 1137.26 483.017
2278 0 78.0608 12.0675 942 71.6762 1136.75 481.386
2279 0 81.03 11.687 947 72.0127 1137.32 481.607
2280 0 82.0462 11.1766 917 73.8626 1137.85 479.152
2281 0 84.0802 11.382 957 72.8244 1136.82 477.428
2282 0 89.1604 12.1242 1081 71.728 1137.09 476.116
2283 1 45.0308 9.12709 411 75.6156 1137.35 499.752
2284 0 46.0357 10.1009 465 74.4473 1136.74 498.045
2285 0 48.0342 10.2219 491 72.9287 1138.36 500.415
2286 0 48.0172 9.9756 479 76.0626 1137.54 501.188
2287 0 47.0393 9.14128 430 76.6465 1137.44 501.686
2288 0 50.0557 9.12983 457 75.5624 1137.45 499.398
2289 0 49.114 8.18504 402 75.1169 1137.5 498.721
2290 0 54.1074 10.3683 561 77.4136 1137.29 501.201
2291 0 53.0562 8.55697 454 72.0969 1137.68 498.238
2292 0 56.0952 9.39474 527 78.1082 1137.57 501.192
2293 0 55.1404 8.07031 445 71.7124 1137.18 496.544
2294 0 57.1842 8.49886 486 70.7387 1137.98 497.963
2295 0 55.141 7.74378 427 71.7026 1137.52 494.398
2296 0 59.0687 8.60016 508 68.3012 1137.59 490.76
2297 0 60.1205 9.13166 549 69.102 1137.18 489.06
2298 0 64.2542 8.55975 550 68.8055 1136.91 490.015
2299 0 66.2638 8.64726 573 69.3351 1136.74 489.03
2300 0 68.2043 9.19297 627 73.5869 1136.84 487.258
2301 0 66.2137 9.30321 616 69.3864 1136.68 484.729
2302 0 72.3872 9.62878 697 69.7575 1136.93 482.186
2303 0 71.1662 9.04924 644 70.8245 1137.59 480.175
2304 0 78.3335 10.4808 821 69.3459 1137.84 478.724
2305 1 40.166 8.1412 327 72.315 1138.06 500.024
2306 0 41.172 8.25805 340 67.3382 1137.24 500.706
2307 0 45.0898 9.66958 436 67.4977 1136.77 502.571
2308 0 48.141 11.0924 534 67.294 1136.3 503.721
2309 0 48.0789 11.4603 551 71.1978 1134.55 502.599
2310 0 49.0829 11.2667 553 70.2025 1137.12 504.152
2311 0 51.1283 11.0311 564 70.7979 1137.27 502.7
2312 0 50.1787 11.1003 557 72.0215 1137.53 502.11
2313 0 53.1201 11.5399 613 70.925 1136.59 502.171
2314 0 54.1112 11.1068 601 72.7737 1135.76 500.752
2315 0 53.0361 10.1629 539 76.4286 1135.81 501.373
2316 0 53.0806 10.3051 547 76.6984 1136.61 501.119
2317 0 55.0726 10.5497 581 76.1876 1137.09 500.694
2318 0 55.0926 9.49311 523 78.0612 1136.7 499.581
2319 0 57.0142 10.1203 577 77.0451 1136.26 497.69
2320 0 59.1231 10.5204 622 75.7363 1135.99 495.285
2321 0 61.048 9.94299 607 76.2949 1136.32 494.418
2322 0 65.0762 10.48 682 74.9707 1136.05 494.682
2323 0 65.0355 10.0714 655 76.3695 1136.29 492.962
2324 0 66.1218 11.01 728 74.9794 1136.01 493.319
2325 0 69.068 10.4245 720 75.4972 1135.91 492.547
2326 0 71.0835 10.6213 755 77.4927 1136.34 489.776
2327 0 75.0906 10.6272 798 76.7982 1136.71 487.981
2328 0 76.0843 11.2112 853 78.4994 1137.11 487.273
2329 0 72.1098 11.2467 811 82.455 1136.76 486.954
2330 0 75.1223 11.9938 901 82.0566 1136.48 486.072
2331 0 77.0827 11.5331 889 83.9786 1136.81 484.037
2332 0 78.0925 12.4596 973 83.7256 1137.78 484.713
2333 0 79.0973 12.3519 977 84.8618 1137.31 484.173
2334 1 39.0423 9.83549 384 92.8932 1137.42 503.495
2335 0 42.0056 10.5938 445 89.8831 1138.24 503.735
2336 0 42.0247 10.7318 451 91.3481 1137.52 503.63
2337 0 43.0066 11.5796 498 88.0562 1137.85 504.392
2338 0 44.0225 10.5401 464 92.7457 1137.51 505.476
2339 0 44.0279 10.8795 479 93.0898 1137.67 503.956
2340 0 45.025 11.1938 504 93.5099 1138.42 504.103
2341 0 45.0298 11.5701 521 93.3743 1138.05 503.353
2342 0 46.0303 11.5359 531 94.8362 1138.47 504.478
2343 0 48.0338 12.3038 591 94.286 1137.86 504.519
2344 0 50.038 12.1308 607 95.5124 1137.81 503.667
2345 0 52.0275 12.3396 642 94.6542 1137.75 503.528
2346 0 53.0443 12.499 663 94.0151 1138.58 503.531
2347 0 54.1143 12.7138 688 95.202 1138.44 502.725
2348 0 49.0451 11.3977 559 104.621 1137.63 504.447
2349 0 51.035 11.208 572 105.283 1137.8 505.755
2350 0 53.0525 11.6865 620 104.585 1137.26 504.582
2351 0 53.0374 11.2373 596 107.374 1136.79 503.94
2352 0 56.0677 11.1651 626 107.181 1136.86 503.634
2353 0 57.1071 11.2595 643 108.991 1136.98 503.669
2354 0 58.1363 11.7483 683 109.146 1136.08 502.965
2355 0 59.0398 12.3137 727 108.519 1136.17 503.425
2356 0 61.0887 11.6388 711 111.508 1135.83 502.961
2357 0 60.0898 11.8323 711 116.859 1135.75 502.506
2358 0 61.0635 12.0694 737 117.992 1136.05 502.11
2359 0 64.1025 12.1524 779 116.754 1135.52 502.356
2360 0 64.1617 11.9386 766 118.298 1135.68 502.12
2361 0 67.1245 12.3055 826 116.479 1135.29 502.011
2362 0 66.0654 11.2616 744 121.694 1135.31 501.625
2363 0 70.1055 11.8678 832 117.772 1134.85 501.125
2364 0 69.065 11.7426 811 120.783 1134.53 499.958
2365 0 71.0612 11.9334 848 122.127 1134.47 498.375
2366 0 73.0367 12.1309 886 119.183 1134.91 497.611
2367 0 75.0556 11.5781 869 120.409 1134.17 496.359
2368 0 79.037 12.1209 958 116.916 1134.21 496.036
2369 1 40.0795 12.1758 488 120.777 1135.63 512
2370 0 41.092 11.8515 487 122.614 1133.79 510.719
2371 0 44.0969 11.8149 521 121.463 1133.36 509.891
2372 0 45.0638 12.2049 550 120.418 1132.83 510.036
2373 0 46.1048 12.7536 588 118.5 1132.99 508.767
2374 0 44.0666 11.6415 513 124.363 1133.67 509.795
2375 0 45.0656 11.5165 519 122.206 1133.69 510.921
2376 0 45.0964 11.4421 516 122.556 1133.7 510.093
2377 0 45.104 11.2407 507 122.698 1134.3 509.278
2378 0 48.054 12.3195 592 115.439 1134.33 509.736
2379 0 47.0726 11.9815 564 117.947 1134.42 508.268
2380 0 51.0898 11.3721 581 117.222 1134.19 507.139
2381 0 52.1254 11.8368 617 116.83 1133.43 504.712
2382 0 54.1256 12.1569 658 114.508 1133.8 504.014
2383 0 54.1636 11.8345 641 116.558 1134.11 503.881
2384 0 57.1328 12.3572 706 114.657 1134.04 502.691
2385 0 58.1423 12.4522 724 116.238 1133.28 501.175
2386 0 58.1816 12.0829 703 118.868 1134.57 500.61
2387 0 60.1571 12.5505 755 116.041 1134.5 501.242
2388 0 62.1351 12.5855 782 111.074 1134.29 498.904
2389 0 64.1229 12.4605 799 109.884 1133.98 498.233
2390 0 66.1126 12.1762 805 111.087 1133.6 496.653
2391 0 67.0658 12.7636 856 109.363 1134.73 495.936
2392 0 70.0698 12.5018 876 110.764 1134.33 494.612
2393 0 70.1922 12.3945 870 111.649 1134.5 493.11
2394 1 38.0151 10.7063 407 116.241 1134.78 507.993
2395 0 40.0637 11.4068 457 113.88 1134.93 507.179
2396 0 40.024 11.7429 470 115.043 1134.74 505.787
2397 0 41.0215 11.7012 480 113.273 1135.02 505.294
2398 0 43.0079 12.0908 520 110.838 1134.17 504.837
2399 0 45.0098 12.3751 557 108.587 1133.9 503.623
2400 0 45.0114 12.2636 552 109.234 1134.57 503.429
2401 0 47.0257 12.5038 588 108.235 1134.55 502.582
2402 0 47.065 11.5372 543 107.077 1135.24 502.961
2403 0 47.0272 11.8229 556 108.696 1134.53 503.085
2404 0 49.0249 11.7083 574 106.678 1134.75 503.474
2405 0 50.0097 11.0779 554 108.538 1135.59 502.009
2406 0 51.0396 11.2266 573 105.712 1136.05 502.269
2407 0 52.0355 11.6267 605 105.007 1135.86 500.631
2408 0 55.0508 11.8254 651 103.515 1136.21 499.691
2409 0 54.0466 11.6381 629 104.417 1136.29 499.037
2410 0 56.0412 11.331 635 103.964 1136.46 498.532
2411 0 58.0334 11.5106 668 103.397 1137.28 497.43
2412 0 59.0516 12.3113 727 100.66 1136.73 497.443
2413 0 60.0827 12.0168 722 101.277 1136.44 496.795
2414 0 62.0416 11.5084 714 102.366 1136.19 495.794
2415 0 62.0753 11.3089 702 103.187 1136.6 494.798
2416 0 65.0982 12.2584 798 99.7118 1136.71 492.573
2417 0 66.046 11.4314 755 100.788 1136.42 492.352
2418 0 70.1306 11.8493 831 99.3044 1135.82 491.077
2419 0 70.0708 11.731 822 99.6569 1136.75 490.571
2420 0 75.1003 11.7043 879 98.8123 1136.86 490.484
2421 0 77.1441 11.0443 852 99.1221 1137.04 489.641
2422 0 80.1686 10.9644 879 96.4676 1136.93 488.609
2423 1 43.079 10.8405 467 99.7987 1137.06 504.555
2424 0 44.0871 10.8649 479 100.14 1136.68 504.271
2425 0 47.0612 11.4319 538 97.1208 1137.21 502.827
2426 0 49.038 11.8683 582 94.4759 1136.71 501.156
2427 0 49.0484 11.662 572 95.6538 1136.91 499.58
2428 0 53.0321 11.8419 628 91.5541 1136.72 499.151
2429 0 54.055 11.5438 624 92.4744 1135.85 497.059
2430 0 54.0515 12.1551 657 92.6058 1136.45 497.059
2431 0 56.0327 12.0644 676 92.7766 1136.64 495.414
2432 0 60.0328 11.9934 720 91.5764 1136.89 494.806
2433 0 61.0574 12.1361 741 91.3954 1136.59 495.167
2434 0 62.0386 12.4116 770 92.313 1136.59 493.578
2435 0 62.0931 12.3846 769 93.394 1136.89 494.017
2436 0 63.0718 11.8437 747 96.5007 1135.96 491.481
2437 0 68.0566 12.0929 823 94.2005 1136.03 490.798
2438 0 69.0207 11.4169 788 97.0152 1136.14 489.044
2439 0 70.0532 12.3906 868 95.7592 1136.43 489.665
2440 0 72.063 12.1005 872 97.6972 1136.18 488.474
2441 0 74.0724 12.3798 917 99.132 1136.29 487.793
2442 0 78.1225 12.3652 966 99.2402 1136.37 486.879
2443 0 80.0747 12.5758 1007 100.774 1136.37 485.965
2444 0 82.087 12.5477 1030 102.286 1136.52 485.376
2445 0 85.1075 12.7016 1081 104.829 1136.68 484.493
2446 0 90.097 13.3856 1206 101.281 1136.77 483.583
2447 0 90.0964 12.7752 1151 104.057 1136.17 479.619
2448 0 92.0994 12.5299 1154 106.593 1136.4 477.856
2449 0 96.0779 12.5419 1205 107.933 1136.56 477.687
2450 0 100.144 13.4007 1342 104.088 1136.52 477.391
2451 0 102.226 12.5115 1279 105.272 1136.26 476.923
2452 0 107.141 13.1229 1406 103.043 1135.87 475.415
2453 0 109.13 12.8104 1398 103.843 1136.65 473.887
2454 0 111.106 12.8706 1430 104.665 1135.5 472.592
2455 1 59.0569 11.0571 653 101.642 1136.52 498.251
2456 0 62.0922 11.7084 727 99.2545 1136.56 498.979
2457 0 61.0243 12.2902 750 98.9747 1136.05 497.611
2458 0 64.0796 12.5313 803 98.3786 1136.54 495.052
2459 0 66.0395 13.3859 884 96.2738 1136.69 493.12
2460 0 66.0222 12.5564 829 93.4041 1136.82 490.965
2461 0 67.0231 12.5181 839 93.8451 1136.75 491.526
2462 0 70.1197 11.9653 839 93.6114 1135.56 490.072
2463 0 73.028 12.7896 934 92.091 1136.2 488.607
2464 0 74.0437 11.9929 888 95.5191 1136.15 486.99
2465 0 79.0401 12.2722 970 93.4175 1135.72 486.594
2466 0 81.037 11.9575 969 93.323 1135.4 484.854
2467 0 83.1497 12.3753 1029 92.792 1135.99 483.005
2468 0 87.0911 12.1941 1062 91.9896 1135.82 481.279
2469 0 89.0645 12.6538 1127 91.071 1136.68 481.346
2470 0 92.0509 12.4279 1144 90.7736 1136.01 479.441
2471 0 93.0512 12.2191 1137 90.1372 1136.12 478.322
2472 0 99.0785 12.7677 1265 88.5178 1136.12 477.711
2473 0 101.128 12.7463 1289 88.4391 1136.32 477.77
2474 0 102.118 12.1918 1245 91.2667 1136.17 474.327
2475 0 105.058 12.0125 1262 92.5404 1136.58 473.321
2476 0 110.114 12.9957 1431 92.1041 1136.75 470.535
2477 0 113.076 13.1063 1482 93.3941 1136.75 468.47
2478 0 117.192 13.6102 1595 96.8633 1136.28 466.706
2479 0 122.136 14.0499 1716 96.5484 1136.3 463.414
2480 0 125.161 13.7743 1724 97.4014 1135.83 461.644
2481 0 128.219 12.7205 1631 97.9442 1136.51 461.855
2482 0 133.206 12.7097 1693 95.6663 1136.5 460.758
2483 0 134.077 11.8066 1583 98.386 1136.23 457.656
2484 1 76.0515 11.65 886 89.5745 1136.94 489.498
2485 0 79.0562 12.1053 957 89.9195 1136.86 488.341
2486 0 80.0688 12.177 975 85.2677 1136.72 487.083
2487 0 81.0413 11.8335 959 86.7393 1136.76 486.493
2488 0 83.0811 11.7476 976 89.0389 1136.43 484.209
2489 0 86.1334 11.3777 980 89.2408 1136.2 482.492
2490 0 89.0734 11.5972 1033 88.3224 1135.96 480.403
2491 0 95.0962 12.5031 1189 86.4146 1135.95 479.819
2492 0 97.1018 12.4303 1207 87.9602 1136.18 477.961
2493 0 100.179 12.5076 1253 92.68 1135.58 474.833
2494 0 103.149 12.6128 1301 92.5603 1135.06 470.991
2495 0 105.193 12.9096 1358 97.3196 1134.93 470.761
2496 0 110.174 12.9976 1432 96.5412 1134.79 470.759
2497 0 111.211 12.9843 1444 97.563 1134.86 468.346
2498 0 115.205 13.2807 1530 96.0993 1135.56 466.38
2499 0 119.297 13.4119 1600 94.7069 1135.7 463.806
2500 0 124.341 13.3343 1658 93.2708 1135.34 462.618
2501 0 128.223 12.9461 1660 94.047 1135.39 461.468
2502 0 132.213 12.9715 1715 95.2828 1135.38 458.099
2503 1 72.1798 11.9285 861 93.1498 1135.46 489.598
2504 0 73.1592 11.2358 822 95.3723 1135.96 487.613
2505 0 75.2027 12.4198 934 93.9797 1135.64 486.604
2506 0 78.1756 12.6382 988 87.0283 1135.75 485.958
2507 0 81.1885 13.2408 1075 87.0828 1134.92 484.59
2508 0 83.1972 12.9451 1077 89.4188 1135.86 482.558
2509 0 84.2543 13.1625 1109 89.9648 1135.83 481.402
2510 0 85.1722 12.8328 1093 91.398 1135.34 479.967
2511 0 86.1647 12.5806 1084 93.8432 1135.06 478.294
2512 0 91.242 12.5381 1144 93.2115 1135.05 477.726
2513 0 91.1559 12.2757 1119 94.6264 1135.59 476.514
2514 0 91.1872 12.0741 1101 95.5504 1134.96 475.981
2515 0 96.2096 12.6495 1217 92.8595 1134.77 472.543
2516 0 98.1385 12.248 1202 94.0682 1134.98 469.414
2517 0 99.2366 11.3769 1129 95.2232 1135.36 467.299
2518 0 100.216 11.8344 1186 95.1998 1135.2 464.008
2519 0 105.176 11.7707 1238 93.9976 1135.16 464.032
2520 0 109.182 12.4654 1361 91.9978 1135.23 459.847
2521 0 114.096 12.5246 1429 91.7026 1134.78 457.5
2522 0 117.217 11.9351 1399 93.0529 1134.94 455.543
2523 0 116.214 11.8489 1377 149.284 1134.95 455.347
2524 0 124.222 12.1717 1512 90.752 1134.75 450.903
2525 0 128.183 11.7254 1503 91.5662 1134.33 450.484
2526 1 70.0678 10.5327 738 91.206 1133.33 477.416
2527 0 72.0379 11.3135 815 90.7178 1135.04 478.731
2528 0 77.0567 11.6667 899 86.158 1136.56 481.501
2529 0 78.0445 12.006 937 85.1548 1135.92 478.937
2530 0 83.126 12.463 1036 83.8147 1134.27 476.893
2531 0 84.1368 12.5034 1052 83.9962 1134.6 476.6
2532 0 86.1942 12.1702 1049 84.1497 1133.86 472.4
2533 0 91.1744 12.7229 1160 82.725 1133.95 470.903
2534 0 90.268 12.7842 1154 83.0225 1133.79 469.848
2535 0 93.1628 12.0756 1125 83.8436 1133.49 465.231
2536 0 92.1505 12.2734 1131 84.0035 1133.36 463.931
2537 0 93.1184 12.4036 1155 82.7429 1134.38 461.471
2538 0 98.0999 12.8542 1261 81.6503 1134.48 459.997
2539 0 98.1202 11.7101 1149 83.9608 1134.03 458.048
2540 0 99.1475 11.5485 1145 85.2079 1133.94 456.988
2541 0 106.096 11.5461 1225 83.2571 1133.99 456.746
2542 0 110.135 11.4042 1256 82.1704 1133.95 454.767
2543 1 57.0472 9.22043 526 80.5779 1134.74 481.656
2544 0 66.0401 10.6148 701 79.1484 1135.42 483.786
2545 0 67.0218 10.8621 728 71.9602 1134.34 482.63
2546 0 70.0728 10.6033 743 71.6003 1134.57 480.879
2547 0 72.1142 10.8578 783 69.7203 1135.91 478.709
2548 0 75.0741 11.0957 833 69.4538 1134.96 479.802
2549 0 76.073 10.9894 836 70.8266 1134.96 478.626
2550 0 79.0491 11.4486 905 70.7956 1133.78 476.555
2551 0 82.0607 11.3087 928 70.5442 1133.84 475.5
2552 0 84.0722 11.5972 975 70.7385 1134.49 476.171
2553 0 88.0632 11.7189 1032 70.7035 1134.85 473.996
2554 0 92.1324 11.9719 1103 71.0771 1135.42 473.441
2555 0 94.0934 12.0944 1138 70.4657 1135.76 471.232
2556 0 96.1107 11.2683 1083 70.8781 1136.94 469.338
2557 0 97.0692 10.5286 1022 73.1928 1136 469.069
2558 0 102.149 10.8567 1109 73.6925 1135.5 465.821
2559 0 104.072 9.83933 1024 74.7969 1136.06 465.805
2560 0 110.179 11.4178 1258 75.128 1135.36 462.394
2561 0 114.217 11.7846 1346 78.5639 1134.99 457.853
2562 1 62.0358 9.73632 604 75.3046 1135.04 486.637
2563 0 63.033 10.3755 654 75.6193 1134.74 485.502
2564 0 66.0719 10.9729 725 69.08 1134.87 486.742
2565 0 64.0531 9.57019 613 72.3442 1135.78 488.486
2566 0 67.0243 9.80241 657 72.7245 1135.09 485.91
2567 0 70.0279 10.4101 729 72.0316 1135.1 484.743
2568 0 69.0397 9.64663 666 72.6516 1135.32 480.83
2569 0 71.0191 9.5749 680 75.9221 1135.94 482.574
2570 0 73.0566 9.92381 725 75.9145 1135.61 481.692
2571 0 76.0719 10.2403 779 77.3428 1136 479.949
2572 0 82.0312 11.6785 958 69.4457 1135.87 476.735
2573 0 83.0904 11.5777 962 70.6195 1135.45 475.632
2574 0 85.1036 10.9749 934 73.5139 1135.67 475.769
2575 0 87.119 10.6291 926 74.4352 1135.55 477.117
2576 0 90.158 10.5371 950 76.1821 1135.32 473.037
2577 0 90.0909 10.1897 918 77.8094 1135.75 471.659
2578 0 94.0685 10.5561 993 77.0332 1135.81 471.36
2579 0 96.1341 10.891 1047 77.6944 1135.24 470.866
2580 0 100.062 10.6134 1062 79.4896 1135.5 469.529
2581 0 102.171 10.5803 1081 79.5809 1135.91 468.133
2582 0 107.089 11.5045 1232 83.9237 1134.75 465.359
2583 0 109.233 11.4709 1253 81.3911 1135.64 463.852
2584 0 114.229 12.3787 1414 81.2723 1136.48 457.927
2585 1 65.0806 10.4639 681 79.9192 1136.37 486.439
2586 0 65.1437 10.638 693 78.2237 1136.9 485.14
2587 0 68.1448 10.7418 732 78.3429 1136.8 484.305
2588 0 71.1082 10.8567 772 78.2435 1136.72 482.797
2589 0 75.1894 12.0496 906 75.4371 1136.35 482.625
2590 0 77.1528 11.8077 911 76.6026 1136.32 482.116
2591 0 80.1577 12.7124 1019 76.2326 1136.09 481.155
2592 0 80.1113 12.2455 981 79.0683 1135.88 480.66
2593 0 82.1667 11.6105 954 80.3134 1136.11 478.427
2594 0 84.1557 10.5638 889 83.6288 1136.59 478.61
2595 0 86.2182 10.3922 896 83.0022 1136.12 479.357
2596 0 87.1959 11.0326 962 83.5582 1135.98 475.236
2597 0 90.2013 11.6739 1053 83.2023 1136.54 474.064
2598 0 96.2064 11.4857 1105 82.0706 1136.41 472.762
2599 0 99.237 12.0117 1192 81.6133 1136.34 471.439
2600 0 101.146 11.5378 1167 84.3736 1136.84 471.011
2601 0 105.125 11.7289 1233 84.0032 1136.71 469.017
2602 0 107.181 11.5412 1237 85.2967 1136.06 467.762
2603 0 111.21 11.6626 1297 86.0563 1136.87 464.45
2604 0 112.22 11.7447 1318 87.431 1137.07 462.967
2605 0 117.172 12.0677 1414 87.2298 1136.53 461.44
2606 0 121.115 13.384 1621 84.3806 1136.61 457.548
2607 0 124.183 12.5299 1556 87.2416 1137.3 456.261
2608 0 126.16 11.8263 1492 89.6515 1136.77 454.924
2609 0 130.25 12.0153 1565 89.1757 1136.98 452.054
2610 0 136.231 12.9633 1766 86.2922 1136.66 448.845
2611 0 137.144 12.0603 1654 89.2473 1137.08 447.722
2612 0 143.162 12.189 1745 88.7983 1136.91 447.297
2613 0 147.128 12.411 1826 88.1572 1136.45 442.954
2614 0 152.137 11.9563 1819 90.2023 1136.43 439.752
2615 0 158.104 12.2135 1931 88.9508 1137.2 439.006
2616 0 159.144 12.0646 1920 91.7568 1137.27 436.606
2617 0 166.215 12.6823 2108 90.8373 1136.91 434.314
2618 0 169.164 11.6632 1973 95.0461 1136.34 430.891
2619 0 178.188 12.6496 2254 93.6313 1136.52 429.183
2620 1 94.035 10.5174 989 87.2103 1136.9 474.142
2621 0 98.0899 11.3162 1110 85.9117 1137.23 471.721
2622 0 100.077 11.3812 1139 94.5531 1137.57 469.083
2623 0 102.101 11.5767 1182 87.5499 1136.78 469.772
2624 0 103.154 11.5847 1195 88.9481 1136.75 466.833
2625 0 107.142 11.9188 1277 88.0634 1136.98 464.431
2626 0 111.145 11.9664 1330 88.0699 1136.7 463.489
2627 0 116.215 11.9348 1387 89.8991 1136.93 462.947
2628 0 119.25 13.174 1571 86.352 1136.82 459.759
2629 0 121.163 12.0003 1454 89.2655 1137.03 458.969
2630 0 123.156 12.1796 1500 89.7593 1137.01 457.254
2631 0 131.174 14.2712 1872 84.3718 1136.64 451.483
2632 0 132.21 12.5482 1659 90.0657 1136.07 452.541
2633 0 137.25 12.2987 1688 91.6084 1135.57 451.798
2634 0 143.229 13.7961 1976 94.9828 1136.53 447.254
2635 0 147.184 12.9362 1904 94.5289 1136 444.414
2636 0 152.171 12.4005 1887 91.8559 1136.18 443.197
2637 1 88.1204 10.0771 888 83.732 1137.07 478.954
2638 0 90.1091 11.475 1034 82.4304 1137.39 477.512
2639 0 92.0872 12.0212 1107 82.1391 1136.98 473.961
2640 0 97.1282 11.6856 1135 82.4555 1137.42 473.024
2641 0 99.0981 11.6551 1155 83.1636 1136.89 470.527
2642 0 101.088 11.4257 1155 83.8892 1136.17 470.447
2643 0 104.113 11.2282 1169 85.5321 1136.09 467.101
2644 0 107.092 10.9625 1174 86.6746 1136.4 466.755
2645 0 110.074 11.0017 1211 86.6755 1136.18 465.12
2646 0 113.132 11.1285 1259 87.1398 1135.21 463.674
2647 0 115.092 11.3909 1311 87.4958 1135.48 461.394
2648 0 119.11 11.3592 1353 87.5698 1136.6 458.932
2649 0 123.091 11.6499 1434 88.039 1136.51 457.089
2650 1 68.1168 9.38094 639 82.1628 1136.36 487.363
2651 0 69.1142 10.0848 697 81.9412 1136.22 485.073
2652 0 71.0732 10.1726 723 81.2669 1136.22 484.123
2653 0 73.0574 10.3617 757 81.4822 1136.25 482.572
2654 0 74.0723 11.3808 843 80.6524 1136.86 481.268
2655 0 77.0436 10.7342 827 80.1669 1136.83 479.245
2656 0 82.0474 11.2984 927 78.6084 1136.38 479.482
2657 0 83.0608 11.7264 974 79.3942 1137.81 481.207
2658 0 85.0501 10.9935 935 82.0781 1137.22 477.653
2659 0 86.0838 10.9544 943 82.6755 1136.81 476.938
2660 0 88.0638 11.5598 1018 80.8369 1136.4 475.52
2661 0 94.0498 11.4195 1074 80.1285 1136.13 475.061
2662 0 97.0824 12.9272 1255 77.0749 1136.39 471.092
2663 0 97.1296 11.5825 1125 81.3084 1137.02 471.66
2664 0 101.097 11.2961 1142 80.359 1137.01 471.219
2665 0 104.095 11.4799 1195 81.1933 1137.08 467.589
2666 0 106.146 11.1639 1185 81.7983 1136.82 464.893
2667 0 109.174 11.5046 1256 81.8639 1136.58 463.415
2668 0 114.207 11.663 1332 82.4535 1136.46 461.232
2669 0 116.234 11.8984 1383 82.8424 1137.06 461.105
2670 0 120.068 11.9016 1429 84.3058 1136.49 458.257
2671 1 65.0927 8.38804 546 86.2656 1137.61 486.361
2672 0 66.0957 9.31982 616 84.7078 1137.66 484.117
2673 0 68.0695 10.1808 693 82.4242 1137.52 482.902
2674 0 73.1496 10.6904 782 82.9962 1136.82 481.734
2675 0 75.0948 11.4122 857 82.1214 1136.67 479.924
2676 0 77.0485 11.6031 894 80.8479 1136.37 479.13
2677 0 80.028 12.3207 986 79.3915 1136.28 477.687
2678 0 81.064 11.8055 957 80.3354 1136.49 475.728
2679 0 84.0848 12.1306 1020 79.201 1137.27 475.47
2680 0 86.0947 11.6384 1002 78.0349 1136.74 471.903
2681 0 88.0582 10.4931 924 79.7565 1136 470.447
2682 0 88.1244 10.4171 918 80.4074 1135.88 472.466
2683 0 94.1337 11.3349 1067 76.9335 1136.14 472.895
2684 0 97.0643 11.5903 1125 75.9333 1136.27 473.89
2685 0 98.1013 11.5901 1137 77.0651 1136.25 469.51
2686 0 102.149 11.7867 1204 78.015 1136.21 469.15
2687 0 105.079 11.8006 1240 78.5161 1136.3 466.368
2688 0 106.135 11.6456 1236 78.3592 1136.22 465.783
2689 0 111.067 11.6597 1295 74.0896 1136.06 462.45
2690 0 116.056 10.8827 1263 74.4481 1135.4 462.523
2691 0 118.145 11.2151 1325 74.0513 1135.58 459.019
2692 0 122.051 13.1748 1608 69.9372 1135.38 456.065
2693 0 123.173 11.2524 1386 76.0216 1135.74 455.013
2694 0 125.147 11.4665 1435 78.6641 1136.13 455.747
2695 0 124.145 8.72368 1083 83.832 1136.21 459.802
2696 0 127.219 7.54603 960 82.7542 1136.02 466.156
2697 1 77.1451 10.383 801 75.3533 1135.88 483.667
2698 0 81.2346 11.633 945 75.0021 1136.67 482.598
2699 0 82.1805 11.9736 984 75.31 1136.03 481.353
2700 0 87.2272 12.7025 1108 74.62 1136.18 481.567
2701 0 91.192 12.4353 1134 80.2989 1136.01 477.828
2702 0 92.1605 11.8055 1088 82.4835 1135.7 477.67
2703 0 95.0685 11.6758 1110 80.982 1135.57 476.25
2704 0 96.0922 12.1342 1166 81.3885 1136.27 473.303
2705 0 99.1251 12.227 1212 83.0866 1136.07 471.723
2706 0 101.12 12.3913 1253 84.249 1135.27 469.419
2707 0 103.104 11.9394 1231 85.0301 1135.33 467.533
2708 0 108.127 12.661 1369 83.7918 1136.23 467.56
2709 0 110.074 12.6097 1388 85.3566 1135.93 463.186
2710 0 116.135 14.8878 1729 79.4685 1136.39 460.499
2711 0 116.113 12.3069 1429 86.177 1135.77 461.378
2712 0 117.074 11.48 1344 81.4025 1135.22 461.391
2713 0 118.085 11.7712 1390 80.0856 1135.6 460.483
2714 0 118.065 10.0283 1184 83.2779 1135.83 461.833
2715 0 118.046 9.67416 1142 82.9781 1135.56 467.211
2716 1 141.148 15.2606 2154 70.5246 1135.53 445.496
2717 0 144.159 15.1084 2178 73.972 1136.84 444.453
2718 0 146.184 13.6746 1999 77.7804 1135.69 446.247
2719 0 150.193 12.0512 1810 83.047 1136.15 445.086
2720 1 80.0796 10.8642 870 86.0425 1136.86 479.852
2721 0 86.1308 12.4114 1069 84.3976 1136.98 478.627
2722 0 86.0755 11.8384 1019 87.4377 1136.55 475.326
2723 0 91.0486 12.378 1127 85.126 1136.36 474.338
2724 0 94.1167 12.612 1187 87.2056 1136.55 474.17
2725 0 97.1487 13.4227 1304 85.6158 1136.12 471.669
2726 0 98.1483 13.5713 1332 85.5571 1136.3 470.661
2727 0 102.169 13.1058 1339 85.699 1136.48 469.008
2728 0 106.199 13.7572 1461 85.2964 1136.62 467.902
2729 0 108.279 13.1881 1428 86.042 1136.39 467.14
2730 0 111.129 13.021 1447 84.4478 1135.24 464.267
2731 0 113.122 12.5971 1425 83.2547 1135.53 462.418
2732 0 115.078 10.9491 1260 76.1556 1135.03 461.648
2733 0 122.19 13.4381 1642 72.5311 1135.63 456.569
2734 0 124.124 12.3264 1530 75.7863 1135.75 457.041
2735 0 125.153 11.5378 1444 75.9398 1136.39 456.014
2736 0 135.088 14.1982 1918 70.0349 1135.95 449.642
2737 0 139.083 13.2726 1846 72.7432 1135.67 446.703
2738 0 140.085 11.8571 1661 77.5214 1135.66 446.414
2739 1 77.0942 9.87104 761 71.7385 1136.12 481.685
2740 0 80.0782 10.752 861 72.2462 1136.12 479.774
2741 0 82.0689 11.8437 972 69.8529 1135.45 480.638
2742 0 84.0596 11.6465 979 72.5128 1135.77 478.923
2743 0 88.0752 11.2858 994 73.9618 1135.72 477.688
2744 0 88.0421 11.3809 1002 74.8184 1134.86 477.036
2745 0 91.0769 11.6495 1061 75.0537 1135.27 474.749
2746 0 94.0936 11.5948 1091 75.1962 1136.14 474.645
2747 0 97.0823 11.619 1128 75.2562 1135.86 474.543
2748 0 100.086 11.4201 1143 76.3605 1135.31 471.225
2749 0 103.075 11.8943 1226 77.0098 1136.11 470.72
2750 0 104.116 11.6697 1215 78.9646 1136.33 467.869
2751 0 107.114 12.0993 1296 78.9923 1136.54 466.75
2752 0 109.143 11.911 1300 80.7692 1136.57 464.515
2753 0 112.089 10.7861 1209 82.7047 1137.27 462.892
2754 0 117.092 12.3578 1447 79.3455 1136.91 463.402
2755 0 120.116 12.1049 1454 80.7187 1137.8 460.847
2756 0 120.116 12.0383 1446 138.875 1138.79 460.699
2757 0 127.172 11.5513 1469 82.5085 1137.55 455.113
2758 1 77.1614 10.1087 780 71.8667 1137.19 487.428
2759 0 75.1046 9.57331 719 74.1446 1136.98 487.149
2760 0 78.1072 10.5624 825 73.0448 1136.42 484.042
2761 0 80.0603 11.2915 904 73.1073 1137.1 482.244
2762 0 83.1234 11.6333 967 73.606 1136.78 480.802
2763 0 87.1123 11.9501 1041 72.4284 1136.44 480.025
2764 0 89.0667 11.5756 1031 73.6237 1136.47 476.785
2765 0 92.1421 11.9923 1105 82.8525 1137.15 477.49
2766 0 96.2332 12.3762 1191 81.7783 1136.47 474.822
2767 0 98.1142 12.5364 1230 81.7618 1136.63 472.255
2768 0 100.195 11.318 1134 85.0891 1137.07 471.183
2769 0 103.18 12.2892 1268 82.9961 1136.6 469.832
2770 0 107.286 11.8189 1268 83.8588 1136.96 467.919
2771 0 109.29 11.2911 1234 84.7877 1136.72 466.994
2772 0 113.205 11.6072 1314 84.102 1136.33 464.457
2773 0 116.2 11.9364 1387 83.7412 1136.36 463.442
2774 0 119.25 11.522 1374 86.428 1136.18 463.255
2775 0 123.282 11.9563 1474 85.0828 1136.4 461.001
2776 0 125.241 11.8891 1489 84.91 1136 459.299
2777 0 132.307 12.7053 1681 82.5467 1136.08 457.242
2778 0 134.27 12.5345 1683 83.65 1135.94 457.137
2779 1 74.1026 10.2426 759 75.8669 1136.71 489.975
2780 0 73.1524 9.80145 717 79.2385 1136.03 487.47
2781 0 78.1198 10.3815 811 83.5216 1135.87 485.141
2782 0 80.1267 10.5458 845 83.0828 1136.56 484.342
2783 0 82.0705 10.625 872 84.0218 1136.91 483.922
2784 0 85.0429 11.0415 939 84.0948 1136.94 481.228
2785 0 87.0482 10.7182 933 85.1393 1137.21 480.238
2786 0 90.1038 10.6655 961 87.309 1136.53 479.044
2787 0 92.1594 11.0461 1018 86.8782 1136.54 478.393
2788 0 96.0912 11.5515 1110 86.5351 1136.8 477.867
2789 0 98.1817 11.1222 1092 89.9185 1137.09 475.918
2790 0 100.273 11.5186 1155 90.1879 1136.78 471.949
2791 0 103.28 11.1639 1153 91.5455 1135.95 468.679
2792 0 104.191 10.4904 1093 94.3989 1136.59 467.341
2793 0 110.28 11.498 1268 93.0978 1135.73 466.471
2794 0 111.282 11.5922 1290 94.0798 1135.81 465.034
2795 0 113.23 11.9933 1358 93.4418 1135.24 462.616
2796 0 118.22 11.8762 1404 93.2208 1135.41 463.799
2797 0 123.273 12.6954 1565 91.7859 1135.37 461.397
2798 0 126.454 12.1309 1534 93.9909 1135.43 460.072
2799 0 129.309 12.6209 1632 94.0423 1135.53 458.943
2800 0 131.222 12.155 1595 96.9116 1136.14 455.013
2801 0 136.283 12.5328 1708 95.5989 1136.19 454.136
2802 0 142.23 13.218 1880 92.3638 1136.04 451.534
2803 1 77.1389 10.2153 788 87.0964 1136 486.013
2804 0 79.1944 11.0361 874 86.0069 1135.95 483.904
2805 0 81.192 11.208 910 84.9011 1135.44 484.737
2806 0 84.1573 11.6092 977 87.9089 1136.19 482.107
2807 0 86.1019 11.4515 986 88.4462 1136.35 480.095
2808 0 90.2461 11.6016 1047 87.851 1136.64 479.134
2809 0 91.2147 11.7086 1068 88.9607 1135.83 476.271
2810 0 93.1902 11.3639 1059 90.084 1135.52 474.601
2811 0 96.1849 11.2388 1081 89.5014 1135.54 475.208
2812 0 99.2582 11.3341 1125 90.0862 1135.6 472.132
2813 0 103.193 11.8612 1224 88.1462 1135.9 471.699
2814 0 105.194 11.4074 1200 89.9717 1135.49 470.819
2815 0 109.181 11.8885 1298 88.8197 1135.76 470.545
2816 0 111.227 11.49 1278 89.507 1136 468.479
2817 0 114.273 11.7963 1348 88.0096 1135.84 467.217
2818 0 116.243 12.0867 1405 86.9737 1135.73 466.325
2819 0 121.24 12.1247 1470 86.4027 1135.77 464.843
2820 0 125.243 11.9927 1502 86.9794 1136.15 461.32
2821 1 69.1335 10.2266 707 80.768 1136.12 490.902
2822 0 71.1595 10.6943 761 82.23 1136.35 489.825
2823 0 76.1385 12.2934 936 86.3686 1135.52 487.472
2824 0 77.1388 12.1469 937 85.5742 1135.69 487.425
2825 0 80.1303 11.6311 932 88.5215 1136.44 485.364
2826 0 81.0722 11.681 947 89.4636 1136.7 484.428
2827 0 85.2257 11.8392 1009 89.6838 1136.02 483.073
2828 0 87.13 11.9362 1040 89.7413 1135.55 482.892
2829 0 89.1007 12.368 1102 90.3112 1135.67 480.76
2830 0 91.1308 11.906 1085 91.5548 1135.51 480.79
2831 0 95.1518 12.643 1203 81.3591 1135.22 480.492
2832 0 96.115 12.1833 1171 91.4142 1135.65 479.351
2833 0 98.0828 12.2549 1202 91.4393 1135.02 478.428
2834 0 101.117 12.3323 1247 92.3865 1135.06 477.026
2835 0 104.187 12.2088 1272 92.816 1134.79 476.144
2836 0 106.174 12.6491 1343 92.3023 1134.52 474.336
2837 0 108.138 12.5395 1356 89.9417 1134.45 472.885
2838 0 111.141 11.9038 1323 95.3076 1135.08 471.918
2839 0 116.115 12.3756 1437 93.5964 1134.86 471.189
2840 0 119.116 12.3325 1469 95.5208 1135.5 466.279
2841 0 123.197 12.7925 1576 94.1694 1135.2 466.617
2842 0 124.19 12.7144 1579 95.4509 1135.31 463.452
2843 0 128.145 12.0644 1546 96.13 1135.02 463.683
2844 1 69.1076 10.9973 760 88.296 1135.72 493.414
2845 0 73.1206 12.3495 903 85.536 1135.58 490.608
2846 0 76.1392 12.2539 933 86.0836 1136.11 489.704
2847 0 77.1617 12.5969 972 85.5309 1136.21 488.662
2848 0 81.1615 12.432 1009 85.3915 1136.09 487.946
2849 0 82.2079 11.9332 981 88.1254 1136.21 484.702
2850 0 84.1687 12.2848 1034 88.4758 1136.77 481.625
2851 0 87.221 12.1645 1061 89.0462 1136.62 479.909
2852 0 90.1125 12.673 1142 88.3853 1135.84 479.001
2853 0 94.2041 12.3243 1161 89.2007 1135.4 477.778
2854 0 97.2895 12.4371 1210 90.4 1135.32 474.678
2855 0 101.277 13.0533 1322 89.7307 1134.66 474.727
2856 0 101.178 12.4533 1260 93.2476 1134.81 472.758
2857 0 106.114 12.741 1352 91.037 1134.56 471.859
2858 0 111.255 13.5095 1503 89.332 1135.12 471.559
2859 0 112.176 13.1936 1480 90.7736 1136.36 471.321
2860 0 116.184 12.9278 1502 92.0153 1135.44 467.576
2861 1 64.22 11.4139 733 88.8854 1136.48 494.798
2862 0 65.244 11.3574 741 89.7922 1136.8 493.22
2863 0 69.1344 12.2515 847 88.2491 1136.68 491.809
2864 0 69.26 12.5902 872 92.3394 1135.86 489.498
2865 0 73.2779 12.9371 948 99.0485 1135.65 488.598
2866 0 74.2882 13.2592 985 97.6264 1135.04 487.953
2867 0 78.229 13.55 1060 96.5142 1136.03 486.88
2868 0 79.3022 13.0009 1031 99.6537 1136.04 484.726
2869 0 81.3588 13.6433 1110 98.5478 1136.12 482.912
2870 0 83.3254 13.8013 1150 96.3426 1135.54 481.986
2871 0 85.3876 13.8311 1181 94.6368 1136.09 479.004
2872 0 86.3299 13.8423 1195 95.5297 1135.95 476.979
2873 0 88.3293 13.6535 1206 95.3889 1135.6 476.641
2874 0 89.3735 13.0799 1169 97.9324 1135.9 475.445
2875 0 89.1985 13.072 1166 99.7256 1135.55 471.777
2876 0 93.1738 13.2333 1233 100.028 1134.89 469.63
2877 0 92.0876 13.0745 1204 101.887 1135.04 471.051
2878 0 95.1206 13.3304 1268 100.787 1135.51 467.283
2879 0 98.0947 13.9253 1366 100.08 1135.38 466.68
2880 0 101.081 14.0383 1419 98.6166 1135.78 466.898
2881 0 102.183 12.5951 1287 104.172 1135.7 465.594
2882 0 103.152 12.3895 1278 105.498 1135.44 465.887
2883 0 105.071 12.7914 1344 105.722 1135.5 463.596
2884 0 109.229 13.3848 1462 103.692 1135.64 462.389
2885 0 114.213 13.0195 1487 104.541 1135.22 461.603
2886 0 119.229 13.6209 1624 103.217 1134.05 458.774
2887 0 122.174 13.5299 1653 104.829 1134.73 457.629
2888 0 127.182 13.5868 1728 105.446 1134.99 456.462
2889 0 131.208 13.4138 1760 105.739 1134.59 452.677
2890 0 136.138 13.5745 1848 105.411 1134.03 452.097
2891 0 139.223 13.6472 1900 104.911 1134.71 448.786
2892 0 144.251 13.9965 2019 95.6137 1134.82 444.594
2893 1 79.0873 12.3282 975 107.411 1134.75 475.174
2894 0 80.1953 12.0331 965 110.716 1134.61 473.203
2895 0 81.1285 13.682 1110 101.052 1134.97 473.672
2896 0 82.1398 12.637 1038 106.895 1134.58 473.201
2897 0 81.2273 12.7051 1032 110.039 1135.51 473.48
2898 0 84.054 12.6466 1063 110.484 1135.37 473.804
2899 0 85.1544 12.9529 1103 109.996 1135.17 473.228
2900 0 86.203 13.039 1124 108.153 1135.18 473.432
2901 0 85.0951 12.3979 1055 108.398 1135.72 470.892
2902 0 90.1395 12.525 1129 104.708 1135.41 470.938
2903 0 91.0964 12.5471 1143 102.002 1134.83 468.405
2904 0 92.1512 12.7616 1176 99.9872 1134.23 467.249
2905 0 96.1746 12.6749 1219 97.6825 1134.16 466.238
2906 0 98.1578 12.3984 1217 96.7757 1134.86 464.812
2907 0 100.107 12.4267 1244 94.5024 1134.98 462.247
2908 0 105.163 12.4854 1313 92.7799 1134.46 460.97
2909 1 58.0931 11.0684 643 91.9082 1134.78 482.471
2910 0 58.04 11.3887 661 94.8366 1135.55 481.717
2911 0 60.0871 12.1823 732 94.6434 1135.16 480.829
2912 0 63.0353 12.6437 797 93.0816 1134.86 480.334
2913 0 65.0696 12.7709 831 90.2142 1134.97 480.57
2914 0 65.2243 12.3114 803 92.3699 1135.11 478.884
2915 0 65.0788 12.8767 838 93.0418 1135.49 478.192
2916 0 67.1147 12.8437 862 93.6195 1135.16 477.386
2917 0 67.0602 12.6304 847 94.5502 1134.79 477.188
2918 0 67.1518 12.2707 824 96.6396 1134.76 474.752
2919 0 70.0664 12.3454 865 97.0717 1134.72 474.741
2920 0 70.0522 12.0339 843 98.9703 1134.74 474.756
2921 0 70.138 12.3186 864 99.6863 1134.83 473.531
2922 0 75.1147 12.2613 921 100.354 1134.4 472.219
2923 0 73.2052 11.9117 872 104.068 1133.99 471.644
2924 0 74.1336 11.9784 888 107.128 1134.31 470.785
2925 0 77.2037 11.8388 914 110.621 1134.15 470.143
2926 0 81.2282 11.8678 964 111.015 1134.21 470.273
2927 0 81.1463 12.4467 1010 111.889 1134.06 470.476
2928 0 85.1248 13.2394 1127 110.918 1134.25 468.177
2929 0 89.2068 13.1829 1176 110.786 1134.45 467.664
2930 0 88.1069 13.4496 1185 113.768 1134.59 465.934
2931 0 90.1709 11.9662 1079 120.07 1134.59 465.79
2932 0 92.0989 12.2368 1127 120.342 1135.1 464.858
2933 0 95.1324 12.183 1159 121.896 1134.54 463.606
2934 0 96.1726 11.9265 1147 122.862 1135.14 463.489
2935 0 100.144 12.1326 1215 123.769 1133.96 462.258
2936 0 101.101 12.3837 1252 125.087 1133.83 459.197
2937 0 106.115 12.7691 1355 122.442 1134.03 459.228
2938 0 108.116 12.7363 1377 122.834 1134.17 457.106
2939 0 112.145 13.1704 1477 120.913 1134.22 456.367
2940 0 115.112 12.7963 1473 122.513 1134.29 454.184
2941 0 119.16 12.8063 1526 121.792 1135.06 453.048
2942 0 122.225 12.7143 1554 122.346 1134.56 450.896
2943 0 126.087 13.1338 1656 121.719 1134.37 451.113
2944 0 130.133 13.0098 1693 123.211 1134.5 446.625
2945 0 133.055 13.2802 1767 122.177 1134.43 443.186
2946 0 139.113 13.0829 1820 121.207 1135 442.138
2947 0 142.224 13.0569 1857 121.836 1135 439.194
2948 0 146.178 13.0526 1908 122.291 1135.03 436.902
2949 1 85.066 11.6028 987 124.247 1135.02 467.15
2950 0 83.0701 11.8815 987 126.578 1134.43 464.722
2951 0 91.1936 12.6215 1151 120.944 1134.73 464.738
2952 0 92.0981 13.0622 1203 121.406 1135.56 461.538
2953 0 93.1093 12.4048 1155 122.5 1135.24 462.948
2954 0 95.0645 12.4442 1183 123.182 1135.78 461.057
2955 0 98.1173 12.3424 1211 123.429 1135.29 459.358
2956 0 102.154 12.1777 1244 122.417 1135.02 458.232
2957 0 107.086 11.1966 1199 124.307 1134.99 458.746
2958 0 107.14 12.619 1352 119.825 1135.55 455.807
2959 0 112.108 12.8983 1446 117.234 1135.14 453.669
2960 0 113.172 13.0951 1482 118.904 1134.98 449.449
2961 0 118.125 12.3767 1462 120.87 1134.53 448.852
2962 0 121.182 12.312 1492 121.485 1134.85 448.593
2963 0 124.062 12.4696 1547 120.177 1135.01 445.965
2964 0 129.153 12.7136 1642 119.981 1134.9 443.995
2965 0 135.105 12.605 1703 120.235 1135.16 441.858
2966 0 139.17 13.0344 1814 118.778 1134.77 441.684
2967 0 144.179 13.0324 1879 119.213 1134.63 439.001
2968 0 154.176 12.9722 2000 119.333 1135.24 438.658
2969 0 159.234 13.477 2146 121.368 1135.37 434.204
2970 1 75.1165 10.5836 795 114.447 1135.24 474.338
2971 0 80.0612 11.3288 907 111.746 1135.95 477.239
2972 0 84.0718 11.8589 997 109.729 1136.16 475.852
2973 0 84.0718 12.0849 1016 110.648 1136.57 473.148
2974 0 83.0355 11.2482 934 114.199 1135.87 472.759
2975 0 90.0951 11.9318 1075 108.809 1136.12 473.998
2976 0 92.0429 12.5811 1158 107.55 1135.58 471.225
2977 0 93.0516 12.3802 1152 109.623 1134.75 469.931
2978 0 95.1495 11.876 1130 111.088 1135.27 467.278
2979 0 97.0758 12.2173 1186 109.435 1134.78 464.544
2980 0 99.1126 12.1276 1202 109.185 1134.87 461.397
2981 0 100.114 11.5269 1154 111.362 1135.23 458.484
2982 0 103.124 12.7904 1319 106.202 1135.02 458.475
2983 0 106.185 12.4877 1326 107.965 1134.9 456.047
2984 0 107.112 12.2675 1314 108.965 1134.53 455.025
2985 0 109.104 12.1261 1323 110.438 1135.22 452.918
2986 0 113.266 13.1284 1487 108.167 1134.98 450.35
2987 0 112.114 12.416 1392 113.042 1134.98 448.682
2988 0 115.117 12.7609 1469 112.873 1134.79 446.869
2989 0 118.12 13.3508 1577 111.218 1134.92 445.567
2990 0 123.065 13.1232 1615 111.143 1134.8 445.503
2991 0 124.106 12.9405 1606 113.09 1135.05 441.818
2992 0 129.107 13.3455 1723 110.611 1134.9 441.868
2993 0 132.259 12.8535 1700 112.21 1134.16 437.691
2994 0 137.236 13.2108 1813 111.168 1134.28 436.411
2995 0 138.157 12.7898 1767 112.344 1135.08 433.727
2996 0 139.102 13.0624 1817 113.877 1135.34 430.648
2997 0 143.16 12.8598 1841 114.866 1135.68 428.286
2998 0 150.181 15.2483 2290 105.541 1135.98 424.566
2999 0 153.169 14.1739 2171 110.439 1135.6 426.433
3000 0 158.163 13.5303 2140 112.67 1135.84 421.843
3001 0 163.17 13.9486 2276 111.84 1135.72 421.022
3002 0 168.254 13.753 2314 113.537 1135.7 417.991
3003 0 171.13 14.1646 2424 112.23 1135.71 417.007
3004 0 177.248 14.2738 2530 111.655 1136.52 416.015
3005 0 183.311 14.2326 2609 111.752 1135.16 409.667
3006 0 190.241 14.5079 2760 109.621 1135.59 411.03
3007 0 192.179 14.3668 2761 110.612 1135.32 408.997
3008 0 201.376 15.9403 3210 104.471 1135.12 401.198
3009 0 206.235 15.1817 3131 107.874 1134.6 400.582
3010 0 214.248 14.6186 3132 109.002 1135.36 399.594
3011 0 218.187 14.2217 3103 110.749 1134.7 396.417
3012 0 229.321 14.7653 3386 108.536 1135.27 394.576
3013 1 36.0378 7.65862 276 69.4855 1137.82 501.406
3014 0 36.0499 7.43414 268 70.5298 1137.7 501.295
3015 0 38.0186 8.73257 332 69.3132 1137.34 501.958
3016 0 37.0501 7.90821 293 64.4915 1137.08 502.242
3017 0 37.0201 7.83358 290 65.9759 1135.62 503.745
3018 0 34.0551 7.10614 242 67.3016 1136.05 503.409
3019 0 36.024 7.30069 263 67.4259 1136.17 503.308
3020 0 37.0191 8.32004 308 68.3539 1136.04 504.412
3021 0 287.271 14.7979 4251 110.043 1135.05 361.514
3022 0 295.36 15.4219 4555 108.899 1135.15 360.869
3023 0 299.555 16.2908 4880 105.075 1135.68 354.683
3024 0 310.619 16.4542 5111 103.267 1135.25 351.152
3025 0 319.42 15.9257 5087 105.144 1135.41 348.009
3026 0 328.598 16.8473 5536 103.664 1135.37 340.206
3027 0 337.672 16.211 5474 105.411 1134.93 337.288
3028 0 349.626 15.7311 5500 105.707 1134.79 332.594
3029 0 360.813 16.4296 5928 104.812 1135.17 326.906
3030 0 371.507 16.0401 5959 105.851 1134.84 319.461
3031 0 382.735 16.2776 6230 105.527 1134.95 313.761
3032 0 394.844 15.9151 6284 107 1134.54 308.789
3033 0 321.608 16.0786 5171 103.112 1135.21 341.013
3034 0 329.565 13.9244 4589 109.456 1135.84 342.11
3035 0 338.52 14.4718 4899 109.428 1135.18 337.255
3036 0 345.733 15.9314 5508 103.971 1134.28 329.026
3037 0 357.882 15.7035 5620 105.856 1134.52 324.915
3038 0 365.695 15.3352 5608 106.783 1134 313.786
3039 1 86.2955 7.56703 653 73.3675 1135.67 480.824
3040 0 85.3991 7.89236 674 72.4896 1135.33 478.947
3041 0 85.4221 8.019 685 72.1942 1135.65 479
3042 0 82.4284 7.72792 637 73.0659 1135.7 475.695
3043 0 90.3674 9.72696 879 69.7964 1135.75 477.009
3044 0 89.5024 9.08356 813 69.8844 1135.08 476.022
3045 0 92.4327 9.0336 835 68.8371 1135.37 474.798
3046 0 94.3691 9.52643 899 67.9477 1134.92 474.147
3047 0 93.4029 8.6507 808 71.3205 1135.15 474.715
3048 0 92.3994 7.74897 716 73.8939 1135.28 473.825
3049 0 95.2642 7.61042 725 73.2676 1134.36 473.506
3050 1 36.0526 6.82337 246 65.8618 1137.15 498.472
3051 0 39.2303 7.16283 281 64.7722 1137.03 498.132
3052 0 39.1053 7.72275 302 61.9073 1136.14 497.444
3053 0 38.2082 9.05564 346 59.9249 1136.98 498.931
3054 0 41.3246 9.31649 385 58.374 1136.61 496.462
3055 0 36.199 8.14939 295 60.783 1136.37 497.481
3056 0 47.2172 11.5848 547 52.5686 1136.78 500.43
3057 0 45.1556 10.9178 493 54.3976 1137.41 501.079
3058 0 46.1277 10.5143 485 53.2103 1137.23 500.177
3059 0 44.1689 10.9126 482 54.3402 1136.86 499.297
3060 0 39.1216 7.25942 284 60.6584 1137.29 501.88
3061 0 43.1675 9.12724 394 60.9492 1136.01 498.33
3062 0 39.0751 6.62825 259 57.2896 1137.49 502.622
3063 0 117.356 13.4462 1578 73.0925 1136.71 452.966
3064 0 114.208 11.374 1299 78.4072 1136.31 451.457
3065 1 34.0337 6.02345 205 52.922 1136.45 497.4
3066 0 36.0303 8.07653 291 51.4674 1136.27 496.426
3067 0 36.0303 8.46509 305 96.8787 1137.3 497.007
3068 0 39.0047 5.99928 234 51.6496 1136.12 498.483
3069 0 38.0144 6.55016 249 51.253 1136.37 497.739
3070 0 37.0956 6.30803 234 51.141 1136.16 496.103
3071 0 39.0245 6.76498 264 50.1667 1136.11 496.201
3072 0 37.0353 6.21029 230 49.213 1136.02 497.304
3073 0 38.0242 6.04878 230 48.7261 1136.03 498.304
3074 0 41.0851 6.88814 283 47.5053 1135.54 499.632
3075 0 38.0802 5.4359 207 48.7536 1135.74 500.208
3076 0 38.1549 5.08453 194 47.299 1135.58 499.144
3077 0 39.0694 6.45007 252 46.7143 1136.13 497.349
3078 0 41.0849 7.49668 308 46.2565 1137.02 496.377
3079 0 41.1675 8.28324 341 44.739 1136.63 496.727
3080 0 47.1742 10.6202 501 51.7046 1135.76 498.922
3081 0 47.1087 10.8685 512 50.041 1135.57 499
3082 0 47.1087 10.8473 511 119.084 1135.57 498.914
3083 0 47.127 10.6521 502 48.8964 1135.07 497.96
3084 0 49.1217 10.9524 538 47.9907 1135.36 498.439
3085 0 47.1197 10.3778 489 48.409 1135.71 498.509
3086 0 47.1032 9.91441 467 48.2034 1136.13 498.979
3087 0 46.0769 10.5259 485 46.6165 1135.54 499.416
3088 0 48.06 11.5689 556 45.464 1135.72 499.081
3089 0 49.0583 11.3131 555 44.8054 1135.48 499.944
3090 0 46.0969 11.4324 527 45.2334 1135.51 499.266
3091 0 47.1156 11.5885 546 44.0641 1135.23 499.22
3092 0 48.0728 11.4826 552 44.2989 1135.69 499.509
3093 0 48.0909 10.7505 517 44.9536 1135.49 499.888
3094 0 47.1093 11.0169 519 44.1888 1135.52 499.387
3095 0 46.0958 11.3242 522 43.4981 1135.62 499.711
3096 0 49.0862 11.8159 580 42.0017 1136.23 498.683
3097 0 48.0882 11.0838 533 42.94 1136.85 499.904
3098 0 48.0882 11.0422 531 126.932 1136.88 499.949
3099 0 49.0719 11.636 571 40.613 1135.31 499.329
3100 0 49.0625 10.8841 534 41.1011 1136.12 497.757
3101 0 48.1078 11.3287 545 40.2954 1135.5 499.149
3102 0 48.0885 11.4165 549 40.3461 1135.24 498.707
3103 0 49.127 11.7451 577 39.2062 1135.06 498.624
3104 0 49.1066 11.7296 576 38.9826 1135.31 498.057
3105 0 49.0654 10.9242 536 39.9478 1135.45 497.55
3106 0 48.0581 11.4653 551 39.4592 1135.31 499.486
3107 0 48.028 11.3059 543 39.4144 1135.45 498.882
3108 0 50.1075 11.0762 555 38.7622 1135.85 498.883
3109 0 49.0958 10.3064 506 39.5336 1135.39 499.83
3110 0 49.0868 10.8787 534 38.4288 1135.23 499.775
3111 0 50.0904 12.2978 616 35.9724 1135.09 498.146
3112 0 50.0892 11.2999 566 36.8728 1134.56 498.376
3113 0 50.0748 12.1019 606 35.8284 1135.01 498.266
3114 0 49.1018 11.4252 561 36.1497 1135.11 499.506
3115 0 50.0797 11.3619 569 35.6995 1135.72 499.924
3116 0 50.042 11.3704 569 35.9297 1135.23 499.647
3117 0 49.084 11.6331 571 35.324 1135.66 500.278
3118 0 51.0948 11.7625 601 34.7604 1134.92 498.89
3119 0 50.1418 11.5472 579 34.5769 1134.91 498.556
3120 0 50.1231 11.6713 585 34.2855 1134.51 497.766
3121 0 49.0626 11.1898 549 35.0273 1134.46 498.015
3122 0 50.0989 11.617 582 34.1065 1134.64 498.533
3123 0 50.1046 11.8752 595 33.6286 1134.91 497.612
3124 0 50.0778 10.9829 550 34.5345 1134.98 498.38
3125 0 50.0926 11.1993 561 33.9893 1135.17 498.2
3126 0 52.0839 11.9039 620 32.5855 1135.85 499.55
3127 0 50.0495 11.7883 590 32.5915 1135.41 499.647
3128 0 53.0709 12.4927 663 31.2066 1135.61 499.032
3129 0 51.1252 12.6552 647 31.4946 1135.1 499.383
3130 0 49.1347 11.153 548 33.396 1135.32 499.004
3131 0 52.0514 12.6029 656 31.3979 1135.16 498.404
3132 0 50.1311 12.4873 626 31.492 1135.43 498.759
3133 0 52.1035 12.8014 667 30.5622 1135.16 500.831
3134 0 51.0995 12.368 632 31.1282 1135.53 498.573
3135 0 53.1067 12.9927 690 29.9159 1135.51 499.175
3136 0 52.0611 12.5238 652 30.3021 1135.7 500.164
3137 0 50.0555 12.6859 635 30.1701 1135.69 498.843
