time division length width area intensity CMx CMy
0 0 57.0353 14.079 803 143.046 1373.06 485.798
1 0 58.0362 13.371 776 129.896 1374.27 486.088
2 0 60.0835 13.7642 827 127.258 1374.45 483.881
3 0 63.043 14.3712 906 122.16 1373.97 484.031
4 0 64.0264 14.3378 918 121.545 1374.44 481.69
5 0 66.0204 13.6473 901 120.183 1374.55 482.675
6 0 68.0259 14.3622 977 116.172 1374.21 481.173
7 0 69.0292 14.2838 986 114.613 1374.99 481.58
8 0 73.022 14.078 1028 111.881 1374.78 480.239
9 0 75.0418 13.9656 1048 110.197 1374.78 479.879
10 0 78.0552 13.7723 1075 111.021 1374.21 477.918
11 0 80.0466 14.0918 1128 108.186 1374.02 476.469
12 0 82.0358 13.9695 1146 108.448 1375.03 475.449
13 0 86.0863 14.137 1217 106.998 1374.53 472.551
14 0 90.0269 14.5401 1309 103.652 1374.15 472.429
15 0 92.0548 14.5348 1338 101.619 1373.83 470.693
16 0 94.1405 14.011 1319 102.718 1374.33 470.155
17 0 95.109 14.1417 1345 101.932 1373.21 469.297
18 0 100.063 13.1417 1315 102.277 1373.29 469.023
19 1 52.0597 14.08 733 98.5866 1373.15 488.029
20 0 53.0306 13.6148 722 95.2673 1373.26 490.727
21 0 54.0176 13.0513 705 96.6482 1372.68 489.722
22 0 56.0315 13.546 759 94.3939 1373.08 488.924
23 0 59.0784 14.1168 834 92.7206 1373.13 487.084
24 0 61.0705 14.0821 860 94.3395 1373.2 485.23
25 0 63.156 13.4429 849 94.6855 1374 485.312
26 0 64.1519 13.1875 846 96.0804 1373.68 485.041
27 0 68.1166 13.3448 909 95.4015 1373.07 483.304
28 0 70.0887 14.182 994 93.8873 1372.67 483.266
29 0 72.1052 13.9796 1008 94.506 1372.07 481.117
30 0 72.1052 13.9935 1009 154.391 1371.08 481.092
31 0 78.0599 13.7458 1073 94.8966 1373.33 477.741
32 0 82.2049 13.7218 1128 95.1108 1372.85 477.246
33 0 84.1887 13.7192 1155 94.729 1372.72 475.326
34 0 89.122 14.1491 1261 92.3981 1372.36 474.935
35 0 89.1618 14.0307 1251 93.9936 1373.09 472.725
36 1 45.1258 12.0995 546 94.6557 1373.21 495.209
37 0 47.054 12.5813 592 90.9409 1372.77 493.698
38 0 48.0703 12.5857 605 89.4215 1372.21 492.797
39 0 47.0979 11.3169 533 83.3508 1371.93 494.098
40 0 48.1199 11.4713 552 81.6304 1372.04 492.335
41 0 50.0569 12.306 616 79.1201 1372.05 491.698
42 0 54.1047 11.9583 647 77.8176 1372.52 492.753
43 0 57.1208 12.4648 712 76.6334 1371.93 490.98
44 0 56.1839 12.6015 708 76.4463 1371.93 489.671
45 0 59.2184 13.0703 774 76.1486 1371.74 487.997
46 0 60.1549 12.3182 741 77.0148 1372.1 489
47 0 62.0612 12.1493 754 77.374 1372.2 486.914
48 0 65.1395 12.4656 812 75.0345 1372.17 486.112
49 0 67.0974 12.5191 840 76.1976 1371.25 483.193
50 0 70.1193 13.5769 952 74.7027 1371.21 482.054
51 0 73.1503 13.4107 981 74.1121 1371.44 482.949
52 0 72.1153 12.7989 923 76.2709 1371.54 480.915
53 0 75.1825 13.3808 1006 74.6551 1371.7 479.703
54 0 79.1524 13.7709 1090 73.3752 1371.66 477.937
55 0 82.0978 13.3621 1097 74.6281 1372.32 476.839
56 0 82.104 12.6912 1042 76.8676 1372.09 474.55
57 0 84.0872 12.8914 1084 77.2768 1371.92 473.668
58 0 89.2058 12.9476 1155 76.7472 1372.56 473.228
59 0 90.1017 12.6857 1143 77.6045 1372.58 472.075
60 0 94.1007 12.9755 1221 78.1024 1371.89 469.358
61 0 98.0644 13.4402 1318 79.1753 1371.58 467.695
62 0 102.127 13.5909 1388 80.83 1371.9 465.872
63 0 104.167 13.6992 1427 79.1703 1371.46 465.073
64 0 109.177 14.1696 1547 78.7666 1371.7 462.014
65 0 111.23 13.4945 1501 80.3531 1372.71 461.281
66 1 58.1046 11.3932 662 72.2795 1372.4 490.26
67 0 60.113 12.4765 750 71.6427 1372.08 488.212
68 0 62.0679 11.133 691 73.5716 1371.51 487.689
69 0 64.1118 12.0727 774 72.1964 1371.65 485.955
70 0 67.0386 11.8439 794 73.1033 1371.37 485.657
71 0 68.0735 11.4288 778 74.8882 1371.47 483.91
72 0 72.1341 12.1718 878 73.2141 1371.34 482.97
73 0 74.1542 11.9211 884 74.0724 1371.49 480.452
74 0 75.1269 12.0862 908 73.4615 1371.59 480.383
75 0 79.0376 12.4118 981 74.0989 1372.03 478.72
76 0 81.1155 12.0815 980 74.9837 1371.8 476.539
77 0 84.1222 11.5308 970 74.9959 1372.08 475.543
78 0 86.1096 11.9499 1029 78.1924 1372.53 473.155
79 1 45.1142 10.285 464 72.6853 1371.96 495.843
80 0 48.0805 10.7944 519 71.5337 1372.28 494.16
81 0 50.1135 11.5937 581 70.5353 1372.36 492.148
82 0 51.1333 11.2256 574 71.2561 1372.66 491.66
83 0 52.1048 11.1506 581 69.0361 1371.49 490.554
84 0 53.0518 11.1212 590 70.0746 1371.94 490.702
85 0 53.1173 11.051 587 70.6405 1371.96 490.869
86 0 54.0786 10.6327 575 71.1913 1372.2 490.861
87 0 56.0728 11.5386 647 70.7728 1372.42 488.032
88 0 59.0557 10.5494 623 70.7496 1372.69 489.083
89 0 60.0548 11.656 700 70.4643 1371.9 485.399
90 0 62.087 10.6302 660 71.8682 1372.82 485.579
91 0 66.1725 11.7723 779 69.2721 1372.38 485.284
92 0 67.094 11.0144 739 71.1597 1372.17 482.618
93 0 68.1215 11.0538 753 70.8513 1371.8 482.068
94 0 71.0716 11.8331 841 70.6932 1371.69 480.914
95 0 73.074 11.3857 832 72.4796 1371.91 479.626
96 0 78.0916 11.5121 899 71.6674 1371.47 478.059
97 0 78.1861 11.2296 878 71.2916 1370.83 477.89
98 0 81.1262 11.7348 952 74.313 1370.83 477.576
99 0 84.1587 11.6566 981 74.5821 1371.11 476.584
100 0 86.0933 11.8825 1023 75.6755 1371.29 473.885
101 1 47.0876 10.2787 484 76.345 1371.24 493.841
102 0 47.1737 10.2175 482 76.6556 1370.74 494.062
103 0 48.1729 11.0851 534 75.3146 1370.7 492.356
104 0 50.0787 11.7615 589 73.326 1370.32 493.109
105 0 52.1194 11.8958 620 70.6839 1371.11 491.356
106 0 52.1418 11.6797 609 70.2085 1371.38 490.734
107 0 53.0374 11.2939 599 71.1853 1371.02 490.698
108 0 55.1825 11.9241 658 69.7872 1370.68 488.088
109 0 57.0201 12.3991 707 68.4074 1369.98 488.46
110 0 59.0605 11.8015 697 68.4993 1371.09 486.638
111 0 59.154 12.0195 711 68.0858 1371.3 486.194
112 0 63.0305 11.6769 736 67.7772 1370.9 484.906
113 0 65.0539 12.1745 792 66.4066 1370.84 483.343
114 0 63.0958 11.6331 734 68.0817 1371.57 483.215
115 0 67.0434 11.9177 799 67.801 1371.1 483.171
116 0 68.1211 11.1126 757 70.6275 1371.17 484.053
117 0 72.1062 12.0517 869 70.1105 1371.58 482.136
118 0 74.1177 11.873 880 71.3818 1370.65 479.989
119 0 76.0486 12.8865 980 70.5857 1370.83 479.81
120 0 77.115 11.8524 914 72.3501 1370.33 478.986
121 0 82.0724 13.5125 1109 68.4842 1371.16 478.021
122 0 83.0436 12.6078 1047 70.4785 1371.2 475.452
123 0 88.0286 13.0526 1149 69.2898 1371.58 474.871
124 0 88.0429 12.2895 1082 71.7911 1372.08 473.468
125 0 89.0578 12.4189 1106 72.5895 1371.86 471.682
126 0 94.0188 12.6677 1191 71.8472 1370.75 471.301
127 0 97.1345 12.3334 1198 73.2563 1370.39 469.437
128 1 51.0172 11.7411 599 74.7546 1370.81 492.194
129 0 51.0742 12.0413 615 71.5106 1371.16 490.964
130 0 51.0742 12.0413 615 131.13 1372.16 490.964
131 0 51.0218 12.0341 614 72.2932 1371.42 491.23
132 0 52.0622 11.7552 612 72.3284 1371.24 491.626
133 0 54.0347 11.9738 647 71.9706 1371.15 490.192
134 0 54.0347 12.0108 649 135.231 1371.15 490.136
135 0 57.0921 11.9456 682 73.5865 1371.24 489.908
136 0 60.1276 12.4402 748 73.4064 1370.59 489.277
137 0 62.0779 11.7111 727 75.0825 1370.73 487.194
138 0 63.0766 11.6049 732 76.25 1370.49 486.489
139 0 65.0838 12.1382 790 76.4823 1370.59 484.77
140 0 70.1332 12.6759 889 75.2598 1371.16 484.866
141 0 70.1061 13.2228 927 77.1338 1370.44 483.943
142 0 74.0702 12.9067 956 79.0052 1371.07 483.775
143 0 76.0806 12.8416 977 80.2037 1371.28 481.581
144 0 80.0773 13.3496 1069 77.7437 1370.78 480.771
145 0 81.0753 12.4206 1007 80.2403 1370.59 480.871
146 1 45.0061 11.3096 509 77.3536 1371.07 498.868
147 0 45.0061 11.3318 510 164.031 1371.08 498.861
148 0 45.0096 12.8195 577 72.9289 1370.83 497.184
149 0 43.0609 11.6811 503 74.4791 1371.2 498.938
150 0 46.0515 12.7032 585 73.1026 1371.32 497.564
151 0 44.0506 11.9635 527 149.676 1371.4 496.573
152 0 50.0419 12.2098 611 76.0687 1371.29 495.692
153 0 50.0805 12.4 621 77.2061 1370.38 494.143
154 0 51.0951 12.193 623 78.7223 1369.98 493.581
155 0 52.0409 12.0482 627 79.2456 1370.17 493.619
156 0 54.1843 12.5682 681 78.7871 1370.43 492.962
157 0 56.0792 12.5358 703 79.1124 1371.1 492.903
158 0 59.0551 12.8185 757 80.1744 1370.71 490.968
159 0 60.0706 11.936 717 82.484 1370.85 490.658
160 0 60.0855 11.8664 713 85.3801 1370.86 489.475
161 0 64.0861 12.2803 787 82.4371 1370.51 488.463
162 0 65.062 12.2806 799 84.5519 1369.66 487.274
163 0 67.1004 12.8911 865 83.4925 1369.62 487.095
164 0 71.0321 13.2194 939 81.9904 1369.33 484.882
165 0 72.0654 12.8633 927 83 1369.58 482.695
166 0 76.0591 12.7927 973 82.8623 1369.34 481.163
167 0 76.0269 12.4167 944 83.9799 1370.02 479.809
168 0 80.0696 13.0761 1047 82.3238 1369.4 477.587
169 0 82.1362 12.2479 1006 84.0368 1369.78 478.211
170 0 87.1176 13.1432 1145 82.8795 1369.4 476.052
171 1 47.0156 11.1665 525 83.1943 1369.49 495.869
172 0 47.0242 11.3133 532 84.3214 1369.11 494.727
173 0 50.0277 11.8335 592 82.6385 1369.43 493.069
174 0 50.0313 11.9525 598 84.2057 1369.17 492.477
175 0 52.0202 12.2645 638 82.2288 1369.11 490.696
176 0 50.0127 10.8572 543 85.7956 1369.98 492.847
177 0 53.0629 11.9858 636 83.5487 1370.17 491.682
178 0 53.061 11.5339 612 84.451 1370.4 491.755
179 0 55.033 12.3926 682 83.0572 1370.13 489.638
180 0 56.0619 12.183 683 82.2826 1369.98 488.878
181 0 58.0493 12.3344 716 81.183 1369.9 489.092
182 0 60.0513 11.69 702 81.7721 1369.58 488.409
183 0 63.0657 11.8606 748 82.0281 1369.22 486.189
184 0 65.0734 12.3399 803 80.0922 1369.87 487.031
185 0 67.0885 11.8798 797 81.9862 1369.53 485.228
186 0 69.034 12.7329 879 80.322 1369.58 483.155
187 0 71.0363 11.9516 849 81.7326 1369.54 482.173
188 0 74.117 12.3319 914 79.5514 1369.57 479.282
189 0 76.0722 12.8299 976 79.1701 1369.88 478.16
190 0 78.0521 11.9664 934 79.2516 1369.82 478.65
191 0 82.061 13.1975 1083 78.0443 1369.67 475.801
192 0 84.0939 11.7726 990 80.4828 1369.66 475.405
193 0 87.0837 12.2296 1065 79.4732 1369.04 473.375
194 0 92.1361 12.2102 1125 78.6613 1369.21 471.193
195 1 45.0085 10.1092 455 80.4088 1368.67 494.042
196 0 48.1209 11.1178 535 81.7215 1368.73 491.858
197 0 51.0272 12.0132 613 74.9201 1368.64 491.082
198 0 53.0274 12.371 656 73.3201 1368.78 490.912
199 0 53.0497 12.4789 662 73.4275 1368.81 489.813
200 0 55.1539 12.2566 676 73.1391 1369.01 489.021
201 0 56.1004 12.6024 707 72.1584 1368.98 487.255
202 0 57.0706 12.5984 719 90.9652 1369.51 488.153
203 0 59.0676 11.6985 691 89.6946 1369.12 485.564
204 0 61.0618 10.8415 662 88.8837 1370.18 486.335
205 0 65.0411 11.5312 750 86.5453 1370.04 483.705
206 0 66.1067 11.4663 758 86.0462 1369.7 483.468
207 0 69.0732 12.1176 837 84.3692 1368.86 482.703
208 0 71.0243 11.9959 852 83.2782 1369.02 481.028
209 0 74.0485 11.2764 835 80.8527 1369.21 479.69
210 0 74.039 10.9132 808 81.7327 1368.87 478.859
211 0 79.1689 11.5323 913 81.655 1369.2 475.97
212 0 82.0812 11.5495 948 82.5759 1368.97 474.383
213 1 45.0448 10.2565 462 80.1667 1368.86 494.838
214 0 47.0782 11.1092 523 79.6157 1368.95 494.698
215 0 47.0529 10.9876 517 80.9246 1368.16 493.4
216 0 48.0484 12.0712 580 79.5966 1368.45 492.295
217 0 50.012 11.6972 585 80.6632 1368.52 493.002
218 0 50.0509 12.3674 619 79.2003 1369.5 491.751
219 0 50.0268 12.4733 624 75.4231 1368.69 492.538
220 0 50.0471 11.669 584 79.0959 1369.01 491.692
221 0 51.0795 11.5702 591 79.9323 1368.18 492.132
222 0 53.0203 11.5616 613 79.2512 1368.6 491.587
223 0 55.0233 11.6678 642 78.8084 1368.7 490.526
224 0 56.0448 11.8298 663 78.8205 1368.8 489.529
225 0 58.0162 12.0484 699 78.475 1368.66 487.771
226 0 58.0631 11.2119 651 80.5991 1368.21 487.263
227 0 62.0684 11.9868 744 78.1895 1368.1 487.734
228 0 61.024 11.1268 679 80.2459 1369.9 485.867
229 0 65.0614 11.8965 774 77.4109 1369.54 485.681
230 0 66.0871 11.0158 728 78.9478 1370.29 484.052
231 0 68.0707 12.4282 846 76.6879 1369.69 482.485
232 0 69.0766 11.7551 812 77.0998 1369.55 482.014
233 0 70.0557 11.4908 805 77.4335 1369.96 481.248
234 0 73.065 11.6198 849 75.6125 1369.74 478.942
235 0 75.0679 11.5096 864 75.9398 1369.35 477.557
236 0 74.0489 10.4255 772 78.0609 1369.13 477.005
237 0 76.0339 10.8241 823 77.6075 1369.17 475.757
238 0 81.0966 11.8994 965 77.4197 1369.34 474.421
239 0 81.0446 11.6726 946 79.1004 1368.69 473.71
240 0 85.0541 11.5691 984 79.0996 1368.36 471.444
241 0 86.0295 11.4844 988 79.8694 1368.64 471.238
242 0 92.0413 12.2988 1132 78.1493 1369.25 470.771
243 0 92.0526 12.1452 1118 79.4204 1368.08 468.987
244 0 96.1051 12.5071 1202 82.5333 1369.24 467.206
245 0 99.0921 12.5842 1247 82.648 1369.19 464.645
246 0 102.129 12.3961 1266 83.0837 1369.53 464.23
247 0 104.168 12.0574 1256 82.8368 1369.38 463.622
248 0 108.094 12.3596 1336 81.3832 1368.94 462.219
249 0 110.102 11.998 1321 82.215 1367.8 460.025
250 0 114.158 12.763 1457 84.464 1369.09 458.197
251 0 117.093 12.4687 1460 85.6055 1369.22 456.318
252 0 123.099 13.5256 1665 85.4456 1369.34 454.091
253 0 128.096 13.2479 1697 87.2722 1369 448.374
254 1 68.0868 11.2357 765 84.3007 1369.34 480.638
255 0 71.1034 11.9544 850 83.9694 1368.81 477.501
256 0 74.0972 12.5646 931 83.2836 1370.1 477.358
257 0 74.0963 11.4851 851 76.866 1370.47 479.711
258 0 76.1027 11.6027 883 77.6976 1370.13 479.163
259 0 78.172 11.7177 916 79.2686 1369.96 474.972
260 0 80.0715 11.9144 954 82.565 1369.27 475.468
261 0 84.0413 12.0536 1013 81.0987 1370.28 475.199
262 0 86.1655 11.3503 978 85.1953 1369.94 472.796
263 0 89.1186 11.6923 1042 84.358 1369.52 470.624
264 0 93.1246 12.5316 1167 83.6538 1369.92 470.535
265 0 95.06 12.308 1170 85.259 1370.34 466.904
266 0 99.1141 12.4301 1232 84.7192 1369.62 466.477
267 0 101.141 12.3689 1251 84.4205 1369.72 465.596
268 0 104.173 12.6616 1319 84.9666 1369.35 462.732
269 0 109.161 12.6602 1382 84.5355 1369.62 460.841
270 0 112.181 13.0414 1463 83.9932 1369.19 461.51
271 0 115.104 13.1533 1514 84.1678 1369.1 458.956
272 0 119.216 12.2299 1458 86.1536 1368.27 456.181
273 0 125.189 12.8605 1610 84.5963 1369.12 454.412
274 0 130.09 13.2831 1728 83.1319 1369.03 450.94
275 0 132.236 12.9995 1719 84.0948 1369.32 449.718
276 1 75.1955 12.0486 906 84.8422 1369.12 479.302
277 0 77.1685 12.4144 958 85.3069 1369.63 477.18
278 0 79.1378 12.2697 971 85.4449 1369.77 474.159
279 0 78.1452 11.9393 933 83.3783 1368.69 477.473
280 0 80.3245 12.3126 989 83.7078 1368.9 475.347
281 0 84.2258 12.3953 1044 83.1695 1368.53 473.592
282 0 87.203 12.8321 1119 82.5675 1368.72 474.209
283 0 89.1334 12.8683 1147 83.6521 1368.13 471.153
284 0 90.1576 12.3561 1114 85.3321 1369.15 469.169
285 0 94.2135 12.6733 1194 84.2889 1368.83 468.407
286 0 98.192 12.9338 1270 83.8354 1369.13 465.376
287 0 101.165 12.5636 1271 85.4288 1368.82 463.817
288 0 102.16 12.774 1305 85.7762 1368.57 462.766
289 0 106.12 12.6461 1342 86.5343 1368.4 459.002
290 0 110.188 13.0959 1443 86.6577 1369.06 458.147
291 0 114.126 12.7316 1453 88.2608 1368.76 454.743
292 0 117.132 12.5158 1466 90.2565 1368.27 452.935
293 1 62.0436 9.91239 615 87.9854 1368.23 479.475
294 0 66.1832 11.1509 738 89.1843 1368.39 479.702
295 0 69.1427 11.9897 829 88.6707 1367.88 481.092
296 0 68.1745 11.0599 754 86.2202 1368.55 482.869
297 0 70.1636 12.029 844 84.2512 1368.04 481.524
298 0 73.127 12.6492 925 84.093 1368.61 480.357
299 0 74.1237 12.3442 915 86.5497 1369.21 480.613
300 0 78.1242 12.6337 987 88.3576 1368.74 480.26
301 0 81.1686 12.5788 1021 87.9618 1369.06 478.225
302 0 83.1485 12.7844 1063 89.9887 1368.53 476.307
303 0 87.1242 12.9585 1129 90.0602 1368.35 474.612
304 0 88.0727 12.66 1115 91.6152 1368.94 472.159
305 0 92.1587 13.3357 1229 89.5069 1368.63 470.103
306 0 95.2783 13.4448 1281 92.6714 1368.2 470.151
307 1 50.1091 10.6967 536 95.694 1367.66 492.959
308 0 50.0745 10.9637 549 96.2168 1367.15 492.466
309 0 52.0311 11.8775 618 92.2055 1367.18 492.466
310 0 54.0168 11.8297 639 91.831 1366.96 491.41
311 0 55.0167 12.7052 699 91.6767 1368.06 491.991
312 0 56.082 12.66 710 92.6225 1366.68 491.777
313 0 56.0202 12.8882 722 82.2742 1367.44 491.992
314 0 59.0602 13.1053 774 81.6227 1367.64 491.226
315 0 58.024 12.5465 728 83.2459 1367.92 491.059
316 0 61.0297 13.305 812 81.2069 1367.79 490.877
317 0 63.072 13.1913 832 80.8089 1368.95 488.546
318 0 64.04 13.7883 883 79.9875 1368.31 489.461
319 0 67.0998 13.4278 901 80.7425 1368.41 488.835
320 0 68.0784 12.75 868 84.1106 1368.64 487.768
321 0 71.1117 13.2186 940 82.6245 1368.03 486.429
322 0 72.0656 13.2241 953 83.7146 1367.83 485.186
323 0 75.1062 13.4876 1013 81.7315 1367.56 484.445
324 0 78.1096 14.1852 1108 79.2671 1367.44 484.322
325 0 80.0224 14.3585 1149 81.2698 1367.22 481.147
326 0 83.1641 13.8882 1155 83.9593 1367.06 482.047
327 0 85.0947 13.1618 1120 86.4473 1367.17 480.799
328 0 86.1213 13.9687 1203 86.9701 1367.19 479.47
329 0 89.0872 13.9975 1247 86.5076 1367.15 479.233
330 0 93.1343 13.6362 1270 102.194 1366.44 476.455
331 0 96.1324 13.9495 1341 101.711 1366.89 476.382
332 0 98.1352 13.5935 1334 104.364 1366.49 473.675
333 0 101.111 13.6979 1385 104.264 1366.23 472.408
334 0 102.143 13.2265 1351 107.405 1365.98 470.756
335 0 108.267 13.7069 1484 105.307 1366.25 469.259
336 0 110.187 13.4407 1481 105.369 1366.38 466.935
337 0 113.147 13.4338 1520 105.488 1366.72 465.711
338 1 57.1024 12.2061 697 100.74 1366.04 493.776
339 0 57.2116 12.4625 713 97.6255 1365.34 492.449
340 0 62.1018 12.8499 798 96.6867 1364.6 492.218
341 0 63.1717 13.2813 839 96.8951 1366 491.46
342 0 63.0506 12.7993 807 88.8463 1366.06 490.539
343 0 66.0708 13.3644 883 87.4994 1364.95 490.843
344 0 67.0714 13.1502 882 88.5091 1365.21 489.957
345 0 67.0783 13.1637 883 136.296 1365.22 489.949
346 0 71.0953 12.9123 918 90.4684 1364.98 488.488
347 0 74.0836 13.3903 992 89.4556 1364.61 486.926
348 0 78.1142 13.5443 1058 92.9792 1364.12 484.962
349 0 79.1168 13.7518 1088 94.5009 1364.27 484.42
350 0 82.232 13.6078 1119 93.8186 1364.98 483.29
351 0 83.1249 13.4978 1122 96.1631 1364.93 480.872
352 0 86.1097 13.3435 1149 96.3847 1364.72 480.083
353 0 89.0641 13.552 1207 96.7871 1364.67 478.403
354 0 93.1005 13.6197 1268 97.7768 1364.75 477.136
355 0 95.1568 13.8613 1319 99.1501 1365.04 474.168
356 0 98.1411 12.8998 1266 104.288 1364.37 473.055
357 0 98.2421 12.0926 1188 96.3822 1364.65 475.562
358 1 52.0605 11.1793 582 96.2749 1364.36 495.768
359 0 54.2057 12.0467 653 93.2159 1365.55 495.253
360 0 56.1855 12.085 679 90.0663 1366.11 493.32
361 0 54.0734 11.4844 621 91.6634 1365.73 495.116
362 0 55.101 11.3428 625 88.7552 1366.31 494.941
363 0 55.099 11.4703 632 82.1946 1366.55 494.644
364 0 59.0786 11.3408 670 85.0418 1366.73 493.169
365 0 59.0676 11.2414 664 86.6898 1367.31 492.438
366 0 60.0773 11.0857 666 88.461 1366.88 490.884
367 0 62.0817 11.5493 717 86.4045 1366.66 491.245
368 0 65.0807 11.5088 749 85.8838 1367.1 488.056
369 0 65.0264 10.8725 707 87.9972 1366.86 488.301
370 0 67.0746 10.943 734 87.4687 1366.82 485.029
371 0 70.1133 10.3689 727 88.6547 1366.94 484.663
372 0 73.0735 11.8374 865 85.6162 1366.43 482.548
373 0 76.0825 11.9476 909 85.7833 1367.07 483.24
374 0 80.1206 12.9929 1041 82.4678 1367.72 481.225
375 0 82.1079 12.2278 1004 84.1096 1367.3 480.561
376 0 84.1429 13.18 1109 83.9414 1366.96 476.956
377 0 88.0582 13.0028 1145 85.0061 1367.15 475.208
378 0 90.0389 12.9277 1164 88.2491 1367.54 474.535
379 0 93.1034 12.803 1192 89.8389 1367.16 473.406
380 0 97.1943 12.367 1202 90.6331 1366.79 469.622
381 0 100.436 11.9081 1196 91.3378 1366.2 465.929
382 1 53.2897 10.2083 544 85.9301 1366.26 489.314
383 0 56.3628 11.2485 634 85.3549 1366.36 488.82
384 0 56.4362 12.0667 681 85.7063 1366.76 486.784
385 0 59.2626 11.8962 705 83.9319 1366.2 485.803
386 0 61.2598 12.2429 750 86.1693 1366.75 483.997
387 0 62.0822 12.9506 804 86.2351 1365.71 485.586
388 0 64.0842 12.702 814 85.4803 1366.45 484.695
389 0 66.0671 12.6992 839 88.9726 1366.58 483.067
390 0 69.1419 13.1179 907 88.5491 1366.64 482.444
391 0 69.0983 13.4301 928 89.2468 1366.18 481.017
392 0 72.0721 13.5281 975 88.9959 1366.47 479.588
393 0 76.1578 14.0498 1070 88.2159 1366.73 477.978
394 0 75.1035 12.8889 968 92.9824 1366.73 476.942
395 0 78.13 13.7079 1071 91.6769 1366.77 475.883
396 0 80.1131 13.5808 1088 93.1507 1367.02 474.289
397 0 84.146 14.3203 1205 90.8 1366.17 473.481
398 0 83.136 13.087 1088 95.8989 1366.81 473.13
399 0 86.1284 13.1664 1134 95.455 1367.1 471.946
400 0 90.1278 13.4698 1214 93.4778 1367.18 469.531
401 0 93.1281 12.8855 1200 95.025 1366.82 467.705
402 0 96.1151 13.8688 1333 94.1793 1366.82 466.347
403 0 100.112 13.5748 1359 95.8845 1366.95 463.432
404 0 103.182 13.5391 1397 96.5233 1367.84 464.875
405 1 57.2509 11.3885 652 101.701 1367.96 488.586
406 0 59.1163 11.3505 671 96.1148 1367.57 488.477
407 0 61.0468 11.7615 718 95.9958 1368.16 488.209
408 0 62.0751 11.615 721 85.9334 1367.51 488.915
409 0 65.068 12.3563 804 84.4378 1367.66 487.802
410 0 63.1114 11.4876 725 87.5048 1367.38 487.175
411 0 65.1037 11.259 733 88.6903 1367.65 485.834
412 0 69.0582 11.6279 803 88.7347 1367.03 484.425
413 0 74.1349 12.2884 911 85.5357 1368.04 483.144
414 0 73.1692 11.9996 878 87.9544 1367.7 482.616
415 0 78.0472 12.4796 974 86.5277 1367.99 481.333
416 0 79.0946 11.7581 930 88.4591 1367.25 480.041
417 0 80.0861 12.2618 982 87.2607 1367.51 478.517
418 0 83.1086 11.5391 959 88.8467 1367.9 477.262
419 0 87.1166 12.3168 1073 87.7903 1367.33 475.422
420 0 90.0697 12.135 1093 87.6889 1367.18 474.296
421 0 92.1286 12.3414 1137 88.1803 1367.73 472.204
422 0 95.1521 12.3381 1174 89.4284 1367.39 471.105
423 0 99.134 12.9623 1285 91.2661 1367.96 468.127
424 1 54.1645 10.6343 576 84.2535 1366.74 491.823
425 0 54.146 11.0812 600 84.605 1366.46 491.118
426 0 57.1029 11.6807 667 83.9175 1366.71 489.234
427 0 58.065 11.6593 677 85.0975 1365.29 489.093
428 0 59.0724 12.2561 724 85.9738 1365.54 488.285
429 0 62.0658 12.0195 746 86.7453 1365.57 488.335
430 0 61.0337 11.6985 714 89.3739 1365.34 488.819
431 0 64.0697 12.0182 770 87.8883 1365.99 486.805
432 0 66.0399 11.8262 781 89.0563 1366.13 486.271
433 0 67.0806 12.3583 829 92.0603 1366.26 484.752
434 0 69.0411 12.5867 869 93.0783 1366.35 484.674
435 0 71.0356 12.543 891 94.3973 1366.03 483.58
436 0 71.0678 12.3122 875 97.4126 1365.98 482.152
437 0 75.0746 12.6008 946 95.3552 1365.63 482.18
438 0 77.0387 12.2666 945 96.4085 1365.81 479.003
439 0 80.038 12.5565 1005 94.5164 1365.51 477.348
440 0 82.0425 12.8104 1051 94.4006 1365.77 475.003
441 0 85.1596 12.9287 1101 93.079 1365.66 473.728
442 0 90.0363 13.4723 1213 91.3504 1367.03 472.706
443 0 89.1212 12.8589 1146 92.8264 1366.66 469.043
444 0 92.0734 12.2837 1131 94.7162 1366.47 467.632
445 0 92.1129 11.7465 1082 97.3179 1365.65 465.106
446 1 49.041 8.70701 427 82.2974 1365.98 485.103
447 0 50.2098 9.63956 484 81.3781 1366.87 486.362
448 0 55.1526 11.8943 656 80.6845 1365.53 492.049
449 0 55.0563 12.024 662 83.0227 1365.54 493.144
450 0 56.075 12.1623 682 82.3563 1365.42 491.849
451 0 57.082 11.2995 645 84.1349 1365.87 491.602
452 0 59.0726 12.3069 727 82.608 1365.74 490.494
453 0 60.0084 11.8817 713 84.3633 1365.41 490.6
454 0 64.0518 12.7865 819 81.5275 1365.34 487.924
455 0 65.0427 11.7615 765 83.0444 1366.14 487.392
456 0 67.0227 12.1899 817 82.3023 1366.39 485.318
457 0 71.0548 12.3989 881 80.4257 1366.42 484.873
458 0 71.0671 12.0309 855 82.3275 1366.37 483.992
459 0 73.0736 11.4542 837 83.2461 1366.22 482.51
460 0 75.0407 11.074 831 84.6691 1366.54 480.682
461 0 78.0667 11.4389 893 84.3561 1366.51 479.447
462 0 80.0647 11.7655 942 84.9342 1366.61 477.637
463 0 84.0413 12.2321 1028 83.6858 1366.53 475.55
464 0 86.1044 11.7532 1012 84.5247 1366.61 472.956
465 0 90.0758 11.9233 1074 84.1127 1366.56 473.913
466 0 93.0707 11.7867 1097 86.0957 1367.21 471.876
467 1 47.0395 10.5443 496 94.5847 1366.09 495.879
468 0 48.0058 11.2278 539 95.5343 1365.9 493.737
469 0 47.0169 11.6128 546 95.7418 1366.42 492.137
470 0 50.0439 11.6298 582 81.957 1367.08 492.859
471 0 52.0618 11.1982 583 84.0103 1366.37 491.868
472 0 54.0745 11.78 637 83.2512 1365.46 490.608
473 0 56.0653 12.6281 708 81.8319 1366.61 490.482
474 0 58.0584 11.9018 691 82.9508 1365.27 490.79
475 0 59.0654 12.8163 757 83.14 1366.88 489.083
476 0 59.0648 12.1731 719 85.1808 1366.25 488.819
477 0 62.0723 12.3727 768 83.4935 1366.21 487.54
478 0 64.0876 12.4673 799 84.0951 1366.23 487.772
479 0 67.1055 12.607 846 82.9681 1366.24 485.648
480 0 67.1377 12.5265 841 84.0951 1365.58 485.756
481 0 69.0729 12.6967 877 86.2052 1365.45 486.138
482 0 71.1827 12.6997 904 88.2843 1365.95 485.353
483 0 72.0794 12.4585 898 89.6849 1365.54 485.438
484 0 75.0733 12.8674 966 89.7578 1366.02 482.772
485 0 78.1045 12.048 941 90.9756 1365.75 481.779
486 0 80.0801 13.1244 1051 88.5842 1366.03 479.572
487 0 81.0961 12.0721 979 91.1205 1366.63 479.955
488 0 86.0744 12.5589 1081 89.1138 1366.63 477.918
489 0 88.0992 12.6448 1114 88.3995 1366.99 478.64
490 0 92.1219 12.6137 1162 91.9139 1366.19 476.111
491 0 93.1031 12.3626 1151 92.2502 1366.57 473.732
492 0 98.1629 12.0514 1183 92.694 1366.49 472.516
493 0 101.071 12.6545 1279 91.6145 1367.07 471.628
494 0 104.226 13.1157 1367 90.4177 1367.53 466.063
495 1 56.1182 11.1907 628 93.6831 1367.39 490.737
496 0 56.0375 11.8492 664 90.2711 1365.52 491.765
497 0 59.1517 12.1383 718 94.0738 1366.99 489.492
498 0 60.11 11.978 720 102.333 1366.69 487.404
499 0 64.0959 12.2317 784 101.003 1366.65 486.992
500 0 65.1065 12.3183 802 100.394 1366.24 487.45
501 0 68.071 12.5898 857 100.322 1365.88 485.523
502 0 69.1566 13.0573 903 99.0487 1365.98 484.058
503 0 72.1034 12.1492 876 100.445 1366.03 482.76
504 0 74.1744 12.4706 925 99.0865 1366.39 482.303
505 0 75.1391 12.8428 965 99.0373 1366.19 481.224
506 0 79.1495 12.748 1009 97.2785 1366.38 480.036
507 0 81.1198 13.0301 1057 97.6272 1365.92 477.996
508 0 83.1883 13.187 1097 97.526 1365.71 477.234
509 0 86.2214 13.1406 1133 97.6734 1365.87 476.201
510 0 87.1581 12.724 1109 98.8999 1366.3 474.622
511 0 91.1905 12.589 1148 99.0357 1365.18 472.329
512 0 97.2948 12.6317 1229 98.1871 1365.43 472.54
513 0 99.1353 12.6897 1258 99.128 1365.02 470.675
514 0 101.175 12.3944 1254 98.6667 1365.67 467.256
515 0 104.294 12.4839 1302 98.874 1365.4 467.164
516 0 107.208 12.3498 1324 98.4199 1365.74 463.655
517 0 108.221 11.9108 1289 98.723 1365.37 462.886
518 0 111.378 12.0939 1347 96.5909 1365.33 460.787
519 1 60.0798 11.568 695 94.6388 1364.51 483.954
520 0 63.0213 11.0439 696 95.7615 1364.57 484.394
521 0 66.0333 12.4634 823 92.356 1364.4 483.702
522 0 68.0364 11.6408 792 93.3018 1364.49 480.607
523 0 71.096 11.5478 821 92.4166 1364.42 479.892
524 0 72.1239 12.6588 913 90.4337 1364.65 479.124
525 0 79.1353 13.3442 1056 93.6809 1365.99 480.495
526 0 79.1383 12.8762 1019 96.0186 1364.8 479.986
527 0 83.2047 12.5714 1046 97.1826 1364.95 479.556
528 0 84.0885 12.7723 1074 98.8287 1364.46 477.069
529 0 87.0544 12.4635 1085 97.3677 1364.5 476.761
530 0 89.0465 12.8584 1145 96.2 1363.73 476.597
531 0 93.0605 12.9486 1205 95.434 1363.7 475.312
532 0 95.0883 12.9669 1233 96.296 1364.59 474.891
533 0 99.1179 13.3477 1323 94.3515 1364.38 474.348
534 0 104.029 13.4674 1401 92.9479 1364.8 470.703
535 0 104.127 13.0321 1357 103.043 1364.44 470.041
536 0 107.173 13.3242 1428 95.0294 1364.51 468.352
537 1 57.0178 11.3649 648 94.9969 1363.48 493.625
538 0 58.0373 11.5788 672 92.7574 1363.14 493.491
539 0 59.1023 12.2669 725 92.4262 1364.21 490.708
540 0 62.0585 12.456 773 89.5252 1365.3 491.67
541 0 64.0311 12.6033 807 88.6939 1366.31 489.445
542 0 66.0416 12.7647 843 87.344 1365.91 489.508
543 0 68.038 12.3166 838 89.6504 1365.61 489.374
544 0 71.0449 13.3015 945 86.4624 1364.98 487.895
545 0 74.0254 13.0901 969 88.2642 1365.57 487.598
546 0 74.1827 12.941 960 90.924 1364.66 485.104
547 0 78.1527 13.5376 1058 88.2826 1364.96 483.937
548 0 80.1214 12.8181 1027 90.2201 1364.67 483.156
549 0 84.1264 13.1231 1104 89.2283 1363.71 480.953
550 0 85.0863 13.0926 1114 89.0503 1363.81 479.944
551 0 90.0786 13.1219 1182 88.5998 1364.4 478.081
552 0 92.0952 13.7901 1270 87.348 1364.89 476.698
553 0 96.0948 13.622 1309 87.2765 1363.96 474.939
554 1 47.0348 10.5241 495 83.6465 1363.47 501.778
555 0 49.0483 10.6833 524 83.8359 1363.27 500.935
556 0 50.0544 11.4675 574 82.5226 1363.96 499.693
557 0 52.0197 12.7452 663 77.365 1363.38 499.703
558 0 51.033 11.9139 608 77.1974 1362.86 499.304
559 0 52.0339 12.5687 654 72.0229 1362.54 499.095
560 0 53.0454 11.8955 631 73.6878 1363.01 497.837
561 0 55.0184 12.2868 676 72.747 1363.13 496.615
562 0 56.049 11.5256 646 74.9443 1363.5 496.192
563 0 58.0451 12.0941 702 73.9744 1363.74 495.429
564 0 62.0497 12.909 801 71.6654 1363.37 493.581
565 0 62.0646 11.6975 726 74.5565 1363.55 493.467
566 0 64.0589 12.1295 777 74.0541 1363.41 491.838
567 0 65.063 12.7261 828 74.1981 1363.92 492.529
568 0 66.0384 12.311 813 75.075 1363.24 490.359
569 0 67.0316 11.7258 786 75.8995 1363.4 491.504
570 0 69.0876 10.5229 727 78.0646 1363.03 490.748
571 0 71.0878 11.5772 823 76.9635 1363.61 489.163
572 0 73.0877 11.4657 838 79.173 1363.21 487.897
573 0 74.0736 11.7316 869 79.6398 1364.41 486.459
574 0 76.0312 11.8241 899 79.5306 1364.29 486.627
575 0 79.0493 11.904 941 81.3071 1363.32 485.143
576 0 83.1253 12.2947 1022 80.0675 1363.6 483.955
577 0 86.1287 11.866 1022 81.9002 1363.68 482.416
578 0 88.0388 11.8698 1045 83.9627 1363.92 480.688
579 0 92.0687 12.7731 1176 81.8512 1363.47 478.83
580 0 95.1068 12.5859 1197 81.1145 1364.08 475.969
581 0 96.156 12.3341 1186 84.8221 1364.72 475.48
582 0 99.0709 12.6778 1256 85.6441 1365.17 473.866
583 1 53.0591 10.9501 581 88.7917 1363.57 497.034
584 0 57.0532 11.8135 674 87.3279 1365.1 494.053
585 0 58.0505 11.869 689 86.1713 1364.4 493.518
586 0 59.0625 12.563 742 78.8167 1364.6 492.65
587 0 60.0566 12.7713 767 77.1904 1363.53 493.214
588 0 60.0566 12.8046 769 121.138 1362.53 493.243
589 0 65.1889 12.4254 810 77.842 1363.15 491.943
590 0 68.1419 13.1784 898 78.0445 1363.75 490.64
591 0 70.0896 12.641 886 78.9853 1363.83 490.229
592 0 72.1121 13.4374 969 78.3643 1364.03 489.376
593 0 75.0691 13.6541 1025 78.319 1363.7 489.036
594 0 79.1079 14.1199 1117 76.7762 1363.24 487.316
595 0 82.0861 14.4848 1189 75.3314 1363.84 485.001
596 0 83.0614 14.5435 1208 76.072 1362.41 483.246
597 0 85.141 14.153 1205 78.7245 1363.43 483.989
598 0 88.192 14.4004 1270 77.8906 1364.25 483.131
599 0 89.2214 14.4024 1285 79.3829 1363.43 482.304
600 0 91.2647 13.3568 1219 82.5078 1363.86 479.021
601 0 95.1621 14.5646 1386 79.171 1364.01 478.457
602 0 97.1824 13.9017 1351 81.0415 1364.38 475.298
603 0 97.1024 12.9348 1256 83.8694 1363.91 477.371
604 0 99.1977 13.2564 1315 82.6973 1363.94 476.905
605 0 102.118 13.2103 1349 84.3647 1363.38 473.58
606 0 103.229 12.1671 1256 86.5549 1362.81 473.636
607 0 109.197 12.8208 1400 83.055 1364.09 472.754
608 0 108.105 11.7571 1271 85.7742 1364.37 469.458
609 0 114.261 12.3665 1413 84.5902 1364.13 468.937
610 0 116.183 12.1188 1408 87.1264 1363.17 465.571
611 0 120.245 12.857 1546 87.6429 1363.34 466.388
612 0 124.18 13.1745 1636 88.1614 1362.86 465.101
613 0 129.3 13.3643 1728 88.6013 1363.11 463.855
614 1 67.1628 12.6409 849 92.4358 1362.67 492.29
615 0 70.1468 12.6734 889 92.9235 1362.41 491.216
616 0 70.2228 12.8306 901 94.6615 1362.57 489.508
617 0 73.1689 12.847 940 93.6745 1362.74 490.637
618 0 74.2042 12.6408 938 94.6343 1363.37 486.859
619 0 78.2163 13.8974 1087 91.9752 1363.76 487.077
620 0 80.311 13.9458 1120 91.4393 1363.52 484.545
621 0 82.3225 13.8358 1139 92.2687 1363.76 482.62
622 0 84.3031 13.748 1159 91.5384 1363.61 481.562
623 0 86.4012 13.9118 1202 91.2978 1363.01 479.587
624 0 87.2858 13.4042 1170 92.7786 1363.16 478.962
625 0 90.3319 12.764 1153 92.0755 1362.97 477.147
626 0 92.4515 13.261 1226 91.655 1363.37 473.774
627 0 97.2968 13.3509 1299 89.1324 1363.02 475.343
628 0 99.2714 13.2062 1311 89.6629 1363.22 472.453
629 0 102.283 13.6582 1397 86.8325 1363.65 471.734
630 0 105.116 12.2246 1285 84.0086 1364.48 471.337
631 1 57.0587 11.0588 631 79.9065 1363.81 495.957
632 0 57.1026 11.9084 680 78.5721 1364.41 492.272
633 0 59.1825 12.4868 739 76.9702 1364.52 491.888
634 0 61.0457 11.8436 723 76.6487 1364.35 491.586
635 0 63.2016 11.6927 739 89.7943 1364.34 489.218
636 0 68.1932 12.3179 840 86.1369 1364.85 488.94
637 0 69.1936 12.3711 856 87.014 1364.8 488.049
638 0 71.1715 12.2099 869 86.8055 1365.17 486.075
639 0 71.2272 12.0319 857 88.4259 1364.99 485.447
640 0 75.2751 12.2086 919 88.2688 1364.39 483.572
641 0 78.1927 12.5331 980 87.3735 1364.24 483.094
642 0 80.2446 12.6114 1012 87.9585 1364.87 481.481
643 0 81.1868 12.3912 1006 89.1461 1364.73 479.573
644 0 85.1918 12.6655 1079 87.228 1364.51 479.464
645 0 86.3013 12.3405 1065 88.7577 1364.29 478.38
646 0 88.3005 12.7972 1130 87.8965 1365.33 475.885
647 0 90.2143 12.4592 1124 90.6708 1365.94 473.24
648 0 94.2408 12.3832 1167 90.329 1365.21 472.941
649 1 49.0892 10.1855 500 89.128 1366.06 496.162
650 0 50.1465 10.3297 518 85.1892 1365.49 493.284
651 0 49.183 11.1827 550 86.0836 1365.08 490.636
652 0 50.3209 11.5857 583 84.3962 1365.29 491.034
653 0 53.2494 11.4555 610 88.9049 1365.5 492.156
654 0 52.0621 11.8512 617 76.5624 1363.88 494.076
655 0 53.1575 11.908 633 75.3728 1364.02 494.859
656 0 50.1027 11.5762 580 78.3897 1364.6 497.405
657 0 51.0981 11.2333 574 79.0209 1364.64 497.686
658 0 51.1207 11.0914 567 80.0741 1364.4 495.753
659 0 52.0411 11.9905 624 79.2596 1364.62 496.282
660 0 52.1188 12.4139 647 80.2303 1364.97 496.122
661 0 54.1594 11.6139 629 77.9555 1365.47 495.267
662 0 56.1077 13.1176 736 75.0326 1365.85 495.045
663 0 56.0387 12.2594 687 75.6565 1365.71 492.54
664 0 55.0795 11.8374 652 72.7055 1365.02 490.643
665 0 56.0616 11.9155 668 79.2335 1364.94 491.323
666 0 57.069 12.6689 723 76.1355 1365.34 492.941
667 0 0 0 0 -nan -nan -nan
668 0 0 0 0 -nan -nan -nan
669 0 0 0 0 -nan -nan -nan
670 1 128.148 7.3743 945 104.258 1365.56 366.799
671 1 84.0698 13.3104 1119 100.151 1365.73 368.835
672 0 86.0337 13.5993 1170 98.1846 1365.58 365.1
