time division length width area intensity CMx CMy
0 0 55.0223 12.5585 691 106.164 1071.25 497.777
1 0 59.0461 12.1431 717 102.834 1070.85 497.167
2 0 58.0645 13.1922 766 100.863 1070.73 497.62
3 0 60.07 12.8017 769 99.1547 1070.77 497.291
4 0 61.0304 13.0591 797 97.5546 1071.32 495.803
5 0 64.0214 12.8707 824 94.392 1070.88 496.819
6 0 65.0833 12.5224 815 95.1436 1071.21 494.996
7 0 67.0858 12.2828 824 95.2306 1070.64 495.353
8 0 69.0863 13.114 906 92.4768 1071.18 493.958
9 0 69.08 12.927 893 92.8578 1071.21 493.65
10 0 71.0855 12.492 888 92.7759 1070.62 493.658
11 0 72.1208 12.2988 887 93.4442 1070.36 492.295
12 0 72.051 11.6584 840 94.2857 1070.72 492.202
13 0 75.0883 12.2922 923 91.6349 1069.78 490.519
14 0 77.0746 12.4295 958 89.7578 1069.91 489.633
15 0 80.1537 11.9895 961 90.0687 1069.57 487.958
16 0 82.1102 12.2518 1006 87.995 1070.03 488.414
17 0 84.1535 12.4178 1045 87.4861 1069.8 485.097
18 0 88.1578 12.6251 1113 85.2129 1069.8 484.967
19 0 90.0827 12.5662 1132 83.9461 1070.07 483.751
20 0 92.184 12.1496 1120 83.7527 1070.71 483.081
21 0 95.1718 11.9258 1135 81.9639 1070.37 482.396
22 1 46.0902 11.369 524 84.0076 1070.24 504.057
23 0 48.1653 11.6889 563 82.2309 1069.18 503.542
24 0 49.1237 11.8476 582 82.5876 1069.64 502.608
25 0 50.0575 12.0062 601 81.8053 1070.28 501.175
26 0 53.0777 12.3216 654 79.3165 1070.04 502.664
27 0 54.0869 11.9253 645 82.8357 1070 500.867
28 0 53.0128 12.3178 653 78.075 1070.51 504.352
29 0 54.0395 12.3243 666 78.3619 1070.7 502.647
30 0 56.0731 12.3232 691 78.903 1070.22 502.446
31 0 57.0567 12.1984 696 78.4425 1070.56 501.247
32 0 58.0478 12.3174 715 78.8685 1070.64 500.112
33 0 61.0418 12.7617 779 77.3119 1069.75 498.947
34 0 62.0533 12.1831 756 79.0106 1068.72 500.177
35 0 65.0387 12.408 807 78.57 1069.08 497.52
36 0 68.0378 12.9781 883 77.59 1069.29 496.905
37 0 68.1156 12.5375 854 78.9087 1068.84 495.42
38 0 72.0587 12.4621 898 79.088 1068.4 493.225
39 0 75.065 12.6157 947 78.2376 1068.9 493.259
40 0 75.0672 12.8685 966 78.1822 1068.32 491.132
41 0 80.1287 13.1788 1056 76.7254 1068.84 490.274
42 0 82.1089 13.0924 1075 78.3265 1068.33 488.264
43 0 84.0997 12.4019 1043 80.163 1068.53 488.046
44 0 89.2439 13.4127 1197 76.4912 1068.71 484.967
45 0 92.122 13.0479 1202 77.6431 1068.14 482.825
46 1 44.0506 10.6922 471 76.8386 1067.82 508.18
47 0 44.0466 10.8522 478 78.977 1068.56 506.188
48 0 44.0667 11.6187 512 74.3574 1067.82 506.117
49 0 50.0166 11.956 598 79.6873 1068.63 505.055
50 0 50.0219 12.4545 623 78.9711 1069.73 504.193
51 0 52.0279 11.9359 621 79.9903 1069.54 504.127
52 0 52.0185 12.0149 625 80.7296 1069.96 503.389
53 0 54.0251 12.1795 658 80.3161 1070.05 501.413
54 0 57.0854 12.7178 726 78.5427 1069.93 501.045
55 0 58.0594 13.09 760 77.5368 1069.82 501.126
56 0 59.0949 12.1499 718 80.2632 1069.86 499.345
57 0 60.058 12.7044 763 79.4744 1070.01 497.785
58 0 62.0342 12.477 774 79.0142 1069.14 498.15
59 0 64.0912 13.0439 836 77.8935 1069.99 496.791
60 0 65.085 12.6604 824 78.5619 1070.02 497.184
61 0 68.1359 12.6072 859 78.0745 1069.81 494.902
62 0 70.1838 12.225 858 79.4103 1069.43 491.807
63 0 73.2603 12.8446 941 77.5717 1069.45 490.31
64 0 75.3019 12.2175 920 79.1946 1069.26 488.386
65 0 78.2231 12.899 1009 78.0327 1068.56 488.826
66 1 39.1678 10.4167 408 77.875 1067.88 506.77
67 0 40.2545 11.0547 445 77.1573 1067.26 506.98
68 0 42.2933 11.3966 482 77.3506 1068.03 506.193
69 0 46.1703 11.5442 533 78.0544 1068.12 505.52
70 0 48.0681 12.8568 618 74.8382 1068.79 506.227
71 0 46.0165 12.4955 575 70.6383 1068.92 508.242
72 0 48.0277 13.5755 652 69.138 1069.88 506.997
73 0 48.0569 12.2563 589 73.2275 1069.42 506.525
74 0 51.0274 13.189 673 71.7608 1069.75 505.889
75 0 52.0222 13.0713 680 74.8941 1069.09 505.463
76 0 54.0679 12.7062 687 77.0146 1069.6 504.476
77 0 55.1223 13.7694 759 76.22 1068.17 503.614
78 0 57.0192 13.171 751 85.2024 1069.57 501.426
79 0 58.0058 13.378 776 85.3286 1069.54 500.562
80 0 60.0757 13.6994 823 86.7108 1069.84 501.004
81 0 62.08 13.8531 860 88.1942 1070.05 499.59
82 0 63.0995 12.8369 810 91.6321 1070.53 497.804
83 0 66.1726 13.5252 895 90.2771 1070.44 496.564
84 0 67.0633 14.0166 940 89.1447 1070.61 495.532
85 0 71.0485 13.4415 955 90.9822 1070.39 495.755
86 0 70.2122 13.5874 954 92.6572 1070.76 493.872
87 0 72.1421 13.5289 976 94.1168 1071.27 493.507
88 0 73.1639 13.996 1024 94.5029 1071.01 492.154
89 0 77.0891 13.7244 1058 95.0879 1070.57 490.282
90 0 76.0384 13.3748 1017 97.469 1070.47 488.855
91 0 78.1022 13.4183 1048 97.7156 1070.08 488.109
92 0 81.039 13.7095 1111 97.4942 1070.14 486.405
93 0 86.1265 14.2697 1229 94.3247 1069.54 486.476
94 0 89.0659 13.3834 1192 97.5226 1069.57 484.445
95 0 90.1088 13.295 1198 98.4457 1069.59 483.891
96 0 93.0261 13.7488 1279 99.6935 1069.7 481.992
97 0 96.1056 13.891 1335 98.5738 1069.31 481.661
98 0 99.0438 14.1453 1401 98.2919 1069.14 480.22
99 0 100.076 13.8096 1382 100.023 1069.1 478.028
100 0 106.034 14.4293 1530 98.5876 1068.98 477.151
101 0 108.069 13.4544 1454 101.928 1068.89 474.906
102 1 55.0299 11.412 628 98.5557 1068.43 501.745
103 0 55.1265 12.2446 675 99.0756 1068.88 500.406
104 0 58.0391 12.3882 719 99.7427 1068.18 498.092
105 0 60.116 12.5757 756 97.8783 1068.83 497.126
106 0 59.0283 12.5364 740 96.7784 1069.2 499.692
107 0 62.0212 12.7537 791 96.6043 1069.28 497.105
108 0 64.056 13.2072 846 96.669 1069.13 495.755
109 0 67.0611 13.6145 913 94.7185 1069.31 496.383
110 0 67.0686 13.0314 874 98.1156 1069.8 494.525
111 0 69.0275 13.1107 905 98.9028 1069.15 492.528
112 0 73.0196 12.9965 949 97.9125 1068.88 492.629
113 0 75.041 13.2861 997 98.1133 1069.33 492.009
114 0 76.0432 13.0978 996 100.72 1068.63 489.617
115 0 76.0432 13.1241 998 165.337 1067.63 489.618
116 0 81.0684 13.0754 1060 102.345 1068.57 487.811
117 0 85.0159 13.6092 1157 101.162 1069.47 486.228
118 0 85.0584 13.3908 1139 102.027 1069.07 485.615
119 0 89.0502 13.8349 1232 101.102 1069.05 482.784
120 0 89.0532 13.2617 1181 103.268 1068.98 482.229
121 0 94.0795 13.0741 1230 102.561 1068.57 481.614
122 0 97.0625 13.1668 1278 101.319 1068.54 480.065
123 1 51.0526 11.8701 606 98.0347 1067.98 502.116
124 0 51.0169 11.5648 590 92.6593 1068.62 501.027
125 0 56.028 12.7793 716 95.243 1068.19 500.557
126 0 55.0218 12.0679 664 91.0618 1068.75 502.678
127 0 57.0338 12.0104 685 91.381 1068.89 501.293
128 0 57.0311 12.011 685 92.2876 1068.95 500.653
129 0 60.0344 12.5595 754 90.9178 1069.76 499.259
130 0 64.0387 12.9453 829 89.0724 1068.74 498.269
131 0 67.0553 12.7805 857 89.2777 1068.28 496.818
132 0 68.0633 12.5765 856 91.2757 1068.23 495.523
133 0 71.0559 12.849 913 90.3636 1068.01 494.791
134 0 73.057 12.456 910 93.144 1068.45 493.165
135 0 75.0289 13.1416 986 89.0385 1068.69 492.714
136 0 78.0244 13.6752 1067 88.6738 1068.58 492.56
137 0 79.0254 12.8693 1017 92.2871 1070.28 489.88
138 0 81.0963 12.6886 1029 94.4733 1069.36 489.055
139 0 84.1213 13.3141 1120 93.7759 1068.22 488.016
140 0 87.0635 13.5648 1181 94.4555 1068 487.858
141 0 88.0434 13.9363 1227 96.6658 1068.06 485.455
142 0 93.0603 14.1521 1317 97.9256 1068.19 485.579
143 0 93.1169 13.134 1223 101.621 1068.75 483.17
144 0 97.1038 13.1509 1277 98.6938 1068.31 482.828
145 0 100.124 13.4433 1346 96.2244 1068.47 481.559
146 0 104.088 13.6904 1425 96.0386 1068.14 478.646
147 1 58.0512 11.5243 669 98.559 1068.09 500.496
148 0 59.0507 12.3961 732 96.9003 1067.71 500.488
149 0 62.0435 12.5074 776 96.5 1067.37 500.071
150 0 64.0557 13.0199 834 96.6918 1067.11 499.183
151 0 65.0451 12.9756 844 97.2062 1067.74 498.724
152 0 65.0363 13.3771 870 98.3885 1067.06 498.413
153 0 68.0357 13.4341 914 94.0722 1067.19 495.535
154 0 66.0425 12.3557 816 93.8272 1068.09 497.403
155 0 69.0506 11.8753 820 93.6207 1068.12 496.188
156 0 72.0657 12.0307 867 94.323 1068.13 494.497
157 0 74.1781 12.1599 902 93.2827 1068.28 494.157
158 0 77.0483 12.4208 957 92.1118 1068.08 492.85
159 0 78.0554 12.5808 982 92.1914 1067.82 490.318
160 0 80.1239 11.9565 958 93.191 1067.18 489.88
161 0 85.1646 12.834 1093 91.1574 1067.38 488.479
162 0 87.1816 12.3879 1080 91.7278 1067.84 486.643
163 0 90.1186 12.6611 1141 90.2647 1067.3 485.927
164 0 92.1431 12.7628 1176 89.46 1067.45 483.846
165 0 95.2292 12.7902 1218 88.7069 1067.65 480.416
166 0 96.131 12.3269 1185 89.8844 1068.02 479.459
167 0 98.2628 12.5378 1232 89.642 1067.63 478.153
168 0 105.146 13.1056 1378 87.3186 1067.93 475.686
169 0 107.3 12.7213 1365 89.6293 1067.95 473.313
170 0 111.235 13.2333 1472 88.0591 1067.9 471.605
171 0 115.185 13.7258 1581 85.3972 1067.33 470.013
172 0 118.161 13.4732 1592 85.7349 1068.56 469
173 0 122.236 13.3186 1628 86.258 1068.35 466.256
174 0 124.179 13.2067 1640 86.0354 1068.18 463.728
175 0 129.232 13.6266 1761 85.5389 1067.89 462.1
176 0 134.133 13.3375 1789 88.6674 1067.38 459.347
177 0 138.235 13.4915 1865 88.7147 1067.23 457.413
178 0 141.127 13.9023 1962 88.0785 1067.67 455.375
179 0 145.151 13.5997 1974 89.0279 1068.06 453.462
180 0 151.122 13.5718 2051 90.0834 1067.23 451.152
181 1 79.1021 10.7582 851 88.6263 1067.77 488.146
182 0 79.0886 10.8233 856 140.861 1068.76 488.153
183 0 81.0642 10.9173 885 89.1932 1067.6 484.843
184 0 84.1699 12.1183 1020 86.8088 1066.73 482.305
185 0 87.0906 12.0564 1050 86.5314 1066.62 482.619
186 0 89.0923 12.01 1070 85.8458 1067.27 478.854
187 0 89.1016 12.5475 1118 84.3032 1067.3 476.488
188 0 92.0291 12.496 1150 84.3948 1066.95 473.706
189 0 94.041 12.8667 1210 83.6165 1067.06 473.264
190 0 98.112 12.5775 1234 83.7836 1068.37 470.891
191 0 100.074 12.8006 1281 82.8962 1067.56 467.127
192 0 101.143 13.0211 1317 83.1762 1067.87 467.569
193 0 105.078 12.5716 1321 84.2453 1067.51 463.258
194 0 108.104 12.1642 1315 84.9559 1067.36 461.579
195 0 112.123 12.9679 1454 83.5757 1067.64 458.465
196 0 115.165 12.5819 1449 84.205 1067.28 456.946
197 0 120.187 12.3391 1483 84.9474 1067.42 454.457
198 0 128.159 12.664 1623 84.464 1067.44 453.335
199 0 130.156 12.2007 1588 86.0063 1067.64 452.254
200 0 140.144 12.9367 1813 86.2962 1067.74 450.625
201 0 146.194 13.0991 1915 88.9796 1068.05 451.918
202 1 81.0777 10.4344 846 111.787 1067.44 487.467
203 0 84.0557 11.6708 981 108.367 1068.24 484.649
204 0 86.1014 12.2995 1059 103.873 1068.13 483.914
205 0 92.0154 12.9218 1189 96.8755 1067.53 483.648
206 0 93.0353 12.8553 1196 97.6823 1067.35 481.829
207 0 97.0377 12.7992 1242 97.0137 1067.57 480.874
208 0 100.125 12.6542 1267 97.6306 1067.42 478.707
209 0 101.104 12.5613 1270 98.2386 1067.39 478.298
210 0 106.063 13.1054 1390 107.722 1066.91 474.409
211 0 108.108 12.9038 1395 107.249 1066.81 473.594
212 0 112.102 13.1845 1478 107.33 1066.29 471.896
213 0 116.072 13.2849 1542 106.526 1066.38 470.111
214 0 119.134 13.4639 1604 105.592 1066.75 468.039
215 0 123.104 13.6551 1681 105.689 1066.43 466.708
216 0 127.076 13.7004 1741 104.984 1066.49 465.302
217 0 131.08 13.1599 1725 106.521 1066.58 461.663
218 0 134.086 13.6181 1826 102.278 1066.18 460.001
219 0 137.111 13.252 1817 103.412 1067.05 457.581
220 0 142.079 13.5488 1925 102.803 1066.61 455.359
221 0 148.056 13.1099 1941 102.664 1065.87 451.944
222 0 152.069 13.3097 2024 101.854 1065.82 450.868
223 1 83.0305 11.0441 917 90.6587 1066.62 486.472
224 0 85.0367 11.2422 956 89.4623 1066.49 485.973
225 0 90.0395 11.8615 1068 88.6283 1066.83 483.821
226 0 93.0441 12.263 1141 88.0771 1066.73 483.91
227 0 95.1507 11.466 1091 104.017 1066.51 478.975
228 0 98.1439 12.2473 1202 102.53 1065.94 479.606
229 0 101.082 11.5847 1171 103.711 1066.38 477.504
230 0 105.044 12.0521 1266 102.194 1066 476.578
231 0 108.075 11.8714 1283 100.472 1066.27 474.222
232 0 108.075 11.9361 1290 147.279 1065.29 474.248
233 0 112.065 11.7521 1317 100.706 1066.31 472.361
234 0 117.086 12.1791 1426 99.9425 1066.53 468.843
235 0 120.118 11.6302 1397 99.0623 1066.3 468.249
236 0 125.091 12.4469 1557 97.3064 1065.97 466.727
237 0 128.09 11.5388 1478 98.1678 1066.34 461.842
238 0 131.051 10.8584 1423 94.87 1066.15 461.322
239 0 137.104 11.2907 1548 94.0691 1066.39 457.386
240 0 140.094 11.3638 1592 97.0509 1066.54 455.989
241 1 74.053 9.68226 717 89.3682 1065.99 490.699
242 0 76.0604 10.9387 832 89.119 1065.21 488.683
243 0 79.0717 11.5591 914 85.4967 1065.37 488.915
244 0 80.0369 10.5576 845 86.2012 1064.88 486.041
245 0 83.0489 10.2831 854 88.3396 1065.2 486.945
246 0 83.095 9.90433 823 89.3341 1065.13 485.142
247 0 86.0776 10.1536 874 87.1419 1065.1 484.963
248 0 90.0837 9.8797 890 86.3416 1065.18 481.347
249 0 91.0602 9.46626 862 87.2483 1065.72 479.572
250 0 95.1014 10.1891 969 84.7028 1066.34 478.837
251 0 98.0806 9.61455 943 85.1739 1067.04 475.783
252 0 99.0838 9.66859 958 84.4739 1067.01 473.415
253 0 104.13 10.074 1049 83.3108 1066.53 472.36
254 0 108.124 9.7758 1057 83.1533 1066.27 470.42
255 0 109.216 9.77879 1068 81.9513 1066.12 467.714
256 0 114.108 9.58739 1094 81.096 1066.07 464.22
257 0 116.152 9.9094 1151 81.192 1065.91 463.599
258 0 121.225 10.5259 1276 79.5862 1066.53 461.444
259 0 129.134 12.4676 1610 77.3981 1066.11 464.825
260 1 69.0713 10.4819 724 72.5801 1066.99 495.087
261 0 72.0699 10.9893 792 74.8889 1067.25 492.452
262 0 73.1995 10.9017 798 81.2907 1065.86 490.917
263 0 77.2333 11.3423 876 80.3059 1066.07 488.74
264 0 68.0841 9.94359 677 67.1403 1066.68 480.722
265 0 78.1098 10.5364 823 67.6282 1067.7 481.328
266 0 80.0994 10.8615 870 68.7632 1066.96 481.246
267 0 82.079 10.0269 823 69.5978 1065.9 478.69
268 0 84.1441 10.2919 866 71.5 1066.23 480.815
269 0 87.1806 10.6675 930 80.2247 1065.69 483.6
270 0 87.1806 10.6904 932 126.421 1065.68 483.658
271 0 94.1026 11.1687 1051 83.8097 1064.77 482.554
272 0 93.0786 11.0982 1033 86.3456 1065.3 480.205
273 0 97.0891 11.8654 1152 84.283 1065.18 479.501
274 0 100.052 12.1437 1215 84.1539 1065.19 478.483
275 0 103.139 11.7317 1210 85.6066 1065.56 476.805
276 0 106.078 11.4161 1211 86.3039 1066.28 475.941
277 0 109.146 11.7732 1285 84.5105 1065.17 474.037
278 0 112.131 11.6381 1305 84.8107 1065.85 473.356
279 1 61.1038 10.4903 641 85.3775 1064.98 496.803
280 0 64.1101 11.3867 730 85.8603 1065.3 496.286
281 0 66.0415 11.4171 754 85.9231 1065.6 494.042
282 0 68.1675 11.8825 810 84.7926 1066.23 493.849
283 0 65.0379 10.5323 685 79.0088 1066.62 495.942
284 0 69.1468 10.5717 731 80.0082 1066.33 494.093
285 0 71.2161 11.2896 804 77.2052 1067.17 493.502
286 0 71.124 11.501 818 77.1015 1066.71 492.768
287 0 74.1396 11.3165 839 76.3063 1066.4 491.215
288 0 76.218 11.8476 903 75.7973 1066.36 490.862
289 0 77.1002 11.6991 902 77.3071 1065.92 487.479
290 0 80.2369 11.2791 905 77.4906 1066.36 486.917
291 0 82.1376 11.6634 958 75.8549 1066.34 485.643
292 0 83.1287 10.995 914 77.9891 1066 484.492
293 0 85.1624 10.9438 932 77.309 1066.24 484.943
294 0 90.2538 11.379 1027 76.8802 1066.2 482.652
295 0 93.0737 11.8938 1107 76.3541 1066.5 479.807
296 0 96.1066 11.5289 1108 77.0352 1066.77 480.175
297 0 97.1044 11.1426 1082 78.6146 1066.11 478.23
298 0 103.3 11.6264 1201 77.8401 1065.44 475.804
299 0 106.369 11.6293 1237 78.4091 1065.61 474.319
300 0 108.246 12.0743 1307 78.6389 1064.98 471.676
301 0 113.4 11.6049 1316 79.712 1065.44 473.211
302 0 115.188 12.4145 1430 80.7035 1065.45 469.976
303 0 119.206 11.5431 1376 79.4964 1066.41 470.919
304 0 122.186 12.1045 1479 80.3327 1066.55 465.585
305 0 128.196 11.8803 1523 82.7892 1066.36 464.005
306 0 132.337 12.0979 1601 82.6565 1066.53 460.467
307 0 133.249 11.6999 1559 83.4541 1065.52 453.163
308 0 135.277 10.9553 1482 84.4224 1065.26 448.53
309 0 142.15 11.8888 1690 84.3036 1065.08 444.749
310 1 73.2355 9.33973 684 78.6944 1065.68 481.434
311 0 76.1561 10.3866 791 78.4766 1066.29 481.603
312 0 79.1038 11.2763 892 88.5067 1067.25 485.151
313 0 83.1225 12.0064 998 82.3407 1067.24 487.81
314 0 84.1371 12.2419 1030 83.3155 1067.07 487.08
315 0 86.1297 12.8179 1104 83.9067 1067.16 484.697
316 0 89.107 12.4681 1111 84.3393 1065.97 483.46
317 0 92.1172 12.7989 1179 83.1306 1066.8 482.207
318 0 92.1221 12.5269 1154 84.6898 1066.1 481.451
319 0 96.1422 12.908 1241 83.8759 1065.95 480.66
320 0 94.0891 11.3935 1072 89.8302 1065.45 480.673
321 0 98.1162 11.8533 1163 87.6655 1065.98 479.921
322 0 101.046 11.7372 1186 87.5261 1065.49 476.713
323 0 102.116 11.859 1211 87.4533 1066.08 476.013
324 0 108.163 12.3887 1340 84.9881 1065.66 473.768
325 0 110.125 12.5585 1383 85.4714 1065.29 472.215
326 0 113.1 12.6348 1429 84.8412 1064.85 468.376
327 0 117.086 12.367 1448 85.1471 1063.44 466.742
328 0 118.049 11.8764 1402 88.4579 1063.57 463.31
329 0 123.046 12.2799 1511 86.6678 1063.37 462.039
330 0 125.059 12.1703 1522 85.6354 1062.71 459.468
331 0 129.087 12.1158 1564 85.4834 1063.07 455.602
332 0 129.123 11.7717 1520 83.0743 1063.72 451.15
333 0 133.136 11.507 1532 82.6514 1063.12 451.478
334 0 133.137 10.7408 1430 84.3783 1063.13 449.944
335 0 138.124 10.6426 1470 84.1143 1063.49 448.267
336 0 140.165 10.7659 1509 83.3453 1063.61 444.933
337 0 146.32 10.5454 1543 82.6753 1063.48 439.628
338 0 149.156 10.4454 1558 83.4288 1063.75 440.297
339 0 152.194 10.7757 1640 83.8677 1063.5 433.714
340 0 156.217 10.2678 1604 83.967 1063.43 433.679
341 0 163.246 11.1488 1820 82.1374 1062.82 428.8
342 0 171.182 10.889 1864 83.9222 1063.31 426.525
343 0 177.203 10.8689 1926 84.5571 1062.85 424.314
344 0 179.236 11.1473 1998 84.1787 1062.2 418.895
345 0 187.24 11.6481 2181 84.0005 1062.15 416.336
346 0 196.32 11.8327 2323 84.0009 1062.06 416.471
347 0 201.239 11.5982 2334 85.0446 1061.88 411.908
348 0 212.32 12.6931 2695 82.5978 1061.73 411.513
349 0 217.288 12.3891 2692 84.3949 1061.33 404.728
350 0 224.245 12.4908 2801 84.2321 1061.69 402.222
351 0 232.243 13.3826 3108 83.4958 1061.59 396.13
352 0 246.5 16.4868 4064 74.4062 1061.02 399.813
353 0 252.313 15.6274 3943 80.3885 1061.6 391.601
354 0 261.261 15.7429 4113 81.6652 1060.99 385.407
355 0 270.214 15.3767 4155 81.5783 1061.3 381.924
356 0 279.465 15.4151 4308 79.8377 1062.04 379.607
357 0 288.36 15.5049 4471 79.998 1062.76 376.598
358 1 215.21 11.8071 2541 83.255 1062.51 422.813
359 0 221.175 11.4434 2531 84.3777 1063.22 420.087
360 0 230.321 12.869 2964 81.2392 1063.21 413.286
361 0 236.334 12.3596 2921 84.4827 1062.6 403.739
362 0 245.276 11.9824 2939 85.5863 1062.37 401.178
363 0 252.247 11.6869 2948 87.0085 1062.52 397.795
364 0 261.378 11.623 3038 88.8782 1062.74 392.887
365 0 270.604 12.3058 3330 89.2423 1063.27 386.77
366 0 277.732 12.134 3370 91.457 1063.22 386.29
367 0 286.448 12.4072 3554 93.1424 1063.43 378.461
368 0 294.348 12.1489 3576 94.5095 1063.13 375.709
369 0 305.525 13.0922 4000 93.183 1063.52 367.887
370 0 314.449 15.2394 4792 87.9752 1063.49 357.998
371 1 149.385 11.1323 1663 86.4179 1065.04 449.63
372 0 153.313 11.2124 1719 87.0745 1064.62 446.819
373 0 158.251 12.2211 1934 85.5708 1064.35 444.266
374 0 161.29 12.3008 1984 85.0222 1064.3 439.232
375 0 166.258 11.9333 1984 85.7334 1064.56 436.921
376 0 171.283 10.5615 1809 80.482 1064.22 434.434
377 0 185.35 14.8152 2746 68.4162 1064.44 422.686
378 0 193.267 15.3622 2969 67.1704 1064.51 417.32
379 0 195.381 13.7015 2677 71.8808 1064.19 415.378
380 0 205.377 15.1526 3112 69.3666 1064.36 406.777
381 0 207.324 14.7209 3052 71.1773 1063.97 415.197
382 0 215.385 14.5461 3133 70.8031 1062.92 412.968
383 1 57.0843 10.3531 591 72.9188 1063.12 495.978
384 0 59.0552 11.3792 672 71.8244 1063.14 494.387
385 0 57.1241 11.8339 676 73.3136 1063.07 493.194
386 0 62.0954 12.0138 746 71.6515 1063.12 496.236
387 0 62.089 11.3225 703 74.8563 1062.71 496.205
388 0 62.0581 11.5215 715 73.3343 1063.34 495.572
389 0 64.0723 10.9876 704 75.9432 1063.9 493.884
390 0 65.163 11.4482 746 77.0188 1063.84 490.303
391 0 68.0909 11.5581 787 74.0597 1063.5 490.737
392 0 71.202 12.4294 885 72.922 1063.66 486.623
393 0 71.2323 11.5397 822 74.989 1063.78 484.264
394 0 76.1503 12.5279 954 72.5042 1063.79 482.909
395 0 78.2329 13.0891 1024 70.9766 1064.3 481.466
396 0 81.0941 12.6766 1028 72.9533 1064.27 480.83
397 0 85.1497 13.5409 1153 70.0399 1064.42 477.038
398 0 86.1435 12.839 1106 72.4394 1064.08 477.999
399 0 88.1072 12.2237 1077 73.9489 1064.58 477.313
400 0 82.0642 10.6868 877 79.0901 1063.52 479.129
401 1 48.054 10.3633 498 80.3835 1064.2 493.131
402 0 50.045 10.1908 510 84.9314 1063.81 493.314
403 0 50.045 10.2308 512 139.27 1062.83 493.377
404 0 56.0882 10.8757 610 80.8361 1065.55 503.234
405 0 59.1628 11.0711 655 81.3252 1065.05 502.397
406 0 60.2615 10.6038 639 81.5602 1063.95 499.188
407 0 61.2929 10.4906 643 83.3188 1064.99 499.213
408 0 64.3059 10.59 681 79.7166 1064.24 497.624
409 0 66.3254 10.4937 696 79.306 1064.69 495.562
410 0 68.3558 10.972 750 78.6213 1065.25 494.22
411 0 69.3243 10.5158 729 82.1728 1065.09 494.247
412 0 71.3298 10.837 773 81.458 1064.68 493.643
413 0 76.3842 11.9135 910 77.3011 1064.21 491.832
414 0 77.3153 11.0586 855 79.2444 1064.4 492.009
415 0 80.3488 11.6617 937 78.254 1064.24 489.416
416 0 84.3993 11.2679 951 78.8349 1064.81 488.568
417 0 86.3527 11.5573 998 77.9279 1065.1 487.604
418 0 87.3753 11.5822 1012 78.4595 1065.25 486.221
419 0 90.2682 11.6099 1048 77.5592 1065.29 482.881
420 0 93.2817 11.7494 1096 76.3029 1064.66 481.964
421 0 95.2962 11.2491 1072 78.2285 1064.35 478.506
422 0 95.0384 11.0482 1050 77.501 1064.96 477.733
423 1 47.0426 9.5658 450 72.7111 1065.61 495.389
424 0 51.054 9.44099 482 73.9917 1065.52 494.052
425 0 51.0286 10.3863 530 75.8283 1065.57 492.14
426 0 51.0336 9.97383 509 77.6365 1065.54 488.843
427 0 56.0339 10.226 573 76.2565 1065.38 489.745
428 0 56.0235 11.1025 622 74.2492 1064.22 490.932
429 0 58.0427 11.1642 648 73.0216 1064.42 488.054
430 0 61.0384 10.7801 658 72.3875 1064.07 487.992
431 0 59.0342 11.1291 657 73.3683 1063.59 486.609
432 0 65.0492 10.5459 686 73.3396 1063.76 485.252
433 0 68.0322 12.0678 821 69.402 1063.53 487.866
434 0 70.1357 11.0928 778 71.5836 1064.38 484.571
435 0 72.0782 11.8066 851 70.094 1064.26 485.38
436 0 74.0678 12.1375 899 69.743 1065.22 484.556
437 0 78.0904 11.9221 931 68.9646 1064.77 485.162
438 0 79.0409 11.3992 901 70.8468 1064.28 481.564
439 0 84.0905 11.8801 999 69.3894 1063.81 481.952
440 0 89.0881 12.1341 1081 76.7447 1063.11 486.385
441 0 92.185 12.3881 1142 76.845 1063.34 483.735
442 0 93.1173 12.2856 1144 76.7771 1063.05 484.059
443 0 95.1529 12.317 1172 76.5734 1063.33 481.836
444 0 94.1842 12.5499 1182 78.0685 1063.68 481.311
445 0 97.1052 13.2228 1284 76.757 1063.34 480.44
446 0 100.131 12.7433 1276 78.3911 1063.57 479.799
447 0 100.158 12.3804 1240 79.6548 1063.75 478.789
448 0 101.205 12.0449 1219 81.2953 1063.38 479.171
449 0 105.168 13.1884 1387 77.6748 1063.36 477.213
450 0 105.203 12.243 1288 80.9286 1063.68 477.179
451 0 108.111 12.5982 1362 79.8928 1063.69 474.564
452 0 111.198 12.2574 1363 81.6662 1064.48 474.498
453 0 114.204 11.7859 1346 81.0721 1064.68 472.656
454 0 116.181 11.9296 1386 82.3319 1064.93 471.674
455 0 119.198 11.7787 1404 82.5256 1064.86 470.38
456 0 120.256 11.9827 1441 84.5559 1065.91 466.607
457 0 125.269 12.3015 1541 83.6509 1064.42 467.584
458 0 128.271 12.6685 1625 84.7791 1064.76 465.311
459 0 133.236 12.4141 1654 86.0599 1065.25 463.705
460 0 132.158 12.5532 1659 88.956 1065.37 459.85
461 0 137.283 12.6235 1733 91.7022 1065.38 455.487
462 1 70.2957 10.5696 743 89.9812 1065.59 489.919
463 0 73.1786 11.3421 830 87.806 1065.82 489.569
464 0 73.251 11.1807 819 88.4628 1065.5 489.238
465 0 75.0995 11.8243 888 84.366 1065.4 494.359
466 0 77.0406 11.5523 890 86.0573 1064.33 494.329
467 0 76.0371 10.9552 833 87.7743 1064.47 493.309
468 0 79.1497 11.4214 904 101.802 1065.15 490.702
469 0 82.183 11.7177 963 100.913 1065.02 489.913
470 0 81.153 10.6589 865 106.812 1066.26 489.102
471 0 85.2259 11.2407 958 102.333 1066.44 488.281
472 0 87.1166 11.3296 987 101.605 1066.02 486.203
473 0 89.2533 10.8679 970 102.663 1065.83 486.141
474 0 88.1742 10.5019 926 105.176 1065.59 484.892
475 0 91.068 9.72899 886 97.9853 1064.14 481.677
476 0 92.1488 9.61489 886 96.8657 1064.31 480.46
477 0 91.1549 9.43449 860 135.58 1064.27 479.766
478 0 97.1309 9.8115 953 101.323 1064.89 479.582
479 0 97.1149 9.76163 948 135.376 1064.9 479.9
480 1 56.0474 9.01022 505 95.4436 1064.57 502.55
481 0 57.0309 9.32828 532 96.421 1065.26 501.643
482 0 57.0614 10.0593 574 96.9268 1065.39 501.666
483 0 59.0949 9.4932 561 95.8824 1065.59 499.889
484 0 61.0367 11.0098 672 94.2574 1064.66 500.26
485 0 61.0312 10.6667 651 95.5484 1065.56 499.382
486 0 63.1366 11.4514 723 115.813 1065.45 496.048
487 0 65.1742 11.6764 761 113.168 1064.1 496.162
488 0 68.1472 11.6366 793 112.588 1064.64 495.276
489 0 68.1841 11.3663 775 114.414 1064.69 494.481
490 0 71.1838 11.4211 813 113.303 1064.38 495.576
491 0 72.1468 11.5736 835 109.715 1064.69 494.267
492 0 74.1293 11.8577 879 108.735 1064.78 492.84
493 0 73.1121 11.708 856 112.479 1065.73 492.494
494 0 75.1254 11.2212 843 112.563 1065.89 492.904
495 0 78.0992 11.7671 919 109.301 1065.32 493.071
496 0 79.1253 11.4123 903 112.261 1064.52 490.68
497 0 82.0941 11.9132 978 109.997 1064.06 490.524
498 0 83.0894 11.8306 983 109.948 1064.23 489.02
499 0 85.1069 11.5384 982 108.732 1064.83 489.285
500 0 88.0852 12.1133 1067 106.693 1064.68 487.204
501 0 91.0944 11.8888 1083 106.62 1064.65 485.765
502 0 93.0982 12.0625 1123 106.258 1064.62 485.179
503 0 95.0636 11.6764 1110 108.612 1064.19 481.696
504 0 97.0646 11.9405 1159 106.997 1063.92 481.821
505 0 100.061 12.0526 1206 103.688 1064.12 479.543
506 1 54.0815 9.46719 512 101.48 1064.74 504.129
507 0 58.0468 10.7672 625 98.9424 1064.17 500.397
508 0 59.0591 10.0747 595 101 1064.53 501.015
509 0 62.0688 10.44 648 99.0031 1064.79 500.485
510 0 61.1236 9.52168 582 92.7972 1064.42 501.447
511 0 62.1143 10.3036 640 91.5328 1064.57 500.67
512 0 64.0854 10.3924 666 92.024 1064.84 501.029
513 0 65.1556 10.4673 682 94.1496 1064.78 499.249
514 0 67.1103 9.77495 656 95.3735 1064.02 499.953
515 0 69.1379 10.5297 728 94.9657 1064.42 499.294
516 0 71.0951 10.915 776 94.9188 1063.95 497.563
517 0 74.1555 10.9769 814 92.6548 1063.41 498.537
518 0 75.0963 11.2389 844 92.7654 1064.42 495.947
519 0 77.1239 11.099 856 94.4603 1063.68 495.168
520 0 81.0926 11.8506 961 93.9761 1064.41 495.007
521 0 83.0843 11.8675 986 95.5527 1064.27 492.682
522 0 87.1079 11.7326 1022 94.591 1064.27 492.226
523 0 87.1647 11.507 1003 95.9202 1064.43 490.493
524 0 90.151 11.5251 1039 95.7209 1064.33 489.693
525 0 94.1085 12.0924 1138 93.4271 1063.34 488.36
526 0 94.196 11.423 1076 96.027 1064.14 486.587
527 0 101.293 11.8962 1205 93.805 1063.61 484.298
528 1 52.0583 10.5267 548 90.3412 1063.94 510.83
529 0 54.0297 10.7533 581 89.2289 1064.24 510.344
530 0 53.1669 10.42 554 90.6823 1064 510.744
531 0 56.0963 10.785 605 89.195 1063.89 509.54
532 0 57.1035 10.8925 622 92.3569 1063.39 508.415
533 0 58.0494 11.1112 645 89.3271 1063.42 507.598
534 0 57.1205 10.9068 623 90.3708 1062.72 507.456
535 0 59.0477 11.6347 687 142.253 1062.94 506.956
536 0 63.0455 10.8969 687 102.792 1064.35 505.108
537 0 64.0504 10.6947 685 102.518 1064.08 503.958
538 0 66.055 11.0211 728 100.485 1064.86 503.004
539 0 69.1031 11.765 813 97.4686 1064.52 501.925
540 0 71.1326 12.1182 862 95.8457 1064.48 501.925
541 0 73.0884 11.6024 848 96.704 1064 501.618
542 0 74.1265 11.4939 852 97.2254 1064.48 500.149
543 0 78.2384 11.8995 931 95.0623 1063.76 499.766
544 0 77.1334 11.2792 870 97.6506 1063.42 498.603
545 0 81.1932 11.9345 969 95.5356 1063.65 497.28
546 0 82.1488 11.6739 959 96.3076 1063.9 496.022
547 0 83.1829 11.7813 980 96.252 1063.89 495.024
548 0 87.3405 12.2166 1067 94.567 1063.83 493.231
549 0 87.373 10.9416 956 97.2427 1063.84 491.883
550 0 91.2715 11.2302 1025 96.3024 1063.51 491.634
551 0 93.3614 11.6644 1089 96.5758 1064.1 489.097
552 0 95.3524 11.7774 1123 97.9546 1064.39 487.48
553 0 97.2694 11.0826 1078 99.3506 1063.8 487.259
554 0 100.323 11.7919 1183 98.3736 1063.07 487.159
555 0 102.307 11.4459 1171 100.126 1063.07 486.376
556 0 103.251 11.0991 1146 101.777 1063.12 485.79
557 0 106.307 11.1469 1185 102.824 1063.39 484.857
558 0 110.235 11.784 1299 102.035 1062.82 482.797
559 0 113.35 11.9454 1354 100.355 1062.98 483.151
560 1 56.0633 11.0411 619 90.231 1063.16 510.364
561 0 57.0385 10.3965 593 91.9983 1063.11 510.052
562 0 58.0607 11.1952 650 92.76 1063.45 509.032
563 0 57.0125 10.6117 605 96.6942 1063.62 507.84
564 0 62.0344 11.7999 732 102.561 1063.85 506.932
565 0 63.0357 11.1683 704 103.746 1063.27 507.192
566 0 64.0936 11.5456 740 103.973 1063.11 505.018
567 0 65.1616 10.896 710 106.737 1062.54 503.793
568 0 65.1217 11.0562 720 107.536 1062.76 503.236
569 0 67.121 11.2036 752 107.435 1062.75 503.445
570 0 69.1012 10.9984 760 110.434 1063.17 501.754
571 0 71.1352 10.8245 770 111.669 1062.91 502.825
572 0 71.052 10.5134 747 113.586 1062.92 502.593
573 0 73.1514 10.8679 795 114.829 1062.23 501.482
574 0 75.0937 10.973 824 114.473 1063.32 500.242
575 0 75.1308 10.5815 795 115.38 1062.91 500.56
576 0 78.1493 10.787 843 113.51 1062.39 499.2
577 1 39.1323 8.81625 345 103.357 1062.56 519.745
578 0 40.0914 8.68017 348 106.293 1062.96 518.655
579 0 40.2104 9.79847 394 104.789 1063.66 516.7
580 0 42.1924 8.81674 372 105.683 1062.85 517.823
581 0 44.1225 9.45095 417 104.686 1062.04 517.799
582 0 44.1559 10.0553 444 106.712 1061.56 514.845
583 0 44.1607 9.94097 439 106.954 1062.8 513.993
584 0 47.1607 9.75389 460 107.426 1062.88 512.802
585 0 48.1584 11.0053 530 104.466 1062.85 513.617
586 0 47.0619 10.4756 493 106.576 1063.2 513.477
587 0 50.0768 10.9432 548 103.597 1063.36 513.465
588 0 49.0785 10.799 530 105.525 1062.78 512.351
589 0 50.0945 11.2188 562 102.867 1062.54 512.407
590 0 51.0342 11.4825 586 103.241 1062.69 511.323
591 0 54.0288 11.3458 613 102.816 1062.53 511.147
592 0 56.064 11.362 637 102.495 1061.75 510.058
593 0 57.1486 11.2864 645 102.679 1062.27 509.946
594 0 60.1207 12.3917 745 100.322 1062.68 507.753
595 0 60.1205 12.292 739 130.725 1062.72 507.595
596 0 62.1248 11.5574 718 104.309 1063.05 506.517
597 0 64.0524 12.0682 773 103.699 1063.19 506.066
598 0 62.1266 11.9273 741 105.978 1063.11 505.327
599 0 66.2515 11.9092 789 105.389 1062.7 503.735
600 0 67.111 11.5182 773 106.768 1061.96 503.595
601 0 68.1917 11.9956 818 107.873 1062.92 503.269
602 0 71.1038 11.8137 840 105.255 1062.89 501.91
603 0 71.0599 12.3136 875 105.594 1062.53 500.475
604 0 74.1131 12.3055 912 108.478 1063.09 500.596
605 0 76.1719 11.7497 895 113.794 1063.05 499.835
606 0 78.1369 11.8894 929 121.42 1062.67 498.244
607 1 39.0391 9.91314 387 118.328 1062.07 517.057
608 0 41.1556 10.3267 425 112.527 1062.06 516.666
609 0 43.122 10.2268 441 109.621 1062.13 516.705
610 0 41.1249 10.0912 415 136.631 1062.15 516.092
611 0 45.078 11.0253 497 107.592 1062.65 515.672
612 0 47.0941 11.2328 529 109.308 1062.65 514.032
613 0 48.0419 11.3026 543 106.37 1062.56 514.424
614 0 49.0742 11.5743 568 106 1062.58 512.972
615 0 51.0533 11.6937 597 104.263 1062.43 511.494
616 0 51.0754 11.669 596 103.193 1062.46 511.676
617 0 53.049 11.7062 621 102.335 1062.06 510.047
618 0 54.1006 11.9407 646 101.458 1062 509.478
619 0 55.1022 11.7237 646 102.289 1061.75 508.413
620 0 56.049 11.6684 654 101.899 1061.7 506.833
621 0 58.0566 11.7988 685 99.365 1061.95 505.559
622 0 60.1411 12.1381 730 99.6493 1062.12 504.686
623 0 61.092 11.8182 722 100.007 1062.85 503.488
624 0 61.0998 11.8495 724 95.7376 1062.56 503.298
625 0 63.0771 11.8585 748 95.3997 1063.09 501.666
626 0 64.0855 11.8124 757 97.0462 1062.4 501.538
627 0 67.1316 11.619 780 97.9923 1062.51 500.433
628 0 69.1642 11.4221 790 97.743 1062.12 498.872
629 0 71.0936 11.5341 820 98.4268 1062.64 497.813
630 0 72.0998 11.9557 862 102.262 1062.75 496.781
631 0 75.1947 11.0513 831 109.101 1063.08 494.736
632 0 78.2544 11.3604 889 107.539 1062.97 493.755
633 0 81.1756 11.5182 935 106.673 1063.02 492.228
634 0 84.1908 11.5452 972 106.273 1062.73 491.06
635 0 87.2016 11.4562 999 105.544 1063.17 489.946
636 0 90.2298 12.2465 1105 102.967 1062.64 489.418
637 0 91.225 11.9266 1088 103.95 1062.27 489.165
638 0 94.1508 11.8427 1115 103.325 1062.24 488.139
639 0 96.1663 11.2617 1083 104.145 1061.08 486.383
640 1 53.0351 10.0877 535 99.1495 1061.11 507.376
641 0 55.0233 10.541 580 96.7086 1061.43 505.752
642 0 55.0596 10.752 592 88.0405 1061.8 506.309
643 0 58.0228 10.875 631 85.6339 1063.69 506.079
644 0 56.0233 10.2993 577 87.1837 1063.98 505.442
645 0 56.0224 8.96069 502 89.0737 1064.15 506.386
646 0 60.0211 10.0798 605 83.6149 1064.07 504.408
647 0 60.0487 9.22584 554 85.278 1062.96 503.684
648 0 64.0372 9.49448 608 82.921 1063.49 502.488
649 0 66.0815 9.76068 645 80.5612 1062.68 499.42
650 0 67.0344 9.53242 639 77.6009 1063.01 495.175
651 0 67.1111 9.50662 638 77.2947 1063.66 494.553
652 0 71.0566 9.76686 694 76.33 1063.78 493.961
653 0 75.0668 9.75131 732 76.5273 1063.85 493.679
654 0 77.0467 9.56563 737 76.5807 1063.97 492.616
655 0 81.0949 9.71701 788 76.8883 1063.73 492.992
656 0 85.1043 10.2932 876 75.6564 1063.99 491.603
657 0 88.168 11.0698 976 74.9447 1063.99 489.536
658 0 89.0621 10.4983 935 78.0171 1063.81 487.541
659 0 93.1589 11.6146 1082 76.9954 1063.84 487.496
660 0 95.1378 10.6793 1016 79.0689 1063.66 485.008
661 1 49.0785 11.0232 541 76.6654 1063.6 507.98
662 0 51.097 10.7247 548 77.7318 1063.35 507.814
663 0 53.0824 11.2278 596 77.2584 1063.94 505.478
664 0 53.1708 11.1716 594 80.3838 1064.08 502.842
665 0 55.2066 11.629 642 81.2399 1063.65 503.622
666 0 57.2373 11.4436 655 81.5863 1063.66 502.728
667 0 60.0848 11.5836 696 86.9942 1064.22 503.716
668 0 59.0741 11.6295 687 89.9156 1062.84 501.716
669 0 62.0997 11.7875 732 88.3525 1062.58 499.504
670 0 62.076 11.0832 688 88.9419 1062.86 498.493
671 0 65.1566 11.127 725 87.6703 1062.99 498.821
672 0 65.1514 11.4963 749 85.9947 1063.95 498.211
673 0 67.0755 11.5243 773 84.3648 1063.11 496.336
674 0 70.0637 11.3468 795 84.8402 1063.66 494.074
675 0 72.1069 11.2195 809 84.9048 1063.25 493.391
676 0 75.0812 11.4676 861 84.4901 1062.87 491.307
677 0 76.1275 11.9668 911 82.0757 1062.48 490.204
678 0 77.1166 11.4372 882 83.2494 1062.86 489.681
679 0 80.1478 11.1544 894 83.3579 1062.41 490.941
680 0 85.088 12.4812 1062 79.1657 1061.91 489.267
681 0 87.0405 12.5459 1092 79.2784 1062.69 489.424
682 0 89.0586 12.6097 1123 79.1576 1062.9 489.573
683 0 91.1205 12.2146 1113 79.9712 1062.85 487.84
684 0 92.0769 11.7728 1084 81.7168 1063.98 485.675
685 0 98.0942 12.0904 1186 78.6653 1063.75 484.426
686 0 100.121 12.385 1240 79.929 1064.21 482.338
687 0 102.133 12.4249 1269 78.6556 1063.52 481.721
688 0 105.07 12.211 1283 79.8449 1063.84 479.181
689 0 109.129 12.4531 1359 78.3915 1063.12 475.52
690 1 56.0797 9.0942 510 73.0608 1063.35 503.376
691 0 58.0557 10.5933 615 72.052 1063.77 502.322
692 0 59.0766 10.7149 633 72.6303 1063.86 501.384
693 0 63.0898 11.3489 716 73.8366 1064.11 500.807
694 0 65.0914 11.5069 749 77.3111 1064.57 500.579
695 0 66.1212 12.3863 819 77.9109 1063.69 499.216
696 0 69.1398 12.6121 872 77.2179 1063.72 499.768
697 0 71.0757 11.5792 823 78.0085 1064.14 497.125
698 0 73.1508 12.2077 893 78.037 1063.38 498.054
699 0 76.3365 12.2353 934 78.0632 1063.87 497.852
700 0 79.3821 12.5217 994 77.4608 1063.61 494.765
701 0 80.2312 12.2147 980 78.4204 1063.76 492.013
702 0 84.2497 12.5698 1059 77.7658 1064.03 490.878
703 0 85.21 11.2545 959 81.7018 1063.6 487.307
704 0 89.2939 12.1285 1083 80.2271 1063.79 489.174
705 0 90.2316 11.7697 1062 82.7081 1063.16 485.795
706 0 95.2631 12.1873 1161 81.826 1063.5 484.706
707 0 96.3088 11.5773 1115 84.6242 1062.6 484.565
708 0 99.3152 12.2439 1216 85.7114 1062.28 482.2
709 0 102.276 12.1729 1245 85.8964 1061.98 481.437
710 0 105.185 12.5399 1319 86.1433 1062.56 480.795
711 0 110.187 13.0142 1434 85.3236 1062.49 481.304
712 0 111.142 12.6325 1404 87.2785 1062.45 479.118
713 0 113.268 13.0398 1477 86.6479 1062.76 478.182
714 0 115.212 11.6741 1345 88.9881 1062.51 476.625
715 0 119.24 11.5565 1378 89.1139 1063.25 472.964
716 0 127.19 12.0843 1537 84.2401 1063.63 474.301
717 0 129.167 11.4194 1475 82.0054 1063.49 469.932
718 1 74.1295 10.4007 771 78.1375 1063.59 500.778
719 0 75.093 10.4537 785 79.4038 1063.9 499.033
720 0 78.0668 11.4133 891 78.8092 1063.95 496.456
721 0 82.0524 11.7973 968 79.1002 1063.37 496.656
722 0 84.0429 11.6488 979 85.3892 1064.32 495.704
723 0 88.1361 11.3688 1002 86.7655 1063.78 494.973
724 0 90.056 12.1147 1091 84.8827 1064.39 493.54
725 0 92.121 11.7346 1081 86.5828 1064.35 490.387
726 0 95.1072 11.5449 1098 89.4454 1063.36 490.417
727 0 97.1122 12.0582 1171 90.2374 1062.78 488.801
728 0 101.097 12.2952 1243 89.7586 1063.34 485.925
729 0 103.204 11.7922 1217 91.6417 1062.81 483.25
730 0 107.144 12.1612 1303 89.2533 1062.79 483.779
731 0 109.225 11.5358 1260 92.481 1062.93 481.167
732 0 113.104 11.9713 1354 91.2659 1062.97 480.352
733 0 116.185 11.9378 1387 90.8176 1062.84 477.947
734 0 119.284 11.5691 1380 90.4775 1062.61 476.409
735 0 123.428 11.6668 1440 90.5917 1062.37 473.649
736 0 127.426 11.7402 1496 90.3549 1062.1 471.33
737 1 70.3244 9.42773 663 85.4736 1062.41 498.228
738 0 76.24 10.8998 831 82.2587 1062.61 498.84
739 0 77.2181 10.3473 799 82.5444 1062.33 496.661
740 0 80.3166 11.3053 908 80.3348 1062.51 494.055
741 0 83.1984 10.5291 876 81.3299 1062.78 493.487
742 0 85.1627 10.8381 923 82.675 1062.53 490.72
743 0 89.2702 11.538 1030 80.7107 1062.89 489.571
744 0 90.1216 11.0295 994 82.0533 1061.77 488.108
745 0 93.1862 10.4522 974 81.1324 1062.43 485.02
746 0 97.1123 10.5651 1026 77.0429 1062.15 484.064
747 0 98.1449 10.1483 996 77.0904 1062.22 482.357
748 0 102.129 10.5945 1082 78 1062.61 480.998
749 0 105.137 11.2425 1182 78.2132 1062.02 480.73
750 0 109.096 11.1919 1221 77.8829 1062.72 477.971
751 0 114.117 11.6985 1335 77.9348 1062.52 475.9
752 0 117.315 10.7488 1261 81.0468 1062.51 470.799
753 1 60.163 10.3718 624 72.6474 1062.54 504.995
754 0 61.1233 11.125 680 72.5941 1062.66 503.429
755 0 63.1902 11.0935 701 73.5735 1061.97 501.993
756 0 65.2272 10.747 701 75.2625 1062.94 502.963
757 0 66.2026 11.4044 755 75.408 1062.53 503.283
758 0 68.2478 11.1212 759 76.5731 1062.87 503.436
759 0 71.1685 11.2269 799 75.239 1063.57 499.417
760 0 72.1673 10.9884 793 76.7074 1063.48 498.907
761 0 75.1355 11.1399 837 74.7897 1063.54 498.061
762 0 76.0905 11.8412 901 76.2819 1063.65 497.193
763 0 79.1657 11.9244 944 76.2362 1063.64 496.405
764 0 84.1031 12.0685 1015 74.133 1063.46 493.787
765 0 87.0887 12.2519 1067 74.9007 1062.61 491.801
766 0 87.1 11.3203 986 76.9878 1063.3 491.238
767 0 90.1234 11.3622 1024 76.6885 1062.87 488.691
768 0 93.1524 11.5724 1078 76.8701 1063.19 490.392
769 0 96.1376 11.6396 1119 78.7784 1062.91 488.634
770 0 97.1444 10.9939 1068 82.0056 1063.46 486.727
771 1 49.0559 11.1709 548 78.9635 1063.61 510
772 0 53.0254 11.2776 598 77.5702 1063.33 510.776
773 0 53.0405 11.1047 589 79.4805 1064.15 510.71
774 0 53.0091 12.0545 639 79.2676 1063 510.128
775 0 54.0406 12.0465 651 80.4532 1062.92 506.303
776 0 55.0723 11.9842 660 74.0348 1063.36 506.673
777 0 57.0845 11.1764 638 75.4686 1063.66 505.129
778 0 56.0548 10.7752 604 77.5132 1063.43 506.533
779 0 56.073 10.95 614 77.8599 1062.64 504.669
780 0 61.0205 11.4224 697 83.2052 1063.52 502.307
781 0 64.0822 12.7805 819 83.5348 1063.16 501.487
782 0 66.0663 12.5329 828 86.0362 1062.47 500.382
783 0 69.1199 12.5434 867 85.842 1063.34 499.233
784 0 70.0289 12.7947 896 85.2098 1062.4 498.883
785 0 74.1263 13.3826 992 84.8024 1062.5 496.95
786 0 73.1062 13.2684 970 85.8371 1062.7 495.719
787 0 78.1284 13.8618 1083 84.6445 1062.8 496.111
788 0 80.0829 13.973 1119 85.8114 1063.05 494.523
789 0 82.1597 13.5833 1116 87.4346 1062.89 494.522
790 0 84.083 13.2726 1116 89.4588 1063.55 493.189
791 0 86.0446 13.6092 1171 91.0094 1063.98 493.81
792 0 89.1145 13.3985 1194 92.0151 1063.64 492.237
793 0 91.18 13.8517 1263 92.3222 1063.53 489.354
794 0 93.0352 14.0914 1311 94.0702 1063.2 490.458
795 0 98.2469 13.9953 1375 94.7862 1063.43 487.124
796 0 101.138 14.1292 1429 95.6627 1063.63 487.946
797 0 101.077 14.6027 1476 96.542 1064.44 487.489
798 0 105.058 13.9732 1468 97.6499 1063.7 486.619
799 0 106.092 14.1858 1505 98.2983 1064.1 485.903
800 0 108.065 14.1026 1524 98.7585 1064.27 485.547
801 0 114.126 14.2124 1622 98.1936 1064.64 485.009
802 0 116.069 13.8193 1604 100.689 1064.17 484.212
803 0 121.079 14.2303 1723 101.324 1064.41 483.341
804 0 124.057 14.4611 1794 102.751 1063.87 480.206
805 0 129.086 14.0991 1820 104.316 1063.3 479.695
806 0 133.057 14.4374 1921 104.857 1063.21 477.704
807 0 137.095 14.5374 1993 106.379 1063.83 476.636
808 0 142.141 14.9429 2124 104.787 1063.4 474.403
809 0 144.111 14.2598 2055 108.914 1063.39 471.819
810 0 148.1 14.6387 2168 108.498 1063.18 471.877
811 0 153.111 14.5841 2233 110.198 1063.39 468.631
812 0 159.159 14.9787 2384 110.542 1062.65 466.858
813 0 161.189 14.2813 2302 114.345 1063.4 464.98
814 0 165.124 13.9955 2311 117.576 1063.37 461.976
815 0 172.107 14.9675 2576 114.93 1062.69 460.41
816 0 177.176 14.5223 2573 118.539 1063.17 458.017
817 0 180.167 14.5642 2624 118.777 1062.98 455.833
818 0 186.156 14.8316 2761 118.832 1062.72 454.097
819 0 192.23 14.4046 2769 122.003 1062.71 451.169
820 0 197.153 14.4811 2855 122.519 1062.98 447.656
821 0 203.186 14.9371 3035 121.747 1062.4 445.71
822 0 208.195 14.5825 3036 123.486 1062.44 441.391
823 0 213.241 15.1237 3225 121.274 1062.53 441.538
824 1 106.047 13.164 1396 138.049 1062.72 490.85
825 0 110.134 13.1657 1450 139.712 1062.43 489.912
826 0 114.102 13.2425 1511 141.747 1062.45 489.783
827 0 114.129 12.7225 1452 146.115 1062.86 488.391
828 0 116.057 13.2865 1542 144.425 1062 486.871
829 0 118.135 13.493 1594 144.864 1062.55 487.24
830 0 124.06 12.889 1599 146.111 1062.34 485.206
831 0 127.111 13.1224 1668 148.613 1062.57 482.664
832 0 131.092 12.9757 1701 150.148 1062.4 480.51
833 0 131.068 12.9246 1694 152.443 1062.44 481.707
834 0 133.181 13.4103 1786 151.012 1062.87 481.729
835 0 132.16 12.8405 1697 159.014 1062.9 482.777
836 0 136.089 13.0503 1776 159.959 1061.95 481.281
837 0 140.135 13.7368 1925 159.39 1061.72 477.088
838 0 309.278 15.4327 4773 153.277 1062.27 387.989
839 0 317.402 15.9325 5057 154.165 1061.72 384.376
840 0 324.279 15.9986 5188 156.628 1060.71 382.76
841 0 329.373 15.9181 5243 158.785 1061.14 379.595
842 0 334.421 15.4386 5163 163.546 1060.4 377.236
843 0 341.35 15.7785 5386 164.494 1060.1 371.908
844 0 346.346 15.1582 5250 164.419 1060.68 370.554
845 0 353.336 16.2169 5730 160.087 1060.54 366.413
846 0 357.332 15.8452 5662 165.202 1060.73 364.383
847 0 362.319 15.7623 5711 168.591 1060.19 360.589
848 0 367.475 16.1317 5928 170.118 1060.64 358.782
849 0 371.54 15.7722 5860 176.793 1060.09 355.402
850 0 377.543 16.7796 6335 174.18 1059.82 352.007
851 0 382.644 16.8198 6436 175.266 1060.32 353.153
852 0 385.765 16.7019 6443 179.488 1060.37 347.834
853 0 387.867 16.7635 6502 183.102 1060.53 346.452
854 0 391.78 17.4613 6841 181.644 1060.29 344.45
855 0 394.942 17.8178 7037 184.37 1060.8 341.618
856 0 396.874 17.653 7006 186.433 1060.88 341.576
857 0 400.989 17.9581 7201 188.998 1061.41 341.65
858 0 404.11 18.6459 7535 187.548 1060.56 338.649
859 0 407.178 19.3404 7875 187.458 1061.28 337.747
860 0 410.18 19.8498 8142 186.776 1061.42 336.959
861 0 410.202 21.8185 8950 179.908 1060.91 332.419
862 0 409.474 20.5336 8408 190.777 1061.39 331.178
864 0 209.104 17.4985 3659 218.728 1061.82 433.299
865 0 209.873 17.3724 3646 223.55 1061.73 432.182
866 0 211.815 19.2621 4080 217.347 1061.87 428.235
867 0 214.627 20.7476 4453 210.243 1061.63 427.054
868 0 214.582 22.8212 4897 202.847 1061.77 423.75
869 0 215.793 24.7366 5338 195.102 1061.03 424.28
