time division length width area intensity CMx CMy
0 0 49.0613 12.4742 612 106.637 1371.66 496.776
1 0 49.0825 12.2243 600 104.588 1371.21 496.587
2 0 52.0478 12.9496 674 100.518 1371.17 496.993
3 0 52.0443 12.3164 641 101.574 1371.27 496.137
4 0 53.031 12.9924 689 99.0421 1371.8 495.106
5 0 55.0647 12.3491 680 98.5235 1371.4 494.679
6 0 58.0262 12.7012 737 96.7259 1371.81 494.004
7 0 60.0325 11.8103 709 99.0494 1371.35 493.918
8 0 59.0293 12.5023 738 120.305 1370.39 493.691
9 0 63.0393 12.2939 775 98.7961 1372.13 491.461
10 0 65.0347 12.8393 835 98.721 1371.47 492.072
11 0 69.0358 12.9788 896 97.99 1370.99 486.99
12 0 68.0465 12.6531 861 99.6748 1371.54 488.213
13 0 72.0647 12.9467 933 97.8349 1370.67 487.335
14 0 73.0292 12.6936 927 98.5912 1370.73 486.794
15 0 76.0231 13.0487 992 96.7399 1370.34 484.643
16 0 80.0517 13.3913 1072 93.8806 1370.79 484.09
17 0 81.0817 13.7639 1116 92.8539 1370.42 483.041
18 0 84.0154 12.9143 1085 94.376 1370.42 481.164
19 0 86.0375 13.3198 1146 92.1937 1370.71 481.397
20 0 91.0505 13.7396 1251 90.1135 1371.19 478.171
21 0 93.0607 13.8082 1285 88.8412 1370.88 477.411
22 0 98.0584 13.8489 1358 88.2725 1371 475.076
23 1 51.0324 12.3451 630 87.9413 1369.42 497.14
24 0 55.0285 12.9569 713 87.8822 1369.85 496.899
25 0 54.038 12.3062 665 85.7579 1370.43 498.2
26 0 55.0165 12.2872 676 85.8047 1370.48 499.133
27 0 59.0448 13.1426 776 81.9369 1370.65 496.941
28 0 60.0298 12.9103 775 83.3871 1371.22 496.885
29 0 62.0747 12.5172 777 83.3449 1371.41 496.148
30 0 64.0505 12.4589 798 84.0539 1370.89 495.51
31 0 67.0254 12.0551 808 83.7463 1371.39 492.728
32 0 68.0541 12.5782 856 83.0829 1371.42 493.193
33 0 71.063 12.2286 869 83.0955 1370.62 490.528
34 0 76.1106 13.1388 1000 80.676 1369.6 489.838
35 0 77.0852 12.8689 992 80.8226 1370 487.363
36 0 81.1139 12.6982 1030 80.9573 1370.36 487.347
37 0 82.0785 12.7073 1043 81.187 1370.04 485.161
38 0 88.1124 13.2785 1170 86.0436 1369.82 482.67
39 0 90.1334 12.4926 1126 85.6456 1370.26 482.424
40 1 45.0488 11.432 515 79.7922 1369.65 503.817
41 0 47.1273 12.4344 586 75.6092 1370.04 503.307
42 0 49.0437 12.0097 589 77.3345 1369.2 503.214
43 0 50.0522 12.3471 618 77.076 1369.31 502.369
44 0 48.0264 12.1391 583 78.7118 1369.47 501.899
45 0 50.0485 11.4489 573 81.0873 1368.93 501.728
46 0 53.0343 12.4259 659 76.5721 1369.09 500.942
47 0 55.0278 12.4483 685 77.4744 1368.77 499.27
48 0 56.0303 11.8864 666 79.6892 1368.87 497.964
49 0 58.0515 12.4889 725 77.3641 1369.1 496.589
50 0 61.0326 12.5015 763 76.3421 1370.06 496.553
51 0 64.0454 12.9439 829 74.7298 1369.84 496.088
52 0 65.0469 12.5756 818 76.2017 1370.42 494.924
53 0 69.0529 12.7149 878 76.2323 1370.3 492.764
54 0 71.0798 12.8025 910 76.4176 1370.3 492.313
55 0 74.0475 12.8701 953 75.51 1370.11 491.471
56 0 74.0594 12.3684 916 77.8384 1369.84 489.09
57 0 77.0988 12.5424 967 77.5708 1369.96 487.431
58 0 81.0601 13.3111 1079 75.57 1369.15 487.478
59 0 83.0963 13.0571 1085 76.9659 1370.01 486.405
60 0 84.1139 12.4831 1050 79.0524 1370.15 485.815
61 0 87.0596 12.4283 1082 77.9214 1370.29 484.836
62 1 46.0111 11.2147 516 76.8954 1369.9 505.153
63 0 48.0269 11.1188 534 75.4981 1369.9 504.607
64 0 48.0272 11.9099 572 74.8357 1369.9 503.378
65 0 49.0254 12.2386 600 74.705 1369.41 503.218
66 0 49.0252 11.4227 560 77.3679 1368.97 504.23
67 0 51.0333 12.0706 616 76.3945 1368.46 501.45
68 0 53.0315 11.7289 622 76.1817 1369.04 501.185
69 0 55.0164 12.3963 682 73.6554 1369.09 500.651
70 0 57.0222 11.9953 684 73.7091 1369.71 500.43
71 0 59.0151 12.3867 731 73.4583 1369.57 498.698
72 0 60.0805 11.418 686 75.4752 1370.52 498.808
73 0 61.0283 12.4368 759 74.5231 1369.85 496.651
74 0 64.039 11.8834 761 74.4639 1370.45 495.615
75 0 67.067 12.1222 813 76.3715 1369.55 494.196
76 0 70.0449 12.5491 879 76.3481 1369.51 492.653
77 0 73.051 13.032 952 74.584 1368.59 490.882
78 0 74.0555 12.0585 893 76.5039 1369.73 490.417
79 0 78.075 13.1284 1025 73.1024 1369.73 489.176
80 0 78.0489 12.7612 996 75.0261 1370 489.15
81 0 82.0364 12.7748 1048 74.7471 1370.34 486.916
82 0 84.0913 12.9383 1088 74.1912 1370.69 486.697
83 0 86.1206 12.8309 1105 75.1412 1370.36 483.953
84 0 88.107 13.1885 1162 73.5835 1370.5 483.991
85 0 92.1684 12.8786 1187 74.9292 1370.34 482.612
86 0 94.0791 12.6489 1190 75.6832 1370.85 482.288
87 0 94.0671 12.119 1140 78.3702 1371.28 478.543
88 0 98.1881 12.6288 1240 76.6347 1371.07 478.413
89 0 101.122 12.4701 1261 76.8565 1370.61 474.654
90 1 55.0451 11.0092 606 76.3927 1370.35 497.064
91 0 56.0377 11.4566 642 75.7461 1369.81 496.512
92 0 54.0682 11.2266 607 73.8484 1370.24 493.15
93 0 59.0422 12.381 731 76.5978 1369.3 497.116
94 0 63.0637 12.7014 801 77.0212 1369.51 494.704
95 0 63.0748 12.9529 817 77.7785 1369.48 493.818
96 0 65.056 13.45 875 79.0263 1369.61 491.918
97 0 68.0139 13.5561 922 78.1974 1369.23 492.31
98 0 68.0574 12.6658 862 82.2401 1369.12 491.238
99 0 70.0503 12.3768 867 84.1603 1368.97 489.262
100 0 69.0448 12.615 871 82.2147 1368.56 491.184
101 0 72.0218 12.3713 891 83.8462 1369.11 490.313
102 0 75.0322 12.5813 944 83.4714 1368.54 488.839
103 0 78.0582 12.7213 993 84.1339 1369.27 488.284
104 0 78.0629 12.7589 996 87.0311 1368.73 486.242
105 0 83.0285 13.6339 1132 85.3825 1369.2 485.467
106 0 84.0215 12.9372 1087 87.3431 1369.31 485.848
107 0 87.0936 12.9516 1128 88.1179 1369.57 483.277
108 0 91.1287 13.5084 1231 87.3721 1369.66 481.098
109 0 95.1804 13.196 1256 87.375 1369.67 479.459
110 0 95.1914 13.1209 1249 88.9231 1370.3 477.444
111 0 100.11 13.645 1366 87.836 1369.58 475.876
112 0 101.065 12.863 1300 90.6031 1369.45 474.931
113 0 104.081 13.5952 1415 89.6502 1369.5 473.392
114 0 110.134 13.5744 1495 90.887 1368.9 471.797
115 0 110.131 13.6384 1502 158.838 1367.88 471.814
116 0 117.148 13.6152 1595 89.9686 1369.12 471.682
117 0 120.107 13.6795 1643 89.2076 1370.13 469.957
118 0 126.202 13.5894 1715 88.9213 1369.8 467.976
119 0 129.155 13.3096 1719 90.5963 1369.57 464.873
120 0 134.161 13.7521 1845 87.9978 1369.79 461.971
121 0 138.23 13.8392 1913 89.3659 1369.3 459.17
122 0 141.247 13.5932 1920 90.0474 1369.38 454.394
123 0 147.33 13.928 2052 87.7003 1368.95 450.025
124 0 152.192 14.2123 2163 85.0689 1369.21 446.162
125 0 156.155 13.6083 2125 85.2602 1369.11 440.751
126 0 159.174 13.3816 2130 86.1502 1369.11 438.491
127 0 166.234 14.3954 2393 83.392 1369.19 438.086
128 0 169.257 13.9669 2364 84.7932 1369.27 433.251
129 0 176.206 13.8134 2434 84.129 1370.11 432.525
130 0 181.307 14.2135 2577 83.2456 1369.05 426.359
131 0 187.236 13.2987 2490 83.8671 1368.55 427.14
132 0 194.268 13.7697 2675 82.7877 1368.48 422.626
133 0 199.312 13.8276 2756 83.5025 1368.23 419.012
134 0 207.328 13.674 2835 84.6543 1368.75 414.796
135 0 214.373 13.6724 2931 83.9962 1368.8 411.453
136 0 222.249 14.0878 3131 83.2165 1368.64 407.248
137 0 230.483 14.2917 3294 82.0771 1370.42 405.449
138 0 235.407 14.0735 3313 83.5675 1369.57 400.559
139 0 244.385 13.6465 3335 84.3247 1368.41 395.473
140 1 190.263 12.7192 2420 82.4698 1368.19 422.671
141 0 197.299 13.5226 2668 81.0783 1368.26 418.461
142 0 203.368 13.183 2681 82.1171 1368.12 418.538
143 0 209.341 13.3658 2798 82.1855 1368.75 416.818
144 0 214.228 12.9955 2784 81.9666 1368.8 412.755
145 0 221.314 12.9815 2873 81.4897 1368.97 412.183
146 0 228.276 12.8529 2934 82.8112 1368.9 409.709
147 0 239.285 13.3439 3193 82.6085 1369.11 405.992
148 0 247.321 14.3093 3539 83.9472 1368.56 402.132
149 0 253.255 13.9267 3527 87.9113 1368.43 400.088
150 0 263.413 13.9211 3667 88.6283 1368.02 396.179
151 0 271.404 14.2739 3874 87.5648 1368.58 387.418
152 0 278.363 14.1865 3949 89.7845 1367.71 381.899
153 0 286.262 13.8894 3976 91.4826 1367.97 377.737
154 0 296.406 14.3249 4246 91.4048 1367.98 377.487
155 0 305.51 14.0912 4305 91.0699 1367.99 374.048
156 0 314.576 13.8822 4367 91.0985 1368.05 368.927
157 0 325.365 14.9094 4851 89.6852 1368.42 362.792
158 0 334.497 16.323 5460 85.9692 1368.22 350.602
159 1 87.2148 10.7436 937 78.9093 1368.22 479.491
160 0 91.1426 11.8057 1076 80.7519 1367.63 481.052
161 0 92.2078 12.2875 1133 82.4598 1367.59 478.045
162 0 94.1933 12.6018 1187 79.2982 1368.51 480.111
163 0 95.2336 11.8131 1125 81.6178 1367.89 479.297
164 0 98.1795 11.8966 1168 80.387 1368.05 477.277
165 0 100.204 11.6263 1165 80.7511 1368.29 474.94
166 0 103.219 12.1199 1251 78.6523 1368.63 472.353
167 0 114.197 16.1475 1844 67.3162 1368.27 452.004
168 0 113.158 14.6697 1660 70.212 1368.32 452.925
169 0 111.233 13.6291 1516 74.9499 1368.22 452.798
170 0 114.187 12.3219 1407 77.941 1368.09 452.628
171 0 122.194 14.6325 1788 70.8037 1367.68 445.41
172 0 122.186 12.4646 1523 76.9547 1368.7 447.232
173 1 72.1973 11.0807 800 77.5338 1369.19 484.295
174 0 70.1266 10.7235 752 73.734 1369.05 474.955
175 0 76.0846 9.96259 758 67.4908 1368.75 489.214
176 0 78.0895 10.2831 803 68.6488 1368.33 487.052
177 0 81.118 10.0718 817 68.3709 1368.15 486.58
178 0 85.1961 10.4465 890 67.5022 1368.53 484.566
179 0 87.1188 10.17 886 67.6061 1369 484.439
180 0 89.2123 9.53904 851 68.7274 1368.29 482.13
181 0 92.1394 9.87633 910 67.5055 1368.72 478.988
182 0 92.1342 9.92031 914 113.868 1369.71 478.96
183 0 101.171 10.1116 1023 66.8798 1368.19 475.909
184 0 101.112 9.80096 991 68.555 1367.71 474.088
185 1 56.1263 10.8505 609 62.7832 1367.02 498.369
186 0 57.2062 10.3136 590 63.4814 1367.54 498.014
187 0 58.2487 11.3479 661 62.8003 1367.38 496.363
188 0 61.184 11.7024 716 61.7472 1367.15 495.398
189 0 60.1323 10.8428 652 64.5706 1367.34 495.41
190 0 61.082 11.3127 691 64.165 1368.57 494.575
191 0 63.0424 11.7857 743 63.8587 1367.8 496.571
192 0 64.1149 10.7151 687 66.4527 1368.06 494.371
193 0 69.1048 11.3451 784 65.4694 1367.71 493.209
194 0 70.0941 11.7699 825 65.28 1367.62 492.091
195 0 71.073 11.7766 837 65.7025 1368 490.728
196 0 73.0631 11.7433 858 66.2296 1367.58 490.007
197 0 77.0869 13.0762 1008 65.3621 1367.83 488.469
198 0 77.0778 12.2863 947 68.3094 1367.83 489.184
199 0 80.0818 12.9368 1036 68.5463 1367.92 487.503
200 0 83.1085 13.0312 1083 70.193 1368.01 484.533
201 0 86.1189 13.2259 1139 71.7735 1368.38 483.415
202 0 88.1311 13.1736 1161 94.093 1367.46 483.905
203 0 91.1288 14.0131 1277 92.9013 1367.84 481.366
204 0 94.09 13.6784 1287 93.1189 1368.3 479.124
205 0 95.1131 13.2369 1259 94.7109 1368.09 478.926
206 0 98.1794 13.8929 1364 92.7449 1367.98 476.8
207 0 101.112 13.6483 1380 92.8391 1368.12 475.031
208 0 103.139 13.1279 1354 94.0325 1368.36 471.6
209 0 107.095 13.4554 1441 91.5718 1368.32 470.092
210 0 109.157 13.4944 1473 92.609 1367.96 468.821
211 0 114.131 13.8525 1581 90.0512 1367.63 467.69
212 0 117.129 13.5834 1591 91.335 1367.23 465.38
213 0 119.173 13.4091 1598 91.7534 1367.18 465.065
214 0 123.223 12.9602 1597 92.5654 1367.44 463.177
215 0 126.127 13.8432 1746 91.0281 1367.09 461.855
216 0 131.075 13.786 1807 91.6359 1367.09 457.873
217 0 136.156 14.4687 1970 90.2487 1367.3 457.252
218 0 139.12 14.1964 1975 90.0071 1366.99 454.132
219 0 144.145 13.6044 1961 92.5003 1368.06 451.577
220 0 150.227 14.6911 2207 90.6706 1367.51 451.359
221 0 153.181 14.4796 2218 92.9256 1366.85 447.343
222 0 157.232 13.6995 2154 95.8835 1366.88 444.88
223 0 162.199 14.2294 2308 95.0091 1367.54 443.011
224 0 167.194 14.2469 2382 96.4723 1367.6 441.466
225 0 171.226 13.8764 2376 98.862 1367.85 437.136
226 0 178.195 14.8321 2643 96.7401 1367.69 436.235
227 0 181.154 13.9108 2520 100.182 1367.89 432.157
228 0 189.219 14.2533 2697 99.6181 1367.32 429.887
229 0 193.24 14.7537 2851 99.4893 1367.53 428.963
230 0 199.123 14.5287 2893 101.797 1366.94 424.265
231 0 207.272 14.8501 3078 99.1917 1367.3 421.882
232 0 207.274 14.8547 3079 159.404 1367.3 421.808
233 0 218.262 14.7713 3224 99.1864 1367.26 414.473
234 0 226.303 14.8915 3370 97.8869 1367.22 410.11
235 0 232.317 14.4845 3365 99.5501 1367.26 403.02
236 0 241.331 15.0416 3630 98.5388 1366.82 401.416
237 1 70.1532 11.2041 786 91.201 1367.73 488.313
238 0 72.1595 11.5439 833 90.5258 1367.44 485.873
239 0 72.1283 11.4657 827 90.214 1366.92 482.406
240 0 75.1091 11.4101 857 89.9195 1367.28 481.271
241 0 76.1341 11.5586 880 92.6398 1367.01 481.49
242 0 83.2865 11.0342 919 91.6453 1365.85 483.756
243 0 86.1542 11.8044 1017 90.646 1365.75 481.86
244 0 89.2192 12.0602 1076 91.118 1365.42 480.17
245 0 90.0989 11.4097 1028 93.6576 1365.78 478.212
246 0 94.1283 11.9305 1123 91.7168 1365.59 477.644
247 0 97.2348 11.5494 1123 92.0837 1365.63 477.018
248 0 99.2227 11.1164 1103 91.6355 1365.5 475.95
249 0 101.162 11.3975 1153 92.1882 1365.77 472.236
250 0 105.233 11.8499 1247 88.4699 1366.42 473.107
251 0 108.253 11.2791 1221 89.5479 1366.96 469.918
252 0 109.168 10.7632 1175 89.9736 1366.85 467.763
253 0 115.229 11.0475 1273 87.055 1366.59 465.792
254 0 117.147 11.763 1378 84.106 1366.37 462.857
255 0 120.214 10.7891 1297 84.7756 1366.27 460.554
256 0 126.119 11.0134 1389 82.73 1366.48 459.125
257 0 131.234 10.8508 1424 81.8525 1366.3 458.962
258 0 135.179 11.5698 1564 81.2743 1367.07 455.44
259 1 79.1984 10.7831 854 79 1365.91 485.807
260 0 80.1298 11.0196 883 80.1676 1366.57 483.229
261 0 80.1899 11.0737 888 82.5698 1366.8 480.627
262 0 85.0896 11.7406 999 78.6116 1368.91 480.797
263 0 87.0553 11.4525 997 79.4453 1368.98 478.787
264 0 89.0841 11.955 1065 78.3343 1368.83 478.884
265 0 93.0507 10.9403 1018 81.1444 1369.48 475.87
266 0 95.1506 11.0772 1054 81.0228 1367.76 475.041
267 0 98.1326 10.8629 1066 81.6229 1366.61 473.305
268 0 99.1843 10.909 1082 81.6525 1366.87 471.155
269 0 104.186 10.7404 1119 78.9928 1366.78 469.978
270 0 104.186 10.654 1110 131.865 1366.78 469.897
271 0 110.11 11.325 1247 70.9431 1366.86 470.509
272 1 58.0588 10.4205 605 70.4331 1368.11 496.815
273 0 58.1075 9.79219 569 70.2144 1367.72 496.645
274 0 61.0679 10.169 621 68.9662 1367.73 493.295
275 0 63.0656 10.608 669 70.4305 1367.34 492.327
276 0 66.0939 12.5428 829 66.3269 1367.85 491.28
277 0 64.2937 10.7476 691 69.67 1367.06 493.466
278 0 64.066 10.1614 651 71.1551 1367.63 492.869
279 0 67.1183 10.2953 691 72.0564 1367.27 491.877
280 0 69.0576 10.2958 711 71.8284 1367.23 491.356
281 0 70.1771 10.6445 747 71.3989 1367.68 489.945
282 0 73.1535 10.7035 783 70.9361 1367.29 489.554
283 0 75.1269 10.5555 793 71.1967 1367.68 489.406
284 0 75.1687 10.9753 825 72.0594 1366.99 487.681
285 0 80.1795 11.2996 906 70.8709 1367.79 484.359
286 0 83.1845 11.5887 964 70.3942 1367.42 484.194
287 0 84.2068 11.3649 957 70.7503 1367.12 481.565
288 0 85.068 10.5328 896 72.1284 1367 482.276
289 0 87.1554 9.78711 853 73.3247 1366.54 480.996
290 0 89.1366 11.0953 989 72.4742 1366.85 478.961
291 0 91.1254 10.5898 965 72.6694 1366.94 478.607
292 0 94.1435 10.6327 1001 73.6643 1366.5 475.947
293 0 96.0625 10.7222 1030 73.0019 1366.71 474.287
294 0 99.1978 10.474 1039 73.7575 1366.78 472.448
295 0 103.162 11.0215 1137 72.9076 1366.33 472.318
296 0 106.129 11.8629 1259 73.1462 1366.5 468.238
297 0 111.155 11.9203 1325 72.4498 1366.37 467.995
298 0 112.199 11.0429 1239 74.7232 1365.76 468.783
299 0 114.094 11.6483 1329 74.5598 1365.96 467.418
300 0 119.107 11.5358 1374 75.2758 1365.27 464.097
301 0 124.075 12.299 1526 76.5072 1365.8 462.399
302 0 128.132 12.0189 1540 82.0773 1365.84 458.679
303 0 131.16 11.932 1565 78.4869 1366.36 459.748
304 1 70.1741 10.3314 725 76.5655 1367.04 492.262
305 0 73.2618 11.1518 817 76.6854 1366.67 490.237
306 0 74.1604 11.8662 880 73.5693 1367.03 489.435
307 0 76.079 12.3293 938 78.533 1366.79 488.681
308 0 77.0844 12.3112 949 71.0148 1365.75 488.078
309 0 81.0344 12.686 1028 72.4815 1365.57 486.084
310 0 82.0284 12.8126 1051 73.569 1365.66 485.927
311 0 86.0938 12.7768 1100 75.6309 1366.45 485.149
312 0 86.043 11.5175 991 80.0656 1366.63 485.213
313 0 91.0714 13.1655 1199 77.9466 1366.75 483.737
314 0 92.0648 12.8822 1186 80.0523 1366.85 483.672
315 0 95.1128 12.953 1232 81.6916 1366.84 481.946
316 0 97.1264 12.6433 1228 82.4585 1365.73 480.02
317 0 101.079 12.6238 1276 82.366 1366.53 479.781
318 0 103.107 12.6374 1303 84.7698 1365.88 478.693
319 0 105.13 12.3466 1298 89.7296 1365.9 475.319
320 0 109.055 13.2502 1445 90.755 1365.06 474.181
321 0 113.185 12.3868 1402 93.9322 1365.97 472.395
322 1 54.0202 9.95924 538 86.0167 1365.03 503.61
323 0 55.0234 10.9226 601 86.9418 1365.62 502.215
324 0 59.0385 11.2638 665 87.4617 1365.21 500.734
325 0 58.0579 12.1431 705 81.1745 1365.65 501.118
326 0 60.0586 11.7052 703 82.074 1365.25 500.289
327 0 63.024 11.694 737 82.829 1364.93 500.126
328 0 64.0404 12.0861 774 84.9044 1364.7 498.667
329 0 67.0256 11.9208 799 85.8761 1364.68 498.124
330 0 68.0758 12.442 847 84.8052 1364.07 496.521
331 0 72.0659 12.0306 867 84.6782 1364.27 495.459
332 0 73.0675 12.728 930 80.2925 1364.98 493.501
333 0 75.0442 11.9396 896 81.827 1364.37 491.829
334 0 78.076 12.2061 953 81.5372 1364.41 492.108
335 0 80.0417 13.0557 1045 80.2325 1364.42 489.851
336 0 82.0451 11.8593 973 90.4933 1364.66 487.507
337 0 84.0717 12.2395 1029 87.8124 1364.48 487.304
338 0 87.1068 11.262 981 89.843 1364.67 485.156
339 0 90.0719 11.9016 1072 87.7379 1364.56 485.338
340 0 90.1203 11.6733 1052 89.4829 1364.39 483.836
341 0 94.1204 12.1759 1146 86.952 1363.84 483.839
342 1 53.0255 10.6553 565 83.3628 1363.63 504.189
343 0 52.0672 10.5633 550 86.1527 1363.36 503.927
344 0 56.105 11.1042 623 83.6388 1362.48 503.376
345 0 55.1351 10.9005 601 88.985 1361.82 502.198
346 0 58.0533 11.7995 685 83.7825 1361.98 501.52
347 0 58.033 11.3901 661 75.416 1362.08 503.068
348 0 57.0677 10.619 606 78.1073 1362.45 503.853
349 0 57.064 10.9351 624 78.9263 1361.98 502.912
350 0 58.0283 10.7878 626 79.3003 1362.63 501.668
351 0 59.0457 11.2794 666 79.018 1362.53 501.473
352 0 63.076 11.4307 721 78.3467 1361.98 499.135
353 0 65.023 10.6578 693 80.5455 1362.68 499.035
354 0 67.1015 11.1771 750 80.0693 1362.1 497.276
355 0 68.0828 11.5595 787 80.9924 1362.7 495.714
356 0 71.0795 11.3675 808 82.3082 1362.75 495.464
357 0 72.0709 11.6829 842 82.3028 1363.31 495.469
358 0 75.0434 11.6866 877 83.2839 1362.67 492.815
359 0 76.064 11.1879 851 85.1269 1363.54 492.752
360 0 79.0961 11.0372 873 83.3299 1363.88 491.68
361 0 83.1126 11.3701 945 81.3915 1363.16 489.823
362 0 87.1248 11.3515 989 81.2639 1362.85 486.822
363 0 88.0964 11.1015 978 81.274 1363.12 486.609
364 1 47.0261 9.95191 468 79.5983 1362.64 508.019
365 0 48.0075 10.5192 505 76.4416 1363.26 506.683
366 0 49.0074 11.0392 541 74.6765 1363.23 506.311
367 0 48.0573 9.8008 471 76.2654 1363.84 507.074
368 0 48.0525 10.3637 498 77.3876 1363.69 506.898
369 0 51.0801 10.7283 548 75.1277 1364.01 506.305
370 0 52.0876 10.4631 545 75.9651 1364 503.919
371 0 54.1205 10.5505 571 76.2504 1364.78 502.713
372 0 56.0853 10.8763 610 75.1656 1364.44 503.618
373 0 56.0701 10.7009 600 76.4867 1364.16 502.27
374 0 59.0711 9.80175 579 77.4439 1364.18 501.466
375 0 63.0216 11.2184 707 74.9335 1364.57 499.396
376 0 63.0493 10.9438 690 76.0783 1364.71 498.07
377 0 67.074 11.3606 762 74.7717 1364.85 496.668
378 0 68.0792 10.8697 740 76.3946 1365.11 495.522
379 0 71.0756 11.9732 851 74.2315 1364.9 494.206
380 0 73.0241 11.4757 838 76.7816 1365.42 493.172
381 0 77.0993 11.7381 905 76.442 1364.99 491.051
382 0 78.0485 11.3904 889 78.0506 1364.07 490.601
383 0 80.0708 10.9653 878 81.008 1364.77 488.203
384 0 84.0397 10.733 902 83.3603 1364.71 486.675
385 1 44.0597 8.9878 396 85.5884 1364.48 505.253
386 0 44.0363 10.287 453 85 1364.63 505.539
387 0 47.0195 10.6552 501 84.4351 1364.3 504.623
388 0 49.0105 11.0793 543 82.8895 1364.68 503.186
389 0 49.0297 10.5446 517 81.7872 1365.72 503.358
390 0 51.0516 11.7528 600 81.2967 1365.51 501.183
391 0 52.0827 11.1169 579 80.6891 1365.11 501.444
392 0 53.0338 11.2193 595 82.9042 1365.11 499.546
393 0 55.0263 11.7762 648 79.8966 1364.95 498.807
394 0 57.1005 11.3484 648 82.3194 1364.75 498.989
395 0 61.0627 13.1013 800 77.615 1365.15 498.701
396 0 61.0584 12.6764 774 80.7933 1365.24 498.554
397 0 62.0853 13.0949 813 80.6581 1365.28 497.17
398 0 65.0861 12.7831 832 81.8053 1365.09 496.982
399 0 68.0904 12.4394 847 90.8524 1365.9 495.95
400 0 70.0851 12.9129 905 89.2298 1365.19 492.596
401 0 70.0851 12.9271 906 161.894 1364.2 492.61
402 0 73.0324 12.0768 882 95.7778 1364.94 490.238
403 0 73.0324 12.0768 882 162.294 1366.94 490.313
404 0 78.0563 12.4525 972 91.0926 1364.95 491.246
405 0 80.0347 12.607 1009 90.9425 1364.58 489.153
406 0 83.0587 12.4851 1037 90.3886 1363.93 487.282
407 0 86.0723 11.5368 993 92.6385 1364.71 486.722
408 1 46.0189 10.6261 489 84.3824 1364.36 507.174
409 0 46.0417 10.7511 495 83.9172 1364.84 505.669
410 0 46.0257 11.7326 540 80.3759 1365.49 505.972
411 0 48.0273 10.8688 522 83.8429 1365 503.998
412 0 49.014 11.6293 570 82.2544 1365.14 503.177
413 0 49.0243 11.5249 565 77.5752 1364.34 502.996
414 0 47.0313 10.2698 483 81.528 1365.1 504.582
415 0 49.0533 10.8453 532 80.9098 1364.99 504.414
416 0 49.0391 11.2155 550 81.3164 1365.49 502.482
417 0 52.0139 11.3047 588 80.5799 1365.64 500.726
418 0 53.0644 11.3259 601 80.7354 1365.67 500.757
419 0 56.0501 11.4005 639 80.579 1365.55 499.654
420 0 57.0352 11.2562 642 80.6122 1364.76 499.241
421 0 57.0423 11.5528 659 80.7876 1364.41 498.376
422 0 59.0453 10.5851 625 81.2912 1364.74 498.338
423 0 61.0959 11.7848 720 78.4583 1364.89 497.836
424 0 61.152 11.4142 698 81.1963 1364.54 496.585
425 0 66.0528 11.6876 772 80.7966 1364.66 494.464
426 0 67.0597 12.4516 835 80.8407 1364.99 492.799
427 0 70.1066 13.0088 912 81.3498 1365.12 492.581
428 0 71.0701 12.4947 888 83.8063 1365.27 491.251
429 0 75.084 12.6658 951 82.2671 1365.41 489.386
430 0 79.1293 12.9408 1024 80.4883 1365.06 487.987
431 0 81.0695 12.1377 984 81.8933 1364.96 486.756
432 0 83.0602 12.7979 1063 81.8457 1364.99 485.754
433 0 85.0442 12.2524 1042 76.238 1364.98 486.042
434 0 87.099 11.9864 1044 78.1226 1365.52 483.638
435 0 91.123 11.7424 1070 78.5103 1365.35 482.901
436 1 50.0227 10.7951 540 75.3444 1366.58 503.572
437 0 49.043 10.9292 536 76.125 1365.72 502.903
438 0 49.1736 11.0018 541 74.7911 1365.64 499.477
439 0 54.0824 11.7413 635 73.5937 1365.83 499.017
440 0 51.0428 11.2063 572 73.7815 1365.42 499.61
441 0 55.0247 11.413 628 73.7611 1364.63 500.959
442 0 55.0703 11.676 643 75.3561 1364.25 499.745
443 0 55.0362 10.6839 588 77.4184 1364.43 500.116
444 0 58.0635 10.8674 631 76.9477 1364.94 497.992
445 0 62.0876 11.8059 733 74.1692 1364.62 496.883
446 0 62.0647 11.9553 742 76.2291 1364.76 495.11
447 0 63.0102 12.0457 759 76.6667 1364.98 495.348
448 0 68.0401 12.6102 858 76.4744 1364.6 493.962
449 0 70.0493 12.5626 880 75.7477 1364.64 492.959
450 0 71.0692 12.4949 888 77.2793 1364.69 493.831
451 0 73.0219 12.4072 906 79.7439 1364.7 490.631
452 0 75.0233 12.1296 910 81.7648 1365.54 489.122
453 0 79.0256 13.0844 1034 80.1151 1365.36 488.647
454 0 81.0373 12.1919 988 82.3168 1365.76 487.835
455 0 83.0381 12.4642 1035 82.9604 1365.53 486.197
456 0 85.0558 12.627 1074 83.2318 1366.58 485.695
457 0 88.05 12.5497 1105 82.6362 1365.31 485.076
458 0 90.0367 12.606 1135 83.9463 1365.59 482.391
459 1 50.065 10.3865 520 83.575 1365.77 504.625
460 0 51.0217 10.8581 554 82.9495 1365.79 502.103
461 0 52.0525 11.2002 583 83.6998 1365.92 501.492
462 0 53.0421 11.8774 630 82.5111 1365.89 500.805
463 0 54.0575 12.0612 652 79.2745 1366.47 499.669
464 0 55.02 12.2501 674 79.092 1366.01 499.09
465 0 59.0319 11.7902 696 78.7241 1365.83 498.661
466 0 58.0408 11.9916 696 79.1782 1365.03 497.305
467 0 63.076 12.2392 772 76.3394 1365.14 496.045
468 0 62.0456 12.1685 755 76.049 1364.64 494.632
469 0 67.0629 12.3019 825 75.8267 1364.62 494.63
470 0 68.0509 12.1086 824 78.0121 1365.83 493.413
471 0 69.1109 12.6897 877 77.0946 1366.19 491.368
472 0 72.0954 12.1228 874 77.7082 1365.92 490.803
473 0 72.0385 11.9936 864 79.2639 1365.71 491.249
474 0 75.047 12.7653 958 77.9864 1365.68 489.413
475 0 75.074 12.4677 936 80.188 1365.45 488.033
476 0 79.0456 13.1696 1041 80.414 1364.95 487.525
477 0 79.0456 13.2202 1045 126.672 1363.94 487.501
478 0 84.0504 12.7305 1070 84.6654 1365.55 484.706
479 0 84.0504 12.7305 1070 128.943 1366.56 484.771
480 0 90.1426 12.5801 1134 94.142 1365.63 481.683
481 0 92.0618 12.6437 1164 94.2388 1365.61 478.948
482 0 94.1 11.8066 1111 94.847 1365.51 478.003
483 1 52.0127 11.2088 583 86.3482 1365.93 502.437
484 0 52.0167 11.3041 588 89.0527 1365.93 500.845
485 0 55.0298 11.412 628 88.8678 1366 499.33
486 0 56.0713 11.3962 639 85.989 1365.38 498.052
487 0 57.048 10.7979 616 85.3588 1364.41 499.606
488 0 59.0494 11.0924 655 84.0565 1364.73 499.006
489 0 61.0222 11.6515 711 82.9353 1365.17 498.55
490 0 62.0383 11.7025 726 86.0937 1364.9 496.229
491 0 63.0287 11.5027 725 83.891 1364.99 497.074
492 0 67.0811 11.4935 771 84.249 1365.06 495.69
493 0 70.0369 12.0936 847 83.2444 1366.04 494.386
494 0 71.0388 12.2046 867 83.6274 1366.29 493.761
495 0 73.0334 12.241 894 83.7204 1365.86 490.893
496 0 76.0515 11.7815 896 85.846 1365 489.503
497 0 79.0603 12.9268 1022 84.499 1364.5 489.386
498 0 82.0736 12.6715 1040 85.7385 1364.71 488.262
499 0 84.0407 12.4821 1049 86.2793 1365.35 487.698
500 0 86.037 12.6225 1086 86.5368 1365.09 485.525
501 0 90.0243 12.6855 1142 86.8354 1365.12 484.223
502 1 47.0241 10.6541 501 85.024 1365.13 506.882
503 0 47.0266 10.4834 493 86.0548 1365.18 505.775
504 0 49.0143 11.3232 555 84.5964 1364.9 505.216
505 0 50.0207 11.9151 596 82.1208 1365.42 504.664
506 0 50.0423 11.3504 568 84.5775 1364.44 503.298
507 0 50.013 11.497 575 86.8452 1364.17 501.901
508 0 53.0544 12.4024 658 86.4362 1365.38 500.796
509 0 54.0368 11.7142 633 88.8847 1365.56 499.942
510 0 54.0384 11.6769 631 88.8082 1365.42 500.594
511 0 56.0718 11.735 658 86.5289 1365.41 500.854
512 0 56.1029 11.0155 618 88.911 1365.8 500.359
513 0 59.0171 12.5048 738 84.0678 1365.8 501.03
514 0 60.0398 12.2585 736 85.3709 1365.02 499.591
515 0 61.0314 11.2073 684 88.0366 1365.55 500.89
516 0 65.0306 12.7325 828 85.2633 1365 498.793
517 0 66.0502 12.7782 844 83.8069 1364.65 499.288
518 0 67.0325 12.7252 853 84.6073 1364.91 497.694
519 0 70.0249 12.3385 864 86.0417 1364.2 496.933
520 0 72.1246 12.6032 909 86.176 1364.93 496.678
521 0 74.045 12.7355 943 86.1368 1364.63 494.914
522 0 76.0221 12.6279 960 84.2781 1364.52 494.27
523 0 76.018 12.5365 953 85.0063 1364.55 494.835
524 0 82.0502 13.3699 1097 83.0328 1364.62 491.824
525 0 81.0537 12.5472 1017 85.2724 1363.74 490.558
526 0 86.0754 12.6517 1089 83.4151 1364.52 490.545
527 0 89.0575 12.2281 1089 84.685 1364.09 487.83
528 0 90.0894 13.2313 1192 86.0394 1364.33 485.326
529 0 92.0451 12.4178 1143 87.1662 1364.59 486.627
530 0 97.0463 12.5507 1218 84.3662 1364.51 486.46
531 1 53.0135 11.5442 612 81.5212 1364.86 505.729
532 0 55.0315 11.0664 609 85.4302 1364.1 505.537
533 0 56.0327 11.9751 671 83.1997 1364.25 504.389
534 0 58.0223 12.7365 739 86.3802 1363.54 503.428
535 0 59.022 12.0972 714 115.38 1364.24 502.384
536 0 60.0508 12.5061 751 88.8469 1364.64 502.2
537 0 62.1128 12.3324 766 88.7063 1364.27 501.65
538 0 64.022 12.8237 821 87.6297 1364.91 501.086
539 0 65.0514 12.5286 815 91.2429 1364.96 498.546
540 0 66.0429 12.9764 857 89.3501 1364.65 498.744
541 0 68.0861 12.3373 840 82.9012 1364.14 499.585
542 0 69.0607 11.2799 779 85.9679 1364.62 498.072
543 0 73.0757 11.2486 822 85.8297 1364 499.282
544 0 76.0434 12.3219 937 84.6937 1363.65 495.803
545 0 77.0449 11.8762 915 86.9421 1363.87 495.899
546 0 81.0546 12.0659 978 85.5112 1364.21 493.98
547 0 82.0586 11.5893 951 87.1777 1364.32 491.874
548 0 85.0815 11.2715 959 85.9176 1364.28 490.625
549 0 88.0359 11.5635 1018 83.9853 1364.33 488.881
550 1 49.0208 10.7097 525 81.8876 1364.28 509.638
551 0 50.0262 11.514 576 80.2899 1364.82 507.872
552 0 51.0357 11.3646 580 80.0224 1364.63 507.2
553 0 49.0067 11.4474 561 81.2371 1364.2 506.08
554 0 53.0825 12.0002 637 79.7598 1363.68 506.331
555 0 54.0719 11.7436 635 80.8614 1363.49 505.71
556 0 55.0085 11.6709 642 81.4642 1363.65 504.749
557 0 58.0349 12.5097 726 80.2066 1363.98 503.639
558 0 61.0519 12.4812 762 78.6772 1363.73 501.738
559 0 62.12 11.7514 730 79.0247 1363.58 501.008
560 0 62.074 11.7279 728 80.0357 1363.7 501.19
561 0 66.0577 12.5648 830 77.9 1363.51 499.443
562 0 66.0202 11.9812 791 80.5246 1364.31 498.695
563 0 67.0477 12.0511 808 81.2079 1364.46 498.411
564 0 70.0342 12.4796 874 80.7071 1364.19 498.568
565 0 74.0372 12.9124 956 79.1077 1363.56 497.309
566 0 75.0467 13.0452 979 79.3994 1363.67 495.075
567 0 78.0805 12.9482 1011 79.45 1363.46 494.428
568 0 82.1509 13.5726 1115 78.9507 1363.83 492.406
569 0 83.0684 13.4106 1114 81.9749 1363.97 491.729
570 0 85.1372 13.1082 1116 85.1039 1364.32 490.102
571 0 88.0754 14.0561 1238 84.9588 1364 490.327
572 0 91.0979 13.1836 1201 85.6053 1363.84 487.749
573 0 91.0643 13.1226 1195 87.8954 1362.91 488.067
574 0 96.0675 13.2407 1272 86.4961 1364.1 485.456
575 1 50.0335 11.4523 573 91.8255 1363.89 508.005
576 0 54.0474 12.637 683 87.2753 1363.4 506.559
577 0 55.0902 12.8698 709 85.9845 1363.83 506.182
578 0 57.0321 13.1329 749 81.6515 1363.01 506.559
579 0 57.0232 13.2578 756 79.7209 1363.18 505.75
580 0 58.0313 13.217 767 82.5424 1362.81 504.847
581 0 62.0448 13.6675 848 81.0814 1362.79 505.263
582 0 62.0723 13.3232 827 83.8694 1362.25 503.684
583 0 66.056 14.0184 926 82.379 1362.86 502.302
584 0 68.0574 13.8853 945 83.6561 1363.02 500.731
585 0 68.0396 13.3011 905 87.389 1363.29 499.951
586 0 72.0554 14.3778 1036 84.5598 1363.68 499.214
587 0 72.1024 13.8692 1000 86.963 1363.91 498.686
588 0 75.0801 14.1049 1059 87.3853 1363.27 497.194
589 0 80.077 13.8866 1112 86.5935 1362.85 497.868
590 0 80.0684 14.65 1173 86.9932 1363.05 495.702
591 0 81.0612 14.1868 1150 89.0017 1363.06 493.585
592 0 84.0803 13.7963 1160 91.2129 1363.08 492.571
593 0 88.0622 14.3421 1263 89.1845 1363.58 493.217
594 0 87.1645 13.9965 1220 93.6443 1363.21 491.29
595 0 87.1645 14.0195 1222 154.956 1363.21 491.349
596 0 92.098 13.7571 1267 95.1223 1363.74 489.307
597 0 95.0997 13.7645 1309 95.5424 1363.92 487.358
598 0 99.1344 14.0718 1395 93.205 1363.72 486.492
599 0 102.135 13.8933 1419 93.0374 1363.5 485.518
600 0 105.178 14.0619 1479 91.1981 1362.8 484.436
601 0 105.081 13.3611 1404 94.089 1363.77 482.192
602 0 109.066 13.9457 1521 89.7245 1363.6 479.893
603 0 112.159 12.9815 1456 90.6477 1362.97 477.486
604 0 117.177 13.023 1526 90.7949 1363.8 476.148
605 1 52.0699 11.5806 603 92.7131 1363.85 505.877
606 0 52.0547 11.6992 609 89.6765 1362.95 502.988
607 0 56.0511 12.4529 698 87.9155 1362.61 501.984
608 0 59.0781 12.6274 746 88.3592 1362.9 502.009
609 0 60.0907 12.3314 741 89.9838 1362.68 499.567
610 0 60.0835 12.3828 744 146.272 1361.68 499.503
611 0 66.0498 12.8539 849 87.8528 1363.06 499.306
612 0 67.1078 12.8003 859 88.5879 1362.76 498.974
613 0 70.0974 12.0261 843 90.6904 1362.79 497.038
614 0 71.0739 13.2116 939 89.3227 1363 494.454
615 0 74.0551 12.7068 941 89.6801 1362.76 495.518
616 0 74.0644 12.7592 945 90.6614 1362.89 493.596
617 0 77.1077 13.5136 1042 88.7207 1362.44 493.049
618 0 79.0642 11.965 946 85.9271 1362.26 492.407
619 0 80.0641 12.0778 967 86.7342 1361.98 489.496
620 0 82.0748 12.4764 1024 87.1768 1361.81 487.459
621 0 85.0811 12.4469 1059 87.1671 1362.05 485.699
622 0 87.0851 12.1031 1054 89.4355 1362.23 483.721
623 0 92.0758 12.5114 1152 90.9453 1362.74 482.214
624 0 95.0935 12.7979 1217 86.4889 1362.47 480.549
625 0 97.0688 12.8053 1243 86.9155 1363.12 477.878
626 0 102.064 12.8448 1311 87.5706 1362.37 477.489
627 0 105.094 13.4547 1414 85.8366 1362.58 475.194
628 0 105.127 12.6704 1332 89.1494 1362.17 475.35
629 0 109.15 12.9363 1412 89.1693 1362.65 471.92
630 0 112.107 12.7378 1428 90.8627 1362.95 469.92
631 0 120.139 12.7852 1536 90.1087 1363.69 469.37
632 0 125.109 13.2684 1660 90.0916 1363.54 468.314
633 0 129.104 13.1599 1699 92.0012 1363.51 465.956
634 1 59.1292 10.6377 629 82.5517 1362.76 502.025
635 0 59.0539 11.2778 666 82.5796 1363.31 499.848
636 0 60.0471 12.357 742 79.6092 1363.2 499.779
637 0 63.0073 11.8399 746 76.378 1363.23 500.992
638 0 64.0159 12.0126 769 77.9207 1363.32 499.237
639 0 66.0503 11.8092 780 78.9692 1362.82 498.968
640 0 69.134 12.3818 856 78.0128 1362.93 496.338
641 0 71.0399 11.754 835 79.0551 1363.36 497.137
642 0 74.0238 12.0232 890 79.9135 1363.52 495.11
643 0 76.0556 12.2936 935 78.2856 1364.16 493.909
644 0 77.0525 11.9789 923 80.9372 1364.24 492.39
645 0 82.0372 12.409 1018 80.6572 1364.46 490.974
646 0 85.1089 12.6074 1073 78.7866 1364.45 490.677
647 0 86.0902 11.3369 976 83.2326 1363.39 490.73
648 0 91.1277 12.7184 1159 81.9353 1363.97 487.628
649 0 92.062 12.068 1111 83.297 1363.81 486.819
650 1 38.0381 10.4369 397 82.728 1362.97 512.144
651 0 39.0658 11.6982 457 80.6586 1363.83 511.672
652 0 40.0522 12.1092 485 79.7423 1364.01 511.235
653 0 44.05 11.5778 510 76.1235 1364.24 509.19
654 0 44.069 12.3443 544 75.375 1364.42 508.847
655 0 47.0531 12.0502 567 80.9594 1364.04 509.75
656 0 48.0356 12.4283 597 80.6114 1364.08 509.387
657 0 48.0673 12.8778 619 80.2326 1364.15 508.158
658 0 50.0543 13.0458 653 80.5559 1364.07 507.628
659 0 50.0226 12.4144 621 82.8454 1364.27 507.628
660 0 53.0293 12.7665 677 81.8981 1364.11 506.804
661 0 54.022 12.3838 669 82.8729 1364.2 505.714
662 0 56.0348 12.9384 725 83.6028 1363.88 504.852
663 0 58.0716 12.6912 737 84.3786 1364.79 503.906
664 0 58.0457 12.628 733 87.3724 1364.75 501.611
665 0 59.0418 12.7029 750 89.6413 1364.53 501.179
666 0 59.0293 12.5023 738 92.4919 1364.48 502.08
667 0 63.0257 13.3755 843 89.618 1364.87 500.426
668 0 65.0158 13.2276 860 89.7163 1363.49 500.071
669 0 68.0143 13.159 895 89.9207 1363.2 497.143
670 0 69.0259 12.9951 897 90.155 1363.61 497.094
671 0 72.071 13.4312 968 88.8564 1363.79 496.783
672 0 73.1116 13.8008 1009 87.4172 1364.77 496.809
673 0 74.037 13.1961 977 89.2211 1364.06 493.534
674 0 79.0451 13.2836 1050 87.3638 1364.85 492.4
675 0 79.1428 13.2166 1046 87.131 1364.44 491.437
676 0 83.1074 13.3081 1106 86.2902 1364.14 490.455
677 0 86.0598 12.6889 1092 87.0009 1363.94 488.538
678 0 91.1346 12.882 1174 86.2061 1364.23 488.247
679 0 92.1762 13.3657 1232 89.1006 1363.79 487.732
680 1 46.0412 13.0752 602 90.1944 1363.28 508.784
681 0 48.0372 14.01 673 88.6508 1364.03 508.629
682 0 48.0185 12.4535 598 94.3746 1364.5 508.467
683 0 50.0147 12.7763 639 93.6917 1364.09 507.059
684 0 51.016 13.1527 671 92.1922 1365.25 507.566
685 0 53.0693 13.6802 726 89.3485 1365.13 507.333
686 0 55.0503 13.6239 750 91.7813 1365.46 505.573
687 0 54.0253 14.1415 764 89.5589 1364.73 506.204
688 0 57.035 13.1674 751 91.5033 1365.15 507.061
689 0 57.035 13.1849 752 152.267 1365.14 507.016
690 0 60.0187 13.4458 807 92.4523 1364.81 504.75
691 0 63.0158 14.1234 890 92.0798 1365.19 503.018
692 0 62.0394 13.572 842 94.5558 1364.73 502.949
693 0 66.0535 14.1552 935 92.4642 1364.51 502.14
694 0 67.0164 13.3997 898 95.0401 1364.49 501.39
695 0 68.0897 13.8641 944 93.7436 1364.11 500.365
696 0 71.0488 14.2578 1013 92.3998 1364.4 499.732
697 0 74.0628 13.4616 997 93.997 1364.08 498.249
698 0 77.0188 14.3601 1106 91.1031 1363.32 497.106
699 0 79.0692 14.2407 1126 91.8277 1363.98 496.982
700 0 81.0459 13.733 1113 91.8239 1363.81 494.513
701 0 83.0471 13.9078 1155 91.1152 1363.94 493.325
702 0 83.0481 13.1249 1090 94.1037 1364.5 494.384
703 0 87.0507 12.8776 1121 94.0482 1364.46 492.614
704 0 87.0651 12.5423 1092 95.435 1364.84 493.61
705 0 91.0506 12.2789 1118 94.941 1364.15 492.127
706 0 92.0739 12.5226 1153 95.1422 1364.33 488.202
707 1 48.117 11.2434 541 100.42 1363.87 507.965
708 0 49.0876 11.9175 585 101.597 1363.69 506.123
709 0 52.0237 12.379 644 101.767 1363.28 506.557
710 0 56.0155 13.4427 753 97.1301 1362.86 507.357
711 0 56.0233 14.0299 786 98.3728 1362.88 507.117
712 0 58.042 13.7487 798 98.8684 1362.98 506.006
713 0 59.0567 13.2415 782 101.188 1363.19 506.563
714 0 63.0497 13.7986 870 98.7816 1362.82 505.695
715 0 65.0399 13.5455 881 97.7877 1363.4 505.025
716 0 67.0412 13.4097 899 98.2825 1363.59 504.184
717 0 68.0376 13.6542 929 98.2304 1362.97 502.237
718 0 71.0615 13.7909 980 100.215 1362.86 501.986
719 0 74.0328 13.9803 1035 98.4647 1363.29 502.005
720 0 76.0367 13.8749 1055 99.619 1363.25 498.845
721 0 80.0588 14.0147 1122 96.0071 1363.3 498.937
722 0 80.0997 13.8952 1113 95.1294 1363.41 498.7
723 0 82.0646 13.0507 1071 92.5976 1362.96 498.123
724 0 83.0716 13.0971 1088 92.2711 1363.85 497.472
725 0 86.0678 12.8736 1108 91.157 1363.83 497.556
726 0 88.0517 12.8107 1128 94.1738 1362.92 496.264
727 0 92.0817 13.2057 1216 93.6595 1362.16 493.631
728 0 94.1256 13.397 1261 93.1784 1362.82 492.02
729 0 96.0943 13.1121 1260 95.3254 1362.48 488.708
730 0 100.143 13.3908 1341 94.3371 1362.56 490.336
731 0 103.156 13.2906 1371 96.2436 1362.64 486.951
732 0 106.089 12.4518 1321 98.3217 1363.18 485.772
733 0 110.058 13.0476 1436 96.3287 1362.61 482.377
734 0 114.108 12.0938 1380 92.8732 1362.88 480.419
735 0 118.162 12.4913 1476 94.2696 1363 478.138
736 0 126.115 12.8296 1618 88.3473 1362.61 475.625
737 0 129.153 13.302 1718 88.4901 1362.93 473.016
738 1 68.1182 12.6104 859 92.6182 1363.45 501.355
739 0 68.155 12.7357 868 93.6267 1363.19 500.556
740 0 72.1445 13.071 943 85.8579 1363.11 497.655
741 0 73.1921 13.6354 998 93.1373 1363.58 495.525
742 0 75.2293 13.8377 1041 96.0788 1363.22 493.92
743 0 78.2346 13.9836 1094 96.9177 1363.64 490.938
744 0 81.1964 13.9292 1131 96.9452 1362.67 490.509
745 0 84.3067 13.7949 1163 95.4488 1363.29 489.403
746 0 86.2417 13.5549 1169 96.692 1363.01 488.156
747 0 88.3046 14.2914 1262 95.8582 1363.14 488.453
748 0 90.3324 14.037 1268 97.8281 1363.45 487.894
749 0 94.23 14.9209 1406 96.2368 1362.82 485.541
750 0 95.3193 14.2364 1357 97.2535 1363.46 483.976
751 0 98.2338 13.9769 1373 96.1362 1363.39 483.975
752 0 102.237 14.173 1449 97.6867 1363.36 478.822
753 0 105.208 14.1244 1486 98.282 1363.29 479.722
754 0 108.198 13.6694 1479 98.998 1363.35 476.257
755 0 112.321 13.773 1547 99.574 1362.54 474.989
756 0 115.278 13.784 1589 99.5714 1363.07 473.537
757 0 120.295 14.3231 1723 99.827 1362.79 472.449
758 0 123.232 14.1278 1741 101.751 1363.14 469.864
759 0 127.218 14.4162 1834 103.799 1363.66 466.783
760 1 65.0805 13.4142 873 98.488 1363.11 500.496
761 0 67.029 13.5315 907 97.0397 1363.31 497.1
762 0 69.1255 13.6708 945 99.4254 1363.43 496.089
763 0 72.1988 13.6567 986 99.4067 1363.51 496.266
764 0 75.1156 13.7255 1031 99.1232 1363.55 495.604
765 0 76.0994 13.7977 1050 100.879 1362.73 494.607
766 0 78.12 13.4793 1053 101.516 1363.33 493.057
767 0 80.1653 13.335 1069 101.128 1363.03 492.145
768 0 84.1688 14.067 1184 99.7897 1363.42 491.992
769 0 85.1395 13.7774 1173 101.764 1363.47 490.85
770 0 89.1395 14.2585 1271 103.286 1364.08 489.41
771 0 91.1406 13.7041 1249 106.359 1364.55 489.114
772 0 92.159 13.7371 1266 106.346 1364.32 488.585
773 0 97.1846 14.1483 1375 105.458 1364.91 488.439
774 0 100.321 13.8855 1393 108.071 1364 486.013
775 0 102.234 14.056 1437 108.768 1363.62 483.02
776 0 106.302 14.3176 1522 107.578 1364.1 480.823
777 0 109.211 14.4125 1574 108.987 1364.27 478.288
778 1 51.022 13.602 694 112.158 1363.57 506.7
779 0 54.0282 14.2703 771 110.707 1362.98 505.454
780 0 54.0273 14.9554 808 111.921 1364.27 505.748
781 0 57.0378 14.7621 842 110.058 1364.06 504.829
782 0 56.0454 15.3447 860 113.014 1363.39 503.722
783 0 58.0659 14.983 870 113.414 1364.27 502.625
784 0 60.0306 15.4755 929 110.645 1363.28 502.887
785 0 61.0403 15.2686 932 112.615 1363.44 500.722
786 0 65.0114 15.1512 985 110.326 1363.69 499.288
787 0 66.0315 14.9626 988 112.378 1363.7 498.942
788 0 69.0467 14.8595 1026 112.391 1364 497.639
789 0 73.0363 15.3622 1122 110.21 1364.02 496.344
790 0 73.0281 15.3229 1119 111.867 1364.71 495.115
791 0 75.0299 15.5538 1167 113.025 1365.25 493.811
792 0 79.0599 15.6717 1239 112.162 1365.01 491.812
793 0 81.0147 15.6268 1266 112.61 1364.86 490.291
794 0 83.0522 15.8455 1316 112.236 1364.46 490.175
795 0 85.0487 15.7087 1336 112.528 1364.79 487.475
796 0 87.0495 15.7267 1369 112.393 1364.93 487.367
797 0 90.0487 15.1363 1363 114.046 1365.72 487.283
798 0 92.0521 15.6542 1441 111.41 1364.91 486.405
799 0 96.073 15.9046 1528 109.439 1365.29 485.543
800 0 99.0661 15.9994 1585 109.064 1365.47 484.601
801 0 103.111 16.0313 1653 109.843 1365.77 482.034
802 0 108.094 15.9769 1727 109.926 1365.32 479.592
803 0 113.094 15.9248 1801 110.386 1365.56 478.685
804 1 54.0309 13.5478 732 117.355 1364.77 506.142
805 0 55.0291 13.9926 770 118.687 1364.25 504.155
806 0 59.0353 14.1949 838 117.447 1364.2 502.79
807 0 61.0582 15.0021 916 115.925 1364.76 502.663
808 0 63.0986 14.8498 937 114.98 1364.4 501.482
809 0 64.0626 14.3297 918 118.045 1364.37 500.1
810 0 66.0652 15.0609 995 116.519 1364.03 498.811
811 0 67.0546 14.8238 994 117.813 1364.29 498.368
812 0 70.0469 15.1327 1060 117.229 1363.51 497.829
813 0 71.0498 14.8347 1054 119.949 1364.24 495.227
814 0 73.056 15.4128 1126 119.335 1363.91 494.356
815 0 75.0766 15.2111 1142 119.446 1363.23 495.01
816 0 77.0508 15.5871 1201 120.232 1363.7 491.506
817 0 81.1105 15.0289 1219 120.885 1363.34 492.368
818 0 82.072 15.2671 1253 120.468 1363.17 490.212
819 0 84.0872 15.6029 1312 120.544 1363.09 488.112
820 0 87.0609 15.2996 1332 121.159 1363.42 486.02
821 0 89.1341 15.3813 1371 121.37 1362.88 483.595
822 0 91.0567 16.045 1461 119.616 1363.11 482.364
823 0 94.0792 15.1256 1423 122.805 1363.23 481.236
824 0 98.0565 15.5625 1526 122.393 1363.36 479.13
825 0 101.135 15.2865 1546 123.323 1363.18 478.099
826 0 106.097 15.2597 1619 122.605 1363.25 476.545
827 0 110.165 15.3315 1689 121.244 1363.61 474.364
828 0 113.123 15.5936 1764 119.646 1362.68 471.73
829 0 117.132 15.3331 1796 120.899 1363.18 469.229
830 0 120.198 15.3081 1840 120.139 1362.94 468.803
831 0 125.106 15.5549 1946 119.652 1363.18 465.654
832 0 128.275 15.6538 2008 119.072 1363 463.663
833 0 133.118 15.5802 2074 118.697 1363.02 461.366
834 0 137.164 15.4413 2118 118.593 1363.38 459.583
835 0 143.152 15.955 2284 118.396 1363.46 457.491
836 0 145.181 15.9387 2314 120.266 1362.49 454.955
837 0 149.248 15.5446 2320 121.446 1362.18 451.306
838 0 155.244 15.8782 2465 120.006 1363.11 450.299
839 0 161.288 15.9776 2577 119.603 1362.62 447.81
840 0 163.217 14.8636 2426 124.854 1361.6 444.368
841 0 171.245 15.5392 2661 121.851 1362.04 441.74
842 0 177.257 15.2829 2709 123.56 1361.38 439.468
843 0 182.273 15.9486 2907 122.968 1361.03 435.947
844 0 190.254 15.4372 2937 120.849 1361.59 432.069
845 0 196.323 15.6834 3079 118.92 1361.59 428.741
846 0 203.381 15.3407 3120 121.113 1361.75 422.724
847 0 210.287 15.3314 3224 121.557 1361.3 420.535
848 0 219.23 15.9331 3493 121.266 1361.72 416.319
849 0 227.305 15.653 3558 122.609 1361.2 414.858
850 0 235.342 15.93 3749 121.637 1360.84 412.443
851 0 242.229 15.0601 3648 124.289 1361.22 406.734
852 0 251.265 15.0479 3781 124.739 1361.32 400.471
853 0 260.291 15.644 4072 124.464 1361.52 394.939
854 0 270.28 15.4654 4180 125.304 1361.37 392.102
855 0 278.315 15.0692 4194 126.419 1361.85 387.672
856 0 289.489 15.7899 4571 121.86 1361.68 384.524
857 1 218.228 13.4355 2932 133.927 1362.2 416.86
858 0 226.205 14.142 3199 132.421 1361.36 412.44
859 0 232.204 14.0997 3274 132.665 1362.01 410.428
860 0 239.265 14.2436 3408 132.796 1362.17 405.062
861 0 249.321 14.3149 3569 131.533 1361.71 401.938
862 0 258.367 14.0614 3633 133.301 1362.19 394.947
863 0 265.333 14.3631 3811 134.205 1361.99 391.35
864 0 273.282 13.8392 3782 135.216 1362.05 385.05
865 1 224.201 12.9972 2914 138.934 1362.01 411.722
866 0 231.144 12.953 2994 141.718 1362.01 405.449
867 0 239.23 13.9155 3329 138.422 1361.73 402.378
868 0 246.215 14.1949 3495 137.05 1361.8 394.722
869 0 248.177 14.5824 3619 136.844 1361.02 395.145
870 0 248.317 15.2064 3776 137.8 1361.76 392.114
871 0 250.247 15.8484 3966 137.02 1360.95 392.021
872 0 252.147 16.1929 4083 134.11 1361.27 394.664
873 0 252.247 15.7028 3961 136.798 1361.18 393.567
874 0 253.199 16.0151 4055 134.095 1361.7 394.218
875 0 253.211 15.6865 3972 132.852 1361.69 393.79
876 0 253.219 16.1639 4093 127.734 1361.28 395.475
877 0 249.252 15.2777 3808 119.888 1362.16 394.891
878 1 240.97 17.6205 4246 116.888 1362.32 392.058
879 0 235.281 18.1825 4278 123.768 1362.62 396.161
880 0 232.449 17.8835 4157 132.586 1361.89 393.954
881 0 237.362 15.6049 3704 141.332 1361.77 395.274
882 0 245.28 14.5996 3581 141.073 1361.37 397.144
883 0 249.25 14.2507 3552 139.119 1361.99 396.845
884 0 253.203 14.3758 3640 136.326 1361.62 395.416
885 0 254.214 14.1574 3599 136.033 1361.99 393.34
886 0 257.211 14.6184 3760 132.344 1362.24 393.643
887 0 259.249 14.1679 3673 132.665 1361.56 388.946
888 0 262.204 14.8282 3888 129.262 1362.88 390.806
889 0 265.271 14.8528 3940 128.315 1361.83 390.603
890 0 267.249 15.0347 4018 126.269 1361.29 387.882
891 0 269.282 14.832 3994 126.135 1361.46 386.821
892 0 271.152 14.9732 4060 124.4 1361.8 386.118
893 0 274.18 14.9829 4108 123.783 1361.42 384.195
894 0 277.203 15.0359 4168 120.899 1362.15 383.357
895 0 278.22 14.9271 4153 119.797 1361.71 381.086
896 0 281.266 15.3449 4316 114.089 1361.9 381.319
897 0 282.194 14.9365 4215 114.844 1361.66 379.353
898 0 288.294 15.4565 4456 111.733 1361.71 378.899
899 0 289.224 15.6246 4519 109.978 1362.29 377.094
900 0 292.276 15.5606 4548 110.971 1361.96 376.19
901 0 293.316 15.5157 4551 110.465 1362.52 373.699
902 0 297.409 15.9343 4739 107.828 1362.66 372.671
903 0 300.329 15.846 4759 107.315 1361.9 370.349
904 0 301.21 15.5871 4695 106.923 1361.8 368.357
905 0 303.274 15.7877 4788 105.042 1362.3 365.714
906 0 305.289 16.0307 4894 102.995 1362.11 365.779
907 0 307.378 15.6159 4800 103.679 1363.04 361.408
908 0 308.231 15.3943 4745 103.231 1362.43 362.895
909 0 313.212 17.6334 5523 96.4384 1362.67 358.098
910 0 313.268 15.5522 4872 101.459 1362.26 360.335
911 0 317.252 15.6153 4954 99.069 1362.34 362.079
912 0 322.248 19.2833 6214 89.8231 1362.24 353.183
913 0 323.204 18.3754 5939 91.5407 1363.01 351.117
914 0 325.386 16.5096 5372 95.2524 1362.37 357.477
915 0 334.369 21.2729 7113 82.8096 1362.59 344.08
916 0 335.317 21.1591 7095 82.923 1362.74 338.691
917 0 336.276 19.9628 6713 85.3384 1362.94 346.45
918 0 335.361 18.0731 6061 88.9502 1362.81 345.507
919 0 336.272 18.1847 6115 88.8244 1362.49 344.08
920 0 339.3 17.2532 5854 89.9592 1362.13 349.168
921 0 339.356 17.598 5972 88.7061 1362.2 346.846
922 0 342.334 18.7361 6414 86.1367 1362.1 344.387
923 0 344.26 18.364 6322 86.1925 1362.66 347.262
924 0 346.299 17.9238 6207 87.8229 1361.99 342.701
925 0 348.31 18.0098 6273 87.0701 1361.64 343.87
926 0 351.265 18.57 6523 86.1823 1361.53 340.009
927 0 351.265 18.5045 6500 162.623 1361.53 339.999
928 0 356.266 18.0904 6445 86.7297 1361.4 342.281
929 0 358.425 18.4641 6618 85.9538 1360.48 337.398
930 0 361.332 18.4761 6676 86.3854 1361 338.78
