time division length width area intensity CMx CMy
0 0 49.0243 14.2378 698 131.37 1221.64 501.103
1 0 48.0177 14.2239 683 129.485 1221.21 499.719
2 0 51.0259 14.4436 737 124.151 1221.01 500.277
3 0 52.0587 14.2916 744 121.273 1221.05 499.165
4 0 53.0198 14.2966 758 119.203 1221.53 498.154
5 0 58.0528 14.7108 854 111.562 1221.18 498.461
6 0 58.0138 14.2552 827 113.227 1221.53 496.277
7 0 60.0288 13.86 832 113.099 1221.14 496.779
8 0 62.0566 14.1484 878 111.158 1221.54 494.893
9 0 65.0301 14.2396 926 109.125 1221.64 494.554
10 0 66.0148 14.1786 936 109.204 1221.13 494.971
11 0 70.0216 14.8383 1039 105.732 1220.78 492.1
12 0 72.0202 14.2321 1025 105.84 1221.33 490.721
13 0 74.0568 13.7867 1021 105.555 1220.33 489.619
14 0 76.0843 13.7873 1049 104.668 1220.39 488.459
15 0 81.0887 13.7874 1118 101.993 1220.13 488.123
16 1 41.0737 12.3924 509 99.1257 1220.68 507.446
17 0 42.0165 12.2333 514 100.105 1220.49 505.66
18 0 44.0213 13.0846 576 99.3524 1220.44 505.036
19 0 45.0733 13.112 591 98.67 1220.72 504.486
20 0 45.0259 13.0591 588 92.2364 1221.37 504.43
21 0 47.0442 13.4554 633 89.09 1221.05 504.943
22 0 50.0305 13.032 652 90.523 1221.03 502.678
23 0 51.0216 13.3669 682 89.544 1219.95 502.77
24 0 51.022 12.7592 651 93.1582 1220.44 501.535
25 0 55.0472 13.1342 723 90.6113 1220.74 501.404
26 0 56.0457 12.8467 720 93.075 1220.76 501.14
27 0 58.0469 13.4374 780 92.5256 1220.91 499.128
28 0 61.0578 13.4954 824 93.8556 1221.32 498.414
29 0 63.0325 13.0568 823 94.8129 1221.55 497.256
30 0 65.0327 12.4399 809 97.6638 1220.97 497.145
31 0 68.0338 13.1993 898 95.2584 1221.29 495.314
32 0 71.0308 13.0366 926 95.2462 1221.26 495.042
33 0 73.0343 13.8154 1009 93.4589 1220.23 493.334
34 0 74.0555 12.7337 943 96.9523 1219.27 492.48
35 0 77.0466 12.2653 945 97.1228 1219.61 491.957
36 0 80.0589 13.0029 1041 96.9347 1219.82 491.087
37 1 40.0227 11.7933 472 96.7373 1219.39 509.318
38 0 42.0148 11.615 488 95.6926 1219.13 508.428
39 0 42.0359 13.0365 548 95.7883 1219.43 507.86
40 0 44.0244 12.6294 556 97.1313 1219.01 506.612
41 0 40.0851 12.3238 494 91.7166 1219.72 508.978
42 0 43.0802 11.8384 510 92.3118 1219.22 507.988
43 0 44.0592 12.3016 542 92.5387 1219.26 507.229
44 0 45.0973 11.7967 532 92.6936 1219.3 506.686
45 0 48.0154 11.9961 576 92.1267 1218.73 505.08
46 0 49.0534 12.0481 591 90.3435 1218.95 505.849
47 0 52.0592 12.3513 643 89.8756 1218.68 502.848
48 0 53.0471 12.159 645 90.8605 1218.81 501.634
49 0 54.0948 11.942 646 89.1517 1218.94 502.697
50 0 56.0835 13.0163 730 87.0438 1219.89 500.616
51 0 55.064 12.0405 663 88.7798 1219.74 501.526
52 0 58.0259 11.874 689 88.2569 1220.32 500.427
53 0 62.078 12.5326 778 86.1877 1220.39 498.499
54 0 63.09 12.5535 792 86.6654 1220.32 496.942
55 0 65.1189 12.6231 822 85.983 1220.29 496.124
56 0 68.0622 12.0772 822 87.1594 1220.14 493.502
57 0 72.0689 13.1541 948 83.3914 1220.38 493.006
58 0 74.0652 12.867 953 83.7943 1219.56 492.55
59 0 76.0418 12.3485 939 85.4973 1220.39 490.921
60 0 80.0732 12.6759 1015 84.4069 1220.54 489.566
61 0 82.0866 12.5965 1034 83.9004 1220.46 487.679
62 0 85.0296 12.5368 1066 83.3039 1220.27 486.923
63 0 88.1057 11.9743 1055 84.0682 1220.3 484.678
64 0 91.0588 12.2888 1119 83.8615 1220.09 482.44
65 1 49.0487 11.0502 542 84.9797 1219.39 504.517
66 0 52.0308 11.743 611 83.7283 1218.8 503.408
67 0 53.1398 12.119 644 82.1599 1218.05 502.379
68 0 55.0154 12.5056 688 78.2965 1219.04 501.946
69 0 54.021 11.8843 642 79.972 1219.33 503.106
70 0 56.0277 12.0298 674 79.1009 1219.94 502.917
71 0 58.0221 12.0299 698 79.0989 1219.83 502.537
72 0 60.0388 12.2754 737 79.7422 1220.74 499.699
73 0 63.0344 12.4059 782 79.8427 1220.27 498.809
74 0 65.0294 12.8557 836 79.8098 1220.46 497.589
75 0 66.0318 12.5091 826 83.1271 1219.76 496.212
76 0 69.0262 13.0385 900 83.2622 1219.7 494.681
77 0 71.0922 12.2939 874 84.0389 1218.64 494.354
78 0 74.0695 12.0562 893 83.4524 1219.72 492.16
79 0 76.0647 12.6208 960 79.9083 1219.58 491.606
80 0 80.077 12.6004 1009 79.9604 1219.84 490.231
81 0 82.0456 12.1274 995 80.9457 1219.98 488.565
82 0 85.0789 12.6236 1074 79.1899 1220.39 486.175
83 0 89.0346 12.8602 1145 79.0865 1220.1 484.942
84 0 92.088 12.8464 1183 77.8225 1220.25 483.016
85 1 45.0369 10.4359 470 80.0574 1219.98 506.33
86 0 48.0385 11.4075 548 78.1898 1220.43 505.566
87 0 50.0467 12.1287 607 77.3855 1221.03 504.094
88 0 49.0295 12.2987 603 74.257 1221.03 502.542
89 0 52.0639 12.6959 661 73.0817 1220.55 501.868
90 0 52.0372 12.1259 631 75.9905 1220.69 501.723
91 0 54.0592 12.5418 678 75.3215 1220.08 502.316
92 0 58.0547 12.7638 741 74.4035 1220.37 500.715
93 0 59.0167 12.8269 757 74.1466 1219.87 499.982
94 0 60.0352 13.1922 792 74.9318 1219.87 498.447
95 0 63.0277 13.4227 846 75.0579 1219.89 497.038
96 0 65.0196 12.4578 810 79.3062 1219.91 496.23
97 0 67.0326 13.5457 908 77.9956 1219.68 496.171
98 0 67.0268 13.2335 887 81.5569 1219.32 494.878
99 0 69.0284 13.4727 930 82.4613 1219.43 494.433
100 0 72.0357 12.8964 929 84.8009 1219.26 492.926
101 0 75.0283 13.4349 1008 85.1627 1219.17 490.57
102 0 76.0317 13.2708 1009 86.8176 1218.69 489.441
103 0 78.0876 13.7922 1077 86.6676 1219.1 488.067
104 0 81.0841 14.0595 1140 85.7526 1218.41 487.578
105 0 83.0262 13.5379 1124 86.9146 1219.2 487.25
106 0 83.1185 13.7274 1141 87.3742 1219.85 483.822
107 0 88.0745 14.3855 1267 84.8856 1220.07 482.711
108 0 89.1109 13.5786 1210 87.4182 1219.78 479.715
109 0 91.043 14.3339 1305 86.4874 1219.43 481.32
110 0 96.0553 14.2834 1372 86.0466 1219.65 480.837
111 0 98.0464 14.6461 1436 85.9798 1219.41 476.759
112 0 100.106 13.6855 1370 85.3204 1219.32 472.673
113 0 101.114 13.4699 1362 85.9222 1219.73 470.19
114 0 104.069 13.837 1440 84.6764 1219.03 468.488
115 0 104.069 13.8754 1444 146.043 1219.03 468.508
116 1 61.0271 12.1094 739 86.3572 1219.34 498.714
117 0 59.0713 12.104 715 81.0545 1219.35 498.916
118 0 62.0669 11.6004 720 80.7014 1219.03 498.651
119 0 67.0793 12.8356 861 77.4088 1219.04 496.146
120 0 69.1372 13.1044 906 77.2837 1218.98 495.191
121 0 70.0705 12.4303 871 78.8611 1218.35 494.495
122 0 70.1682 12.0995 849 79.3004 1218.51 494.082
123 0 71.0789 12.0289 855 80.3111 1218.19 492.037
124 0 75.0836 12.9722 974 78.386 1218.79 490.831
125 0 78.1016 12.8807 1006 78.175 1218.54 490.063
126 0 79.0773 12.6079 997 79.9759 1218.63 487.669
127 0 80.0498 12.5547 1005 80.8468 1218.74 489.024
128 0 83.0611 13.1951 1096 79.9626 1218.93 487.005
129 0 86.0764 13.2208 1138 80.4877 1219.81 485.667
130 0 89.0677 12.9003 1149 81.6188 1218.61 484.055
131 0 92.1138 12.4846 1150 83.08 1218.21 480.706
132 0 94.0912 12.4454 1171 83.5841 1218.14 480.685
133 0 98.1635 12.4181 1219 84.7424 1217.96 479.757
134 0 101.092 13.0674 1321 83.4315 1218.59 478.751
135 0 104.033 13.5342 1408 83.7003 1218.59 476.816
136 0 106.052 12.9559 1374 85.5044 1218.48 473.632
137 0 111.038 13.572 1507 83.6868 1220.25 473.922
138 0 112.066 12.9121 1447 87.4133 1219.32 470.842
139 0 115.061 13.2364 1523 93.8529 1218.02 468.53
140 0 121.08 13.4539 1629 91.8981 1218.58 468.003
141 0 124.083 13.6522 1694 91.696 1218.54 465.679
142 0 127.073 13.3545 1697 92.6128 1218.46 465.142
143 0 132.082 13.3932 1769 93.2239 1219.02 460.565
144 0 137.193 13.317 1827 92.1593 1219.16 457.475
145 0 140.13 13.8514 1941 90.2581 1219.16 458.408
146 0 143.249 13.8151 1979 91.4517 1218.92 454.124
147 0 148.173 14.2199 2107 91.2193 1219.11 453.293
148 0 152.109 13.6941 2083 92.746 1218.61 450.15
149 0 156.254 13.7213 2144 92.5005 1218.48 448.157
150 0 162.212 14.1728 2299 93.0065 1217.88 444.05
151 0 165.204 13.4137 2216 95.3281 1218.62 441.454
152 0 170.271 13.9131 2369 94.751 1217.77 437.32
153 1 89.164 12.1237 1081 86.4487 1218.22 481.658
154 0 93.2884 12.1344 1132 87.2412 1218.49 482.166
155 0 93.2005 11.9098 1110 88.9234 1218.51 479.703
156 0 98.1608 12.6731 1244 87.25 1218.52 478.117
157 0 100.242 12.3601 1239 88.4504 1218.78 476.626
158 0 104.197 12.9466 1349 88.3336 1218.45 472.681
159 0 107.202 12.2852 1317 89.0896 1218.05 471.29
160 0 109.081 12.9445 1412 88.245 1217.48 469.294
161 0 115.152 12.8526 1480 88.9642 1217.68 468.067
162 0 119.137 12.8172 1527 89.0635 1218.32 465.523
163 0 121.091 12.2883 1488 90.2621 1217.49 463.63
164 0 125.124 12.8752 1611 89.7685 1217.68 460.768
165 0 128.187 12.8874 1652 88.8826 1218 455.956
166 0 133.127 13.566 1806 91.3666 1218.43 455.228
167 0 138.136 13.1537 1817 89.9637 1218.09 452.961
168 1 55.0407 9.62923 530 88.4887 1218.96 490.462
169 0 61.0407 10.3046 629 85.4801 1219 490.92
170 0 65.0741 11.218 730 76.3178 1218.1 492.986
171 0 67.0913 10.359 695 73.1899 1218.16 492.365
172 0 69.1363 10.8626 751 71.9174 1219.17 492.011
173 0 72.14 10.3271 745 85.8497 1219.08 489.717
174 0 76.133 10.6524 811 83.7756 1218.88 488.662
175 0 78.2495 10.6071 830 83.7518 1218.53 487.883
176 0 79.1959 11.4274 905 83.3282 1218.02 486.516
177 0 82.2342 10.7984 888 84.5912 1217.95 486.514
178 0 82.2657 10.8064 889 85.4781 1218.29 483.295
179 0 83.2132 10.0585 837 86.6726 1218.8 482.753
180 0 88.1086 11.4404 1008 84.7103 1218.11 482.859
181 0 90.0897 10.7781 971 86.0154 1218.73 481.17
182 0 90.0887 10.7783 971 129.59 1218.72 480.956
183 0 94.1019 10.8818 1024 86.4727 1218.81 477.206
184 0 97.0928 10.7938 1048 87.1031 1218 476.45
185 0 100.113 10.6081 1062 87.3719 1218.02 475.605
186 0 104.213 11.2078 1168 85.3801 1218.55 472.721
187 0 107.154 11.0028 1179 85.9949 1218.25 472.281
188 0 112.149 11.0389 1238 85.7827 1218.01 469.195
189 0 116.222 11.7103 1361 84.7458 1218.18 467.952
190 1 62.0356 10.1555 630 72.046 1219.53 497.927
191 0 62.0114 10.5142 652 73.8666 1218.49 495.715
192 0 64.0573 9.89738 634 75.5726 1218.52 494.05
193 0 66.0334 10.9944 726 74.5771 1217.49 494.603
194 0 70.0223 10.9537 767 74.545 1217.27 492.638
195 0 70.0382 11.1082 778 74.5527 1217.78 490.825
196 0 73.0994 10.8756 795 75.0038 1217.48 490.387
197 0 75.1451 11.3913 856 75.0689 1217.51 488.884
198 0 78.0617 11.555 902 75.612 1217.46 489.195
199 0 79.1042 11.0361 873 88.3024 1217.29 486.931
200 0 80.1651 11.0272 884 87.7964 1217.48 486.882
201 0 83.0797 11.3987 947 86.6631 1217.93 484.483
202 0 87.0853 11.7815 1026 109.061 1217.24 483.987
203 0 89.0902 11.4378 1019 99.9598 1217.47 482.649
204 0 92.0652 11.6331 1071 99.4174 1217.64 482.12
205 0 95.1383 11.8354 1126 98.7309 1217.48 480.995
206 0 98.1111 11.8029 1158 105.097 1217.23 479.172
207 0 100.121 10.777 1079 106.272 1217.35 477.502
208 0 104.083 12.1153 1261 101.619 1217.36 476.557
209 1 54.0296 9.90197 535 97.2206 1216.93 501.849
210 0 56.0509 10.3299 579 97.2193 1216.56 499.931
211 0 58.2718 11.2747 657 96.0883 1217.56 499.74
212 0 58.1441 11.4543 666 99.8604 1217.04 499.003
213 0 59.0667 11.5971 685 89.1927 1217.4 499.26
214 0 57.0931 11.1222 635 98.0646 1217.55 499.685
215 0 59.057 10.6507 629 101.494 1217.31 499.014
216 0 60.1619 11.2031 674 99.5519 1217.3 499.82
217 0 63.1147 11.5346 728 99.3201 1217.36 495.994
218 0 63.1495 11.4015 720 97.6069 1217.03 496.561
219 0 68.1458 11.7542 801 94.5843 1218.01 495.469
220 0 69.0506 10.8906 752 89.7168 1217.48 492.815
221 0 70.0298 9.52451 667 91.4753 1216.61 491.927
222 0 72.0771 10.0587 725 91.9448 1216.26 491.672
223 0 76.028 10.9828 835 88.3964 1216.77 490.707
224 0 78.0517 11.1465 870 87.7563 1216.78 488.621
225 0 81.0494 11.4128 925 86.6724 1217.01 488.577
226 0 83.0343 10.9593 910 87.9209 1216.85 486.54
227 0 87.0621 12.0833 1052 85.7633 1217.02 483.308
228 0 89.0696 11.1598 994 88.3441 1216.44 482.651
229 0 92.1176 11.062 1019 88.2767 1216.81 482.451
230 0 93.0391 11.2103 1043 89.7028 1216.53 479.966
231 0 97.0782 11.1148 1079 86.9166 1216.8 480.509
232 0 97.0799 11.0836 1076 132.761 1216.8 480.539
233 0 104.033 12.15 1264 83.3022 1216.98 478.3
234 1 57.046 10.8684 620 82.4177 1216.99 499.832
235 0 56.0649 10.1668 570 83.107 1217.17 500.328
236 0 59.1587 10.9536 648 80.1821 1216.8 500
237 0 62.0657 11.6328 722 80.7853 1217.14 498.663
238 0 64.1527 11.9403 766 81.2572 1216.78 497.907
239 0 65.0431 12.4994 813 83.5018 1217.09 494.788
240 0 66.062 12.125 801 82.8252 1217.2 495.619
241 0 68.0638 13.0613 889 81.0967 1216.76 494.988
242 0 68.0588 12.019 818 85.1577 1216.45 495.577
243 0 71.1006 11.9971 853 88.7315 1216.22 493.368
244 0 74.106 12.1718 902 90.5787 1215.9 493.054
245 0 74.1039 11.7943 874 94.5938 1216.17 492.772
246 0 77.1495 12.4823 963 94.6511 1216.09 491.955
247 0 81.0614 12.5584 1018 95.6405 1216.12 491.275
248 0 81.1362 12.3989 1006 98.3907 1216.16 488.512
249 0 84.0856 12.7013 1068 98.985 1216.44 487.008
250 0 86.0629 12.8278 1104 98.4248 1217.27 486.175
251 0 88.1258 12.4368 1096 100.311 1217.94 484.106
252 0 89.0692 12.058 1074 101.403 1217.89 483.466
253 0 92.102 12.8336 1182 99.5457 1217.43 480.503
254 0 93.0876 12.4399 1158 99.5492 1217.17 477.144
255 0 97.1085 12.5221 1216 97.5016 1217.09 477.053
256 0 99.0894 12.8873 1277 96.1613 1217.11 474.637
257 0 103.088 12.5039 1289 95.9457 1216.85 473.946
258 0 105.137 12.4885 1313 95.2034 1217.48 471.961
259 0 110.026 12.4607 1371 93.8578 1216.64 470.738
260 1 59.0459 10.3479 611 93.6318 1217.36 493.414
261 0 59.0441 9.41669 556 96.1852 1217 492.372
262 0 61.0361 10.9771 670 91.6373 1216.93 491.993
263 0 57.0161 10.348 590 87.7627 1216.76 484.824
264 0 58.0443 10.9571 636 87.1902 1216.5 484.077
265 0 62.1193 11.0594 687 86.492 1217.8 482.953
266 0 63.0169 10.156 640 85.1938 1216.69 481.705
267 0 69.0583 10.9183 754 83.1658 1215.71 480.834
268 0 71.0462 11.387 809 81.7911 1215.97 481.806
269 0 72.0903 11.3053 815 82.9227 1215.94 479.771
270 0 72.0903 11.3191 816 130.294 1215.95 479.696
271 0 76.064 11.5298 877 82.3033 1216.47 477.163
272 0 79.0838 10.9883 869 83.8331 1216.94 474.597
273 0 78.1416 11.4024 891 83.1515 1216.5 472.517
274 0 79.0468 11.664 922 85.1215 1216.68 469.205
275 0 85.0887 11.4704 976 84.4959 1216.11 469.428
276 0 85.101 11.8095 1005 86.1851 1216.71 468.174
277 0 88.0765 11.5695 1019 86.6977 1215.97 466.066
278 0 92.1794 11.7814 1086 85.5718 1216.49 464.388
279 0 96.0686 12.5744 1208 87.4056 1216.11 465.516
280 0 101.062 12.1509 1228 87.9487 1216.19 471.721
281 0 105.076 12.2102 1283 87.3749 1216.82 467.225
282 0 108.086 12.0275 1300 87.6738 1216.71 467.545
283 0 111.153 11.7766 1309 87.4561 1216.99 462.653
284 0 111.124 11.3477 1261 88.1879 1216.2 460.335
285 1 53.0427 8.31406 441 83.4717 1216.93 481.238
286 0 54.0706 9.22868 499 82.2946 1216.35 480.549
287 0 55.1454 9.79229 540 80.3518 1216.37 480.022
288 0 63.0967 11.3318 715 69.6448 1216.63 483.204
289 0 67.0701 10.4368 700 72.0914 1216.27 480.647
290 0 63.0193 10.5999 668 75.3473 1216.64 477.361
291 0 73.0921 10.6851 781 72.3956 1216.3 478.72
292 0 78.1205 11.4311 893 78.8611 1216.08 477.03
293 0 80.0866 10.9631 878 79.5228 1216.26 477.186
294 0 83.0588 11.233 933 79.4802 1216.24 475.629
295 0 84.1553 10.742 904 81.5066 1216.18 474.415
296 0 87.0884 11.54 1005 81.0398 1216.3 473.932
297 0 90.072 11.6462 1049 80.1335 1216.24 471.967
298 0 91.0319 11.4795 1045 81.1502 1215.8 470.966
299 0 98.0343 12.6588 1241 91.3086 1216.02 477.054
300 0 102.055 12.9244 1319 90.2418 1214.69 476.389
301 0 105.106 13.1582 1383 91.2357 1215.52 473.768
302 0 109.064 12.7906 1395 91.9527 1215.28 472.421
303 0 110.133 12.3215 1357 92.9926 1216.64 471.771
304 1 60.0506 10.4745 629 87.2258 1217.01 498.893
305 0 62.053 11.0551 686 87.6326 1216.76 496.554
306 0 65.0427 11.4233 743 81.1575 1215.76 497.082
307 0 66.0714 12.1989 806 78.0409 1215.06 495.473
308 0 68.0529 11.7115 797 79.4366 1214.69 495.55
309 0 69.0777 11.7838 814 81.4423 1214.55 495.188
310 0 71.0789 12.2118 868 81.2903 1214.8 493.472
311 0 73.1305 12.5256 916 82.8548 1215.54 492.516
312 0 76.0768 12.3954 943 84.8887 1215.72 492.381
313 0 78.131 12.4534 973 86.7215 1216 490.67
314 0 80.0416 12.7684 1022 86.7515 1216.14 490.886
315 0 83.074 12.4347 1033 89.9051 1216.14 488.838
316 0 86.1744 12.7068 1095 88.3635 1215.25 489.154
317 0 88.1712 12.3056 1085 89.823 1216.05 487.405
318 0 91.1629 12.5819 1147 89.4237 1215.39 486.394
319 0 93.1555 12.3879 1154 91.0745 1215.36 484.861
320 0 96.1836 12.4761 1200 91.4442 1214.68 482.87
321 0 99.21 12.7709 1267 89.3275 1215.46 481.449
322 0 104.233 12.7023 1324 89.639 1215 479.66
323 0 106.226 12.85 1365 90.1502 1215.77 478.425
324 0 109.275 12.1071 1323 92.3862 1215.28 477.633
325 0 112.184 12.5152 1404 92.1517 1214.89 478.438
326 1 62.174 10.7923 671 94.0596 1214.04 501.872
327 0 63.1543 11.2106 708 96.7062 1213.73 500.811
328 0 64.0768 11.533 739 98.7943 1213.68 500.518
329 0 59.0649 10.243 605 93.6645 1215.23 503.296
330 0 64.1332 10.8524 696 89.9195 1214.64 501.48
331 0 66.1103 10.5732 699 89.4349 1214.95 501.732
332 0 68.1141 11.099 756 85.5675 1215.45 499.724
333 0 69.0614 10.6717 737 86.0746 1214.82 498.657
334 0 71.1656 11.2273 799 85.6383 1215.09 496.576
335 0 75.0739 11.149 837 86.9128 1215.45 494.984
336 0 75.0744 10.5096 789 89.3688 1215.23 493.29
337 0 79.1318 11.424 904 87.0022 1215.05 490.994
338 0 81.0972 11.6034 941 87.5983 1215.28 489.892
339 0 83.1464 11.6782 971 88.0628 1215.12 489.587
340 0 86.0979 11.0107 948 89.1255 1215.13 488.958
341 0 89.0643 11.2166 999 88.7588 1214.38 489.223
342 0 90.0806 10.7015 964 92.6411 1214.78 486.07
343 0 94.092 11.1487 1049 92.4709 1214.55 483.939
344 0 96.0524 10.7962 1037 92.5053 1213.58 484.802
345 0 99.1118 10.7152 1062 91.7138 1213.51 481.823
346 0 103.122 9.61964 992 88.7238 1212.68 479.48
347 1 57.0393 10.3087 588 79.5527 1212.21 503.806
348 0 59.0535 10.228 604 80.4967 1212.37 503.161
349 0 59.0869 10.1376 599 80.9566 1212.27 503.369
350 0 63.0874 11.5396 728 92.8049 1211.53 501.17
351 0 65.0497 11.6834 760 92.4592 1211.42 500.921
352 0 65.0579 11.6973 761 92.5677 1211.08 500.268
353 0 67.1622 12.1497 816 92.1998 1212.12 499.374
354 0 69.1467 11.9312 825 92.943 1211.73 497.408
355 0 72.1317 12.1722 878 91.18 1212.12 497.229
356 0 74.1501 12.65 938 90.5064 1212.37 495.677
357 0 76.1262 12.1903 928 92.5 1213.1 496.006
358 0 76.173 12.3666 942 94.1359 1212.52 493.335
359 0 80.2007 12.2942 986 93.6339 1213.26 493.28
360 0 81.1551 12.4083 1007 92.9504 1213.57 493.006
361 0 83.0818 13.1557 1093 92.9506 1212.94 491.575
362 0 85.1012 12.7613 1086 91.5626 1213.15 491.012
363 0 87.1752 12.8936 1124 92.5374 1212.85 491.774
364 0 87.1748 13.2836 1158 95.0579 1213.02 490.633
365 0 88.0564 12.651 1114 96.0871 1214.29 491.207
366 0 87.1205 12.7754 1113 98.947 1213.99 489.977
367 0 87.0392 12.1554 1058 100.82 1214.57 491.318
368 0 90.0607 12.3361 1111 98.9559 1214.06 489.945
369 0 90.1155 12.3175 1110 96.7676 1214.48 490.689
370 0 91.0661 13.5396 1233 92.6926 1214.11 487.3
371 0 82.0397 9.77576 802 76.0037 1215.9 484.478
372 0 75.1665 6.10645 459 74.3137 1215.58 475.634
373 1 123.266 7.22017 890 93.7169 1214.71 435.672
374 1 110.154 9.3142 1026 84.5478 1214.82 439.818
375 1 84.0588 8.91043 749 95.9119 1214.93 424.302
376 1 62.0451 12.91 801 94.8365 1214.95 420.185
377 0 62.0279 13.2037 819 94.5836 1215.09 418.718
378 0 64.0841 13.8256 886 92.3126 1215.36 418.42
379 0 66.0383 13.8102 912 91.8673 1215.03 417.712
380 0 67.0689 13.9409 935 93.1444 1215.29 416.502
381 0 67.0457 13.3789 897 95.2598 1214.83 416.103
382 0 71.0637 14.7473 1048 92.1594 1213.96 415.091
383 0 71.0861 14.2644 1014 95.2564 1214.71 414.163
384 0 75.049 13.9109 1044 96.6724 1214.65 413.841
385 0 76.1327 13.9362 1061 97.6475 1214.63 411.502
386 0 79.1496 14.062 1113 97.5328 1214.92 412.919
387 0 85.0241 12.6317 1074 99.2235 1214.51 412.921
388 0 84.0854 14.2236 1196 94.5117 1214.91 409.431
389 0 86.1506 14.022 1208 96.9147 1215.38 405.096
390 0 87.0823 14.4461 1258 98.6534 1215.14 409.078
391 0 89.1829 15.0029 1338 95.2332 1214.69 407.819
392 0 94.0759 14.6159 1375 95.8815 1214.7 399.516
393 0 97.0995 14.5315 1411 94.2502 1214.72 398.756
394 0 98.1443 14.2545 1399 95.7512 1214.71 396.984
395 0 104.108 14.6291 1523 92.0985 1215.1 398.077
396 0 104.303 14.1511 1476 94.5616 1215.24 398.567
397 0 109.161 14.6572 1600 92.3656 1215.2 397.034
398 0 112.134 14.4292 1618 92.6551 1214.98 397.065
399 0 117.135 14.24 1668 93.1169 1215.51 397.611
400 1 60.0213 12.8621 772 94.6023 1215.01 424.016
401 0 62.0116 13.3524 828 93.8309 1215.94 424.127
402 0 65.0677 14.0776 916 98.0055 1215.84 420.9
403 0 65.0677 14.1391 920 171.727 1215.85 420.873
404 0 69.0724 14.0143 968 96.7676 1215.92 422.314
405 0 70.0909 14.1959 995 97.8131 1215.29 422.239
406 0 72.0731 14.5963 1052 97.712 1214.81 421.492
407 0 75.0794 14.0251 1053 101.319 1215.28 419.245
408 0 77.1037 13.8515 1068 100.628 1215.03 420.722
409 0 79.1289 14.0277 1110 101.513 1215.37 416.272
410 0 82.1054 14.384 1181 99.4445 1215.99 417.936
411 0 85.0482 14.0744 1197 102.119 1215.33 415.739
412 0 89.1179 14.7109 1311 100.845 1215.07 415.306
413 0 91.0914 14.3043 1303 101.889 1214.95 414.297
414 0 93.1077 13.9945 1303 103.205 1215.22 413.559
415 0 97.0541 13.9098 1350 104.216 1214.97 412.021
416 0 100.045 13.8438 1385 103.913 1215.44 409.442
417 0 104.154 14.1137 1470 102.142 1215.67 409.205
418 0 106.069 14.1323 1499 103.521 1215.75 408.288
419 1 56.0907 12.3372 692 100.402 1216.25 433.575
420 0 57.0773 11.7209 669 99.7638 1215.54 433.196
421 0 59.103 12.5374 741 101.381 1215.15 432.263
422 0 62.0716 13.3556 829 97.4029 1215.47 432.829
423 0 62.0904 13.577 843 94.1886 1215.7 429.333
424 0 67.0607 13.2417 888 96.4088 1215.54 428.778
425 0 67.0992 13.4875 905 96.8983 1215.45 427.329
426 0 69.0491 13.1501 908 98.0815 1215.59 426.952
427 0 72.1086 13.3549 963 97.2627 1215.64 426.885
428 0 75.093 12.398 931 97.1053 1215.19 427.272
429 0 77.1073 12.7225 981 95.2334 1215.26 424.933
430 0 80.0958 13.1842 1056 93.142 1214.95 425.358
431 0 83.1105 12.8504 1068 93.6067 1214.64 423.866
432 0 85.2138 13.3429 1137 92.8584 1214.74 424.785
433 0 88.2555 13.3363 1177 91.3424 1214.32 424.336
434 0 89.1406 13.0019 1159 93.5531 1214.88 422.002
435 0 94.0967 13.3692 1258 90.6025 1214.74 420.143
436 0 95.0742 13.1161 1247 90.745 1215.73 416.839
437 0 99.0598 13.4969 1337 88.4884 1215.2 415.869
438 1 52.0475 10.6441 554 86.5866 1215.54 440.121
439 0 55.0392 10.9195 601 77.6073 1215.22 440.631
440 0 57.0831 11.0716 632 79.2421 1214.89 439.323
441 0 57.0393 10.9223 623 79.8523 1214.2 435.713
442 0 59.0687 11.3258 669 76.858 1214.42 434.83
443 0 60.0091 10.7317 644 77.3556 1214.54 433.537
444 0 63.0361 11.3427 715 76.9818 1214.9 433.52
445 0 65.0494 11.3145 736 76.5082 1214.56 432.629
446 0 66.042 11.5381 762 78.1417 1214.8 430.388
447 0 70.0439 11.2501 788 78.6713 1214.9 428.555
448 0 72.065 11.6561 840 79.6833 1214.45 426.85
449 0 74.0796 11.5416 855 79.2117 1214.29 426.586
450 0 76.0902 11.2235 854 80.6487 1214.43 427.519
451 0 79.045 11.9932 948 81.193 1214.38 425.942
452 0 81.0431 11.1546 904 84.1283 1215.23 424.601
453 0 84.0513 11.5763 973 84.2312 1215.21 422.483
454 0 87.0489 11.5337 1004 84.9293 1215.53 419.1
455 0 91.114 11.524 1050 84.5419 1215.1 420.049
456 0 93.0777 11.3131 1053 86.6391 1216.21 419.098
457 1 45.0771 11.1809 504 81.8591 1215 443.839
458 0 47.0458 11.2231 528 82.3674 1215.23 441.335
459 0 49.0266 11.6059 569 78.4482 1215.6 443.053
460 0 48.0406 11.6568 560 80.9143 1215.7 440.736
461 0 51.0297 11.7187 598 81.8595 1215.82 440.749
462 0 51.023 11.0342 563 84.1545 1215.85 438.709
463 0 54.0738 12.0206 650 81.8277 1215.97 438.731
464 0 56.0283 11.7976 661 81.9546 1215.64 437.846
465 0 56.0393 12.2414 686 82.3207 1215.73 437.773
466 0 58.0389 11.3717 660 83.6697 1215.06 437.664
467 0 59.0239 11.1141 656 83.2073 1215.27 436.439
468 0 62.0282 11.4625 711 80.5978 1215.05 433.691
469 0 64.0698 12.2523 785 79.6293 1214.86 431.86
470 0 65.0501 11.9293 776 81.2655 1216.09 432.107
471 0 67.0768 11.8074 792 80.7348 1216.35 430.357
472 0 72.0629 11.8646 855 79.9485 1215.98 429.109
473 0 73.0561 12.0729 882 81.5181 1215.45 427.204
474 0 73.0291 11.557 844 83.763 1215.2 425.114
475 0 76.0462 12.3741 941 82.6929 1214.81 423.428
476 0 78.0923 12.3444 964 82.8672 1214.41 423.965
477 0 78.0878 12.4219 970 137.308 1213.42 423.896
478 0 86.0414 12.7148 1094 82.9708 1214.89 421.21
479 0 86.0414 12.7032 1093 126.19 1216.88 421.08
480 1 46.044 10.1425 467 90.3619 1215.29 441.128
481 0 50.1206 11.3726 570 87.9351 1215.5 441.149
482 0 48.027 11.0146 529 91.7089 1215.32 439.151
483 0 51.0388 11.5794 591 87.9492 1214.9 438.039
484 0 52.0795 10.6952 557 83.1077 1215.32 437.029
485 0 54.0845 10.4836 567 80.6737 1215.56 436.3
486 0 56.0206 10.9781 615 81.4764 1215.27 436.072
487 0 58.0646 11.3667 660 79.5788 1214.17 436.021
488 0 58.0738 10.5211 611 79.9313 1214.48 433.686
489 0 60.0675 10.9211 656 78.5777 1214.95 435.366
490 0 61.0307 10.4538 638 82.5063 1214.66 433.489
491 0 63.0212 10.2664 647 79.6754 1214.83 432.952
492 0 66.0282 10.9953 726 80.5276 1215.04 432.552
493 0 67.0704 10.7201 719 80.8108 1215.95 431.764
494 0 70.0589 10.7338 752 81.4894 1216.17 432.062
495 0 71.0939 11.2949 803 80.9265 1215.56 430.821
496 0 76.0311 11.3243 861 81.518 1214.8 428.352
497 0 76.0653 11.5822 881 82.6288 1214.54 428.746
498 0 78.0323 11.1108 867 85.4441 1214.75 429.37
499 0 81.1379 11.425 927 85.5599 1215.37 427.603
500 0 84.1087 11.2711 948 84.3966 1215.12 427.877
501 0 88.0646 12.0934 1065 84.0911 1215.21 423.816
502 1 43.0587 10.358 446 88.7646 1215.64 445.767
503 0 47.0745 11.1525 525 87.7143 1214.98 444.914
504 0 48.0303 11.8051 567 86.9277 1214.17 444.554
505 0 48.0414 10.8864 523 87.8241 1214.86 442.117
506 0 50.1087 10.9961 551 87.6642 1213.72 441.176
507 0 51.1149 11.5426 590 86.7153 1213.53 441.034
508 0 51.0505 9.99012 510 79.5059 1214.23 441.224
509 0 51.0303 9.54334 487 81.2957 1214.35 439.008
510 0 53.0265 9.82527 521 82.0806 1214.57 441.566
511 0 58.0707 11.3827 661 78.6142 1214.39 438.873
512 0 59.0327 11.6207 686 78.551 1214.82 439.5
513 0 59.0386 10.5355 622 81.865 1214.86 438.56
514 0 63.0659 11.2422 709 81.2764 1214.17 437.794
515 0 65.0436 10.7313 698 83.4298 1214.7 437.418
516 0 67.0607 11.1093 745 83.651 1214.28 433.835
517 0 70.1141 10.8395 760 80.7197 1213.85 436.908
518 0 72.0439 11.5485 832 80.2031 1214.37 434.982
519 0 72.0601 10.8521 782 82.9872 1213.64 434.064
520 0 76.0819 11.4088 868 83.4355 1214.47 432.037
521 0 77.082 11.5721 892 84.6155 1214.2 430.128
522 0 81.0833 11.149 904 84.3241 1214.27 429.221
523 0 82.0496 11.4931 943 84.403 1214.44 428.566
524 0 86.0743 11.6063 999 84.3894 1214.36 428.415
525 0 88.0461 11.0283 971 85.6684 1213.43 427.841
526 0 90.1087 11.4417 1031 85.097 1213.94 424.909
527 0 94.0786 10.7144 1008 86.8601 1213.32 422.344
528 1 48.0703 10.9007 524 79.605 1214.12 444.225
529 0 50.0364 10.952 548 78.2774 1214.71 444.743
530 0 51.054 11.1255 568 75.1919 1214.08 444.93
531 0 52.072 10.6391 554 74.9332 1213.98 442.946
532 0 53.1072 11.3167 601 76.6905 1213.55 442.529
533 0 55.0462 11.2633 620 76.029 1213.58 443.185
534 0 57.035 11.642 664 77.1446 1212.73 441.247
535 0 61.1305 10.9602 670 126.543 1212.98 441.145
536 0 60.1299 10.8931 655 83.7008 1213.5 438.027
537 0 63.0909 10.8574 685 82.9839 1213.06 436.647
538 0 64.1573 10.973 704 82.1492 1213.92 436.261
539 0 67.0957 10.5223 706 83.5227 1213.59 434.62
540 0 70.1285 10.88 763 82.498 1213.63 433.079
541 0 72.1696 10.5862 764 83.2618 1213.13 432.626
542 0 75.0771 11.1752 839 82.2765 1213.66 429.284
543 0 77.1747 10.69 825 83.7818 1212.92 427.305
544 0 82.1977 10.3288 849 82.9541 1212.59 426.981
545 0 83.1172 10.1062 840 84.5036 1212.85 425.517
546 0 88.1391 10.37 914 83.0427 1213.19 424.583
547 1 47.0628 9.49794 447 74.9441 1213.31 444.812
548 0 49.1082 11.4848 564 77.3599 1212.74 445.472
549 0 50.0969 11.3181 567 76.1393 1213.13 442.921
550 0 51.1216 11.1108 568 76.6039 1212.8 442.871
551 0 53.096 11.4886 610 75.741 1213.38 442.864
552 0 55.131 11.5906 639 75.9249 1213.63 441.451
553 0 57.1062 11.8551 677 75.3988 1213.07 441.564
554 0 59.1405 11.1429 659 76.6434 1212.44 439.936
555 0 58.0893 11.4135 663 77.7617 1212.44 440.036
556 0 61.1697 12.1956 746 75.7158 1212.46 440.283
557 0 64.1097 11.6363 746 77.437 1212.68 439.617
558 0 68.0817 12.9257 880 73.9545 1212.23 436.234
559 0 69.1569 12.4066 858 74.1923 1212.4 437.135
560 0 72.1219 12.4373 897 73.9755 1212.54 435.738
561 0 73.1348 13.1675 963 73.0498 1212.43 435.586
562 0 76.0836 12.46 948 75.4209 1212.82 432.218
563 0 78.1289 12.4282 971 75.2822 1212.96 430.706
564 0 82.2036 13.2111 1086 73.9429 1212.47 430.417
565 0 84.1438 12.5737 1058 84.0312 1212.34 430.93
566 0 89.0959 13.7717 1227 81.2355 1212.39 427.355
567 0 90.1669 12.8761 1161 84.8837 1212.3 424.097
568 0 94.0863 13.3388 1255 83.9865 1212.62 424.424
569 1 50.0867 11.2205 562 82.742 1211.89 446.009
570 0 52.0726 11.6568 607 82.888 1212.63 444.405
571 0 54.0802 11.8528 641 76.571 1214.19 445.53
572 0 55.0837 12.7079 700 77.5243 1214.1 445.884
573 0 55.0708 12.602 694 79.9683 1213.28 445.369
574 0 57.0583 12.7238 726 79.8347 1214.29 445.365
575 0 57.1042 12.0832 690 81.6754 1213.91 445.691
576 0 59.083 11.6277 687 81.7715 1213.4 444.731
577 0 60.1638 12.2333 736 82.163 1213.83 443.454
578 0 63.1048 12.4238 784 82.963 1213.83 442.886
579 0 64.0945 12.3255 790 83.8329 1213.81 441.134
580 0 66.1369 12.3078 814 83.6007 1213.18 441.531
581 0 69.1807 12.6625 876 82.5468 1213.02 439.664
582 0 71.2256 12.6078 898 83.0267 1212.36 438.988
583 0 72.1348 11.9083 859 84.8719 1212.77 437.551
584 0 73.1535 12.8223 938 82.8763 1212.74 435.867
585 0 75.3607 12.3539 931 83.8754 1213.07 433.722
586 0 80.2836 12.7672 1025 81.4761 1213.21 432.862
587 0 83.2314 12.2189 1017 80.7316 1213.58 433.567
588 0 83.2639 11.4215 951 81.9968 1213.08 432.236
589 0 88.4337 12.6083 1115 78.3399 1212.57 431.04
590 1 45.2066 11.1488 504 74.8611 1213.04 449.671
591 0 45.1348 11.1666 504 72.4048 1213.34 450.562
592 0 48.1511 12.2323 589 71.1596 1213.36 448.593
593 0 50.0888 11.8989 596 69.8205 1213.86 447.398
594 0 51.1934 11.4858 588 71.1803 1213.47 446.139
595 0 51.1934 11.5249 590 116.417 1214.52 446.18
596 0 53.0696 11.2494 597 72.1524 1213.98 444.668
597 0 55.1224 11.9915 661 71.1029 1214.01 443.617
598 0 56.1464 11.6837 656 71.8567 1213.85 444.116
599 0 59.1291 12.6334 747 68.4752 1213.66 442.908
600 0 58.117 11.8726 690 71.4696 1212.89 443.903
601 0 60.206 12.2413 737 75.9159 1213.63 443.33
602 0 60.1278 12.0244 723 77.1314 1213.79 444.524
603 0 62.1386 12.0054 746 77.1072 1213.48 449.654
604 0 65.1625 12.676 826 77.7385 1214.21 447.654
605 0 67.1486 12.6734 851 79.7756 1214.08 444.054
606 0 67.1326 11.8124 793 82.9105 1213.45 442.311
607 0 71.0853 12.3654 879 81.9943 1213.09 440.56
608 0 71.137 11.752 836 82.8313 1212.9 439.262
609 0 73.1188 11.9668 875 83.0377 1213.14 437.111
610 0 73.1188 11.9942 877 139.675 1213.13 437.165
611 0 78.079 12.0775 943 83.0085 1213.38 434.584
612 0 83.0672 12.821 1065 80.9408 1213.29 436.575
613 0 86.1709 13.45 1159 79.8067 1213.14 434.319
614 1 45.0612 10.5856 477 82.9937 1214.15 456.239
615 0 47.0657 11.6008 546 80.5623 1213.68 450.826
616 0 48.0262 11.4521 550 79.3582 1213.72 453.307
617 0 49.0951 11.549 567 75.2416 1213.18 454.081
618 0 50.1751 11.4399 574 76.4042 1213 454.199
619 0 52.0999 12.2457 638 74.8464 1212.75 452.585
620 0 54.1303 10.8996 590 77.0305 1212.52 448.31
621 0 54.0907 11.4622 620 76.0903 1212.75 447.2
622 0 58.1669 12.5329 729 74.0837 1212.88 446.036
623 0 59.118 12.7203 752 74.6277 1213.47 444.774
624 0 61.1537 12.8856 788 72.3807 1213.34 445.169
625 0 62.0755 12.7587 792 73.6578 1213.77 444.212
626 0 65.0858 12.4144 808 74.9827 1213.22 443.298
627 0 67.0902 13.2508 889 73.8943 1213.26 442.755
628 0 68.0726 12.7217 866 76.3072 1212.93 441.409
629 0 68.0515 12.7551 868 77.7788 1213.36 441.164
630 0 71.0511 12.8499 913 77.4337 1213.63 439.547
631 0 74.0647 12.5971 933 79.1018 1214.23 437.854
632 0 76.0844 12.3153 937 79.651 1214.08 437.753
633 0 79.083 12.43 983 80.9959 1214.07 433.903
634 0 81.1385 12.6327 1025 82.0946 1213.57 432.075
635 0 83.0408 12.7528 1059 82.2314 1214.28 432.504
636 0 84.0524 12.2662 1031 84.8244 1214 431.598
637 0 89.0823 12.7074 1132 83.1979 1213.64 433.31
638 0 91.0897 12.4822 1137 85.0387 1213.66 432.172
639 1 47.1847 11.2536 531 81.1017 1213.42 456.751
640 0 48.1709 11.5007 554 77.7419 1213.57 456.04
641 0 50.1564 12.5607 630 80.0667 1213.97 455.298
642 0 49.1789 11.997 590 86.8153 1213.94 453.925
643 0 52.1196 12.1451 633 85.0395 1214.65 452.719
644 0 52.1664 12.3451 644 85.9022 1214.73 451.025
645 0 54.1631 12.8131 694 85.134 1214.83 452.107
646 0 54.168 12.5535 680 85.7176 1214.76 451.228
647 0 57.2054 13.1106 750 84.8827 1213.83 449.888
648 0 58.1194 13.1626 765 84.9098 1214.26 448.791
649 0 58.1392 12.8485 747 87.3962 1214.18 448.794
650 0 60.1155 12.7089 764 88.6139 1214.26 445.56
651 0 61.0963 12.6522 773 89.6636 1214.82 443.11
652 0 64.0912 13.0907 839 88.503 1214.98 443.764
653 0 65.1298 12.8052 834 90.6235 1214.94 441.655
654 0 64.112 12.4158 796 93.1319 1215.1 441.51
655 0 68.1974 12.9184 881 91.6527 1214.86 442.809
656 0 71.118 13.119 933 91.2347 1214.9 440.49
657 0 73.0772 13.041 953 91.9591 1214.85 439.333
658 0 74.1042 12.9142 957 94.1055 1214.79 437.882
659 0 76.1455 12.9489 986 93.427 1214.92 437.141
660 0 79.1264 12.9919 1028 93.6333 1214.68 437.594
661 0 76.1285 11.9797 912 87.9167 1214.97 438.147
662 0 80.1011 12.272 983 88.7019 1214.73 436.856
663 0 82.0909 12.3887 1017 89.6706 1215.25 435.479
664 0 84.1849 12.7933 1077 90.1309 1215.38 432.652
665 0 85.171 12.6686 1079 92.2576 1215.07 433.599
666 0 87.1135 12.5468 1093 92.7951 1214.89 433.684
667 0 92.1829 13.1912 1216 91.8964 1215.34 431.998
668 0 93.1322 12.5735 1171 93.7096 1213.92 430.985
669 0 96.1312 13.3568 1284 92.4237 1213.56 430.409
670 0 101.136 13.3385 1349 92.2061 1213.81 427.626
671 0 101.223 13.3962 1356 94.4447 1214.04 426.329
672 0 105.275 13.1086 1380 94.913 1215 425.432
673 0 110.164 13.1622 1450 94.7607 1214.21 421.921
674 0 112.147 13.3039 1492 97.4806 1214.66 419.651
675 0 116.174 13.6605 1587 95.9288 1214.4 412.018
676 0 121.28 13.9347 1690 96.768 1214.01 411.634
677 0 122.333 13.7248 1679 96.9869 1213.6 407.941
678 0 127.213 13.5836 1728 97.5949 1213.91 405.736
679 0 130.21 13.3324 1736 100.749 1213.25 400.473
680 0 134.262 12.8629 1727 103.44 1212.86 398.6
681 0 139.222 13.7621 1916 102.973 1213.55 400.647
682 0 144.136 13.6608 1969 105.336 1213.69 398.022
683 0 149.167 13.5419 2020 106.905 1213.6 393.528
684 0 155.226 13.5222 2099 106.797 1214.69 390.111
685 0 160.179 13.5099 2164 105.122 1214.68 388.42
686 0 166.228 13.9627 2321 107.327 1215 384.973
687 0 171.184 13.7045 2346 106.731 1214.32 385.918
688 0 176.182 13.5996 2396 110.325 1214.87 384.673
689 0 176.185 13.6107 2398 174.468 1215.87 384.663
690 1 189.119 14.2185 2689 106.818 1214.64 378.573
691 0 197.194 14.539 2867 106.369 1214.69 373.103
692 0 202.236 13.8798 2807 108.967 1214.01 367.598
693 0 209.24 14.2324 2978 107.175 1213.82 363.643
694 0 217.263 14.54 3159 109.604 1213.9 363.127
695 0 226.299 14.6001 3304 105.343 1213.51 357.665
696 1 171.217 12.3586 2116 105.797 1213.46 388.81
697 0 177.187 13.1387 2328 108.124 1213.45 381.009
698 0 183.17 13.6704 2504 109.827 1212.7 380.623
699 0 189.177 13.6433 2581 107.242 1213.11 376.924
700 0 195.21 13.8056 2695 102.646 1213.2 373.004
701 0 200.213 13.9052 2784 103.093 1213.22 369.343
702 0 205.256 13.4076 2752 105.077 1213.88 364.442
703 0 215.161 13.7664 2962 103.952 1213.24 360.836
704 0 220.317 13.644 3006 105.644 1213.54 358.02
705 0 228.218 13.6799 3122 106.039 1212.93 354.765
706 0 236.229 13.6689 3229 107.028 1213.47 348.887
707 0 246.236 13.3084 3277 107.348 1212.48 344.372
708 1 60.0928 8.71985 524 77.5553 1213.37 443.555
709 0 64.0452 10.5394 675 76.6193 1213.26 442.293
710 0 61.1251 9.68506 592 77.9409 1212.9 438.736
711 0 65.0984 9.44724 615 89.6244 1212.49 440.244
712 0 66.1382 9.3592 619 89.832 1212.57 440.691
713 0 68.1043 10.1315 690 87.2174 1212.83 438.096
714 0 70.2284 9.31247 654 88.529 1212.5 439.217
715 0 72.1242 8.91517 643 87.5863 1213.35 438.502
716 0 76.1537 9.61213 732 83.5751 1213.56 437.362
717 0 75.1381 8.79713 661 86.059 1212.86 431.239
718 1 91.1773 12.8541 1172 67.3771 1212.69 426.603
719 0 93.21 12.9278 1205 67.7228 1213.22 423.346
720 0 92.111 12.7129 1171 69.9155 1213.37 422.424
721 1 44.0377 8.4246 371 76.6038 1214.48 449.609
722 0 48.123 10.2238 492 77.1016 1214.69 450.583
723 0 51.0989 10.5677 540 81.3648 1214.06 449.794
724 0 51.0917 10.0995 516 68.2849 1214 451.719
725 0 52.0508 9.50994 495 69.8162 1213.82 448.642
726 0 55.0926 9.34789 515 72.5903 1212.75 448.192
727 0 55.0806 9.07761 500 74.956 1212.4 447.748
728 0 56.0565 9.47259 531 74.2637 1212.96 448.218
729 0 59.022 9.47104 559 75.5152 1212.48 445.742
730 0 58.0315 9.09851 528 76.4811 1212.82 445.513
731 0 60.0186 9.19715 552 76.4819 1212.83 445.261
732 0 62.0754 9.13406 567 77.4392 1213 444.891
733 0 62.073 9.68215 601 77.3577 1213.14 443.511
734 0 64.1079 9.96758 639 76.1549 1212.99 441.848
735 0 66.0362 9.38879 620 77.2339 1212.93 442.379
736 0 67.0621 9.48375 636 76.2374 1212.55 440.358
737 0 69.0289 9.95236 687 74.8661 1212.79 438.247
738 0 72.0829 9.23936 666 74.3138 1213.35 438.572
739 0 75.0973 9.37451 704 73.1094 1213.15 435.727
740 0 76.1459 9.11408 694 73.6225 1213.35 432.532
741 0 78.0834 10.1814 795 71.0579 1213.74 433.663
742 0 80.061 9.95491 797 74.3551 1213.46 428.728
743 0 85.1262 10.0439 855 73.7684 1213.86 426.986
744 0 91.1624 11.134 1015 81.4128 1212.65 423.418
745 1 45.0694 9.74053 439 68.7813 1213.57 446.809
746 0 45.0303 9.26042 417 67.1775 1212.9 445.707
747 0 49.0839 9.88104 485 65.6907 1213.26 445.532
748 0 48.0701 9.40293 452 71.3894 1213.91 443.122
749 0 50.0615 9.5882 480 72.1312 1212.37 443.702
750 0 50.0519 9.51013 476 65.8403 1213.13 443.172
751 0 50.057 8.71006 436 66.6101 1213.06 443.424
752 0 49.0255 9.13809 448 68.279 1213.08 439.98
753 0 53.021 9.31707 494 67.996 1213.46 441.638
754 0 53.0414 9.06838 481 68.7069 1213.56 438.911
755 0 59.069 9.58202 566 67.4187 1212.54 439.834
756 0 60.0355 10.0774 605 65.2727 1213.12 441.064
757 0 60.0467 10.2254 614 66.3355 1212.64 437.888
758 0 62.0466 10.895 676 66.0192 1213.13 436.916
759 0 62.1115 10.143 630 68.7079 1213.52 434.802
760 0 64.0212 10.4653 670 68.2702 1213.58 434.372
761 0 66.016 10.6186 701 66.6377 1213.65 433.494
762 0 69.0589 10.7589 743 68.7133 1213.84 431.482
763 0 67.0738 9.97409 669 70.5172 1213.83 431.8
764 0 72.0216 10.233 737 69.5183 1213.64 431.387
765 0 75.0711 11.0562 830 70.147 1212.86 429.414
766 0 77.0517 10.785 831 71.5343 1213.52 426.567
767 0 81.0612 11.6702 946 69.6892 1213.09 427.531
768 0 82.0417 11.1163 912 73.023 1213.39 425.044
769 0 87.0403 11.983 1043 72.28 1213.39 424.78
770 0 90.0743 11.7348 1057 75.5535 1213.98 423.641
771 0 92.0683 11.9042 1096 76.9471 1214.37 423.08
772 0 97.0692 11.3836 1105 77.1593 1214.29 422.669
773 1 50.0529 8.7907 440 74.5818 1214.77 445.689
774 0 52.0938 9.88602 515 73.4194 1214.11 443.654
775 0 54.0526 9.73125 526 77.6502 1213.92 440.508
776 0 54.0326 10.6417 575 76.8991 1213.84 440.083
777 0 55.0621 9.57102 527 73.5958 1214.31 440.863
778 0 57.0367 10.9228 623 71.1108 1213.92 440.09
779 0 58.0301 9.80526 569 72.6678 1213.34 439.309
780 0 60.0617 11.2551 676 71.8979 1214.63 439.472
781 0 60.082 10.4024 625 71.9536 1214.58 440.701
782 0 63.0467 10.8808 686 73.9373 1214.03 439.477
783 0 63.2269 9.97993 631 75.3819 1214.82 438.636
784 0 67.0868 11.0305 740 72.8122 1213.74 437.164
785 0 70.0868 11.8139 828 72.5676 1213.85 432.802
786 0 71.0766 11.4243 812 73.0431 1214.09 432.148
787 0 73.0599 11.032 806 74.2531 1214.14 431.975
788 0 75.0695 11.4427 859 74.3225 1214.42 430.871
789 0 78.0718 11.1052 867 75.3241 1214.28 430.439
790 0 80.0758 11.077 887 75.9865 1214.8 428.407
791 0 83.0387 11.7536 976 75.9693 1215.4 428.444
792 0 87.065 12.1978 1062 75.5734 1215 425.148
793 0 90.0436 11.8609 1068 76.5515 1214.92 423.654
794 0 93.048 12.4237 1156 75.66 1214.6 423.751
795 0 96.0716 11.9911 1152 75.8898 1214.78 419.687
796 1 50.0249 11.1544 558 68.6165 1215.36 446.344
797 0 49.011 10.1814 499 69.6052 1216.19 446.746
798 0 52.0523 10.3166 537 68.229 1215.28 446.43
799 0 52.0259 11.4558 596 66.9933 1215.41 445.282
800 0 55.1307 11.8446 653 65.2557 1215.41 445.044
801 0 52.0351 11.4154 594 68.9865 1215.28 443.438
802 0 58.0846 12.4129 721 65.9251 1214.9 444.082
803 0 57.0787 12.2988 702 68.1538 1215.14 444.82
804 0 57.1257 11.5009 657 69.3075 1214.74 444.271
805 0 58.0352 10.5798 614 70.6857 1214.16 443.894
806 0 61.0751 11.0192 673 69.951 1214.1 443.829
807 0 62.0673 11.0525 686 71.5233 1214.63 441.399
808 0 65.0442 11.7151 762 69.1325 1214.23 441.06
809 0 64.023 11.1522 714 70.7927 1214.25 440.454
810 0 66.1461 11.2932 747 71.3695 1213.93 438.451
811 0 68.0947 12.0274 819 70.9182 1214.15 437.359
812 0 71.0526 11.7941 838 72.2267 1213.48 438.487
813 0 72.0674 11.1701 805 74.923 1214.06 435.842
814 0 74.1538 11.8672 880 75.5455 1213.86 435.77
815 0 77.0476 11.6292 896 76.1808 1213.19 435.706
816 0 80.2598 13.0825 1050 75.3705 1213.62 433.239
817 0 81.0702 12.4213 1007 78.2721 1213.28 431.892
818 0 81.1122 12.2423 993 79.9607 1213.04 432.249
819 0 86.0949 13.125 1130 80.1982 1212.95 428.851
820 0 89.1629 13.3015 1186 80.3246 1213.3 428.359
821 0 90.1464 13.0122 1173 81.3512 1212.8 427.332
822 0 94.0813 13.0632 1229 80.1855 1212.96 427.911
823 0 97.1545 13.6175 1323 80.0363 1213.11 424.725
824 0 99.1065 13.0667 1295 82.2255 1213.25 422.894
825 0 104.192 13.8686 1445 80.2754 1213.07 422.619
826 0 107.097 12.7268 1363 83.6992 1213.08 420.897
827 0 111.18 13.8514 1540 81.063 1213.52 420.065
828 1 58.102 10.8774 632 84.231 1212.47 445.983
829 0 61.0596 12.021 734 85.1322 1212.98 441.155
830 0 62.0611 11.537 716 79.1257 1212.89 441.246
831 0 64.0878 12.1396 778 75.5977 1213.45 444.008
832 0 66.1312 11.9157 788 75.7728 1213.08 443.704
833 0 67.1301 12.2449 822 75.983 1213.17 442.966
834 0 68.0576 12.3572 841 76.484 1213.68 441.306
835 0 72.0647 11.6284 838 78.2792 1213.56 442.505
836 0 75.1521 12.5346 942 78.2516 1212.5 439.138
837 0 76.1235 12.6111 960 78.5865 1212.35 439.061
838 0 78.0635 12.3105 961 81.025 1213.19 436.002
839 0 80.0425 12.281 983 81.0041 1212.68 437.139
840 0 83.0429 11.9818 995 82.5146 1211.79 433.904
841 0 86.0891 12.2315 1053 83.7958 1212.31 433.216
842 0 86.0354 12.1345 1044 86.6619 1211.63 431.012
843 0 89.0497 11.9147 1061 87.6899 1211.36 430.001
844 0 92.1486 12.6535 1166 85.4786 1211.91 428.285
845 0 96.074 12.9692 1246 84.6124 1211.83 426.271
846 0 99.1779 12.9364 1283 84.5238 1212.05 425.166
847 0 101.203 12.7072 1286 84.8313 1211.62 423.154
848 0 105.17 12.5036 1315 85.2342 1212.02 419.561
849 1 56.1062 10.2128 573 80.2653 1211.53 442.009
850 0 58.0288 10.7705 625 76.8928 1210.99 442.624
851 0 60.0793 11.4848 690 80.8029 1211.65 440.259
852 0 61.0489 11.0895 677 83.5214 1211.75 438.721
853 0 64.1042 11.6841 749 82.3939 1212 439.539
854 0 66.0669 10.7921 713 84.7377 1211.74 438.073
855 0 67.102 12.0861 811 82.8533 1212.3 437.016
856 0 68.1016 11.2479 766 84.2063 1212.05 435.889
857 0 70.0595 12.0897 847 84.366 1212.66 434.242
858 0 73.0833 11.7811 861 85.331 1211.92 433.93
859 0 76.0571 12.083 919 86.0642 1212.54 432.177
860 0 79.0512 12.1946 964 86.1649 1212.76 432.032
861 0 80.0441 12.4556 997 86.8506 1212.28 430.255
862 0 81.054 11.5355 935 90.7904 1212.88 428.21
863 0 81.0644 11.7438 952 93.8288 1212.69 425.913
864 0 85.076 12.2126 1039 92.0395 1212.8 425.665
865 0 88.0408 12.3466 1087 92.7599 1212.66 424.553
866 0 93.0704 12.8827 1199 91.9191 1212.74 423.658
867 0 96.1109 12.3919 1191 92.2569 1212.43 422.863
868 0 97.1444 12.8777 1251 92.0751 1212.52 421.344
869 0 99.1692 12.5442 1244 93.1158 1211.86 418.674
870 0 104.186 13.14 1369 90.4346 1212.53 417.966
871 0 109.194 12.6106 1377 90.2767 1211.71 415.043
872 0 113.139 12.436 1407 89.1635 1211.98 413.78
873 0 118.214 12.6211 1492 87.6052 1211.82 410.684
874 0 123.209 12.6289 1556 90.1761 1211.98 408.578
875 0 127.142 13.5281 1720 86.414 1211.98 406.824
876 1 66.0428 11.0837 732 78.5738 1211.98 438.234
877 0 67.0812 10.9867 737 76.9986 1213 436.75
878 0 67.0906 11.2683 756 76.377 1212.45 435.934
879 0 70.0253 11.3673 796 75.6106 1212.82 435.204
880 0 72.075 11.1412 803 77.4072 1212.05 431.675
881 0 73.1711 11.3569 831 77.7148 1212.24 430.631
882 0 75.1359 11.0333 829 79.2581 1212.18 429.76
883 0 79.1491 11.7626 931 77.913 1212.75 429.686
884 0 80.0798 11.7133 938 78.6791 1212.35 424.859
885 0 79.0908 11.0127 871 81.5809 1212.64 419.936
886 0 85.0987 11.9273 1015 78.7271 1212.89 421.032
887 0 86.1178 11.4959 990 78.7414 1212.14 418.188
888 0 93.1355 11.9825 1116 76.4901 1213.41 419.82
889 0 92.0562 10.8412 998 75.5742 1212.28 416.449
890 0 97.1047 11.8532 1151 75.4683 1211.68 417.054
891 1 49.0545 8.80653 432 72.8032 1212.4 438.882
892 0 51.077 8.88854 454 71.5463 1212.67 439.443
893 0 52.0592 9.95022 518 70.2819 1211.86 437.927
894 0 57.07 9.81251 560 74.1304 1212.19 439.591
895 0 57.053 9.90307 565 74.0301 1211.89 437.694
896 0 60.0413 10.7426 645 68.9023 1211.9 433.281
897 0 61.055 10.2203 624 72.7965 1211.89 433.995
898 0 65.0683 10.9577 713 71.6017 1211.9 432.519
899 0 73.0261 11.2973 825 69.0073 1213.25 433.221
900 0 72.0469 10.743 774 72.8036 1213.11 430.494
901 0 76.1094 11.0762 843 72.0546 1213.54 428.184
902 0 78.0641 10.4914 819 73.0293 1213.66 428.614
903 0 82.0563 10.7 878 73.4465 1212.91 427.68
904 0 83.2277 10.7296 893 73.9754 1212.56 427.032
905 0 84.0906 9.24003 777 74.4311 1213.16 421.051
906 1 45.0619 9.49806 428 66.0374 1213.1 443.607
907 0 50.092 10.0016 501 68.1976 1213.71 441.166
908 0 47.069 9.98535 470 67.8106 1212.84 439.213
909 0 50.0131 10.1173 506 76.5553 1213.85 441.087
910 0 49.0271 9.66811 474 79.0464 1213.58 440.863
911 0 52.0183 10.5347 548 75.8522 1213.75 441.277
912 0 54.0172 11.2372 607 75.9226 1213.25 439.577
913 0 57.0282 11.3102 645 74.7876 1214.16 439.016
914 0 59.0096 11.8116 697 74.2281 1213.6 438.372
915 0 60.0406 11.2591 676 75.2589 1213.86 438.429
916 0 61.0322 10.8631 663 76.3137 1213.76 435.748
917 0 63.0303 11.0582 697 76.472 1213.96 435.634
918 0 64.0747 11.0028 705 77.261 1212.95 431.638
919 0 68.0372 10.9205 743 76.4711 1212.66 431.023
920 0 67.0618 10.8109 725 76.8648 1212.47 429.754
921 0 75.0344 12.261 920 72.8098 1212.55 432.125
922 0 79.076 12.1529 961 72.6587 1212.39 430.172
923 0 80.0887 12.0991 969 73.7905 1213.08 430.985
924 0 84.0432 12.6007 1059 73.6582 1212.43 427.899
925 0 86.0396 12.4129 1068 74.0337 1212.01 426.249
926 1 45.0148 9.41912 424 71.3774 1212.43 447.646
927 0 45.0148 9.50798 428 144.002 1212.41 447.759
928 0 47.0113 11.1675 525 71.6781 1212.46 447.726
929 0 47.0359 10.5664 497 66.0402 1211.1 446.388
930 0 49.042 9.60402 471 68.4289 1211.66 447.631
931 0 48.0334 10.118 486 68.8189 1211.56 446.436
932 0 51.0732 10.2598 524 68.5916 1211.86 446.006
933 0 53.04 9.70966 515 70.2388 1211.67 446.163
934 0 55.0402 11.1736 615 69.3691 1211.16 444.468
935 0 58.0751 10.9341 635 70.1496 1211.87 443.839
936 0 58.0133 10.4631 607 71.6936 1212.06 443.99
937 0 60.027 11.1616 670 72.2806 1210.83 443.327
938 0 62.0208 11.5445 716 71.9707 1210.46 443.335
939 0 65.07 11.3416 738 71.4756 1211.06 439.763
940 0 66.131 11.9309 789 71.8796 1210.52 439.776
941 0 67.0643 11.5412 774 73.5284 1210.59 439.189
942 0 66.0795 11.0776 732 76.832 1210.83 438.389
943 0 73.0325 12.556 917 75.5594 1210.73 437.19
944 0 75.0377 12.4737 936 77.8846 1211.07 437.808
945 0 78.0518 12.7223 993 79.6153 1211.19 435.619
946 0 81.0806 12.8884 1045 80.8488 1210.65 434.578
947 0 85.1234 13.0281 1109 81.0496 1210.39 432.03
948 0 85.1012 12.5028 1064 84.0508 1210.22 430.057
949 0 89.1156 12.927 1152 82.638 1210.98 430.482
950 0 93.1021 13.3832 1246 82.0851 1210.92 428.262
951 0 97.1039 14.5205 1410 88.273 1211.05 426.887
952 0 100.11 14.3941 1441 89.374 1211.93 426.003
953 0 101.052 13.8147 1396 90.563 1212.45 425.346
954 0 106.076 13.9806 1483 91.0971 1212.66 422.355
955 0 108.046 13.6238 1472 90.0924 1211.08 422.317
956 0 111.133 13.5873 1510 80.9762 1211.51 418.98
957 0 114.097 13.5499 1546 81.6746 1211.84 416.712
958 0 117.071 13.9403 1632 82.1587 1211.6 415.264
959 0 119.083 13.7551 1638 82.8565 1211.38 412.586
960 0 123.055 13.7337 1690 84.1112 1211.37 411.489
961 0 128.099 13.8174 1770 83.9966 1211.97 410.179
962 0 133.108 14.3493 1910 83.2393 1212.05 407.557
963 0 137.035 14.7918 2027 84.9709 1211.52 404.34
964 0 142.102 14.384 2044 82.8586 1212.25 402.788
965 0 145.118 14.2298 2065 84.2208 1211.59 400.741
966 0 152.142 15.0123 2284 85.2811 1211.44 393.276
967 0 155.102 14.3132 2220 89.6504 1212 392.566
968 0 160.149 14.7862 2368 90.0329 1212.11 390.808
969 0 164.279 14.4571 2375 94.0926 1212 385.931
970 0 170.292 15.0389 2561 93.9582 1211.74 383.301
971 0 177.27 15.2704 2707 93.1563 1211.82 380.414
972 0 181.343 14.8668 2696 93.8579 1212.35 377.322
973 0 187.347 15.0256 2815 94.7314 1212.08 374.13
974 1 100.041 11.1954 1120 85.8116 1212.97 422.111
975 0 103.144 11.9542 1233 87.7226 1213.2 417.673
976 0 108.114 12.459 1347 85.4306 1213.68 417.582
977 0 110.127 12.3676 1362 86.022 1213.57 417.075
978 0 113.188 12.7398 1442 84.9951 1213.42 416.502
979 0 116.152 12.4665 1448 94.8039 1214.17 416.26
980 0 120.146 12.3599 1485 96.7582 1213.38 413.613
981 0 124.125 12.6405 1569 96.3728 1213.07 410.405
982 0 128.228 12.0332 1543 86.5535 1212.32 407.509
983 0 133.312 12.5645 1675 82.0848 1213.22 406.629
984 0 139.124 12.8518 1788 86.1242 1212.04 404.105
985 1 77.1626 11.5859 894 81.7427 1212.88 435.167
986 0 79.0653 10.8644 859 75.5832 1212.58 433.071
987 0 81.2048 11.0215 895 75.7721 1212.91 432.589
988 0 85.1844 11.2697 960 75.4333 1212.96 430.801
989 0 88.1408 11.6858 1030 75.766 1212.84 428.606
990 0 91.1953 11.2177 1023 76.0577 1213.11 427.105
991 0 96.1414 12.1696 1170 73.6077 1212.46 424.962
992 0 97.1726 11.6597 1133 76.2542 1212.55 423.358
993 0 99.2475 12.0406 1195 75.8837 1212.8 422.327
994 0 103.14 12.6139 1301 77.824 1212.73 419.513
995 0 106.101 12.507 1327 76.7694 1212.78 416.836
996 0 109.086 12.1097 1321 79.6556 1212.36 418.224
997 0 114.044 12.162 1387 78.7808 1213.21 415.183
998 0 118.082 12.3051 1453 78.4714 1213.59 412.554
999 0 120.097 12.2901 1476 79.6172 1213.3 410.09
1000 0 124.174 12.4503 1546 78.608 1213.44 412.374
1001 0 128.147 12.5247 1605 78.2137 1213.34 406.993
1002 0 132.095 11.84 1564 88.9527 1213.56 402.403
1003 0 137.123 12.259 1681 87.1481 1214.2 404.076
1004 0 143.183 12.285 1759 87.3013 1214.45 400.903
1005 0 148.092 13.3093 1971 85.6347 1213.71 396.708
1006 0 152.272 12.3266 1877 87.4166 1214.29 397.677
1007 1 76.1149 10.9965 837 77.7431 1215 436.712
1008 0 79.0618 11.3962 901 78.4251 1214.85 434.258
1009 0 81.1306 11.0562 897 80.3467 1214.37 431.327
1010 0 82.0735 10.5515 866 83.9226 1213.67 430.641
1011 0 85.0642 12.2378 1041 80.0845 1214.22 430.354
1012 0 88.1531 11.5254 1016 83.1132 1214.47 427.873
1013 0 91.1648 12.3293 1124 81.8505 1213.89 426.637
1014 0 94.0465 12.3131 1158 82.8273 1213.93 425.364
1015 0 96.1182 12.3286 1185 82.8152 1213.5 424.733
1016 0 99.1019 12.694 1258 82.9364 1213.14 424.157
1017 0 102.102 12.5071 1277 83.4824 1213.42 423.347
1018 0 104.127 12.917 1345 83.4439 1214.42 421.532
1019 0 107.103 12.4833 1337 85.7427 1213.53 420.106
1020 0 110.098 13.1792 1451 84.5024 1213.24 418.258
1021 0 115.1 13.1712 1516 84.4426 1214.57 418.046
1022 0 118.108 12.7257 1503 86.1643 1215 417.071
1023 0 123.12 13.4178 1652 84.6986 1215.16 415.019
1024 0 125.107 13.0129 1628 86.1585 1214.8 410.209
1025 0 130.114 13.2807 1728 85.4016 1214.56 410.142
1026 0 135.185 13.4557 1819 85.2452 1214.49 407.379
1027 0 139.157 13.7399 1912 84.3175 1213.85 406.515
1028 0 143.243 13.2642 1900 86.02 1213.42 404.023
1029 0 147.108 13.2012 1942 85.2925 1213.25 401.109
1030 0 150.198 12.8098 1924 87.251 1213.3 398.691
1031 0 150.198 12.7831 1920 161.643 1213.29 398.599
1032 1 91.1959 11.7878 1075 81.1014 1213.73 431.567
1033 0 93.312 11.5741 1080 81.3917 1213.12 430.263
1034 0 94.2283 11.5252 1086 82.9604 1213.88 429.272
1035 0 97.1538 11.1061 1079 80.0028 1213.46 425.588
1036 0 99.2892 11.6629 1158 80.3307 1213.43 425.289
1037 0 102.277 11.5373 1180 84.3322 1214.09 424.07
1038 0 105.117 11.844 1245 83.2884 1213.84 422.619
1039 0 108.132 11.6247 1257 83.9976 1213.29 420.695
1040 0 111.302 11.9225 1327 84.3564 1212.89 419.359
1041 0 114.122 12.6618 1445 84.3751 1213.34 418.426
1042 0 118.264 12.4044 1467 83.6728 1213.15 417.45
1043 0 122.199 11.9396 1459 85.1076 1213.49 415.47
1044 0 126.288 12.1706 1537 86.0553 1212.84 412.812
1045 0 129.203 11.9347 1542 87.0344 1213.26 409.855
1046 1 74.1605 11.8931 882 85.2789 1213.76 436.136
1047 0 77.1542 12.1445 937 90.4824 1213.52 435.014
1048 0 80.2238 12.5524 1007 88.8878 1214.2 434.926
1049 0 81.1323 12.0914 981 90.1631 1213.72 432.296
1050 0 85.2016 13.2627 1130 86.8956 1213.73 432.103
1051 0 86.1535 12.0831 1041 91.122 1213.36 431.989
1052 0 90.2115 12.8365 1158 89.1045 1213.84 433.36
1053 0 91.176 12.7665 1164 90.5765 1213.79 431.015
1054 0 95.2424 13.1349 1251 93.5596 1214.49 430.698
1055 0 96.1843 13.4533 1294 94.3779 1215 430.251
1056 0 101.31 13.661 1384 93.4285 1214.58 428.807
1057 0 102.233 13.5474 1385 93.3032 1214.94 427.451
1058 0 106.152 13.4712 1430 92.1951 1214.71 425.996
1059 0 108.165 14.2005 1536 90.3685 1215.29 425.395
1060 0 110.291 13.9721 1541 90.6321 1214.54 422.931
1061 0 115.291 14.1381 1630 90.2141 1215.1 421.49
1062 0 116.257 14.1582 1646 90.8548 1214.05 420.625
1063 0 118.253 13.285 1571 93.718 1214.18 421.102
1064 0 122.29 13.5743 1660 93.4434 1214.36 419.634
1065 1 66.1367 11.6577 771 94.179 1214.42 446.375
1066 0 68.1631 12.8222 874 93.6854 1214.32 444.13
1067 0 72.2117 12.5188 904 93.1914 1214.65 443.095
1068 0 74.0947 12.7135 942 91.2728 1214.5 441.488
1069 0 76.1802 13.98 1065 88.8676 1214.44 440.175
1070 0 79.3228 12.9093 1024 92.7246 1213.95 438.438
1071 0 82.1581 12.9993 1068 91.4288 1214.47 439.052
1072 0 85.2054 12.8865 1098 93.827 1213.84 438.852
1073 0 87.1413 13.1625 1147 93.2738 1214.34 439.364
1074 0 90.0873 13.6756 1232 92.6615 1214.35 438.483
1075 0 92.1557 13.0974 1207 96.3927 1213.81 436.933
1076 0 96.1786 13.9428 1341 94.2088 1213.85 437.135
1077 0 97.1601 13.874 1348 96.1187 1213.22 436.651
1078 0 100.168 14.1761 1420 94.7155 1213.45 433.82
1079 0 102.165 13.8502 1415 96.2085 1213.91 433.102
1080 0 105.168 13.4072 1410 97.078 1213.68 430.676
1081 0 108.11 13.7268 1484 97.7338 1213.75 427.817
1082 0 112.194 13.655 1532 98.6136 1213.58 426.126
1083 0 114.139 13.8427 1580 98.4671 1214.14 424.942
1084 1 57.0731 11.4239 652 89.0767 1214.09 454.52
1085 0 58.1001 10.654 619 89.8498 1214.45 454.357
1086 0 62.1043 11.6256 722 89.2022 1214.2 452.393
1087 0 64.1963 11.5583 742 87.7952 1214.26 451.139
1088 0 64.0253 12.6044 807 84.8327 1213.96 450.758
1089 0 66.0493 12.5966 832 96.4603 1214.51 449.387
1090 0 68.0492 12.7996 871 96.302 1213.64 448.867
1091 0 69.0434 11.8476 818 100.254 1213.97 448.054
1092 0 71.0284 12.5302 890 99.0753 1213.75 446.483
1093 0 73.0528 12.402 906 98.6225 1213.64 445.722
1094 0 77.0469 13.031 1004 95.1056 1213.57 444.317
1095 0 79.0296 12.5396 991 98.8991 1214.12 442.807
1096 0 83.0273 12.6344 1049 104.848 1213.84 442.219
1097 0 84.0862 12.5348 1054 103.47 1213.91 442.305
1098 0 86.0735 11.6296 1001 103.096 1214.29 441.278
1099 0 89.0969 11.5268 1027 101.095 1215.83 439.76
1100 1 42.1006 10.8787 458 95.7598 1215.77 461.871
1101 0 46.0185 10.7783 496 92.7016 1215.24 459.683
1102 0 46.0098 11.1063 511 91.2388 1214.38 457.442
1103 0 48.0401 11.5737 556 89.9317 1214.75 458.183
1104 0 50.0338 12.0718 604 89.8113 1214.58 457.54
1105 0 51.0484 12.4 633 90.1485 1214.32 457.709
1106 0 50.0674 11.4845 575 95.5739 1214.45 459.129
1107 0 50.0445 11.4498 573 96.9913 1214.28 458.133
1108 0 51.0308 11.64 594 96.5455 1214.1 456.296
1109 0 55.0403 11.9004 655 94.0275 1213.56 456.473
1110 0 55.0708 11.6032 639 96.3443 1213.95 455.302
1111 0 56.0199 11.4959 644 96.3245 1214.04 454.134
1112 0 58.0358 11.4584 665 95.4632 1213.65 455.662
1113 0 60.055 11.1731 671 96.5142 1213.14 452.156
1114 0 62.0348 11.7031 726 94.7837 1213.68 452.547
1115 0 66.0774 11.6681 771 94.8508 1213.76 451.626
1116 0 66.049 10.8556 717 97.9874 1213.52 451.662
1117 0 69.0425 12.0071 829 95.778 1213.98 451.308
1118 0 71.0551 12.047 856 97.514 1213.78 450.588
1119 0 74.2282 12.1921 905 96.2917 1213.92 448.409
1120 0 77.1637 11.9616 923 97.3608 1213.96 447.319
1121 0 77.0606 11.9387 920 97.8544 1213.59 446.567
1122 0 82.1894 12.7632 1049 95.1916 1213.6 446.015
1123 0 85.1997 12.7113 1083 94.6694 1213.12 442.551
1124 0 87.0954 12.182 1061 97.4665 1213.38 442.285
1125 0 89.135 12.6437 1127 95.9059 1213.25 444.014
1126 0 92.1481 12.2954 1133 98.8906 1212.82 440.241
1127 0 95.1987 12.2691 1168 98.3981 1213.57 440.606
1128 0 96.0965 12.758 1226 101.517 1213.65 437.087
1129 1 52.2252 12.2738 641 103.087 1214.02 458.739
1130 0 55.1252 12.8798 710 102.668 1214.42 455.555
1131 0 55.1008 13.3936 738 89.7276 1213.56 456.131
1132 0 56.1317 12.5241 703 92.9815 1214.17 454.55
1133 0 57.239 12.6313 723 93.5837 1213.59 454.708
1134 0 59.1228 13.3789 791 92.7686 1213.66 454.757
1135 0 61.2013 13.284 813 93.8303 1212.99 452.743
1136 0 62.1742 13.9769 869 94.5949 1213.07 452.391
1137 0 63.1772 13.2643 838 99.8198 1212.99 450.002
1138 0 68.2337 13.3219 909 103.868 1212.59 449.623
1139 0 70.1831 13.7925 968 104.989 1213.48 448.809
1140 0 72.1742 13.5644 979 106.689 1213.39 447.664
1141 0 75.3304 13.1554 991 108.588 1213.03 445.102
1142 0 76.1594 13.3536 1017 111.912 1213.01 443.37
1143 0 81.2582 13.3402 1084 111.759 1213.49 442.459
1144 0 82.2256 13.2927 1093 112.988 1212.88 441.87
1145 0 86.2122 13.6292 1175 111.556 1212.82 439.454
1146 0 88.2425 13.7462 1213 112.802 1212.66 438.416
1147 0 91.0505 12.5425 1142 114.8 1212.69 436.593
1148 0 93.1355 12.7986 1192 110.146 1211.96 432.281
1149 0 96.1212 12.5363 1205 112.253 1212.75 430.674
1150 1 49.0308 11.3398 556 91.3471 1213.07 455.905
1151 0 50.1096 11.2753 565 95.3699 1213.25 455.988
1152 0 51.1422 11.5756 592 94.7331 1212.75 456.422
1153 0 53.0667 12.3618 656 95.6829 1212.69 456.509
1154 0 56.0316 13.0462 731 98.5116 1213.48 454.72
1155 0 54.0703 12.2433 662 98.642 1212.86 455.051
1156 0 57.0282 12.0817 689 97.5196 1212.73 454.904
1157 0 57.108 12.0824 690 98.4362 1212.28 454.209
1158 0 59.1247 12.1946 721 100.356 1212.59 452.092
1159 0 60.0575 12.6212 758 97.1979 1212.45 452.98
1160 0 62.0729 12.3242 765 98.0026 1212.78 452.175
1161 0 65.1044 12.4416 810 98.921 1212.34 449.516
1162 0 66.074 12.6525 836 99.2153 1212.51 448.508
1163 0 69.1204 12.8905 891 98.9035 1212.28 447.884
1164 0 70.1481 12.944 908 100.716 1212.42 446.666
1165 0 71.1172 12.3599 879 102.254 1212.82 445.246
1166 0 73.1291 12.0745 883 98.3681 1211.88 441.498
1167 0 77.2204 11.9917 926 98.2138 1212.4 440.28
1168 0 78.2161 12.4271 972 98.0051 1212.05 439.47
1169 0 80.1075 12.3834 992 98.9899 1211.53 438.22
1170 0 85.1426 12.802 1090 99.3853 1212.15 436.461
1171 0 88.1028 12.3265 1086 99.9282 1211.81 434.471
1172 1 44.1211 10.4938 463 97.0886 1211.85 455.814
1173 0 47.0735 11.6839 550 96.9564 1211.75 455.92
1174 0 49.079 13.0606 641 98.2293 1211.78 454.371
1175 0 51.0638 12.2592 626 99.8323 1212.07 453.762
1176 0 52.0962 12.7457 664 96.4262 1212.68 453.154
1177 0 53.0483 12.7997 679 96.8498 1212.71 451.881
1178 0 53.0708 12.8131 680 96.2176 1212.99 453.232
1179 0 57.0431 12.324 703 95.5676 1212.85 451.03
1180 0 59.0188 13.3517 788 91.3211 1213.01 450.466
1181 0 59.032 12.2984 726 95.4477 1212.42 450.625
1182 0 59.0316 12.1799 719 96.025 1213.12 450.271
1183 0 60.0782 11.768 707 98.1103 1212.52 448.771
1184 0 64.0689 11.5657 741 97.4372 1212.56 447.428
1185 0 67.0335 12.6206 846 95.3546 1212.46 446.228
1186 0 70.1119 12.48 875 94.1189 1212.48 445.449
1187 0 72.0484 12.5055 901 96.0499 1213.36 443.259
1188 0 73.0439 12.4583 910 95.2769 1212.33 442.022
1189 0 77.1379 12.5749 970 93.767 1211.84 440.974
1190 0 80.0929 12.3482 989 95.819 1211.45 439.359
1191 0 82.071 12.4648 1023 95.8201 1212.24 439.426
1192 0 84.0704 12.9415 1088 96.5276 1212.73 435.832
1193 0 88.1194 12.903 1137 96.1469 1211.92 435.478
1194 0 92.0819 13.2817 1223 96.7424 1212.53 435.092
1195 0 95.0492 12.7303 1210 98.3488 1211.94 435.094
1196 1 50.1234 11.2323 563 102.48 1212.49 456.512
1197 0 52.0982 12.7452 664 98.4804 1212.13 455.261
1198 0 53.0486 12.8938 684 100.83 1212.73 454.401
1199 0 54.115 12.7506 690 104.093 1211.88 454.709
1200 0 56.0922 13.5135 758 96.9393 1211.23 453.868
1201 0 54.0282 12.586 680 100.751 1211.71 454.05
1202 0 57.0774 12.2465 699 100.923 1211.9 453.269
1203 0 59.0704 12.5613 742 99.9515 1211.7 453.54
1204 0 59.1001 12.8934 762 100.963 1212.44 451.307
1205 0 62.0585 12.9072 801 100.07 1211.88 451.502
1206 0 63.0505 12.371 780 102.956 1212.46 452.47
1207 0 63.1452 13.4452 849 105.856 1212.29 451.766
1208 0 66.2234 13.2732 879 104.23 1212.08 449.629
1209 0 67.1471 13.4332 902 105.084 1212.21 447.637
1210 0 72.1704 13.6621 986 103.053 1212.12 447.259
1211 0 72.127 13.3376 962 104.972 1211.94 445.333
1212 0 75.1776 13.1821 991 104.292 1211.77 444.765
1213 0 77.0941 14.0478 1083 103.319 1212.14 444.492
1214 0 81.1727 13.4282 1090 102.834 1212.11 443.072
1215 0 82.173 13.4107 1102 104.817 1212.75 442.119
1216 0 87.1244 13.3946 1167 103.162 1212.03 439.577
1217 0 89.2919 12.6551 1130 103.878 1212.16 439.797
1218 1 48.2814 12.2822 593 99.4165 1210.6 459.438
1219 0 50.2797 12.3111 619 99.8982 1211.31 459.47
1220 0 52.3154 12.1762 637 102.782 1211.09 456.447
1221 0 54.2545 12.9943 705 104.949 1211.24 456.997
1222 0 54.2245 13.4072 727 102.065 1211.78 457.33
1223 0 54.2222 12.7623 692 97.5419 1211.47 456.604
1224 0 57.1523 12.3005 703 97.8848 1212.01 453.915
1225 0 56.1519 12.5196 703 159.903 1212.02 453.954
1226 0 60.0768 13.3163 800 97.395 1211.73 451.261
1227 0 63.0483 12.8473 810 97.6926 1212.15 449.764
1228 0 63.0566 13.2897 838 97.7279 1212.42 447.857
1229 0 66.0205 13.2838 877 97.7731 1211.77 447.608
1230 0 70.0407 13.6064 953 97.4397 1212.6 446.799
1231 0 71.058 13.3131 946 103.97 1212.33 445.464
1232 0 73.0859 13.5047 987 101.121 1212.36 444.608
1233 0 75.0523 13.404 1006 101.614 1212.71 444.047
1234 0 78.0673 14.1416 1104 99.6241 1212.63 442.457
1235 0 81.072 14.1973 1151 97.7029 1212.41 440.488
1236 0 82.0453 13.7363 1127 99.4552 1213.03 440.293
1237 0 84.0626 13.6565 1148 100.49 1213.08 439.503
1238 0 87.1571 13.7797 1201 98.3439 1213.26 434.432
1239 0 90.2227 13.2339 1194 97.969 1212.58 434.032
1240 0 93.2049 13.5615 1264 98.6131 1212.64 432.627
1241 0 96.1834 13.6302 1311 94.8116 1212.56 431.458
1242 0 100.149 14.069 1409 92.5664 1212.38 432.084
1243 0 102.185 13.9942 1430 93.1028 1212.67 429.813
1244 0 106.165 14.129 1500 91.992 1212.62 428.987
1245 0 108.225 14.1095 1527 91.7538 1213.2 427.53
1246 0 111.238 13.5924 1512 94.4914 1213.3 424.888
1247 0 115.224 14.5022 1671 91.9952 1212.44 422.354
1248 0 119.313 14.6086 1743 93.4905 1212.35 421.388
1249 1 65.1844 12.1348 791 91.512 1211.68 449.303
1250 0 68.1594 12.9256 881 92.8377 1211.45 447.956
1251 0 71.159 13.0272 927 92.4444 1211.77 445.703
1252 0 71.1067 12.9383 920 90.3206 1213.52 444.787
1253 0 74.0749 13.0814 969 90.5418 1213.77 443.965
1254 0 77.14 13.5338 1044 88.1255 1213.89 443.101
1255 0 79.0961 13.452 1064 88.296 1213.56 440.936
1256 0 83.1507 13.3252 1108 87.5614 1213.47 440.111
1257 0 84.1036 14.0779 1184 86.2019 1214.32 440.107
1258 0 89.1005 14.1974 1265 84.751 1213.07 437.382
1259 0 91.0406 13.3896 1219 86.7998 1212.85 436.928
1260 0 94.1066 13.8035 1299 90.9808 1212.91 433.731
1261 0 97.1342 13.3835 1300 92.9546 1212.85 432.303
1262 0 100.086 13.8381 1385 91.6282 1212.93 431.318
1263 0 100.119 13.1044 1312 89.2386 1212.86 431.663
1264 0 105.164 13.5978 1430 89.5266 1212.8 428.576
1265 1 56.0857 12.0173 674 84.9866 1213.26 453.607
1266 0 55.0587 11.6966 644 83.8044 1213.69 453.307
1267 0 59.154 13.1521 778 79.455 1213.13 450
1268 0 60.0136 12.3305 740 80.1203 1213.7 451.035
1269 0 61.0573 12.3327 753 79.8699 1213.65 450.861
1270 0 64.0684 11.9404 765 84.9242 1213.22 447.81
1271 0 67.0456 12.5735 843 84.2622 1212.48 445.599
1272 0 70.0633 12.7884 896 83.7121 1212.69 445.64
1273 0 72.125 13.1022 945 83.7132 1213.11 444.319
1274 0 73.0867 13.1488 961 87.0999 1212.4 443.116
1275 0 76.1392 13.1076 998 88.0711 1212.62 441.58
1276 0 77.1709 12.5566 969 90.3488 1212.43 440.483
1277 0 82.1366 13.0636 1073 89.4744 1213.05 439.679
1278 0 84.1367 12.8362 1080 90.0472 1213.04 438.847
1279 0 85.2458 13.596 1159 92.5608 1212.87 436.833
1280 0 89.2614 12.9843 1159 92.566 1213.26 432.408
1281 0 92.2722 13.0484 1204 93.0249 1212.08 430.964
1282 0 95.1548 13.0104 1238 92.626 1212.45 430.424
1283 1 49.1182 10.5867 520 83.75 1213.18 454.46
1284 0 48.1515 10.9031 525 78.4571 1213.12 449.905
1285 0 52.0744 12.5589 654 88.4342 1213.46 455.638
1286 0 51.0897 11.5679 591 84.5465 1213.91 455.824
1287 0 55.1199 12.0283 663 81.632 1213.72 455.265
1288 0 55.0934 12.2338 674 82.7003 1214.71 454.402
1289 0 58.0282 12.3044 714 81.9314 1214.48 451.793
1290 0 59.0746 12.2726 725 83.4372 1214.65 453.046
1291 0 62.0487 12.4741 774 83.3941 1214.25 450.171
1292 0 65.0437 12.1457 790 82.2177 1214.15 447.803
1293 0 65.0233 12.088 786 85.4517 1213.57 447.228
1294 0 68.1205 12.5073 852 86.6772 1213.59 447.637
1295 0 70.0642 12.4885 875 86.328 1214.01 446.323
1296 0 73.0234 12.6261 922 85.7278 1213.79 444.362
1297 0 74.0509 12.3429 914 87.2516 1213.28 443.405
1298 0 76.1052 12.3382 939 87.8328 1213.29 442.292
1299 0 81.063 13.249 1074 86.0978 1213.92 439.84
1300 0 81.0488 12.9798 1052 86.7624 1213.63 439.11
1301 0 85.0464 13.3927 1139 87.1896 1213.76 436.73
1302 0 87.0502 12.8546 1119 89.2189 1213.46 436.264
1303 0 89.0262 12.8389 1143 89.3438 1213.65 436.68
1304 0 93.1065 12.9851 1209 88.0455 1213.07 433.002
1305 0 96.1161 13.234 1272 89.2453 1212.63 433.274
1306 0 96.1965 13.3165 1281 92.3646 1212.82 431.845
1307 0 100.152 13.6492 1367 92.3884 1213.06 431.102
1308 0 103.128 13.2069 1362 93.815 1212.66 431.47
1309 0 107.083 13.4288 1438 91.9687 1212.69 430.31
1310 0 112.133 13.8586 1554 90.5187 1212.53 427.393
1311 0 117.085 13.5115 1582 90.5291 1212.58 422.529
1312 0 117.092 12.5713 1472 94.1311 1212.43 423.358
1313 0 122.127 12.7736 1560 91.975 1212.9 423.113
1314 1 67.0226 12.6823 850 94.9988 1212.79 449.485
1315 0 67.1055 13.0988 879 93.5302 1212.66 448.563
1316 0 69.0768 13.97 965 95.9617 1212.83 445.392
1317 0 70.0727 12.6297 885 92.1051 1212.59 439.328
1318 0 71.0413 11.9789 851 89.577 1211.95 438.798
1319 0 74.0592 12.247 907 88.5028 1212.26 439.164
1320 0 78.0589 13.5411 1057 94.5724 1212.23 443.592
1321 0 80.0683 13.2762 1063 96.5268 1212.74 441.075
1322 0 84.0837 13.4033 1127 96.3035 1212.11 441.08
1323 0 85.1104 13.2769 1130 97.1779 1212.51 438.719
1324 0 89.0769 13.7746 1227 94.7604 1213.08 437.258
1325 0 91.175 13.666 1246 95.118 1212.35 437.064
1326 0 95.1412 13.4747 1282 95.0289 1212.44 435.696
1327 0 97.1129 14.5192 1410 89.578 1213.46 435.501
1328 0 101.337 14.1015 1429 93.895 1213.86 431.786
1329 0 103.186 13.4029 1383 94.0318 1212.01 428.351
1330 0 107.156 13.4944 1446 94.5768 1211.68 424.337
1331 0 107.171 13.0446 1398 97.3255 1211.6 421.86
1332 0 111.133 13.5243 1503 95.9015 1211.61 419.553
1333 0 114.221 13.2025 1508 95.3972 1211.21 416.628
1334 1 59.0663 10.3951 614 93.9544 1211.73 441.194
1335 0 62.104 11.5774 719 93.3296 1211.76 440.327
1336 0 61.1386 11.5475 706 95.0637 1211.35 437.027
1337 0 64.1153 11.916 764 94.6505 1211.99 437.315
1338 0 68.052 12.4317 846 93.682 1212.3 435.375
1339 0 69.0997 12.084 835 97.388 1212.06 434.529
1340 0 70.1021 12.4818 875 97.7714 1212.27 433.568
1341 0 71.0475 12.0201 854 100.431 1211.72 434.436
1342 0 77.1008 12.7885 986 98.9331 1212.38 431.26
1343 0 80.057 13.1406 1052 99.1131 1212.42 430.34
1344 0 81.0929 13.1701 1068 101.361 1211.96 430.689
1345 0 84.06 12.9074 1085 103.086 1211.67 430.088
1346 0 86.0852 13.1498 1132 104.929 1211.7 427.043
1347 0 88.0683 12.8196 1129 106.985 1211.61 428.865
1348 0 92.0343 13.8861 1278 103.424 1211.28 427.551
1349 0 94.1531 13.9666 1315 103.782 1211.36 426.065
1350 0 97.1469 13.9068 1351 103.77 1211.48 424.662
1351 0 99.1618 13.9166 1380 104.064 1212.11 424.236
1352 0 101.181 13.807 1397 105.062 1211.65 421.867
1353 0 104.093 14.4295 1502 103.424 1211.83 422.549
1354 0 106.15 14.3476 1523 104.034 1211.97 421.437
1355 0 110.193 14.2114 1566 103.999 1211.86 418.665
1356 0 112.132 14.59 1636 102.792 1211.98 416.055
1357 0 118.097 14.9793 1769 101.517 1212.01 412.082
1358 0 120.141 14.5329 1746 102.885 1211.3 411.884
1359 0 123.262 13.4753 1661 105.818 1210.63 412.495
1360 0 127.188 14.223 1809 104.335 1211.23 410.265
1361 0 133.166 14.343 1910 102.846 1211.2 409.727
1362 0 134.16 13.8566 1859 106.013 1210.77 407.278
1363 0 141.169 14.4224 2036 104.453 1210.97 405.123
1364 0 144.182 13.9061 2005 107.033 1211.32 401.541
1365 0 151.155 14.2701 2157 108.045 1211.61 400.051
1366 0 155.114 14.0864 2185 109.477 1210.92 398.251
1367 0 161.125 14.1815 2285 108.165 1211.08 396.164
1368 0 164.142 13.7991 2265 108.485 1210.8 390.741
1369 0 170.181 13.8088 2350 110.01 1211.21 389.365
1370 1 93.0409 11.3284 1054 107.634 1211.15 426.894
1371 0 96.1066 12.3717 1189 108.585 1211.15 424.479
1372 0 100.08 12.6299 1264 107.422 1211.28 423.261
1373 0 104.079 13.1919 1373 104.644 1210.94 420.958
1374 0 105.1 12.255 1288 109.269 1210.84 419.765
1375 0 108.081 12.8793 1392 106.466 1210.51 418.182
1376 0 112.09 12.7576 1430 109.377 1210.6 414.831
1377 0 115.197 11.9968 1382 101.967 1210.84 413.889
1378 0 119.171 13.1408 1566 106.835 1209.89 417.763
1379 0 121.137 13.3072 1612 104.689 1210.05 422.565
1380 0 121.124 13.2922 1610 109.111 1210.17 422.156
1381 0 124.14 13.4525 1670 109.034 1210.17 421.955
1382 0 126.086 13.1973 1664 106.332 1210.39 421.945
1383 0 130.189 13.0964 1705 105.529 1210.35 418.404
1384 0 134.249 13.4675 1808 102.688 1210.14 417.969
1385 0 139.258 13.1124 1826 100.323 1209.71 414.451
1386 0 146.223 13.1511 1923 97.5918 1209.92 412.081
1387 0 148.275 13.3873 1985 96.0196 1210.31 409.494
1388 0 155.372 13.7477 2136 91.8174 1210.44 408.21
1389 0 157.259 13.1757 2072 92.8528 1210.32 405.573
1390 0 163.354 13.0943 2139 93.1164 1210.14 403.867
1391 0 168.199 13.7813 2318 96.6506 1209.64 398.444
1392 1 94.086 10.6711 1004 95.9363 1210.05 435.863
1393 0 96.1184 11.6627 1121 95.992 1209.88 434.114
1394 0 98.1289 11.8416 1162 96.3124 1209.81 432.366
1395 0 101.148 11.9824 1212 96.6378 1210.06 434.479
1396 0 103.124 11.4231 1178 98.1969 1209.63 430.999
1397 0 109.131 11.9306 1302 94.9639 1209.85 431.575
1398 0 108.182 10.8336 1172 89.2022 1210.25 426.764
1399 0 110.076 10.7925 1188 97.1574 1210.23 423.126
1400 0 114.215 10.813 1235 97.6008 1210.45 423.089
1401 0 114.215 10.8743 1242 140.725 1210.45 422.998
1402 1 66.147 9.66031 639 91.7793 1210.6 453.581
1403 0 67.1092 10.3861 697 90.7145 1211.06 450.824
1404 0 71.1 10.2813 731 92.8536 1211.69 447.436
1405 0 71.1607 11.4389 814 91.1683 1211.8 446.672
1406 0 74.0989 11.5116 853 90.9906 1211.51 443.484
1407 0 76.0997 11.0381 840 93.3119 1211.7 441.764
1408 0 79.129 11.8161 935 92.8139 1211.14 440.325
1409 0 81.1779 11.2715 915 109.438 1211.25 442.137
1410 0 85.0937 11.2817 960 111.143 1211.46 438.527
1411 0 85.0737 11.5664 984 109.179 1211.29 436.294
1412 0 89.1061 11.7276 1045 110.286 1211.16 435.545
1413 0 89.1022 11.6495 1038 113.341 1211.39 433.812
1414 0 94.0861 12.2122 1149 111.811 1211.97 433.434
1415 0 97.0734 12.0939 1174 110.03 1211.68 430.829
1416 0 100.095 12.1585 1217 111.201 1211.01 430.483
1417 0 101.101 12.0672 1220 113.952 1210.48 430.343
1418 0 106.172 13.4687 1430 113.99 1211.48 429.047
1419 0 107.17 12.3263 1321 117.883 1210.75 426.98
1420 1 59.1036 10.8792 643 106.91 1211.88 451.625
1421 0 59.108 10.6754 631 105.848 1211.29 452.38
1422 0 60.0509 11.8066 709 106.491 1211.13 447.678
1423 0 64.1281 12.2879 788 95.3185 1209.95 447.992
1424 0 64.0557 12.0988 775 95.56 1210.76 447.032
1425 0 67.0085 12.2522 821 106.862 1210.51 449.568
1426 0 68.1327 12.2702 836 105.066 1211.41 445.057
1427 0 70.1196 12.4216 871 105.558 1211.34 445.025
1428 0 72.1004 11.7753 849 104.882 1210.78 443.305
1429 0 76.1028 12.2203 930 99.486 1211.04 442.875
1430 0 78.1559 12.4623 974 98.7259 1210.87 441.781
1431 0 78.1839 12.2532 958 100.49 1210.66 440.096
1432 0 81.115 12.735 1033 96.9622 1211.28 439.365
1433 0 84.1307 12.6589 1065 97.0723 1212.12 437.486
1434 0 86.0834 12.3485 1063 97.5654 1211.71 437.266
1435 0 88.1155 12.5517 1106 97.5298 1212.17 434.262
1436 0 90.1286 13.0813 1179 95.5437 1211.36 433.086
1437 0 93.1593 13.01 1212 94.2682 1212.24 432.432
1438 0 95.1158 12.8896 1226 95.7259 1211.78 431.045
1439 0 99.1607 12.7571 1265 95.0443 1211.86 428.653
1440 0 101.117 12.1443 1228 96.4389 1211.51 428.226
1441 0 105.159 12.7331 1339 94.6512 1211.93 424.844
1442 0 107.144 12.7211 1363 93.818 1211.79 421.707
1443 1 54.1108 10.534 570 88.4386 1211.77 449.791
1444 0 56.0611 11.0059 617 85.1297 1211.83 449.546
1445 0 58.0713 11.5375 670 80.2761 1212.13 447.258
1446 0 57.0665 11.1799 638 86.7147 1212.52 447.053
1447 0 59.1192 11.1808 661 84.935 1212.2 446.779
1448 0 61.0333 11.1742 682 84.2962 1212.41 447.72
1449 0 64.1458 12.0351 772 84.3161 1211.29 445.83
1450 0 66.0937 12.3915 819 84.1331 1211.76 445.661
1451 0 69.0422 12.3113 850 85.3471 1212.07 444.749
1452 0 69.0467 11.6443 804 88.1505 1211.89 444.317
1453 0 70.0706 12.2305 857 88.014 1211.49 442.6
1454 0 73.068 12.0436 880 88.283 1212.56 440.853
1455 0 75.0569 11.8044 886 87.842 1212.26 440.805
1456 0 78.0891 12.268 958 87.8486 1212.04 439.004
1457 0 82.1135 12.5314 1029 85.5918 1211.78 438.645
1458 0 85.0836 12.8697 1095 84.0018 1211.93 437.356
1459 0 87.079 12.8619 1120 83.4018 1212.33 435.447
1460 0 88.0729 12.3307 1086 84.9042 1212.05 436.992
1461 0 92.1704 12.4009 1143 82.3622 1211.76 435.953
1462 0 93.041 12.3709 1151 81.7984 1212.12 433.213
1463 0 99.0799 12.6464 1253 81.4158 1210.89 430.629
1464 0 100.082 11.8202 1183 83.672 1210.55 430.989
1465 1 55.048 10.6271 585 84.9316 1211.36 451.68
1466 0 56.0656 11.5757 649 83.9923 1211.07 450.304
1467 0 58.0161 10.6177 616 72.6851 1211.67 443.425
1468 0 57.062 11.4437 653 78.4931 1211.88 441.83
1469 0 59.0468 10.9913 649 80.6163 1212.55 441.787
1470 0 61.0355 11.5179 703 79.2617 1211.91 440.919
1471 0 64.0473 12.2253 783 79.0166 1212.24 440.879
1472 0 65.0356 11.8243 769 76.6138 1211.58 447.884
1473 0 68.0818 11.5596 787 76.6798 1211.64 446.501
1474 0 68.0487 11.4036 776 78.6843 1211.23 445.028
1475 0 70.0678 11.2034 785 78.0318 1211.23 444.568
1476 0 72.0783 11.654 840 76.2345 1211.15 443.014
1477 0 76.0658 11.9765 911 75.944 1211.45 441.38
1478 0 78.0691 12.1175 946 76.2357 1210.57 439.846
1479 0 81.0925 12.3809 1004 76.4572 1211.06 438.791
1480 0 84.1114 12.7212 1070 76.786 1211.18 435.201
1481 0 86.1226 12.25 1055 77.8863 1211.51 435.284
1482 0 93.0887 13.9544 1299 79.5643 1211.17 432.512
1483 0 95.1206 12.9309 1230 82.1569 1211.27 430.215
1484 0 98.1522 13.693 1344 80.7143 1211.28 428.335
1485 0 101.075 12.4264 1256 84.1895 1210.87 429.42
1486 1 53.0236 10.2407 543 83.9558 1210.7 451.175
1487 0 56.0513 11.543 647 81.0479 1210.23 450.839
1488 0 57.0247 11.9597 682 81.7419 1210.61 450.15
1489 0 58.1064 12.4427 723 82.6791 1211.22 446.882
1490 0 60.0416 12.6746 761 78.5007 1211.36 447.499
1491 0 59.067 11.9695 707 75.7298 1211.86 447.494
1492 0 63.0609 12.2421 772 77.5427 1212.06 446.496
1493 0 62.0586 11.3602 705 78.7745 1211.99 444.631
1494 0 66.0802 12.1519 803 76.8431 1211.06 444.319
1495 0 68.0629 12.1211 825 77.1406 1211.49 443.779
1496 0 70.0944 12.4261 871 77.0482 1211.58 443.569
1497 0 72.0264 12.6898 914 77.6105 1211.99 443.591
1498 0 74.0432 12.4522 922 78.5217 1212.11 442.717
1499 0 77.0695 13.2348 1020 81.6735 1211.21 438.143
1500 0 79.0644 13.0653 1033 82.1791 1211.53 437.356
1501 0 83.1 13.5981 1130 82.1823 1211.14 436.642
1502 0 84.0791 13.6538 1148 83.8058 1211.11 436.196
1503 0 88.0638 13.4562 1185 84.3274 1211.02 434.188
1504 0 90.0716 13.245 1193 85.5046 1211.08 432.79
1505 0 94.1078 13.2933 1251 84.3805 1211.04 430.836
1506 0 95.0919 12.8612 1223 85.1137 1211.41 430.262
1507 0 98.0731 13.286 1303 83.5165 1211.69 429.203
1508 0 100.075 13.1702 1318 84.852 1211.53 426.56
1509 0 105.094 13.0264 1369 85.6077 1211.94 425.045
1510 0 108.083 13.5544 1465 86.0792 1211.73 423.614
1511 1 58.0448 11.3705 660 83.1864 1211.87 449.735
1512 0 61.0505 12.0556 736 80.5163 1211.89 448.753
1513 0 62.0826 12.1451 754 81.8568 1211.3 447.313
1514 0 64.0911 12.4666 799 84.1227 1210.8 446.942
1515 0 66.16 12.4849 826 85.299 1211.07 445.678
1516 0 66.0875 12.6499 836 86.5179 1211.75 444.322
1517 0 70.0656 12.7737 895 84.057 1210.9 443.061
1518 0 71.0722 12.3536 878 87 1211.55 441.356
1519 0 75.1112 12.8609 966 87.5569 1211.6 439.782
1520 0 77.1005 12.9571 999 86.6096 1211.6 439.293
1521 0 77.081 12.9474 998 89.4339 1211.67 438.9
1522 0 80.0958 12.7847 1024 89.9609 1211.99 437.889
1523 0 83.1409 12.4848 1038 90.3998 1211.95 437.545
1524 0 84.0961 12.4738 1049 91.5243 1212.13 435.783
1525 0 87.1171 12.7415 1110 90.6559 1211.76 434.877
1526 0 92.0979 12.845 1183 89.907 1211.82 434.301
1527 0 95.1476 12.4964 1189 90.1842 1211.86 432.191
1528 0 97.1239 12.0053 1166 91.4974 1211.68 431.455
1529 0 101.087 12.6327 1277 89.7948 1211.04 429.22
1530 0 104.098 12.2769 1278 90.2903 1211.49 428.174
1531 0 108.15 12.4735 1349 90.275 1211.71 427.476
1532 0 114.126 12.7578 1456 92.1319 1212.04 425.396
1533 1 60.1105 11.0463 664 92.8916 1211.88 451.554
1534 0 62.0583 11.2636 699 90.7668 1211.91 446.846
1535 0 63.0901 12.0621 761 91.7477 1213.07 447.1
1536 0 66.0714 11.8811 785 92.4064 1211.62 444.911
1537 0 68.1136 12.4645 849 90.3828 1211.43 445.071
1538 0 70.1021 11.8541 831 92.077 1211.49 442.892
1539 0 70.0478 11.1781 783 82.5147 1212.03 443.467
1540 0 74.1022 11.7945 874 81.8066 1212.04 442.157
1541 0 74.0282 11.266 834 83.4724 1211.86 443.506
1542 0 77.0454 10.9156 841 86.2675 1211.62 442.586
1543 0 80.0713 12.2766 983 83.591 1211.74 440.633
1544 0 81.0867 11.6295 943 86.4189 1211.74 438.303
1545 0 83.0442 11.2229 932 87.073 1211.35 437.631
1546 0 86.0527 11.5046 990 87.9929 1212.19 437.505
1547 0 90.0493 12.1933 1098 86.7158 1212.06 435.6
1548 0 91.0789 11.6602 1062 89.3917 1212.06 434.8
1549 0 96.1077 11.6744 1122 90.3788 1212.03 430.914
1550 0 99.1252 11.6721 1157 90.9067 1212.17 430.334
1551 0 100.106 11.6476 1166 91.9914 1211.9 427.659
1552 0 105.09 11.6567 1225 89.631 1210.99 429.455
1553 1 56.0393 11.0994 622 88.4228 1212.05 452.169
1554 0 57.0654 10.7245 612 90.9183 1211.47 450.302
1555 0 60.1154 11.977 720 88.0056 1211.77 450.099
1556 0 62.0534 11.4418 710 83.0169 1210.91 448.627
1557 0 63.0751 11.0979 700 83.3029 1211 447.164
1558 0 65.059 11.6971 761 82.2694 1211.43 445.543
1559 0 64.0661 11.0043 705 86.9759 1211.18 445.684
1560 0 68.0414 11.9927 816 83.1777 1211.55 446.36
1561 0 71.0433 11.7252 833 83.2785 1211.28 446.086
1562 0 72.0288 12.259 883 83.6161 1211.52 443.912
1563 0 74.0365 12.1832 902 84.0909 1211.15 442.327
1564 0 80.0431 13.1929 1056 79.411 1211.5 439.719
1565 0 78.074 12.3985 968 84.0289 1210.55 439.482
1566 0 80.0784 12.3379 988 85.252 1210.92 439.148
1567 0 84.0897 12.7007 1068 85.7313 1211.16 435.816
1568 0 89.0966 12.9073 1150 84.5574 1211.44 434.579
1569 0 89.0622 12.4183 1106 86.3752 1211.74 433.231
1570 0 93.048 13.09 1218 86.4031 1211.34 431.179
1571 1 52.036 10.6657 555 88.6162 1211.46 452.897
1572 0 52.1225 10.6864 557 87.6086 1211.44 452.779
1573 0 53.032 11.5025 610 83.6262 1212.15 452.716
1574 0 55.0572 12.0239 662 83.9532 1212.87 452.181
1575 0 57.0837 12.1225 692 81.7442 1211.82 451.029
1576 0 58.0417 12.3187 715 82.4294 1211.28 448.813
1577 0 63.0476 11.2772 711 82.7553 1210.92 448.771
1578 0 63.029 11.8358 746 80.5764 1211.56 446.398
1579 0 66.0857 12.9529 856 75.2173 1212.16 446.536
1580 0 68.0709 12.9277 880 76.6602 1211.8 444.902
1581 0 71.0608 12.6511 899 74.7864 1211.72 442.798
1582 0 73.0805 12.0142 878 75.6708 1212.37 442.866
1583 0 75.1826 13.0748 983 74.1862 1212.87 442.172
1584 0 78.0436 12.8646 1004 76.7122 1212.89 441.417
1585 0 80.0616 12.94 1036 80.4768 1212.55 439.988
1586 0 81.0501 13.0783 1060 81.0406 1212.51 438.446
1587 0 85.1044 13.2426 1127 79.5537 1212.48 438.663
1588 0 87.107 12.9725 1130 80.0239 1212.11 436.545
1589 0 90.1262 13.0817 1179 78.8957 1211.7 434.73
1590 0 92.1179 12.5817 1159 83.2856 1211.72 433.298
1591 0 94.0735 12.6922 1194 83.9498 1212.47 433.048
1592 0 98.0463 12.6267 1238 85.1478 1212.37 431.092
1593 0 100.06 12.6324 1264 86.1566 1211.68 429.588
1594 0 104.058 13.1465 1368 85.655 1212.01 428.213
1595 0 107.133 13.3106 1426 86.1045 1211.95 428.13
1596 0 110.102 13.1696 1450 85.8352 1211.9 426.179
1597 0 114.077 13.0876 1493 89.7857 1211.41 421.612
1598 0 118.094 13.3284 1574 89.8208 1211.36 420.762
1599 0 122.119 13.1674 1608 89.2394 1211.51 418.476
1600 0 124.115 13.2538 1645 88.49 1211.06 416.537
1601 0 129.118 12.841 1658 89.8329 1211.5 415.476
1602 0 131.181 12.5704 1649 89.752 1210.71 412.746
1603 0 139.077 15.1571 2108 80.9369 1211.59 406.345
1604 0 143.126 12.8838 1844 87.7001 1210.88 409.608
1605 0 146.184 12.7853 1869 87.2809 1211.49 406.197
1606 0 150.36 13.0753 1966 86.4293 1211.11 402.85
1607 0 158.254 13.0676 2068 86.5063 1210.92 404.327
1608 1 89.1327 10.7929 962 81.7952 1211.38 440.798
1609 0 92.318 11.6337 1074 78.9376 1211.28 437.846
1610 0 95.1295 12.0257 1144 77.2552 1211.65 437.223
1611 0 100.22 12.1532 1218 77.2742 1211.59 435.297
1612 0 102.138 11.9054 1216 78.7023 1211.42 432.317
1613 0 106.165 12.2169 1297 85.707 1210.86 427.857
1614 0 108.201 11.6172 1257 78.9547 1212.08 424.882
1615 0 110.193 11.0261 1215 81.3959 1211.43 425.113
1616 0 116.201 11.7727 1368 81.606 1210.95 423.267
1617 1 64.1246 10.7915 692 81.078 1211.28 447.566
1618 0 65.1257 11.4394 745 81.0349 1211.3 446.047
1619 0 67.1178 11.6363 781 83.5775 1211.39 444.432
1620 0 70.1401 12.4038 870 80.5931 1211.04 443.734
1621 0 71.0915 12.4909 888 81.1014 1210.22 443.133
1622 0 74.05 12.7752 946 79.4979 1209.78 441.524
1623 0 77.1221 12.8887 994 80.5936 1210.71 440.218
1624 0 80.0922 13.2597 1062 80.4218 1209.98 439.73
1625 0 81.0379 13.0803 1060 81.3311 1209.89 438.11
1626 0 83.1241 12.7039 1056 81.9943 1210.62 437.736
1627 0 85.0518 12.6746 1078 82.2449 1210.47 436.343
1628 0 88.0754 13.1592 1159 81.2632 1210.22 434.937
1629 0 90.0782 12.7001 1144 84.5297 1210.09 433.809
1630 0 92.1022 12.0518 1110 86.9685 1211.05 432.981
1631 1 53.1245 10.6166 564 92.7358 1210.58 452.583
1632 0 52.059 11.2373 585 94.4427 1210.36 450.595
1633 0 58.0841 11.6555 677 91.5126 1210.38 450.264
1634 0 58.0797 12.3968 720 92.2944 1211.18 448.654
1635 0 63.0789 12.0643 761 92.4967 1210.78 447.736
1636 0 63.1192 12.5952 795 97.9987 1210.7 445.516
1637 0 65.0629 12.8952 839 98.5876 1210.29 445.108
1638 0 67.135 12.8547 863 99.9212 1210.48 443.838
1639 0 68.0717 12.9716 883 100.264 1210.44 443.189
1640 0 69.1431 13.219 914 100.701 1210.28 441.852
1641 0 70.1168 13.121 920 101.279 1211.3 442.121
1642 0 73.1756 13.2831 972 100.152 1211.18 440.622
1643 0 77.0736 14.1164 1088 96.0836 1210.95 439.903
1644 0 79.0292 13.6911 1082 96.6987 1211.91 439.958
1645 0 79.0288 13.3496 1055 100.53 1211.51 439.775
1646 0 80.1253 13.5288 1084 99.4557 1211.48 439.104
1647 0 85.0258 13.984 1189 95.841 1211.84 438.012
1648 0 87.037 14.2583 1241 95.4206 1211.83 437.184
1649 0 90.0836 14.4532 1302 94.6866 1211.81 436.113
1650 0 91.1606 14.458 1318 96.698 1211.48 433.756
1651 0 94.0892 14.3906 1354 96.8434 1211.27 432.761
1652 0 99.1375 15.0801 1495 95.0515 1212.29 430.513
1653 0 100.155 14.3278 1435 96.9101 1211.63 427.99
1654 0 105.102 14.0815 1480 93.8628 1211.53 423.862
1655 1 59.0692 12.1891 720 90.1222 1211.14 447.985
1656 0 59.1787 13.2987 787 85.7916 1210.42 447.732
1657 0 61.2623 12.8138 785 86.0369 1209.8 447.897
1658 0 64.1479 14.0457 901 82.8912 1209.89 444.667
1659 0 63.0593 12.7182 802 83.9451 1210.64 449.208
1660 0 65.0657 13.0022 846 83.3534 1211.18 448.246
1661 0 66.036 12.7809 844 84.981 1211.16 447.196
1662 0 68.0522 12.7549 868 85.4251 1211.28 444.485
1663 0 70.0401 12.8355 899 86.1802 1211.59 444.986
1664 0 74.1355 13.1651 976 84.4365 1211.62 442.501
1665 0 75.048 12.6319 948 86.0506 1212.03 439.732
1666 0 76.0308 13.192 1003 84.4806 1211.71 439.778
1667 0 81.1422 13.3223 1081 81.2803 1211.18 437.797
1668 0 83.095 12.8889 1071 83.3315 1210.82 436.862
1669 0 86.141 13.4547 1159 82.4202 1210.83 436.136
1670 0 90.0991 12.9191 1164 83.1778 1211.22 432.7
1671 0 93.2169 13.0663 1218 81.5452 1210.88 430.543
1672 0 94.1888 12.5917 1186 82.9452 1210.69 429.585
1673 1 51.1875 10.7253 549 81.051 1210.73 453.477
1674 0 53.071 11.9463 634 81.4085 1210.31 450.959
1675 0 55.2357 12.5824 695 81.3338 1210.54 449.856
1676 0 56.0622 12.5397 703 85.0896 1211.16 448.506
1677 0 60.0773 12.7003 763 84.7615 1211.39 449.396
1678 0 62.1164 12.9434 804 86.2114 1211.72 447.937
1679 0 63.0604 12.9875 819 88.7094 1211.54 446.928
1680 0 65.0414 13.0225 847 87.0413 1211.24 444.563
1681 0 66.1253 13.0661 864 87.0961 1211.55 443.557
1682 0 68.0717 12.6631 862 87.1032 1210.89 443.316
1683 0 70.1492 13.1149 920 85.9163 1210.82 441.635
1684 0 72.1263 12.9911 937 87.3938 1211.39 440.34
1685 0 75.1183 13.2192 993 86.2669 1211.11 438.902
1686 0 77.1294 13.432 1036 85.9324 1210.63 439.367
1687 0 80.1798 13.4947 1082 86.2828 1210.54 437.821
1688 0 83.1083 13.7411 1142 85.1874 1211.66 436.614
1689 0 85.1277 13.4739 1147 87.1351 1211.53 436.261
1690 0 87.1211 14.0265 1222 87.5728 1211.71 434.957
1691 0 89.0737 13.6965 1220 89.623 1212.22 433.786
1692 0 92.0672 13.892 1279 89.3636 1211.14 431.945
1693 0 94.1032 13.8146 1300 90.2931 1211.28 430.14
1694 0 98.1589 14.2524 1399 90.7641 1211.02 429.776
1695 0 102.113 14.2881 1459 90.7711 1211.34 427.42
1696 1 54.0658 11.3196 612 94.2173 1211.17 450.431
1697 0 58.0502 11.9379 693 88.9019 1211.7 450.668
1698 0 60.0265 12.861 772 87.3122 1212.15 449.543
1699 0 61.0303 13.2393 808 86.5619 1212.35 449.301
1700 0 63.0556 13.2264 834 84.0396 1212.21 449.011
1701 0 66.05 13.187 871 84.0115 1211.92 447.507
1702 0 68.0765 13.1764 897 84.8863 1212.24 446.45
1703 0 69.0676 13.5954 939 85.7806 1212.74 445.491
1704 0 70.1058 13.4939 946 87.149 1212.22 444.165
1705 0 70.0945 12.6544 887 89.7486 1212.07 443.893
1706 0 72.0641 12.4334 896 90.8828 1211.97 443.695
1707 0 75.1382 13.3088 1000 88.496 1212.42 441.218
1708 0 77.1246 12.6289 974 89.1088 1212.38 440.252
1709 0 79.0776 12.7849 1011 89.2048 1210.64 440.274
1710 0 82.0837 12.4385 1021 91.4182 1210.33 439.37
1711 0 85.0784 12.7882 1088 91.2298 1211.65 435.793
1712 0 87.0282 13.3405 1161 89.9948 1210.39 434.377
1713 0 92.0853 13.0531 1202 90.9401 1211.06 432.849
1714 0 95.0828 12.3787 1177 94.5344 1211.26 430.452
1715 0 98.0387 13.0255 1277 91.1668 1211.23 429.276
1716 1 55.0339 11.8472 652 94.6794 1211.73 451.342
1717 0 56.0341 11.8856 666 93.2072 1210.74 448.685
1718 0 57.1248 12.6565 723 89.9391 1211.15 452.155
1719 0 59.1924 12.9409 766 86.752 1211.51 451.819
1720 0 59.1046 12.0126 710 88.0817 1210.88 453.265
1721 0 59.1757 11.9982 710 90.6042 1210.66 450.934
1722 0 61.1921 12.2892 752 88.625 1211.02 449.827
1723 0 64.1905 12.4473 799 87.6033 1211.18 448.683
1724 0 66.1447 12.3819 819 88.1245 1211.16 447.112
1725 0 68.1375 12.2987 838 89.537 1211.81 444.444
1726 0 69.1306 13.0188 900 88.8789 1211.38 443.523
1727 0 71.0935 12.4765 887 91.2379 1211.46 441.537
1728 0 72.1157 12.785 922 92.3384 1210.89 440.586
1729 0 75.1132 12.1683 914 94.2856 1211.72 438.922
1730 0 77.1265 12.4471 960 95.3896 1210.86 437.338
1731 0 81.0431 13.1782 1068 93.514 1211.48 435.991
1732 0 83.065 12.8935 1071 94.6452 1211.11 433.817
1733 0 86.1294 13.3868 1153 92.7823 1211.13 433.088
1734 0 86.0565 12.3291 1061 95.7766 1210.55 431.645
1735 0 90.023 13.2077 1189 93.4348 1211.22 430.479
1736 0 92.086 12.8141 1180 93.6805 1211.31 426.764
1737 0 97.0978 12.9869 1261 91.7883 1210.72 425.686
1738 0 99.0326 12.8544 1273 88.2223 1211.11 423.205
1739 0 101.136 13.0517 1320 95.1235 1210.97 424.692
1740 0 106.12 12.8628 1365 95.3333 1211.52 425.062
1741 0 109.155 12.89 1407 94.5103 1211.87 422.205
1742 0 113.083 13.583 1536 91.9492 1211.67 421.307
1743 1 63.0293 11.7723 742 92.7183 1211.7 443.877
1744 0 63.0288 11.4709 723 90.4882 1211.81 439.079
1745 0 65.0251 11.6878 760 90.7697 1211.46 437.946
1746 0 68.0788 11.898 810 92.1728 1211.35 437.512
1747 0 67.0176 10.5644 708 84.3658 1210.41 436.575
1748 0 69.0408 11.5439 797 81.1343 1210.93 435.166
1749 0 71.0233 10.9964 781 81.84 1211.06 434.674
1750 0 74.0599 11.0046 815 82.8221 1211.34 433.995
1751 0 78.049 11.3134 883 81.9502 1211.47 431.515
1752 0 79.0517 10.8537 858 82.838 1211.3 431.458
1753 0 81.0358 11.2296 910 83.3385 1211.06 429.249
1754 0 84.0896 11.5948 975 83.7487 1211.45 426.869
1755 0 87.0764 11.5646 1007 83.0576 1211.39 427.206
1756 0 88.0324 11.7684 1036 83.6959 1210.98 425.083
1757 0 92.087 11.9887 1104 83.1277 1210.91 423.044
1758 0 95.0935 12.4088 1180 81.3475 1211.67 420.779
1759 0 101.107 12.739 1288 86.222 1211.15 425.2
1760 0 105.059 13.5828 1427 82.8276 1212.08 423.057
1761 0 109.197 13.4253 1466 81.543 1212.08 421.726
1762 1 62.0336 12.2514 760 83.3816 1212.55 445.051
1763 0 62.0718 11.0839 688 80.4433 1211.86 438.526
1764 0 66.0675 11.8969 786 85.6654 1211.25 443.953
1765 0 68.0956 11.9685 815 84.362 1211.49 442.956
1766 0 72.0982 11.8727 856 82.9358 1211.74 442.19
1767 0 72.0862 11.514 830 85.2711 1211.37 440.694
1768 0 75.1322 11.7526 883 84.7271 1211.76 438.597
1769 0 77.1247 11.9936 925 83.2919 1211.19 438.109
1770 0 80.0839 12.5743 1007 81.3287 1210.64 437.139
1771 0 83.0644 13.1344 1091 79.1879 1210.52 437.346
1772 0 86.1224 12.3777 1066 80.1004 1210.89 435.842
1773 0 87.0546 12.4979 1088 81.5827 1210.92 433.665
1774 0 90.1075 12.1965 1099 82.545 1210.69 432.843
1775 0 92.1315 12.8186 1181 80.8391 1210.42 431.61
1776 0 95.1125 12.6272 1201 81.0391 1210.59 430.573
1777 0 95.0629 12.4234 1181 82.5216 1210.75 428.358
1778 0 101.032 12.7088 1284 81.3069 1211 428.61
1779 1 56.0917 11.1603 626 77.2716 1210.98 449.537
1780 0 56.0891 11.4282 641 79.5491 1211.5 446.688
1781 0 55.0584 12.405 683 77.5242 1210.64 445.899
1782 0 59.0483 12.5152 739 75.0176 1210.33 445.7
1783 0 61.0797 11.7879 720 71.7694 1210.9 446.725
1784 0 62.0784 11.9848 744 72.9987 1211.39 444.562
1785 0 64.0885 11.9366 765 73.4693 1211.05 442.745
1786 0 66.0465 12.4761 824 74.6104 1210.79 442.998
1787 0 66.1086 12.2677 811 75.0802 1211.31 441.76
1788 0 69.0534 13.1492 908 73.609 1210.88 442.444
1789 0 72.0655 12.5441 904 72.9569 1211.5 440.804
1790 0 76.0531 12.7937 973 73.3433 1211.23 440.287
1791 0 75.157 12.6934 954 75.9686 1211.48 438.962
1792 0 78.0662 12.6815 990 77.2303 1211.27 438.117
1793 0 80.0508 11.8924 952 88.4601 1211.17 436.458
1794 0 86.0532 12.992 1118 84.9052 1210.97 435.809
1795 0 86.0647 12.2234 1052 86.7205 1211.07 433.866
1796 0 89.0313 12.7483 1135 86.6026 1210.9 431.537
1797 0 92.0721 13.0333 1200 86.4558 1210.69 430.904
1798 0 94.0754 13.0852 1231 85.2575 1209.94 429.888
1799 0 96.0635 12.4397 1195 85.8226 1210.41 427.923
1800 0 100.038 13.045 1305 83.4897 1210.68 429.174
1801 0 103.095 12.9007 1330 83.4662 1210.37 425.703
1802 0 105.13 12.9554 1362 82.9794 1210.67 426.239
1803 0 109.082 12.8986 1407 83.0121 1210.66 425.087
1804 1 58.035 10.5626 613 81.9217 1209.61 450.723
1805 0 59.0399 11.958 706 78.119 1209.82 449.023
1806 0 60.0132 11.7141 703 78.6686 1209.38 449.299
1807 0 62.0846 11.5004 714 79.1709 1209.86 449.423
1808 0 63.0946 12.1088 764 76.4332 1210.13 446.821
1809 0 63.0946 12.1405 766 132.351 1210.11 446.825
1810 0 68.0385 11.1995 762 77.6444 1210.29 445.003
1811 0 70.0657 12.2314 857 76.741 1210.93 442.767
1812 0 72.0229 11.9962 864 76.7546 1210.86 441.97
1813 0 74.0307 11.995 888 77.6532 1210.75 441.761
1814 0 77.0926 12.6731 977 77.3797 1210.93 439.689
1815 0 78.1337 12.1075 946 78.3076 1210.03 438.158
1816 0 82.11 12.532 1029 77.758 1210.66 436.661
1817 0 84.1258 12.1247 1020 77.8951 1211.08 436.9
1818 0 87.1735 12.5153 1091 77.418 1211.05 433.317
1819 0 89.1605 12.5168 1116 78.1317 1210.61 432.742
1820 0 91.1155 12.3689 1127 77.811 1210.5 431.303
1821 0 94.0913 12.3497 1162 76.9673 1211.24 428.785
1822 0 96.1135 11.6321 1118 77.1208 1211.08 422.979
1823 0 98.0695 11.3287 1111 83.3834 1211.4 426.442
1824 0 102.163 11.3054 1155 78.5273 1211.1 420.351
1825 0 104.126 11.6494 1213 79.1278 1210.81 422.587
1826 0 109.141 12.2777 1340 76.2642 1211.33 422.965
1827 0 112.09 12.722 1426 77.0463 1210.32 422.058
1828 0 115.15 12.6965 1462 78.9487 1209.75 420.317
1829 0 118.125 12.2582 1448 79.1443 1210.44 419.961
1830 0 122.124 12.2498 1496 79.8957 1210.48 416.999
1831 1 66.051 11.1883 739 75.4993 1211.09 445.549
1832 0 68.0317 11.3623 773 75.0492 1210.94 444.314
1833 0 70.0357 12.0653 845 77.5112 1211.16 442.167
1834 0 70.0931 11.3849 798 76.4424 1209.86 442.6
1835 0 70.0931 11.2993 792 141.13 1209.86 442.587
1836 0 75.0815 11.1878 840 80.9095 1209.97 440.405
1837 0 75.1745 12.0653 907 81.1036 1210.58 440.228
1838 0 80.088 12.1991 977 80.6162 1210.09 438.826
1839 0 81.1234 12.4502 1010 81.403 1209.5 438.257
1840 0 83.0886 12.0353 1000 82.511 1209.93 437.356
1841 0 87.0936 12.2053 1063 82.3293 1210.4 433.427
1842 0 89.0968 12.5706 1120 79.2768 1210.38 431.574
1843 0 89.1343 11.7127 1044 81.8525 1210.74 430.512
1844 0 93.0706 11.8727 1105 81.0534 1210.23 429.071
1845 0 96.1295 12.4624 1198 80.394 1210.3 427.906
1846 0 97.0913 12.2874 1193 79.8198 1210.36 425.322
1847 0 103.125 13.3139 1373 77.8128 1211.11 426.251
1848 0 104.147 13.3945 1395 77.466 1210.71 423.576
1849 0 107.121 13.228 1417 78.0106 1211.2 422.401
1850 0 110.173 13.1974 1454 78.4395 1211.41 420.638
1851 0 112.12 13.2001 1480 79.0797 1211.03 419.503
1852 0 116.121 13.2103 1534 77.6695 1210.99 417.221
1853 0 118.135 12.8666 1520 77.5533 1211.01 412.77
1854 0 124.081 13.4026 1663 79.5863 1210.9 411.963
1855 1 69.065 11.1055 767 73.0052 1210.51 438.314
1856 0 71.0966 11.3508 807 78.3482 1211.03 436.42
1857 0 74.0709 12.0695 894 72.1253 1210.04 436.106
1858 0 75.0642 12.416 932 78.0966 1210.85 434.293
1859 0 78.0498 12.5048 976 78.8289 1211.27 433.11
1860 0 78.1364 12.299 961 78.6681 1210.86 431.642
1861 0 81.0554 11.5477 936 80.0598 1211.21 431.012
1862 0 84.1096 12.0914 1017 76.7316 1211.57 429.637
1863 0 86.0271 12.1822 1048 75.3798 1211.24 428.487
1864 0 89.0581 11.7901 1050 79.779 1211.63 426.965
1865 0 89.0701 11.9681 1066 80.1088 1211.38 424.695
1866 0 92.0623 11.7312 1080 80.3768 1211.21 424.196
1867 0 95.0833 12.3786 1177 78.3713 1210.82 422.363
1868 0 99.0564 12.1547 1204 77.7384 1210.73 423.819
1869 0 102.12 12.0251 1228 78.5236 1211.13 421.419
1870 0 106.075 12.7834 1356 78.9004 1211.07 423.546
1871 0 107.049 12.8259 1373 77.6672 1211.22 421.928
1872 0 112.07 13.1971 1479 77.8147 1211.32 419.729
1873 1 60.1035 10.5318 633 74.5814 1210.54 448.344
1874 0 60.0807 11.368 683 75.1376 1210.15 447.334
1875 0 63.0653 11.5277 727 74.2889 1210.75 445.177
1876 0 64.0284 11.573 741 75.6208 1210.86 443.911
1877 0 65.0315 11.8097 768 76.3971 1211.89 442.44
1878 0 68.0211 11.8934 809 76.6712 1212.46 440.606
1879 0 69.053 12.4397 859 73.9464 1211.12 438.957
1880 0 70.0606 11.3045 792 76.745 1211.25 438.923
1881 0 73.0982 10.9715 802 76.5212 1211.36 437.696
1882 0 76.0846 10.8038 822 76.8625 1211.61 438.004
1883 0 78.2048 11.9941 938 75.6418 1211 435.724
1884 0 79.0713 12.1536 961 75.82 1210.56 435.045
1885 0 83.0644 11.9787 995 76.0764 1211 432.152
1886 0 84.0679 12.026 1011 76.452 1210.77 432.882
1887 0 86.0242 11.4735 987 78.4954 1210.91 430.208
1888 0 88.062 11.1626 983 80.8098 1210.89 431.945
1889 0 89.0445 11.7694 1048 82.4036 1210.84 429.124
1890 0 95.0654 12.949 1231 79.5703 1210.3 427.253
1891 0 94.0662 11.6833 1099 84.0318 1210.67 426.511
1892 0 99.1731 12.2211 1212 83.5924 1210.64 425.766
1893 0 101.11 12.7386 1288 84.3067 1211.27 425.922
1894 0 103.124 12.5674 1296 85.341 1211.23 424.714
1895 0 103.096 12.5126 1290 86.0659 1211.08 425.394
1896 0 106.112 11.8648 1259 88.776 1211.6 421.842
1897 0 111.084 12.9452 1438 86.767 1210.83 420.547
1898 0 115.141 13.1839 1518 91.2714 1211.19 417.231
1899 0 118.087 12.8634 1519 92.2172 1210.87 416.602
1900 0 123.198 12.6869 1563 89.9789 1210.82 414.916
1901 0 127.153 13.6528 1736 87.1624 1211.38 414.486
1902 0 132.164 13.3849 1769 87.2199 1211.7 414.235
1903 0 132.182 12.6114 1667 89.5651 1210.91 411.566
1904 0 137.178 13.2164 1813 90.1997 1210.51 410.61
1905 0 142.155 13.1687 1872 92.422 1210.73 409.447
1906 0 145.133 12.9468 1879 94.3236 1210.24 406.721
1907 0 149.135 12.9345 1929 95.2784 1210.2 405.67
1908 0 154.118 12.8992 1988 95.9562 1210.26 402.61
1909 0 157.138 13.0013 2043 96.6618 1210.23 399.887
1910 0 162.106 13.3802 2169 96.5454 1210.54 397.849
1911 0 167.212 12.9237 2161 98.6335 1210.09 396.059
1912 0 173.112 13.3844 2317 98.8118 1209.93 392.841
1913 0 179.169 14.0147 2511 99.9363 1210.31 392.571
1914 0 184.128 14.1369 2603 100.352 1209.79 389.41
1915 0 188.197 13.9109 2618 101.834 1209.97 387.265
1916 0 194.217 14.5507 2826 100.978 1210.06 382.961
1917 0 198.266 14.1275 2801 103.316 1209.78 380.721
1918 0 205.234 14.2423 2923 104.339 1208.92 375.585
1919 1 158.147 13.6266 2155 104.252 1209.47 402.824
1920 0 163.178 13.9786 2281 108.375 1209.17 399.739
1921 0 169.135 14.314 2421 105.362 1209.26 397.148
1922 0 174.258 14.7195 2565 106.699 1209.26 392.988
1923 0 177.168 14.3254 2538 109.19 1209.52 391.163
1924 0 183.214 14.3002 2620 104.413 1208.86 387.558
1925 0 186.119 14.351 2671 104.298 1208.97 384.128
1926 0 195.099 14.3978 2809 103.273 1209.5 380.445
1927 0 200.153 13.9593 2794 103.008 1208.79 377.47
1928 0 205.116 13.8507 2841 104.825 1209.32 374.369
1929 0 212.235 13.6877 2905 103.32 1209.58 372.282
1930 0 219.194 14.2157 3116 103.142 1209.52 369.508
1931 0 226.341 14.6019 3305 102.956 1209.61 359.728
1932 1 54.0652 13.4837 729 96.6434 1209.6 447.919
1933 0 55.073 13.473 742 98.2952 1209.92 446.371
1934 0 56.0478 12.6856 711 97.0675 1209.39 447.091
1935 0 56.0332 12.4212 696 94.4282 1209.15 447.777
1936 0 59.1633 12.8627 761 96.5099 1209.17 446.905
1937 0 60.0937 12.5803 756 97.9868 1209.65 446.485
1938 0 61.1156 13.6626 835 95.8802 1209.33 446.634
1939 0 63.1316 13.7491 868 95.7892 1209.73 444.725
1940 0 64.0786 13.2337 848 97.7217 1209.54 445.496
1941 0 66.0954 13.4049 886 96.6174 1209.94 444.931
1942 0 68.069 13.075 890 97.5214 1210.09 444.503
1943 0 70.0617 13.1456 921 96.7611 1209.86 442.781
1944 0 73.0928 13.6128 995 94.3005 1209.82 441.348
1945 0 76.0862 13.4059 1020 94.9539 1210.06 437.966
1946 0 79.0707 13.6713 1081 93.5097 1209.23 437.994
1947 0 81.1358 13.348 1083 94.2826 1208.69 435.828
1948 0 86.0888 14.0204 1207 90.6081 1208.7 431.997
1949 0 87.0727 15.2287 1326 84.6757 1208.89 432.259
1950 0 91.114 15.3434 1398 82.0901 1209.31 429.952
1951 1 49.0568 12.8015 628 90.3185 1209.15 451.43
1952 0 49.0564 13.5762 666 88.7447 1209.24 451.772
1953 0 52.053 13.102 682 89.2727 1209.31 450.676
1954 0 51.065 13.0814 668 89.1452 1208.62 449.048
1955 0 55.0649 13.6385 751 89.3369 1209.27 449.104
1956 0 55.0352 14.0637 774 88.0594 1209.09 448.199
1957 0 58.0665 13.8118 802 87.4402 1209.7 447.052
1958 0 59.1098 13.7202 811 88.6634 1208.7 445.001
1959 0 60.0142 14.23 854 86.6429 1208.76 444.893
1960 0 62.0447 14.3445 890 85.0202 1209.61 444.733
1961 0 63.0212 14.6617 924 85.0292 1209.2 444.002
1962 0 64.0365 14.1638 907 85.0761 1209.26 441.462
1963 0 66.1106 14.506 959 86.1835 1208.88 441.667
1964 0 70.1439 14.6271 1026 86.1852 1209.74 441.69
1965 0 72.088 14.8707 1072 86.8116 1209.25 439.396
1966 0 76.1072 14.8738 1132 86.2314 1209.65 438.816
1967 0 77.0844 14.5425 1121 89.851 1209.84 438.174
1968 0 81.0424 14.6713 1189 89.0429 1209.65 437.355
1969 0 83.0537 14.5328 1207 90.7896 1209.05 434.864
1970 0 85.0476 14.3332 1219 89.9631 1208.71 432.886
1971 1 41.1216 10.8459 446 90.0628 1209.01 454.666
1972 0 43.0684 11.7952 508 87.3406 1209.46 455.817
1973 0 44.0827 12.0002 529 88.4631 1208.42 453.656
1974 0 44.0341 11.9453 526 89.0894 1208.93 453.333
1975 0 46.0209 11.9511 550 89.3945 1209.25 452.011
1976 0 48.0331 12.3457 593 85.774 1208.78 452.356
1977 0 50.0282 12.2931 615 85.7626 1209.4 451.41
1978 0 52.0463 12.8924 671 85.0224 1209.39 451
1979 0 50.0469 12.5882 630 88.554 1208.77 449.832
1980 0 54.0468 13.3958 724 87.6298 1208.62 449.941
1981 0 54.023 12.7723 690 90.9478 1208.88 449.303
1982 0 56.0722 12.5909 706 90.8442 1208.86 448.688
1983 0 57.021 13.346 761 97.4534 1208.96 449.65
1984 0 62.0595 14.2927 887 92.9853 1208.48 448.643
1985 0 63.093 13.5039 852 96.9965 1208.82 448.509
1986 0 65.0476 13.6515 888 95.6926 1207.97 447.112
1987 0 66.0332 13.9173 919 95.0044 1208.55 448.346
1988 0 68.0316 14.1993 966 94.7805 1208.77 445.859
1989 0 70.2072 14.2436 1000 93.797 1209.14 445.721
1990 0 76.0768 15.8655 1207 86.9959 1208.94 442.325
1991 0 75.0276 15.1144 1134 89.5176 1209.09 441.901
1992 0 78.0394 13.301 1038 92.658 1208.77 439.608
1993 1 43.0412 11.5935 499 88.2024 1208.86 458.046
1994 0 43.0561 11.9147 513 87.7797 1208.96 456.971
1995 0 43.0932 11.8812 512 85.0078 1208.23 454.932
1996 0 44.0574 12.0298 530 80.4566 1209.29 455.947
1997 0 44.0154 12.3139 542 86.1513 1209.19 458.221
1998 0 47.0261 12.9715 610 82.5246 1208.8 458.333
1999 0 48.0054 13.4568 646 80.9412 1209.3 456.774
2000 0 50.0197 12.575 629 83.461 1209.28 456.351
2001 0 50.0164 13.0757 654 82.5199 1209.67 456.096
2002 0 51.0306 12.953 661 82.8351 1208.87 454.523
2003 0 53.0703 12.832 681 79.8297 1208.74 452.987
2004 0 55.0652 12.4035 683 81.9619 1208.89 453.081
2005 0 56.039 13.4371 753 80.7902 1208.62 451.54
2006 0 57.0375 12.5882 718 82.4582 1208.57 451.249
2007 0 61.0459 13.3834 817 80.2326 1208.56 449.891
2008 0 60.0617 12.7536 766 83.9269 1208.2 448.696
2009 0 64.1119 13.9912 897 79.5909 1208.52 445.445
2010 0 66.0213 13.5259 893 83.1109 1208.45 445.109
2011 0 67.043 13.2452 888 83.3086 1207.87 446.321
2012 0 68.0713 13.4859 918 84.7963 1208.4 444.883
2013 0 71.0821 13.2382 941 85.9107 1208.35 442.875
2014 0 71.0697 12.5089 889 88.4949 1208.21 441.438
2015 0 73.0439 12.8279 937 86.8399 1208.05 440.101
2016 0 75.0249 12.3026 923 86.9859 1208.18 439.336
2017 0 78.0364 12.7376 994 85.8863 1207.96 438.111
2018 0 80.042 12.3935 992 85.8407 1208.31 435.66
2019 1 41.0229 11.5789 475 87.4316 1208.79 453.962
2020 0 46.0408 12.1197 558 85.1254 1208.39 453.93
2021 0 46.0361 12.3164 567 86.8906 1208.82 452.132
2022 0 47.0397 12.4788 587 86.8365 1208.42 451.414
2023 0 48.0381 11.9072 572 89.2395 1208.27 450.981
2024 0 48.078 13.1245 631 87.5372 1207.99 450.507
2025 0 51.0552 13.1622 672 85.9688 1209.08 450.418
2026 0 51.0554 13.2013 674 86.3294 1208.03 448.267
2027 0 53.0246 13.3712 709 84.7433 1208.5 449.061
2028 0 54.094 12.7556 690 86.6913 1208.81 447.688
2029 0 58.039 13.9217 808 83.6163 1208.79 446.619
2030 0 57.0523 13.4964 770 87.3039 1208.48 447.679
2031 0 59.1497 13.6941 810 86.5062 1208.77 449.438
2032 0 61.0636 13.052 797 87.9749 1208.34 446.469
2033 0 62.1213 13.8922 863 87.2225 1208.67 446.644
2034 0 64.101 13.6503 875 86.744 1208.79 444.963
2035 0 65.1139 13.8066 899 87.4416 1208.12 443.236
2036 0 65.0725 13.3236 867 90.406 1209.02 443.371
2037 0 67.1107 13.1723 884 90.1538 1208.3 441.193
2038 0 70.074 13.7569 964 87.7988 1208.51 442.056
2039 0 73.1029 14.5001 1060 86.6179 1208.69 441.573
2040 0 75.1869 14.2844 1074 87.0596 1208.47 440.255
2041 0 76.1585 14.0234 1068 89.1573 1209.03 439.147
2042 0 77.2149 13.8704 1071 91.1914 1208.83 438.725
2043 0 79.0865 14.2629 1128 92.5319 1208.48 438.043
2044 0 81.1862 13.8078 1121 93.3747 1209.02 435.987
2045 0 83.1496 13.59 1130 93.0646 1208.85 435.894
2046 0 85.1769 13.5835 1157 93.2204 1208.64 434.449
2047 0 88.1304 13.2644 1169 94.2027 1208.84 432.522
2048 0 92.158 13.9 1281 93.1015 1208.78 430.502
2049 0 96.1504 13.2605 1275 94.3914 1208.6 428.813
2050 0 98.126 13.3094 1306 95.5031 1208.44 426.835
2051 0 104.111 13.7257 1429 92.5388 1208.6 424.19
2052 0 107.15 13.887 1488 94.5753 1208.49 426.27
2053 1 54.055 12.9128 698 97.0158 1208.65 450.516
2054 0 54.0348 12.751 689 98.4238 1208.97 450.464
2055 0 57.0134 13.0496 744 97.2688 1209.22 448.774
2056 0 57.026 12.7661 728 99.2981 1209.4 447.306
2057 0 60.0322 13.2262 794 98.0605 1209.92 445.603
2058 0 61.0421 12.6962 775 100.036 1209.81 444.85
2059 0 65.0345 13.1776 857 101.158 1208.89 443.249
2060 0 65.0436 12.9605 843 103.808 1208.49 442.281
2061 0 69.0241 13.488 931 101.159 1209.18 442.333
2062 0 74.0183 14.0911 1043 99.0125 1208.43 441.877
2063 0 76.0889 14.4173 1097 98.3765 1208.86 441.277
2064 0 77.0849 13.9197 1073 99.0019 1208.36 439.438
2065 0 80.0911 13.9716 1119 98.0456 1208.71 437.622
2066 0 82.1327 13.7095 1126 101.68 1208.86 437.686
2067 1 41.0326 12.9653 532 100.492 1209.02 457.784
2068 0 41.0285 13.2591 544 100.483 1209.16 456.91
2069 0 42.0185 13.5654 570 99.3404 1208.96 456.665
2070 0 45.046 13.5417 610 98.0426 1208.4 456.397
2071 0 45.009 13.5529 610 100.933 1208.59 455.628
2072 0 46.0538 13.8751 639 100.394 1208.73 454.067
2073 0 48.073 14.1452 680 98.3853 1208.34 452.813
2074 0 48.0617 14.1485 680 100.037 1208.41 451.335
2075 0 49.0451 14.0075 687 100.921 1207.98 451.917
2076 0 52.029 14.2613 742 101.524 1207.4 450.367
2077 0 52.0702 14.7109 766 102.377 1208.32 449.401
2078 0 55.1186 14.1694 781 102.113 1208.22 449.366
2079 0 54.1426 14.9974 812 101.733 1207.69 448.632
2080 0 56.0551 14.2895 801 104.059 1207.9 447.232
2081 0 57.089 14.6788 838 102.949 1207.71 447.328
2082 0 59.1038 14.7368 871 102.242 1208.2 446.892
2083 0 62.1059 14.91 926 100.714 1208.24 445.865
2084 0 62.1258 14.8891 925 101.681 1208.3 445.669
2085 0 62.1302 14.6628 911 101.334 1208.58 446.459
2086 0 66.091 15.1458 1001 98.976 1208.55 444.15
2087 0 68.0705 14.911 1015 99.6591 1209.38 443.871
2088 0 71.1002 14.8945 1059 100.603 1209.27 442.48
2089 0 72.0551 15.0024 1081 101.338 1208.61 441.858
2090 0 73.0637 14.1384 1033 103.754 1208.82 441.579
2091 0 73.1039 14.4999 1060 104.541 1208.58 440.209
2092 0 77.0875 14.4252 1112 106.397 1208.29 438.538
2093 0 80.0601 14.4142 1154 105.292 1207.62 438.188
2094 0 82.0885 14.5696 1196 104.302 1208.39 435.869
2095 0 84.0704 14.6425 1231 103.749 1208.39 434.408
2096 0 88.0565 14.661 1291 101.824 1208.55 433.77
2097 0 88.1004 14.1202 1244 104.241 1207.85 431.741
2098 0 94.0618 14.2247 1338 99.6779 1208.19 430.309
2099 1 49.0063 12.7943 627 107.619 1208.86 450.262
2100 0 52.0611 13.657 711 105.188 1209.28 448.453
2101 0 53.0939 13.7116 728 105.21 1208.89 448.516
2102 0 53.0357 13.0478 692 107.723 1208.8 447.884
2103 0 54.0534 13.0242 704 108.182 1208.15 447.768
2104 0 57.0442 13.4106 765 105.906 1208.54 445.373
2105 0 56.0576 12.7547 715 108.442 1208.17 445.817
2106 0 61.0874 13.1778 805 103.261 1208.06 444.194
2107 0 61.1954 13.4651 824 103.96 1208.54 443.9
2108 0 65.0321 13.4857 877 104.777 1208.71 442.551
2109 0 66.0565 14.1243 933 104.652 1208.54 442.148
2110 0 67.0416 13.9764 937 104.996 1209.25 441.228
2111 0 70.0587 13.4173 940 106.447 1209.61 438.581
2112 0 73.1155 13.8001 1009 101.498 1209.16 437.463
2113 0 74.1267 13.8277 1025 100.553 1208.99 436.96
2114 0 77.1028 13.9684 1077 100.175 1209.84 435.346
2115 0 81.0635 14.063 1140 98.6693 1209.58 433.922
2116 0 83.1376 14.0731 1170 98.7726 1209.1 433.98
2117 0 87.0383 13.7181 1194 99.8141 1209.1 432.296
2118 1 43.0104 12.5319 539 103.544 1208.34 451.894
2119 0 43.0296 13.1537 566 102.382 1209.91 451.549
2120 0 47.0174 13.3142 626 102.808 1209.38 450.666
2121 0 48.0389 12.9895 624 103.926 1209.01 448.54
2122 0 49.0088 13.4262 658 102.114 1209.81 447.614
2123 0 52.0265 13.224 688 100.547 1209.06 447.413
2124 0 53.0181 13.3351 707 100.649 1209.34 447.281
2125 0 54.0671 13.8531 749 99.3551 1209.65 445.535
2126 0 56.0694 13.6795 767 98.811 1209.24 444.928
2127 0 57.0469 13.7606 785 99.9834 1209.3 443.427
2128 0 59.0066 14.0323 828 100.312 1209.42 444.19
2129 0 59.0268 13.604 803 103.919 1209.82 443.975
2130 0 59.0335 13.6871 808 103.204 1209.91 443.974
2131 0 62.0341 13.283 824 104.096 1209.91 442.087
2132 0 64.0505 14.1139 904 101.86 1209.51 440.348
2133 0 65.0195 13.3806 870 103.615 1209 440.125
2134 0 68.0648 13.59 925 101.854 1209.31 440.512
2135 0 70.0372 13.8641 971 102.059 1209.54 438.895
2136 0 72.0564 13.5588 977 101.746 1209.72 436.547
2137 0 74.0975 14.3999 1067 98.7591 1209.32 434.761
2138 0 77.0359 14.0324 1081 97.4468 1209.59 434.52
2139 1 41.0427 11.5733 475 97.7663 1209.79 452.526
2140 0 42.0166 11.8524 498 96.7952 1210.26 451.458
2141 0 44.039 12.4435 548 95.4416 1209.75 451.088
2142 0 45.038 12.5005 563 98.5453 1209.77 450.409
2143 0 46.0289 12.6225 581 93.6626 1208.83 450.504
2144 0 48.0747 12.4806 600 94.0867 1209.32 449.868
2145 0 47.0221 12.8875 606 97.9984 1209.41 450.55
2146 0 50.0236 12.694 635 95.9701 1209.2 448.49
2147 0 50.0244 13.3935 670 99.0582 1209.34 447.267
2148 0 54.0353 13.6207 736 95.5679 1209.41 447.034
2149 0 53.0831 13.3187 707 97.6634 1209.75 446.542
2150 0 56.0216 13.709 768 95.5365 1209.85 444.882
2151 0 57.0335 13.6937 781 94.2074 1209.98 445.068
2152 0 60.046 13.9893 840 91.775 1210.42 445.167
2153 0 60.0813 13.4984 811 91.8952 1210.25 443.655
2154 0 60.0905 13.2633 797 93.1744 1210.48 443.494
2155 0 66.056 14.0033 925 87.9611 1209.99 441.307
2156 0 66.0469 14.2626 942 87.6964 1209.31 440.293
2157 0 70.0694 14.4143 1010 86.0584 1209.28 439.558
2158 0 71.0805 14.4343 1026 85.6482 1209.97 438.478
2159 0 74.0633 14.2851 1058 84.8147 1209.63 437.439
2160 1 38.0309 11.8325 450 93.9911 1209.39 455.113
2161 0 38.0509 12.1154 461 93.0629 1210.29 454.306
2162 0 41.0203 12.506 513 92.3411 1210.51 452.454
2163 0 40.0388 13.0124 521 90.2726 1210.6 452.443
2164 0 43.0169 13.2971 572 87.5507 1210.96 451.388
2165 0 42.0117 12.9012 542 90.2398 1210.74 451.234
2166 0 45.0478 13.0972 590 86.6814 1210.53 450.788
2167 0 44.0265 12.8332 565 87.6549 1210.02 450.543
2168 0 46.0934 13.451 620 85.5194 1210.55 450.763
2169 0 47.0682 13.7248 646 85.2214 1210.98 449.74
2170 0 46.1132 13.2717 612 88.5016 1210.45 449.206
2171 0 49.1333 13.209 649 87.8844 1210.78 448.978
2172 0 50.0483 13.1073 656 90.3887 1210.84 448.495
2173 0 52.0585 13.3504 695 89.4835 1210.7 446.859
2174 0 52.0489 13.2952 692 90.935 1210.92 448.763
2175 0 51.0495 13.0461 666 93.0556 1211 448.092
2176 0 52.0608 12.6967 661 94.4327 1210.79 446.722
2177 0 52.0606 12.6007 656 96.6387 1211.47 446.852
2178 0 53.049 12.988 689 96.135 1211.8 446.746
2179 0 54.0498 13.1175 709 95.567 1211.3 446.336
2180 0 56.0493 12.935 725 96.1821 1211.06 447.004
2181 0 57.0656 13.6685 780 94.3487 1211.38 445.85
2182 0 57.0749 13.5787 775 95.8594 1211.12 445.545
2183 0 57.1481 13.1938 754 98.3422 1211.56 446.542
2184 0 58.0868 13.411 779 98.4634 1211.29 445.772
2185 0 60.0973 13.4615 809 101.34 1211.26 445.157
2186 0 60.0806 13.8148 830 100.777 1211.54 446.04
2187 0 62.1751 14.234 885 98.7458 1210.27 443.843
2188 0 60.1496 13.5828 817 105.579 1210.16 444.218
2189 0 61.0425 13.892 848 102.856 1210.79 446.006
2190 0 63.056 14.2096 896 101.739 1210.61 445.048
2191 0 62.0916 14.2048 882 101.772 1210.71 444.432
2192 0 63.0569 13.9874 882 101.769 1210.54 444.223
2193 0 66.0334 13.8112 912 102.178 1210.94 445.139
2194 0 65.0247 13.5487 881 106.016 1210.25 444.451
2195 1 48.0346 14.0107 673 98.1218 1210.33 366.22
2196 0 49.0489 13.721 673 99.1397 1210.35 372.56
2197 0 52.0213 12.8409 668 105.269 1210.91 376.626
2198 0 53.0723 13.8114 733 104.703 1210.88 382.613
2199 0 57.0478 13.4449 767 104.194 1210.5 387.559
2200 0 57.0698 13.5799 775 105.205 1210.48 367.902
2201 0 59.0629 14.2899 844 103.447 1210.67 364.326
2202 0 62.0426 13.5713 842 104.384 1210.46 358.106
2203 0 64.0475 13.8023 884 102.974 1210.92 355.913
2204 0 65.0709 13.6774 890 104.402 1210.53 352.783
2205 0 67.0747 13.2092 886 105.29 1211.17 353.923
2206 0 69.2092 13.3508 924 105.736 1210.19 351.551
2207 0 72.1176 13.27 957 104.127 1210.91 350.708
2208 0 73.1128 12.3097 900 106.222 1210.34 347.963
2209 0 77.1022 13.0606 1007 102.089 1211.04 345.703
2210 0 78.0591 13.1567 1027 98.9854 1211.06 344.002
2211 0 81.1642 13.6637 1109 95.8368 1210.95 344.758
2212 0 83.1597 12.9149 1074 98.7263 1210.33 344.187
2213 1 42.1562 11.1965 472 93.4725 1209.49 372.339
2214 0 42.0969 11.1172 468 94.7735 1209.35 373.874
2215 0 44.0436 12.4195 547 91.4406 1209.69 374.455
2216 0 46.0244 11.6677 537 97.4283 1209.57 373.404
2217 0 48.0615 13.0042 625 90.6176 1209.96 369.979
2218 0 46.0476 11.7053 539 87.2319 1209.9 362.49
2219 0 47.0249 12.2063 574 90.3293 1209.55 366.141
2220 0 49.0534 11.5792 568 91.1197 1209.86 367.282
2221 0 51.0279 11.8367 604 90.3526 1210.02 367.25
2222 0 52.0633 11.2555 586 90.442 1209.56 367.375
2223 0 52.108 11.5721 603 90.3897 1209.91 367.313
2224 0 56.0876 11.9813 672 88.8184 1208.81 367.737
2225 0 57.0746 11.5463 659 89.1093 1208.77 368.514
2226 0 60.0629 11.6211 698 88.298 1208.65 370.362
2227 0 61.0977 12.1608 743 88.5962 1209.01 372.865
2228 0 64.2158 12.9096 829 96.9554 1209.42 379.61
2229 0 67.1406 13.1962 886 95.4898 1209.94 384.107
2230 0 71.2086 13.4394 957 95.2027 1209.41 385.732
2231 0 71.0872 12.9559 921 98.7763 1209.41 372.42
2232 0 74.1661 14.1844 1052 95.5048 1209.48 359.174
2233 0 77.1132 13.8757 1070 95.5458 1210.18 350.411
2234 0 79.0646 14.0265 1109 95.4445 1209.63 344.707
2235 0 81.1032 13.9699 1133 95.1677 1209.05 340.86
2236 0 83.069 13.555 1126 91.595 1208.54 339.155
2237 0 86.1178 13.8879 1196 88.5995 1208.17 340.874
2238 1 44.1029 11.7226 517 94.0271 1208.09 359.721
2239 0 47.0743 11.1526 525 92.3276 1207.98 358.364
2240 0 47.1812 12.1235 572 91.8217 1208.45 356.234
2241 0 49.0819 11.98 588 93.7925 1208.68 359.864
2242 0 51.0784 12.0599 616 92.0828 1208.18 358.106
2243 0 52.0482 12.9688 675 90.8741 1207.87 359.548
2244 0 53.0608 12.7212 675 89.8311 1207.7 364.849
2245 0 56.0493 13.0956 734 93.9292 1207.77 367.456
2246 0 58.0335 12.803 743 94.4832 1207.43 371.521
2247 0 57.0536 13.0754 746 94.9625 1207.85 374.22
2248 0 60.0545 13.6043 817 94.3501 1208.11 379.226
2249 0 59.0979 13.1308 776 97.5142 1208.21 382.487
2250 0 62.0745 13.2583 823 97.6902 1208.62 372.271
2251 0 56.0756 11.3953 639 103.274 1208.23 370.178
2252 0 67.1988 13.4824 906 97.3907 1208.24 365.56
2253 0 67.1064 13.3519 896 99.0692 1208.6 364.115
2254 0 70.2327 13.7258 964 97.1764 1208.9 364.747
2255 0 73.2504 13.4743 987 96.8571 1208.96 369.923
2256 0 73.0826 13.2042 965 95.6487 1209.19 374.209
2257 0 75.0574 12.9634 973 94.1891 1208.76 375.07
2258 0 77.2598 13.0598 1009 96.0505 1209.25 360.336
2259 0 79.2553 13.0212 1032 95.874 1209.33 358.516
2260 0 83.1606 13.1432 1093 95.5297 1209.52 356.696
2261 0 82.0399 12.4939 1025 88.5005 1209.96 356.331
2262 0 86.0852 12.7664 1099 87.8471 1209.46 358.601
2263 0 89.0815 13.0555 1163 87.3886 1209.46 353.878
2264 0 91.0931 12.866 1172 87.7278 1209.53 352.298
2265 0 92.1062 11.8233 1089 90.629 1209.27 348.328
2266 0 92.1201 11.3982 1050 91.52 1209.92 346.639
2267 0 94.1014 11.4451 1077 91.2312 1209.38 345.362
2268 0 96.1297 12.2231 1175 90.383 1209.42 343.053
2269 0 99.1152 11.8347 1173 90.5558 1209.74 344.005
2270 0 100.062 12.0925 1210 91.5504 1210.28 342.82
2271 0 103.101 12.3568 1274 92.0204 1210.32 343.059
2272 0 105.064 12.0879 1270 93.7425 1209.89 342.163
2273 0 106.067 12.0113 1274 96.1122 1208.93 342.371
2274 0 109.128 11.7293 1280 94.1578 1209.01 342.237
2275 0 112.08 11.9201 1336 93.6886 1208.46 341.793
2276 0 116.054 12.0289 1396 91.7679 1208.7 342.698
2277 0 117.103 11.4771 1344 94.0432 1208.98 343.543
2278 0 120.219 11.8617 1426 94.7482 1208.68 343.48
2279 0 124.209 12.5998 1565 94.2575 1208.98 344.38
2280 0 125.211 12.4749 1562 96.5986 1209.62 344.145
2281 0 130.48 13.3661 1744 95.1313 1209.24 343.677
2282 0 133.294 14.4268 1923 93.1342 1209.02 340.74
2283 0 132.41 15.0592 1994 90.7733 1209.33 341.057
2284 0 135.565 15.3506 2081 89.9899 1208.89 341.026
2285 0 136.412 15.4165 2103 91.3395 1208.66 341.301
2286 0 139.5 15.3835 2146 92.3299 1208.9 339.276
2287 0 139.34 14.6333 2039 96.0216 1208.87 337.664
2288 0 140.242 14.4678 2029 99.9192 1208.64 337.191
2289 0 141.278 14.7156 2079 103.3 1208.65 336.388
2290 0 141.228 14.8979 2104 104.433 1208.98 337.588
2291 0 148.324 15.9515 2366 98.6196 1209.03 339.766
2292 0 146.402 15.2047 2226 103.453 1209.45 338.274
2293 0 143.336 14.6928 2106 106.617 1209.08 338.032
2294 0 145.384 15.1804 2207 105.549 1209.47 338.826
2295 0 145.307 15.0647 2189 105.755 1209.28 340.047
2296 0 145.321 15.0082 2181 107.594 1209.05 335.988
