time division length width area intensity CMx CMy
0 0 66.0666 13.108 866 115.515 920.778 494.719
1 0 68.0232 13.2749 903 111.502 920.305 494.484
2 0 70.0607 12.6462 886 113.052 920.305 493.155
3 0 73.0507 13.429 981 107.871 920.357 493.033
4 0 74.0582 13.0708 968 107.796 920.96 491.227
5 0 78.0196 13.4197 1047 103.429 920.648 490.526
6 0 80.0346 13.4442 1076 103.466 921.049 487.951
7 0 83.0602 12.9183 1073 103.486 920.609 488.401
8 1 42.0297 11.825 497 103.753 921.523 506.992
9 0 43.0546 12.2171 526 103.397 921.445 507.029
10 0 44.0452 12.7369 561 100.651 920.504 506.601
11 0 46.0254 12.7756 588 102.724 919.646 505.631
12 0 48.0196 13.0155 625 100.269 920.126 506.146
13 0 48.0695 13.2933 639 99.3005 919.172 505.476
14 0 46.0332 11.9045 548 92.1624 919.624 505.681
15 0 46.0131 12.2791 565 91.6991 919.354 505.163
16 0 49.0666 12.5136 614 88.4251 919.829 505.44
17 0 50.0219 12.5145 626 88.0527 919.641 504.32
18 0 51.1223 12.9298 661 87.7262 919.648 503.507
19 0 51.0663 12.6698 647 90.575 919.839 503.889
20 0 52.0405 12.1444 632 90.826 920.472 503.658
21 0 57.0905 13.2947 759 85.4071 920.178 501.107
22 0 57.0477 13.2871 758 86.1834 920.174 499.817
23 0 57.0405 12.9031 736 86.6304 918.681 501.258
24 0 61.0343 12.7142 776 86.982 919.174 498.58
25 0 62.0622 12.5197 777 86.9176 919.566 498.467
26 0 64.0461 12.8189 821 86.4129 919.415 498.274
27 0 66.0503 12.6722 837 86.2855 919.589 497.836
28 0 67.0397 12.4553 835 88.9904 920.036 495.742
29 0 69.056 12.8881 890 87.9607 920.26 495.053
30 0 71.0966 11.7165 833 90.9568 919.752 494.941
31 0 72.0379 12.5489 904 89.5 920.135 492.201
32 0 75.0241 12.4627 935 89.108 920.167 493.376
33 0 80.0374 12.8815 1031 86.6634 919.225 490.691
34 0 80.0836 12.9365 1036 87.1535 918.307 490.774
35 0 84.0643 12.8235 1078 86.7904 918.686 488.883
36 0 87.1521 13.0117 1134 86.5044 918.978 488.4
37 0 91.0664 13.0674 1190 85.8378 918.648 484.609
38 0 92.1075 12.6157 1162 86.636 918.399 482.04
39 1 49.0607 10.9252 536 86.5466 918.836 501.56
40 0 51.0671 12.0234 614 84.6384 918.407 500.208
41 0 53.0844 13.3184 707 85.4413 918.409 502.264
42 0 54.0717 12.6314 683 88.1054 918.004 500.534
43 0 56.0296 12.9396 725 86.4414 918.212 502.923
44 0 58.0334 12.6996 737 86.7815 918.273 500.917
45 0 61.0193 12.8484 784 87.8903 917.931 500.115
46 0 61.1232 12.892 788 89.3997 917.981 499.053
47 0 65.0217 13.0264 847 88.6198 917.642 497.037
48 0 67.1091 13.0981 879 89.2651 917.838 495.925
49 0 69.0417 13.0211 899 87.6251 917.926 496.55
50 0 72.0615 13.3636 963 87.3873 918.793 493.611
51 0 74.0498 13.2208 979 89.1267 918.436 492.003
52 0 76.0628 12.9893 988 90.2389 918.942 491.409
53 0 79.0385 13.3606 1056 90.0682 918.967 488.936
54 0 82.1109 13.701 1125 89.56 919.107 489.909
55 0 84.0916 13.2475 1114 91.5485 918.972 487.104
56 0 87.0598 13.8755 1208 90.9346 918.754 485.154
57 0 90.0905 13.6085 1226 93.0204 919.047 483.24
58 0 93.0927 14.1257 1315 91.8411 918.278 483.04
59 0 94.0752 13.6168 1281 94.6948 919.169 480.673
60 0 97.099 13.9239 1352 94.5754 919.393 479.394
61 0 101.062 13.5065 1365 96.2696 919.31 478.853
62 0 104.117 13.8498 1442 95.8828 919.205 476.223
63 0 110.151 13.9808 1540 94.7851 919.258 474.429
64 0 111.096 14.258 1584 95.9564 919.105 470.621
65 0 116.106 14.1594 1644 95.4471 918.504 470.431
66 0 117.13 13.4979 1581 97.6306 918.51 467.167
67 0 122.135 13.788 1684 97.5778 917.69 465.632
68 0 125.092 13.4861 1687 99.1482 918.35 463.872
69 1 70.0215 10.7824 755 90.6728 918.509 493.225
70 0 72.1158 11.8143 852 90.608 918.962 493.231
71 0 75.033 12.3945 930 92.6978 919.069 495.195
72 0 76.0276 12.2719 933 91.5648 919.811 493.642
73 0 78.0458 12.7489 995 91.792 919.304 492.095
74 0 82.0475 13.029 1069 90.8419 919.584 491.324
75 0 84.0605 13.2999 1118 92.7111 919.019 489.47
76 0 86.1191 12.773 1100 95.26 919.079 488.038
77 0 89.0679 12.4961 1113 94.9057 918.076 485.662
78 0 92.038 12.9077 1188 94.2222 919.092 484.436
79 0 96.0528 13.5759 1304 91.2469 919.03 481.15
80 0 98.095 13.2015 1295 92.9475 919.286 482.19
81 0 101.034 13.2035 1334 93.7669 919.802 477.897
82 0 105.034 12.5674 1320 94.4424 920.293 476.98
83 0 108.04 12.4953 1350 93.6378 919.995 474.192
84 0 112.075 13.2946 1490 90.6168 919.66 472.01
85 1 62.0436 11.234 697 87.34 919.733 499.244
86 0 64.0379 11.8836 761 84.1367 919.619 498.543
87 0 64.0406 11.7113 750 86.0293 920.048 496.304
88 0 63.1191 10.393 656 81.628 919.828 498.366
89 0 69.0527 11.5274 796 78.299 919.318 496.887
90 0 70.0598 11.4331 801 79.3895 919.472 496.767
91 0 71.0509 11.2455 799 80.5206 919.004 495.822
92 0 74.0867 11.1491 826 80.8099 919.271 493.062
93 0 78.1818 11.3581 888 81.8581 918.62 491.151
94 0 79.1198 11.1729 884 84.621 918.554 490.097
95 0 83.1118 11.659 969 83.9226 918.581 490.172
96 0 88.0913 12.3395 1087 83.943 918.638 486.152
97 0 90.0778 11.5567 1041 85.4448 918.272 486.05
98 0 92.0723 11.6322 1071 86.1354 918.157 483.777
99 0 98.0967 11.2644 1105 85.7747 918.088 482.27
100 0 101.043 11.886 1201 84.5296 917.998 480.139
101 0 105.084 11.4861 1207 85.029 917.93 477.239
102 0 104.152 10.9455 1140 86.7763 917.418 476.933
103 0 110.1 11.9619 1317 84.1944 917.976 475.199
104 1 56.0665 10.7373 602 87.6312 916.904 499.929
105 0 58.0631 10.833 629 86.5994 917.456 499.351
106 0 60.0247 10.9788 659 85.6282 917.789 499.974
107 0 60.0523 11.1236 668 85.762 917.835 497.184
108 0 63.0605 11.6713 736 84.4959 917.731 495.952
109 0 63.085 11.3498 716 86.3631 917.814 494.904
110 0 68.0407 11.8899 809 84.351 918.268 495.002
111 0 69.0582 11.7437 811 85.222 917.741 492.836
112 0 70.0613 11.7468 823 85.5298 917.7 493.173
113 0 74.0839 12.0269 891 84.7217 918.131 492.754
114 0 75.0356 11.9277 895 85.8961 917.552 490.678
115 0 75.0411 11.9535 897 127.594 917.575 490.538
116 0 79.0241 11.6294 919 87.1295 917.236 488.506
117 0 80.0764 11.6888 936 88.031 918.255 487.631
118 0 81.0352 11.1186 901 89.4573 917.802 486.152
119 0 87.0604 11.2566 980 89.0194 917.761 484.593
120 0 88.0322 11.7798 1037 88.2729 917.794 485.446
121 0 89.12 11.8043 1052 88.5646 917.2 483.207
122 0 93.0696 11.3786 1059 88.2021 917.331 481.68
123 0 98.0924 11.8154 1159 86.421 917.052 481.081
124 0 100.071 12.1713 1218 86.1716 917.567 478.139
125 0 101.057 11.7855 1191 87.0168 917.311 478.206
126 1 55.0258 9.65001 531 82.8964 917.098 501.211
127 0 58.0475 11.3872 661 77.9682 917.248 502.268
128 0 58.0705 10.9005 633 79.1975 917.458 501.466
129 0 62.1207 11.3167 703 75.9132 918.317 500.201
130 0 62.0942 11.5148 715 76.7231 917.248 498.862
131 0 64.0381 11.54 739 74.866 916.985 496.31
132 0 66.0783 12.7273 841 72.6956 918.216 496.144
133 0 67.0674 10.7653 722 72.6219 917.132 496.274
134 0 68.051 10.3893 707 73.0622 918.103 498.284
135 0 71.1209 10.672 759 72.2635 918.121 495.357
136 0 71.1131 10.4763 745 73.4859 917.87 494.918
137 0 76.1086 10.9712 835 72.8647 919.675 493.311
138 0 79.1262 10.5275 833 74.2209 918.786 492.385
139 0 80.1395 10.8436 869 74.5293 917.644 490.375
140 0 85.2025 11.4668 977 72.9887 917.561 490.156
141 0 86.1253 11.0188 949 74.2392 917.598 489.096
142 0 89.1479 11.666 1040 73.7894 917.572 487.895
143 0 92.1271 10.9088 1005 75.6846 918.24 485.173
144 0 97.1789 11.6795 1135 73.6969 918.222 483.125
145 0 98.1984 11.0389 1084 74.0129 918.442 482.109
146 0 101.248 11.6052 1175 76.8919 918.366 479.842
147 0 103.1 11.2124 1156 77.564 917.912 479.92
148 0 107.17 11.4398 1226 76.845 917.504 477.821
149 1 55.0784 10.8209 596 75.6728 917.384 503.047
150 0 56.1607 10.4878 589 74.5722 917.52 501.336
151 0 56.0496 10.5442 591 67.6734 918.161 503.854
152 0 57.0289 9.94234 567 68.5503 917.046 504.473
153 0 60.033 10.6608 640 67.2188 917.545 501.334
154 0 60.0201 9.68009 581 69.0809 917.47 501.446
155 0 63.0199 10.3618 653 68.1562 917.274 498.79
156 0 64.0498 9.50823 609 69.3481 917.332 499.519
157 0 67.0411 10.4712 702 68.49 917.546 496.249
158 0 70.0529 10.0781 706 69.3754 917.458 495.771
159 0 73.0254 11.0099 804 68.8532 917.281 493.908
160 0 74.0149 10.4168 771 70.5824 916.742 493.632
161 0 76.0478 10.283 782 73.546 917.077 489.349
162 0 78.0288 10.1373 791 74.646 917.575 490.118
163 0 81.0463 10.0313 813 77.0898 917.047 487.547
164 0 85.0711 11.3552 966 77.2629 917.542 485.714
165 0 88.0978 10.8062 952 78.0609 917.838 483.648
166 0 90.0741 10.9799 989 78.3266 918.21 481.239
167 1 46.0698 8.70419 401 73.6309 917.895 506.414
168 0 47.1064 9.12828 430 73.7279 918.349 506.481
169 0 50.2005 9.86047 495 72.0525 918.255 504.135
170 0 51.0466 9.67743 494 73.6437 918.186 503.765
171 0 54.0129 10.2568 554 72.1949 917.388 503.444
172 0 55.0417 11.4459 630 70.5206 918.075 501.746
173 0 57.0349 10.9757 626 71.508 918.372 501.415
174 0 59.1948 11.2341 665 79.9248 917.929 499.695
175 0 61.1177 11.1424 681 80.5815 917.577 498.564
176 0 64.081 11.0797 710 80.5 917.152 497.541
177 0 65.0829 11.7696 766 80.483 916.943 497.368
178 0 65.0626 11.22 730 81.8767 917.481 495.901
179 0 72.0887 12.4153 895 78.0089 917.921 495.954
180 0 73.1414 12.2092 893 80.2016 917.262 495.337
181 0 76.0663 12.7915 973 79.481 917.97 493.507
182 0 76.0663 12.8178 975 157.36 918.955 493.48
183 0 80.1368 13.0152 1043 81.5676 918.096 490.873
184 0 82.1143 13.2011 1084 82.3773 917.157 489.518
185 0 84.1366 13.2285 1113 82.7233 917.342 488.716
186 0 87.1491 13.299 1159 82.4098 917.786 487.021
187 0 90.1264 12.4381 1121 82.7217 917.49 486.965
188 0 94.1356 12.5882 1185 81.6473 917.039 483.852
189 0 97.402 12.2379 1192 81.1812 916.955 482.072
190 0 98.2207 12.5228 1230 82.8764 918.314 478.47
191 0 101.323 11.863 1202 85.7521 917.535 475.836
192 1 53.1566 10.7418 571 79.9107 917.541 502.722
193 0 56.1945 11.2644 633 81.5276 917.079 501.671
194 0 55.2386 11.4051 630 83.3079 916.536 498.217
195 0 58.1964 11.444 666 85.1111 917.309 499.198
196 0 60.0632 12.5035 751 83.1225 917.274 498.558
197 0 58.0767 10.6411 618 81.534 917.693 500.804
198 0 63.129 11.7696 743 79.1292 917.458 500.876
199 0 62.0376 11.1223 690 81.3464 917.574 499.783
200 0 66.0913 11.6657 771 79.9935 917.628 499.759
201 0 68.1475 12.0767 823 80.452 917.998 496.621
202 0 70.0883 12.0562 845 103.544 916.947 496.936
203 0 71.0407 11.8664 843 103.612 917.304 496.671
204 0 74.0754 11.5423 855 105.037 917.37 493.028
205 0 77.0306 12.5145 964 102.72 917.093 492.994
206 0 79.0552 12.0675 954 104.376 916.936 490.048
207 0 81.0621 11.9168 966 103.146 917.076 490.278
208 0 85.1103 12.0197 1023 101.238 917.083 489.152
209 0 87.0775 11.5529 1006 100.507 917.32 489.494
210 0 90.0235 11.6969 1053 100.787 916.826 486.008
211 0 92.0593 11.1776 1029 101.573 916.249 485.269
212 0 95.07 11.928 1134 102.551 915.836 482.276
213 0 98.0297 11.9556 1172 107.209 915.864 481.713
214 0 99.079 11.617 1151 108.783 916.463 480.43
215 0 101.092 11.9001 1203 103.444 915.438 480.139
216 0 106.054 12.1825 1292 102.938 915.614 478.168
217 1 54.0124 12.0528 651 101.3 915.186 502.559
218 0 57.0098 11.4542 653 100.054 914.879 502.06
219 0 57.0381 11.9219 680 99.9485 915.915 500.872
220 0 61.0151 11.8495 723 98.9156 915.201 500.252
221 0 63.0288 12.058 760 98.454 914.437 498.903
222 0 64.0451 11.648 746 100.071 914.631 498.534
223 0 66.0337 11.9636 790 98.9873 915.251 496.765
224 0 68.0365 11.5085 783 100.052 915.313 496.138
225 0 71.0484 11.64 827 99.2285 915.787 495.23
226 0 73.0383 11.8705 867 98.6805 915.627 494.83
227 0 76.0342 11.942 908 99.2885 915.63 492.803
228 0 75.0982 11.7579 883 102.386 915.572 491.048
229 0 79.1475 11.5481 914 101.633 915.782 491.306
230 0 83.1283 11.9213 991 101.74 915.133 490.008
231 0 85.1118 12.0312 1024 100.902 915.59 488.65
232 0 84.1055 11.4142 960 138.857 915.614 487.625
233 0 89.1283 11.4891 1024 101.552 915.707 485.079
234 0 92.1262 11.9619 1102 99.3203 915.534 483.955
235 1 46.0306 10.6451 490 92.3776 914.924 508.376
236 0 46.0179 10.3438 476 95.1282 914.538 506.792
237 0 48.0244 10.1823 489 94.5726 914.906 507.072
238 0 50.061 10.4672 524 92.1966 914.679 506.002
239 0 50.0719 10.425 522 84.9406 915.914 506.458
240 0 49.0757 11.0645 543 83.6151 916.015 505.494
241 0 52.0411 11.6062 604 82.3195 915.636 505.214
242 0 55.0815 12.1275 668 80.488 915.24 504.663
243 0 55.068 11.6583 642 83.3442 915.05 504.058
244 0 55.0699 11.2947 622 85.7926 914.775 502.773
245 0 58.0573 11.9193 692 85.2587 914.864 502.202
246 0 58.052 10.9729 637 89.6907 914.598 502.794
247 0 59.0606 10.7009 632 90.8845 914.549 503.337
248 0 61.0334 10.7318 655 90.9572 914.438 501.876
249 0 65.0725 11.6947 761 89.8016 914.699 500.29
250 0 65.126 11.2551 733 90.9454 915.371 499.988
251 0 67.067 11.1381 747 92.1124 916.055 498.523
252 0 68.0867 11.221 764 92.6453 915.988 498.344
253 0 69.0744 11.1474 770 93.2506 915.518 496.175
254 0 73.075 11.3445 829 92.2147 915.233 494.724
255 0 74.039 11.2373 832 91.8858 915.239 494.542
256 0 78.0622 12.0545 941 89.7662 915.463 492.604
257 0 79.0568 11.789 932 90.3315 915.398 493.473
258 0 81.0863 11.9256 967 91.484 916.058 488.692
259 0 83.0902 12.1555 1010 91.2327 915.472 489.358
260 0 85.0497 11.1582 949 94.7787 915.969 487.008
261 0 88.0279 11.6668 1027 95.1061 916.072 485.747
262 0 88.0583 11.6173 1023 96.1662 915.906 484.98
263 0 92.0793 11.729 1080 95.8343 915.817 484.075
264 0 95.0253 12.2283 1162 95.4217 915.698 482.018
265 0 96.018 11.5291 1107 98.9973 916.554 479.365
266 0 98.0666 11.2475 1103 100.398 915.871 478.968
267 0 103.094 11.8144 1218 99.2307 914.85 476.477
268 0 105.051 11.68 1227 99.445 915.219 475.056
269 0 108.074 12.1214 1310 98.8901 915.325 473.281
270 0 107.084 12.1961 1306 123.659 915.316 472.682
271 0 116.071 12.2942 1427 98.2306 915.532 470.362
272 0 119.097 12.2337 1457 99.6513 916.312 470.104
273 0 123.108 12.4768 1536 99.4674 915.906 465.548
274 0 129.149 12.9153 1668 99.0761 916.021 462.776
275 1 66.0763 11.6078 767 94.545 915.492 495.116
276 0 67.062 11.4372 767 95.5606 916.15 494.566
277 0 68.0612 11.8423 806 96.4988 915.115 493.589
278 0 71.0753 12.2687 872 96.0447 915.388 493.346
279 0 75.0543 12.4976 938 96.4691 914.93 492.71
280 0 77.051 12.7189 980 97.9031 915.043 489.814
281 0 79.0562 12.3836 979 98.8376 915.568 489.61
282 0 83.0413 13.2705 1102 94.9465 915.345 488.413
283 0 84.0715 12.5488 1055 97.7005 915.869 487.209
284 0 88.0224 13.2807 1169 94.6253 915.304 486.138
285 0 89.0548 12.2397 1090 97.7404 916.294 483.377
286 0 91.0429 12.1921 1110 95.9171 915.926 483.836
287 0 93.0282 12.6091 1173 93.8892 916.118 484.649
288 0 94.0486 12.1108 1139 96.5874 916.207 482.042
289 0 98.0225 12.1095 1187 95.4516 915.763 478.996
290 1 57.0179 10.6808 609 92.6897 915.982 499.79
291 0 58.0605 10.8508 630 93.1667 915.652 499.121
292 0 61.1028 11.3743 695 91.9755 915.288 499.304
293 0 62.0333 12.2515 760 91.2013 916.668 497.143
294 0 64.0873 12.0305 771 92.0921 916.515 496.729
295 0 65.0221 12.0421 783 91.2886 916.234 494.397
296 0 68.0518 12.2701 835 92.4132 916.553 495.908
297 0 70.0654 11.8889 833 90.6999 916.161 494.128
298 0 72.0336 11.4252 823 93.5759 915.435 491.54
299 0 75.049 12.6184 947 90.642 915.542 493.512
300 0 76.0796 11.9874 912 93.6294 914.942 491.739
301 0 79.0347 11.6405 920 94.6946 915.492 490.984
302 0 83.0719 12.3387 1025 93.4361 915.421 489.245
303 0 86.0374 12.4364 1070 93.814 915.78 488.039
304 0 87.0523 12.2225 1064 95.3177 915.861 486.797
305 0 91.0679 12.5071 1139 95.3161 915.278 485.326
306 0 94.0634 12.6617 1191 94.0823 915.526 484.654
307 0 96.0667 12.0854 1161 98.1576 915.09 483.751
308 0 99.1236 12.3079 1220 95.923 914.917 482.147
309 1 52.0172 10.5158 547 85.4333 914.567 506.539
310 0 54.0392 10.6959 578 83.1972 914.946 506.476
311 0 54.0166 11.1632 603 81.8988 915.896 505.224
312 0 58.0413 11.6986 679 79.1119 915.691 506.174
313 0 57.0294 11.9938 684 80.3962 916.076 504.287
314 0 60.0251 11.6285 698 80.0616 916.099 504.413
315 0 60.0228 11.8122 709 81.3498 916.121 503.811
316 0 61.0534 11.6947 714 80.9608 915.147 502.469
317 0 64.0848 11.9685 767 79.266 916.181 502.244
318 0 66.0703 11.291 746 80.0938 915.477 501.398
319 0 68.0636 11.5186 784 79.6926 915.268 499.723
320 0 72.0775 11.9871 864 78.8692 914.617 499.152
321 0 72.0396 11.6047 836 78.7237 915.145 498.48
322 0 76.1212 12.2305 931 77.4146 914.734 497.736
323 0 79.1245 12.4108 982 77.7658 915.536 496.244
324 0 82.044 11.957 981 87.108 915.585 494.591
325 0 84.0791 11.1086 934 89.7024 915.239 492.451
326 0 89.0784 12.1915 1086 87.0479 914.206 493.047
327 0 91.0987 11.976 1091 89.0257 913.988 491.409
328 1 45.0513 9.81103 442 88.2172 914.41 513.907
329 0 47.0833 10.4071 490 86.0306 914.076 513.545
330 0 48.0524 10.884 523 83.6654 913.446 513.004
331 0 50.0735 11.5031 576 82.526 913.554 510.234
332 0 53.1464 11.1579 593 79.661 914.16 508.894
333 0 53.1497 11.6275 618 81.5906 913.532 507.922
334 0 54.0271 10.1246 547 77.808 913.58 507.702
335 0 56.0171 10.7646 603 77.1625 913.783 506.746
336 0 60.0311 11.3774 683 75.6252 913.656 505.621
337 0 60.0978 11.7309 705 75.4326 913.532 505.414
338 0 64.0252 12.4951 800 74.6075 913.518 502.499
339 0 65.0772 12.2931 800 75.7362 913.498 504.262
340 0 67.035 12.4711 836 76.3995 913.572 502.289
341 0 67.0575 11.766 789 79.0558 912.973 502.901
342 0 71.0846 11.8732 844 81.0107 913.526 500.537
343 0 71.0707 12.1428 863 82.9142 913.081 501.093
344 0 75.1084 12.7682 959 81.049 912.392 499.162
345 0 76.0517 12.1891 927 84.7087 912.308 499.409
346 0 77.0493 11.6419 897 86.3389 912.356 497.419
347 0 81.0773 11.8159 958 85.1931 912.193 497.426
348 0 82.1115 11.8619 974 86.1283 912.044 494.572
349 0 86.0493 11.7607 1012 87.2757 911.54 493.854
350 0 89.0475 11.9375 1063 87.2164 911.976 492.674
351 0 90.0857 11.6112 1046 89.5382 911.903 490.882
352 0 94.1079 11.9862 1128 89.3147 911.381 488.624
353 0 98.0591 12.0947 1186 90.6071 912.053 487.046
354 0 101.132 12.0833 1222 90.712 911.694 486.35
355 0 104.094 11.9124 1240 91.5073 911.941 482.088
356 1 51.0368 9.75766 498 90.9458 911.747 510.143
357 0 54.0463 10.1395 548 91.0474 912.423 509.96
358 0 55.0368 11.0653 609 90.1461 911.693 506.087
359 0 56.0421 11.2237 629 88.8903 912.45 506.229
360 0 61.0712 11.1837 683 84.9649 912.674 504.938
361 0 62.0219 11.5927 719 86.2128 912.485 505.26
362 0 65.0374 11.6394 757 84.7556 912.312 503.443
363 0 61.0369 10.551 644 90.3323 912.654 505.261
364 0 66.0421 10.8567 717 89.5886 912.796 504.24
365 0 68.0848 11.1185 757 88.9472 913.221 502.707
366 0 69.0884 10.8701 751 91.6112 913.31 501.65
367 0 73.0262 11.4753 838 90.8628 913.777 499.658
368 0 76.1085 11.8384 901 90.5139 914.003 499.395
369 0 78.0691 12.2328 955 89.7644 914.249 498.563
370 0 79.077 11.8366 936 90.8622 914.126 499.007
371 0 82.0842 12.2801 1008 92.25 914.934 494.38
372 0 83.1339 11.4755 954 94.9581 914.525 496.425
373 0 85.0669 11.8495 1008 95.4663 914.395 494.374
374 0 89.0846 11.9886 1068 94.5084 914.36 493.251
375 0 92.0858 12.0431 1109 95.8242 914.695 490.855
376 0 97.0932 12.1224 1177 94.8692 914.652 487.193
377 0 100.208 12.3443 1237 94.4099 914.785 486.959
378 0 104.176 12.1909 1270 94.9087 914.782 484.128
379 1 57.063 11.3208 646 92.808 915.186 505.873
380 0 58.1724 11.0018 640 92.1812 914.552 500.819
381 0 58.1725 10.9158 635 89.4835 914.309 497.556
382 0 60.1061 11.2967 679 85.0324 913.891 504.969
383 0 60.062 11.6879 702 86.4843 914.44 504.03
384 0 63.1115 10.9647 692 82.9682 914.39 502.874
385 0 64.0225 10.1527 650 84.3354 914.343 502.029
386 0 67.0759 10.3614 695 82.8331 914.699 499.932
387 0 69.0571 9.80348 677 82.3678 914.168 499.902
388 0 72.0796 10.863 783 77.046 914.825 497.199
389 0 74.0729 10.5977 785 78.4739 915.059 495.763
390 0 76.0593 10.0842 767 80.9661 914.69 493.837
391 0 82.1077 11.6311 955 74.7832 914.555 493.34
392 0 85.0854 10.7539 915 77.1924 914.488 492.508
393 0 87.0993 11.2171 977 75.48 914.745 491.125
394 0 90.1832 11.2327 1013 76.5281 914.618 488.839
395 0 92.1701 11.4137 1052 79.2804 914.913 486.744
396 0 96.1175 11.5796 1113 80.1608 915.131 485.544
397 0 99.1556 11.7593 1166 79.5026 915.19 482.533
398 0 101.12 12.0451 1218 79.7365 914.961 481.833
399 0 104.128 12.1581 1266 79.8634 915.613 479.311
400 0 109.156 11.9645 1306 80.2052 914.693 475.763
401 0 113.117 12.5092 1415 78.6933 915.599 474.669
402 0 117.126 11.9871 1404 82.104 915.229 470.882
403 0 117.133 11.9351 1398 120.019 914.239 470.835
404 1 61.2191 9.5885 587 82.5758 914.87 501.007
405 0 60.1569 10.1235 609 76.7389 914.731 494.675
406 0 59.141 9.99308 591 78.5245 914.376 491.677
407 0 68.1333 11.0665 754 81.6605 914.263 497.137
408 0 71.1196 11.1643 794 79.8577 913.84 495.702
409 0 74.0882 11.7968 874 78.6693 914.464 494.883
410 0 74.1365 11.3979 845 80.2604 915.075 494.309
411 0 75.1508 11.4304 859 82.021 914.44 493.38
412 0 79.1309 11.3356 897 82.8082 914.242 491.223
413 0 83.0597 13.3639 1110 78.3649 914.186 490.459
414 0 86.1577 12.57 1083 80.2789 914.302 489.293
415 0 88.1186 12.6761 1117 81.1101 914.079 488.222
416 0 90.1945 12.473 1125 82.4169 914.048 486.618
417 0 92.1632 12.2717 1131 81.015 914.347 484.115
418 0 98.1417 12.6755 1244 78.2387 914.375 482.576
419 0 101.101 12.7497 1289 78.8704 914.282 482.381
420 1 53.0174 10.6569 565 76.3168 913.788 505.719
421 0 56.0498 11.2757 632 73.5728 914.633 504.835
422 0 57.0755 11.1607 637 72.6122 914.975 503.319
423 0 59.2055 11.6543 690 71.142 913.904 503.133
424 0 61.0742 11.5925 708 71.5438 913.734 503.179
425 0 60.068 11.154 670 73.4537 913.79 502.97
426 0 64.147 12.1596 780 71.2872 914.104 499.803
427 0 65.1023 11.4896 748 72.7741 914.16 500.166
428 0 67.1071 11.5934 778 72.6902 914.354 498.515
429 0 70.0652 12.0602 845 71.3929 914.425 497.789
430 0 74.0567 12.0853 895 70.1307 914.066 495.733
431 0 76.1288 11.9271 908 70.543 913.761 495.204
432 0 79.1071 12.047 953 71.425 913.906 493.166
433 0 81.0942 12.134 984 71.6291 913.656 492.206
434 0 84.0925 12.1533 1022 72.6654 914.239 490.463
435 0 88.1476 12.3202 1086 72.2551 914.008 491.089
436 0 92.0603 12.2311 1126 73.1501 915.11 487.414
437 0 95.0994 12.2503 1165 73.6918 914.504 485.625
438 0 97.0698 12.3622 1200 74.7175 914.017 484.006
439 0 100.093 11.6491 1166 81.6115 913.858 480.591
440 1 50.0724 9.48625 475 73.7705 912.933 509.444
441 0 49.1768 9.53701 469 75.5565 912.985 507.785
442 0 50.0668 10.5459 528 74.1402 912.784 506.466
443 0 51.0443 10.4223 532 75.438 912.882 506.16
444 0 52.1051 10.6516 555 76.1171 913.059 505.086
445 0 54.0955 10.8882 589 74.3464 912.942 504.188
446 0 57.1227 11.274 644 73.8106 913.087 503.09
447 0 58.1015 11.1013 645 74.0543 913.402 501.595
448 0 58.0711 11.5548 671 74.3353 912.958 502.2
449 0 61.13 10.993 672 72.9568 913.067 501.269
450 0 62.105 11.3839 707 73.6124 913.174 500.484
451 0 66.082 11.0015 727 74.1114 913.193 499.593
452 0 67.0889 11.0003 738 73.6084 914.104 498.05
453 0 68.0815 10.7224 730 73.7356 913.848 500.112
454 0 70.0611 10.2767 720 74.7222 914.249 497.847
455 0 73.0653 10.5248 769 74.4876 913.943 497.391
456 0 74.0784 10.2729 761 75.6426 915.025 496.737
457 0 77.1931 10.6227 820 74.4878 913.766 495.322
458 0 80.1243 11.3324 908 73.6244 914.028 492.775
459 0 81.1637 11.1996 909 74.4764 914.468 490.887
460 0 85.1378 10.6063 903 76.2957 914.563 488.483
461 1 43.0952 9.53702 411 76.6083 914.346 509.455
462 0 43.0196 9.85597 424 77.5637 914.368 508.894
463 0 46.0369 10.535 485 74.8144 914.746 508.495
464 0 48.0465 10.9269 525 70.8152 914.432 507.617
465 0 50.1112 11.5144 577 70.1369 914.213 506.951
466 0 45.0899 10.2018 460 76.1739 913.537 508.47
467 0 47.0896 9.81109 462 75.8182 913.773 509.167
468 0 48.0511 9.94774 478 75.0481 913.584 508.916
469 0 49.099 10.5094 516 74.5426 913.155 506.771
470 0 53.0987 10.7347 570 74.9526 914.809 506.277
471 0 54.057 10.8219 585 74.5094 915.003 505.627
472 0 54.0453 10.7132 579 75.2383 914.786 504.275
473 0 58.0444 10.3541 601 75.5175 914.339 503.301
474 0 61.064 11.1031 678 73.3392 914.226 501.139
475 0 61.0651 10.6935 653 74.4533 914.055 500.366
476 0 65.0604 11.1281 724 73.8619 913.815 498.659
477 0 65.0484 11.1763 727 125.627 913.823 498.713
478 0 69.033 10.9078 753 75.5657 914.801 499.118
479 0 72.0608 10.9075 786 75.9313 915.285 496.85
480 0 73.063 10.9084 797 76.2811 915.075 496.07
481 0 76.0769 11.1335 847 76.1122 915.12 494.731
482 0 78.0849 10.6807 834 77.7314 914.873 493.134
483 0 81.057 10.4741 849 76.8799 914.932 493.099
484 0 84.0596 10.8138 909 77.2068 914.896 491.337
485 1 45.0112 10.3085 464 77.5216 914.862 508.668
486 0 47.0144 11.0817 521 77.3647 914.735 507.906
487 0 47.0112 11.1888 526 77.8023 913.665 507.416
488 0 48.0133 11.1844 537 77.2737 913.691 506.173
489 0 52.0418 12.4515 648 74.4383 914.11 505.292
490 0 54.0116 12.2011 659 74.7572 914.055 505.551
491 0 54.0446 12.8227 693 72.0072 914.261 505.636
492 0 56.0259 12.5121 701 73.301 914.718 504.437
493 0 58.026 12.3048 714 74.0434 915.707 503.189
494 0 59.066 12.2236 722 73.5596 915.86 503.259
495 0 60.0358 12.2094 733 72.6016 915.326 501.213
496 0 60.0776 12.2342 735 73.5048 914.537 501.605
497 0 64.0625 12.5815 806 71.7953 913.926 499.417
498 0 66.0424 12.6585 836 71.8301 914.069 499.207
499 0 66.0936 12.1494 803 72.9552 914.841 498.148
500 0 69.0181 13.3009 918 70.585 914.626 496.81
501 0 73.0945 12.7506 932 71.7961 914.703 494.761
502 0 74.0533 12.2884 910 73.5846 914.774 493.8
503 0 77.0725 12.3909 955 73.91 914.703 494.619
504 0 80.1139 12.5322 1004 73.2898 914.528 493.283
505 0 82.1683 12.7421 1047 73.5817 914.881 491.734
506 0 87.0673 12.9325 1126 73.5995 913.884 489.537
507 0 89.0753 12.5063 1114 75.9246 913.301 487.574
508 1 49.1022 10.8956 535 77.9103 914.312 507.148
509 0 51.0795 11.6877 597 75.392 913.871 506.675
510 0 52.2276 11.0095 575 76.7009 914.261 505.826
511 0 53.0634 11.4015 605 76.1917 913.727 505.281
512 0 54.0255 11.0874 599 77.0935 914.289 504.087
513 0 57.0483 11.2536 642 74.4237 914.106 502.796
514 0 58.0277 11.1498 647 74.9583 913.175 502
515 0 61.0224 11.5204 703 74.7909 913.74 501.727
516 0 63.0746 10.8126 682 76.7507 913.402 500.098
517 0 65.0318 11.3637 739 74.7821 913.034 500.449
518 0 67.0576 10.3642 695 77.0662 913.432 499.033
519 0 69.0517 11.4842 793 76.483 912.823 498.276
520 0 71.0323 11.7834 837 76.9379 913.51 497.179
521 0 71.0284 11.0097 782 79.7263 913.446 495.353
522 0 75.024 11.6363 873 77 913.535 497.384
523 0 79.0549 12.2699 970 77.667 914.214 494.095
524 0 82.0497 12.9799 1065 76.8254 913.914 493.423
525 0 85.049 12.8279 1091 77.1347 913.122 492.105
526 0 88.0369 11.9041 1048 78.5258 913.95 491.824
527 1 45.0059 10.8652 489 74.8037 913.943 512.673
528 0 45.0668 10.9837 495 76.2929 914.069 512.279
529 0 47.0589 11.305 532 72.0113 913.87 513.359
530 0 46.0415 10.7077 493 74.6106 913.142 512.854
531 0 48.028 11.7223 563 72.6643 912.62 512.861
532 0 51.1011 11.2718 576 74.6979 913.03 511.76
533 0 51.0264 11.3667 580 74.2638 912.953 510.2
534 0 51.0781 11.2964 577 74.6915 912.211 509.338
535 0 54.0641 11.7453 635 136.227 911.968 506.921
536 0 57.0274 11.2577 642 74.5234 913.045 508.385
537 0 56.0585 10.1679 570 76.8579 912.633 508.404
538 0 57.0342 10.4148 594 77.1195 913.251 507.764
539 0 58.0237 10.1855 591 78.8562 913.076 506.809
540 0 60.0209 10.4297 626 79.5064 913.192 505.482
541 0 63.047 10.516 663 79.0875 912.75 504.265
542 0 65.0098 10.1062 657 80.2268 913.228 504.432
543 0 66.0968 10.0005 661 81.2224 912.924 503.903
544 0 69.0661 10.4103 719 80.8595 912.626 503.851
545 0 71.0721 10.7919 767 81.2647 912.804 501.381
546 0 74.044 10.7639 797 81.2685 913.02 499.301
547 0 77.0581 10.797 832 81.0577 913.161 497.526
548 1 42.0688 9.95986 419 81.389 912.943 515.635
549 0 45.1207 9.66297 436 80.4381 911.764 513.904
550 0 45.0577 10.8084 487 79.4558 912.072 513.392
551 0 47.0287 11.1209 523 77.738 912.344 512.105
552 0 48.027 11.1187 534 80.5543 912.522 510.901
553 0 47.0144 11.5071 541 84.3179 912.702 510.933
554 0 51.0393 11.932 609 79.9984 912.775 511.64
555 0 49.0196 11.628 570 82.4333 913.058 510.754
556 0 52.043 11.8172 615 82.6146 912.107 510.631
557 0 54.0762 12.2235 661 83.1921 911.752 508.8
558 0 55.0664 11.931 657 84.4718 911.724 508.44
559 0 58.0196 11.9098 691 83.3271 912.485 508.242
560 0 60.0457 13.1566 790 80.976 912.343 507.252
561 0 61.0908 12.3259 753 82.2351 911.62 505.05
562 0 63.0232 12.4557 785 84.3771 912.474 504.771
563 0 64.0656 11.4414 733 87.9413 912.401 504.282
564 0 66.071 11.7752 778 88.0977 911.648 503.788
565 0 68.1455 11.9891 817 87.8311 911.19 503.235
566 0 69.1072 11.663 806 89.4466 911.436 500.51
567 0 72.1311 12.1307 875 89.1074 911.166 500.499
568 0 72.0438 11.7429 846 93.0579 911.621 498.907
569 0 76.1625 11.6724 889 94.0607 911.715 497.907
570 0 77.0934 11.5963 894 95.7785 912.041 496.541
571 1 42.0743 10.0774 424 94.8396 911.663 516.677
572 0 42.0586 10.2476 431 93.3921 911.705 516.529
573 0 44.117 10.6988 472 87.8008 910.695 514.983
574 0 43.041 11.2683 485 88.6866 912.771 515.812
575 0 47.0144 12.1452 571 84.345 912.314 515.483
576 0 47.0415 10.6289 500 87.174 911.438 513.842
577 0 49.0202 10.9139 535 87.2953 911.944 514.336
578 0 50.0611 11.426 572 87.9004 912.54 513.542
579 0 51.021 11.5835 591 87.5939 912.029 512.276
580 0 51.0531 11.7133 598 87.5418 911.605 512.259
581 0 54.0264 11.9571 646 86.5851 911.52 511.271
582 0 56.0275 11.7621 659 87.5341 910.897 509.061
583 0 57.0339 12.2734 700 87.3057 911.74 508.846
584 0 58.0407 12.1466 705 89.217 912.424 507.973
585 0 59.0519 12.5314 740 88.527 912.795 506.593
586 0 62.0548 12.1344 753 88.8765 913.258 506.819
587 0 63.04 12.151 766 88.3407 912.963 506.189
588 0 66.0243 12.0259 794 87.3854 913.217 503.587
589 0 69.0782 11.7982 815 87.2932 912.437 503.897
590 0 69.0921 12.0564 833 87.5834 912.544 502.102
591 0 73.0447 11.623 849 87.808 912.575 501.737
592 0 74.1256 12.0606 894 88.1465 912.407 500.087
593 0 77.1119 11.7621 907 88.6009 912.676 498.181
594 1 40.0435 10.139 406 91.2217 913.054 514.374
595 0 40.0483 10.2626 411 137.708 913.049 514.433
596 0 41.2028 10.509 433 88.0878 912.45 510.388
597 0 45.0104 11.4862 517 93.3366 911.352 514.234
598 0 45.0218 11.7721 530 93.2358 911.296 514.306
599 0 44.0155 11.2233 494 88.1802 913.249 516.17
600 0 44.0168 11.0867 488 88.0635 912.643 515.707
601 0 45.0294 11.1039 500 88.15 913.122 515.662
602 0 48.0287 11.5556 555 84.8 913.15 515.011
603 0 50.0374 11.2716 564 85.1897 912.718 513.594
604 0 50.0171 11.0962 555 88.6108 913.58 513.463
605 0 52.0316 11.2816 587 87.1704 912.496 513.06
606 0 52.0246 11.2447 585 89.5897 911.371 510.554
607 0 55.0925 11.1994 617 89.4052 911.313 510.556
608 0 57.0806 10.6516 608 86.2697 911.535 511.304
609 0 59.0584 11.4124 674 84.3694 911.816 509.78
610 0 57.0513 11.1128 634 131.076 912.891 509.073
611 0 63.0433 11.1511 703 84.9104 912.593 509.76
612 0 64.0427 10.3056 660 85.1485 912.37 507.75
613 0 68.0336 11.0387 751 81.4834 912.305 507.706
614 0 69.0548 12.0194 830 81.1277 912.271 504.826
615 0 69.0856 10.4074 719 83.459 912.032 504.41
616 0 72.0716 10.6144 765 82.7098 911.982 502.494
617 1 38.0438 9.9622 379 83.7018 911.412 518.396
618 0 40.0388 9.99032 400 83.0275 910.718 517.962
619 0 41.0388 10.5997 435 83.1126 910.299 516.674
620 0 42.0091 11.0928 466 82.9549 910.281 515.876
621 0 43.0255 10.9702 472 82.6229 911.072 513.92
622 0 43.0101 9.60239 413 85.569 911.981 515.504
623 0 44.0082 9.92996 437 85.4806 912.485 514.522
624 0 44.0211 10.7221 472 81.3369 912.337 513.265
625 0 45.0185 10.6401 479 82.1733 912.787 511.883
626 0 48.0297 11.0765 532 80.921 912.316 511.37
627 0 47.0169 10.6983 503 82.2704 912.517 512.612
628 0 49.0168 10.7106 525 81.939 912.057 511.785
629 0 50.0308 10.1138 506 83.4032 912.449 511.034
630 0 52.0129 10.8819 566 82.3021 912.694 510.11
631 0 55.0344 11.1748 615 81.3854 913.307 508.951
632 0 54.0177 10.3114 557 83.3824 913.224 509.352
633 0 57.0711 11.3367 647 81.9088 912.957 506.372
634 0 60.0382 10.6266 638 83.5674 912.655 505.027
635 0 60.0337 10.9938 660 83.6379 913.409 504.273
636 0 63.0594 11.0689 698 84.1318 913.334 503.732
637 0 63.0479 10.9599 691 85.5456 912.85 503.582
638 0 63.0442 10.4688 660 88.7348 912.942 501.508
639 0 69.1056 10.7372 742 89.3801 912.286 500.353
640 0 72.0655 11.7809 849 88.5536 912.373 498.796
641 0 74.073 11.6372 862 89.8109 912.747 498.639
642 0 76.0929 11.5911 882 89.5714 912.931 497.137
643 0 79.1777 11.3163 896 89.3471 913.5 494.946
644 1 40.089 10.4767 420 88.8619 913.505 513.11
645 0 42.12 11.5859 488 86.6004 913.752 513.461
646 0 42.0339 11.3956 479 87.4551 914.161 512.154
647 0 42.0163 9.92471 417 80.8393 912.472 514.165
648 0 42.0262 10.3031 433 80.8799 913.501 513.721
649 0 43.0348 10.7123 461 81.2278 913.354 512.625
650 0 46.0336 10.5575 486 81.7119 913.014 511.955
651 0 46.1143 10.4523 482 82.4357 913.886 511.359
652 0 48.0276 10.5564 507 82.1637 914.185 509.448
653 0 50.0405 10.1118 506 82.583 914.146 508.698
654 0 50.0489 10.7295 537 81.8212 914.142 506.885
655 0 53.0627 10.252 544 82.9614 914.107 507.438
656 0 55.0624 10.0068 551 83.1107 914.169 506.495
657 0 56.079 10.5744 593 82.425 913.917 506.105
658 0 58.1546 11.2459 654 82.3777 913.72 503.934
659 0 60.0725 11.1199 668 82.1961 913.758 504.22
660 0 64.2139 11.0724 711 81.8903 913.426 502.776
661 0 65.173 10.9401 713 81.2328 913.571 501.418
662 0 67.1731 10.8079 726 83.4848 913.422 500.292
663 0 71.1387 11.4003 811 81.6954 914.048 498.596
664 0 72.0635 10.6018 764 84.7134 914.198 496.035
665 0 76.0967 11.3277 862 84.7517 913.95 495.876
666 1 38.0022 10.7625 409 86.2836 913.79 514.949
667 0 39.0473 11.1403 435 86.1517 914.198 514.593
668 0 41.0784 10.7356 441 86.4172 911.785 513.844
669 0 43.0157 12.2049 525 84.7962 911.398 512.402
670 0 39.0285 11.0688 432 79.75 911.84 514.493
671 0 41.0344 11.1614 458 79.559 912.28 513.338
672 0 41.1232 10.5537 434 79.523 913.191 514.138
673 0 45.0353 11.1024 500 77.17 912.62 511.448
674 0 45.058 10.8971 491 77.8921 913.293 512.128
675 0 44.0545 10.5097 463 79.0972 912.987 509.847
676 0 45.0635 9.56429 431 80.7749 912.545 510.633
677 0 48.0733 10.1512 488 78.1516 912.258 508.705
678 0 49.0334 10.2379 502 78.6275 912.476 509.309
679 0 48.0491 10.8014 519 79.8748 912.152 509.098
680 0 52.0843 10.8862 567 78.2275 911.834 506.952
681 0 53.058 11.1953 594 78.1734 912.495 507.022
682 0 53.0359 10.2006 541 81.2606 912.63 506.425
683 0 56.1014 11.1049 623 78.9647 912.613 504.586
684 0 57.0349 9.76595 557 79.5727 913.709 505.65
685 0 58.0573 9.97291 579 79.2228 913.522 504.231
686 0 60.0553 10.124 608 80.7105 913.905 504.53
687 0 64.1009 11.3571 728 76.9286 913.293 503.172
688 0 66.0969 11.3016 747 78.3012 913.511 502.41
689 0 69.1013 11.9824 828 76.7669 912.861 502.412
690 0 72.1181 11.4812 828 77.0858 913.289 502.006
691 0 73.0849 10.8641 794 78.84 913.596 501.384
692 0 74.1372 10.3592 768 80.0078 913.408 500.776
693 1 40.0426 10.3889 416 76.6923 913.188 517.43
694 0 40.0222 10.9439 438 76.4247 913.112 517.132
695 0 42.0073 9.83162 413 76.5061 912.62 517.034
696 0 45.0573 11.097 500 77.654 912.41 516.05
697 0 46.0137 11.9095 548 82.1095 912.124 514.175
698 0 43.0734 10.2848 443 75.4921 911.998 517.758
699 0 45.0371 11.0132 496 75.1714 912.73 515.887
700 0 48.0571 10.4043 500 75.198 912.496 514.796
701 0 49.1313 11.3777 559 72.8014 912.714 514.272
702 0 49.0503 11.0906 544 74.0294 913.195 513.642
703 0 51.0684 10.7895 551 75.0327 912.8 512.069
704 0 53.0669 10.7035 568 74.4648 913.13 513.725
705 0 56.0544 10.9715 615 74.1837 912.524 511.95
706 0 54.061 10.4882 567 76.0194 913.042 510.727
707 0 58.0413 10.4064 604 76.6407 912.42 510.262
708 0 61.0336 10.3713 633 77.3918 912.363 509.213
709 0 63.0392 10.7076 675 77.357 912.018 507.815
710 0 64.0126 10.2324 655 78.9252 912.632 508.905
711 0 66.0214 10.5269 695 79.8835 912.498 507.494
712 0 67.0567 10.2302 686 80.9315 912.456 507.045
713 0 72.1123 10.553 761 80.0223 912.784 505.188
714 0 72.105 10.9008 786 79.7684 912.221 504.387
715 0 74.0292 9.77993 724 80.7141 913.007 504.79
716 0 78.0283 11.0088 859 78.4296 913.112 502.881
717 0 79.0579 11.1564 882 79.2834 912.702 499.709
718 0 84.1244 11.3166 952 79.3718 912.061 499.057
719 0 83.0908 10.5066 873 82.4387 912.647 497.65
720 0 89.0563 12.1159 1079 79.4578 912.667 495.772
721 0 91.111 11.4695 1045 79.3761 912.431 492.903
722 0 94.1088 11.2529 1059 80.7516 912.596 492.254
723 0 96.0908 11.1249 1069 82.2049 912.29 491.621
724 0 100.091 11.2598 1127 81.4783 912.987 490.101
725 0 104.086 11.5577 1203 80.9069 912.896 488.225
726 0 106.182 10.6704 1133 84.9894 912.045 485.293
727 0 107.12 10.4556 1120 87.1661 911.621 481.456
728 0 115.1 10.3041 1186 86.3904 912.251 482.845
729 0 118.171 9.59625 1134 87.6393 911.827 480.249
730 0 122.079 9.98534 1219 87.0172 911.979 477.321
731 0 128.154 10.5654 1354 86.308 911.89 476.153
732 1 66.0341 9.40423 621 80.4122 911.552 507.267
733 0 70.08 10.7449 753 78.9482 911.702 506.019
734 0 71.0472 10.3452 735 81.6571 911.344 503.2
735 0 75.0564 11.045 829 80.7937 911.497 500.308
736 0 76.0437 11.2961 859 79.0175 912.066 500.433
737 0 80.1784 10.6263 852 79.1338 912.21 499.64
738 0 81.0932 10.827 878 79.7278 912.528 495.845
739 0 87.1516 11.0841 966 77.0476 912.194 495.522
740 0 90.168 11.3898 1027 76.1061 912.349 493.241
741 0 92.1768 11.2827 1040 76.2375 912.533 489.954
742 0 96.1145 10.4875 1008 78.505 912.399 488.2
743 0 100.082 11.1009 1111 77.1521 912.833 486.602
744 0 103.085 10.3603 1068 77.4775 911.528 484.274
745 0 108.156 11.5389 1248 73.637 912.248 481.764
746 0 111.142 11.049 1228 74.7785 911.889 480.638
747 1 58.0898 10.0534 584 75.1524 911.947 507.024
748 0 60.1463 10.7239 645 80.4388 911.984 506.129
749 0 61.0705 10.9546 669 73.4619 911.934 504.088
750 0 62.1202 9.01478 560 73.5 913.025 504.8
751 0 63.0308 9.59849 605 72.5372 912.833 502.44
752 0 65.0383 9.24071 601 73.9684 912.845 500.07
753 0 69.1074 10.2739 710 72.6056 912.841 499.611
754 0 72.1083 9.65214 696 73.1164 913.043 497.579
755 0 76.0486 9.24409 703 75.037 912.387 495.526
756 0 80.0984 11.0739 887 72.6505 912.936 496.807
757 0 85.0585 11.6155 988 72.0455 912.56 495.31
758 0 88.163 11.8984 1049 73.5453 912.928 494.297
759 0 89.1627 11.8099 1053 74.6857 913.348 491.889
760 0 92.1988 11.2474 1037 75.1128 913.302 491.018
761 0 93.1276 10.4051 969 76.3488 913.414 488.064
762 1 47.1024 9.76596 460 76.3522 913.639 510.428
763 0 49.2676 10.8794 536 76.5728 913.414 510.056
764 0 51.0747 10.886 556 76.7014 913.46 508.433
765 0 54.0616 11.4129 617 78.0859 912.66 508.122
766 0 55.0423 10.9007 600 72.42 912.995 508.37
767 0 56.094 11.3559 637 72.0188 912.631 508.173
768 0 59.016 11.5562 682 72.2537 913.327 507.352
769 0 59.102 11.5732 684 73.4503 913.159 507.026
770 0 63.0563 11.4659 723 75.473 913.498 506.248
771 0 65.0453 12.007 781 88.1498 914.625 503.734
772 0 68.0627 12.3709 842 86.5831 914.449 504.867
773 0 67.0692 11.8385 794 90.767 915.102 504.903
774 0 69.0127 11.2878 779 93.5443 914.226 502.113
775 0 70.046 12.2348 857 92.2264 913.792 499.996
776 0 73.0463 12.184 890 91.2461 914.158 498.212
777 0 76.0382 12.7699 971 90.0247 914.375 497.904
778 0 77.0464 12.1226 934 92.2238 913.894 497.278
779 0 79.0526 12.2577 969 92.227 913.203 495.407
780 0 82.0885 12.2916 1009 92.998 914.533 495.498
781 0 84.0302 12.6978 1067 91.2915 914.262 493.159
782 0 88.0319 12.6545 1114 92.2406 913.66 492.706
783 0 89.0365 12.7813 1138 91.63 914.396 491.733
784 0 91.1059 12.5678 1145 91.5668 913.298 490.244
785 0 93.1231 13.262 1235 90.4672 913.495 488.775
786 0 96.1485 12.7927 1230 91.1545 913.789 486.762
787 0 99.1471 13.1824 1307 90.3038 913.66 485.7
788 0 101.131 12.8645 1301 91.0484 913.935 484.676
789 0 105.163 13.0654 1374 91.3282 913.862 482.353
790 0 107.116 13.3781 1433 91.0628 914.333 480.652
791 0 110.127 13.5389 1491 91.9852 914.858 480.724
792 0 112.088 13.9265 1561 91.9449 914.436 478.453
793 0 118.146 13.8642 1638 92.2216 914.271 476.354
794 0 121.241 14.0051 1698 93.0247 913.759 473.845
795 0 125.309 14.2288 1783 93.7213 913.513 466.825
796 0 129.267 13.9015 1797 95.626 913.791 466.032
797 0 131.197 13.9028 1824 97.6612 914.677 462.567
798 0 135.334 13.9581 1889 97.1821 913.95 462.446
799 0 139.265 14.3252 1995 97.2366 914.284 459.58
800 0 141.281 13.9863 1976 98.9155 914.385 457.471
801 0 147.413 14.4967 2137 97.665 914.7 457.803
802 0 151.335 14.5769 2206 98.4388 914.259 456.391
803 0 157.418 15.5001 2440 97.0738 914.517 450.149
804 0 161.375 14.866 2399 99.9208 913.824 451.756
805 0 165.434 14.3441 2373 102.094 913.275 451.196
806 0 170.42 14.9806 2553 101.811 913.168 444.494
807 0 172.46 14.2236 2453 105.585 913.696 443.817
808 0 176.399 14.2404 2512 105.246 913.365 442.9
809 0 182.463 14.9291 2724 103.602 913.326 440.39
810 0 185.324 14.6068 2707 105.995 912.956 437.062
811 0 193.518 15.6368 3026 103.049 913.132 434.992
812 0 200.476 18.2066 3650 95.8137 912.515 425.514
813 0 206.533 17.663 3648 97.3925 913.154 422.751
814 0 207.465 15.2074 3155 105.539 912.765 426.752
815 0 214.309 15.9863 3426 102.215 912.172 423.354
816 0 220.311 14.5204 3199 107.883 912.586 423.778
817 0 224.308 13.6152 3054 110.653 912.263 422.152
818 0 232.219 13.9739 3245 109.529 912.09 419.953
819 0 237.262 14.3386 3402 109.576 911.997 413.544
820 0 243.305 14.8209 3606 108.164 912.296 411.652
821 0 248.256 14.912 3702 108.397 911.81 407.138
822 0 254.31 15.0564 3829 106.604 911.993 403.026
823 0 261.366 15.396 4024 107.475 912.182 403.208
824 0 266.379 15.0537 4010 110.959 912.278 398.632
825 0 272.334 14.6695 3995 113.605 912.029 397.015
826 0 279.428 15.8037 4416 111.143 912.126 393.896
827 0 285.319 15.6632 4469 113.508 912.433 390.606
828 0 291.303 16.3095 4751 112.521 911.473 385.435
829 0 294.33 15.9447 4693 114.798 911.997 385.612
830 0 298.318 15.7818 4708 117.085 911.599 382.067
831 0 305.298 16.1874 4942 118.878 911.893 380.477
832 0 312.345 16.6611 5204 119.023 911.726 375.047
833 0 318.242 16.4246 5227 120.941 911.716 373.974
834 0 324.376 16.4901 5349 121.891 912.093 365.252
835 0 330.32 16.6626 5504 124.659 912.068 365.583
836 0 337.344 16.8967 5700 126.611 911.053 359.362
837 0 344.335 16.7221 5758 127.811 910.69 356.48
838 0 353.351 16.9067 5974 128.854 911.672 350.074
839 0 361.326 16.0658 5805 133.266 911.106 346.42
840 0 371.394 16.8985 6276 131.575 910.07 345.298
841 0 380.357 17.0051 6468 132.993 910.49 337.273
842 0 387.259 16.8853 6539 136.17 909.785 333.489
843 0 395.306 16.7668 6628 140.097 909.455 329.146
844 0 402.375 16.4697 6627 139.309 909.977 324.026
845 0 411.307 16.9363 6966 137.85 909.881 319.937
846 0 414.394 17.493 7249 138.601 910.142 312.435
847 0 414.361 17.825 7386 140.326 909.633 311.21
848 0 412.314 17.4745 7205 144.475 910.023 309.761
849 0 411.321 17.3781 7148 147.562 909.452 307.138
850 0 412.373 17.4163 7182 149.305 909.191 307.176
851 0 414.299 17.625 7302 148.604 909.654 306.024
852 0 414.454 17.6015 7295 150.778 909.815 305.36
853 0 413.394 17.9078 7403 150.985 910.051 304.723
854 0 413.492 17.3764 7185 154.068 909.922 303.086
855 0 410.519 17.4584 7167 156.592 910.534 302.171
856 0 409.937 16.6489 6825 159.901 910.468 300.69
857 0 413.069 17.5031 7230 157.998 910.868 303.411
858 0 411.132 17.1162 7037 161.15 910.118 301.052
859 0 408.404 16.8706 6890 164.732 910.77 299.105
860 0 405.636 16.8797 6847 164.55 910.982 299.409
861 0 406.463 16.9856 6904 164.617 910.482 298.849
862 0 407.52 17.2728 7039 164.547 911.017 300.2
863 0 405.473 17.2071 6977 167.923 910.821 298.588
864 0 403.309 17.2424 6954 168.66 910.889 297.6
865 0 410.246 17.0361 6989 170.918 910.816 299.284
866 0 412.21 17.6415 7272 170.284 910.836 301.402
867 0 412.401 17.4296 7188 172.144 910.583 300.531
868 0 413.155 18.0513 7458 170.092 910.684 302.447
869 0 414.236 18.5764 7695 167.399 910.029 302.515
