time division length width area intensity CMx CMy
0 0 44.024 9.88097 435 97.1701 924.616 515.343
1 0 48.0494 10.6349 511 94.0352 923.959 513.614
2 0 49.0214 11.444 561 92.1747 923.187 512.549
3 0 50.0071 12.0583 603 90.665 923.328 512.536
4 0 51.0424 11.5786 591 90.3316 923.235 512.387
5 0 54.0217 12.569 679 88.5052 923.156 511.115
6 0 54.0066 11.7393 634 92.4543 923.401 510.973
7 0 56.0239 11.9413 669 91.6413 923.602 510.972
8 0 58.0208 12.6334 733 89.9181 924.057 509.577
9 0 61.0539 12.7592 779 89.4724 923.761 507.647
10 0 62.0727 12.1632 755 91.604 923.717 509.024
11 0 64.0172 12.934 828 91.0918 922.868 506.481
12 0 64.0172 12.9809 831 131.716 922.875 506.434
13 0 67.0263 12.428 833 84.8151 923.072 507.636
14 0 70.068 12.074 846 86.1903 923.213 506.097
15 0 72.0451 12.2701 884 86.6109 922.455 504.712
16 0 75.0456 12.4058 931 86.2331 922.546 503.971
17 0 77.0667 12.7422 982 86.2149 922.381 502.489
18 0 81.0641 12.8294 1040 85.5558 922.346 502.792
19 0 82.0795 12.5123 1027 88.1188 922.951 501.296
20 0 86.0644 12.5836 1083 87.8569 922.851 500.269
21 0 87.0931 12.4579 1085 89.6618 922.524 498.966
22 0 90.1547 12.0571 1087 90.6569 922.463 497.396
23 1 47.0513 12.1569 572 91.049 922.633 517.469
24 0 50.0692 12.8222 642 89.2757 922.223 515.972
25 0 49.1473 12.6355 621 91.1417 922.924 515.055
26 0 49.0676 11.7593 577 86.9809 921.537 518.381
27 0 50.0825 12.1 606 86.1419 921.589 517.087
28 0 52.0102 11.8054 614 86.4088 921.412 516.966
29 0 53.0534 12.0445 639 86.6275 922.03 515.213
30 0 56.0413 12.2053 684 86.2149 921.754 514.333
31 0 59.016 12.8101 756 85.7619 921.802 512.492
32 0 61.0558 12.5623 767 85.7575 922.123 513.319
33 0 63.0568 12.7345 803 85.1544 921.512 511.273
34 0 65.034 12.8241 834 85.3142 921.357 510.505
35 0 66.0257 12.6314 834 86.8094 921.254 509.046
36 0 69.0718 13.0444 901 86.3285 921.209 509.117
37 0 72.0436 12.7562 919 86.8651 921.194 507.123
38 0 75.0351 13.7402 1031 85.2473 920.828 504.047
39 0 76.0765 12.9475 985 87.735 921.61 503.761
40 0 79.025 13.4135 1060 86.5708 921.415 502.03
41 0 82.082 13.3525 1096 85.8714 921.583 501.139
42 0 83.0754 13.0484 1084 87.3681 921.419 500.742
43 0 88.0676 13.1717 1160 86.0155 921.633 499.146
44 0 90.0765 12.8113 1154 86.7036 921.33 496.956
45 0 93.0509 12.9069 1201 85.8243 920.795 495.065
46 0 96.0656 12.4394 1195 86.6619 921.08 495.074
47 1 53.0091 12.1111 642 87.6822 920.726 513.316
48 0 57.0678 12.564 717 86.6569 920.386 510.41
49 0 56.038 12.8841 722 82.4072 920.428 511.5
50 0 57.0142 12.2776 700 82.61 920.706 511.341
51 0 60.0128 11.6308 698 83.6304 921.325 509.342
52 0 63.0891 12.5378 791 80.1138 921.198 510.128
53 0 65.0278 12.5946 819 80.7057 921.827 507.962
54 0 68.0306 12.7884 870 80.4103 921.663 508.316
55 0 70.0536 12.8759 902 81.1408 922.012 506.415
56 0 73.0401 12.5411 916 81.4367 922.005 504.773
57 0 75.0334 12.5944 945 81.8032 921.166 503.119
58 0 77.0531 12.9262 996 81.9769 921.715 502.074
59 0 79.0536 12.1437 960 84.0375 921.12 500.254
60 0 85.0351 12.4772 1061 81.18 920.865 500.035
61 0 87.0476 12.3496 1075 82.4251 921.039 497.048
62 0 90.0875 12.7099 1145 82.0568 920.713 495.671
63 0 93.0712 12.6247 1175 82.0868 921.744 494.94
64 0 95.107 12.8066 1218 81.835 921.524 492.645
65 1 50.0547 10.7283 537 83.9572 921.959 515.33
66 0 54.0719 11.5217 623 82.61 921.831 514.331
67 0 56.0377 11.7242 657 82.1294 921.204 511.994
68 0 53.0772 11.2478 597 78.3618 921.903 513.152
69 0 56.0424 11.295 633 77.1422 921.613 512.596
70 0 58.0736 12.157 706 75.3938 921.228 511.71
71 0 61.0338 12.0589 736 75.034 921.458 511.25
72 0 63.0407 11.8654 748 75.3222 921.707 508.455
73 0 66.0485 11.8852 785 74.8331 921.712 507.613
74 0 66.0195 12.1631 803 75.1482 922.314 505.63
75 0 69.06 12.0041 829 75.5066 922.099 505.91
76 0 72.052 12.1579 876 75.2169 922.405 504.263
77 0 73.0362 11.9256 871 76.1228 922.18 502.034
78 0 77.0424 12.5645 968 74.9039 921.968 500.973
79 0 81.021 12.0956 980 75.2837 922.564 499.083
80 0 81.0624 11.2012 908 77.0496 922.213 497.376
81 0 85.0824 12.1059 1030 76.535 922.135 495.996
82 0 90.041 12.5832 1133 75.5552 923.172 492.994
83 0 94.0887 12.552 1181 75.8916 922.899 491.856
84 0 97.0804 12.742 1237 76.5901 922.981 490.208
85 0 99.0685 13.3342 1321 76.0401 922.563 488.122
86 1 50.0476 10.5899 530 75.3679 923.351 512.689
87 0 52.0645 10.9672 571 74.6287 922.844 512.299
88 0 54.0335 10.8451 586 72.7133 922.968 512.027
89 0 52.0107 10.7862 561 71.8984 922.349 514.346
90 0 54.0388 9.95582 538 72.6282 922.394 514.872
91 0 55.0891 10.2924 567 73.3298 922.575 512.383
92 0 57.035 9.87113 563 73.032 921.895 511.508
93 0 59.0844 10.5612 624 71.742 921.801 509.92
94 0 60.034 10.2942 618 71.9498 921.515 507.015
95 0 64.0646 10.6767 684 70.9137 921.104 508.675
96 0 67.0548 10.6182 712 70.8933 921.475 506.684
97 0 66.0797 10.6235 702 72.3348 921.741 504.316
98 0 67.038 10.0988 677 74.6854 921.944 503.511
99 0 70.0285 10.51 736 73.6114 921.315 503.067
100 0 74.0396 10.0622 745 72.7383 921.166 501.063
101 0 79.1202 11.4762 908 69.8326 921.149 501.154
102 0 81.0357 11.7479 952 70.0525 921.762 498.914
103 0 85.121 11.3955 970 70.135 921.573 498.415
104 0 87.0826 11.3456 988 71.0567 921.012 497.175
105 0 90.0758 11.0129 992 72.0232 921.47 495.091
106 1 50.034 10.0332 502 69.8267 921.878 516.179
107 0 49.0276 10.6471 522 68.9598 921.554 515.458
108 0 51.0456 11.2644 575 68.2817 921.36 514.6
109 0 52.0231 11.5526 601 68.3611 921.048 513.659
110 0 50.0109 10.3178 516 64.905 922.32 517.37
111 0 52.0708 10.697 557 65.0413 922.303 514.932
112 0 53.0243 10.0897 535 65.3477 922.308 515.217
113 0 55.0398 10.665 587 65.0767 921.881 514.555
114 0 55.0842 10.8743 599 65.3105 921.366 512.806
115 0 59.0504 10.7705 636 64.9906 920.928 513.201
116 0 60.0428 10.5258 632 66.0111 921.321 512.801
117 0 62.0695 10.6655 662 65.6375 921.577 512.014
118 0 63.0694 10.0524 634 66.1688 921.872 511.246
119 0 65.0464 10.8845 708 65.7698 921.38 508.363
120 0 65.0148 9.84392 640 67.9484 921.597 508.502
121 0 69.0441 10.6454 735 66.7279 922.117 508.254
122 0 70.0304 10.6668 747 68.2289 921.303 504.922
123 0 74.06 10.6805 791 67.9848 921.75 504.638
124 0 75.0239 10.0368 753 69.8194 922.086 505.523
125 0 76.1001 10.4468 795 71.0906 921.628 504.01
126 0 79.0632 10.6118 839 72.708 922.375 501.557
127 0 81.0494 10.216 828 74.5423 921.821 499.314
128 0 83.0636 11.726 974 73.5924 921.556 498.671
129 0 86.0571 10.923 940 75.8085 921.736 497.402
130 0 88.0679 11.2754 993 77.2205 922.014 496.765
131 0 91.0672 11.2335 1023 77.7762 921.848 496.31
132 0 94.0527 11.7062 1101 79.0109 921.605 495.259
133 0 96.0687 11.4293 1098 81.7942 921.634 490.77
134 0 101.101 11.1472 1127 83.7409 921.271 491.355
135 0 105.122 11.7958 1240 83.304 921.74 489.714
136 0 107.128 12.051 1291 84.316 922.414 489.168
137 0 112.112 12.773 1432 82.4064 922.106 487.749
138 0 115.066 12.2886 1414 84.976 922.593 485.213
139 0 117.169 12.1961 1429 84.697 921.889 482.815
140 0 125.179 13.9799 1750 84.3349 921.896 478.809
141 0 127.232 13.5579 1725 84.4354 922.292 475.733
142 0 133.351 13.4907 1799 85.7004 920.555 474.322
143 0 138.314 14.1851 1962 84.712 921.239 469.273
144 0 143.235 14.1725 2030 84.031 921.124 463.436
145 0 147.471 13.6298 2010 86.1149 921.761 462.851
146 0 151.373 14.5271 2199 83.7171 921.468 458.69
147 0 152.307 12.744 1941 88.5574 921.098 457.692
148 0 157.322 13.2658 2087 88.093 921.747 454.208
149 0 163.249 14.0521 2294 85.6892 920.857 450.704
150 0 165.171 14.2337 2351 85.977 920.06 444.589
151 0 173.247 14.4591 2505 85.2032 920.242 443.488
152 0 177.297 14.5124 2573 85.6592 920.616 441.392
153 0 182.254 14.8365 2704 85.4878 920.393 438.708
154 0 187.222 14.7686 2765 85.8282 920.911 437.668
155 0 189.165 14.1252 2672 88.9158 920.505 433.035
156 0 196.229 14.4678 2839 87.571 920.349 430.777
157 0 206.205 14.6117 3013 86.1065 920.728 428.451
158 0 210.237 14.555 3060 86.3997 921.079 425.588
159 0 215.231 13.4786 2901 89.9252 920.96 422.549
160 0 224.333 13.3106 2986 90.3734 920.368 419.914
161 1 43.0523 9.94139 428 67.4065 920.386 511.867
162 0 48.0438 10.8443 521 73.9424 920.925 516.555
163 0 47.0414 10.4164 490 67.0878 920.545 519.022
164 0 49.021 10.0365 492 67.126 920.935 517.823
165 0 48.0544 10.176 489 68.0552 921.063 516.129
166 0 52.0138 10.1319 527 68.5674 920.962 515.497
167 0 53.0415 10.1242 537 68.6816 921.851 514.67
168 0 55.046 11.0271 607 67.7446 921.628 513.267
169 0 56.0753 10.3611 581 69.6764 921.348 512.594
170 0 57.0161 10.6812 609 69.8686 921.425 510.87
171 0 60.0753 10.0707 605 69.7719 920.959 511.302
172 0 61.0634 9.92411 606 69.7277 921.729 509.947
173 0 65.0797 9.92629 646 66.8978 921.991 509.093
174 0 66.0608 10.1876 673 62.3804 921.691 506.871
175 1 35.011 9.79691 343 69.4344 922.035 523.122
176 0 35.0116 10.3965 364 69.283 921.201 522.113
177 0 36.026 9.35437 337 70.4303 920.611 521.905
178 0 40.0222 9.86951 395 68.1038 921.142 520.937
179 0 41.0875 10.1491 417 64.8945 920.396 520.254
180 0 39.0066 9.48557 370 67.4243 920.416 520.751
181 0 43.028 10.3189 444 65.3198 921.135 519.146
182 0 40.0386 9.94042 398 67.7337 921.113 519.729
183 0 41.0282 9.04256 371 69.628 921.067 520.445
184 0 42.0155 9.3299 392 70.1122 921.357 519.707
185 0 44.0324 9.24319 407 70.8772 921.231 518.187
186 0 46.0285 10.2545 472 69.9428 921.08 517.843
187 0 46.0478 10.3588 477 71.5262 920.413 516.683
188 0 48.033 10.472 503 71.5765 920.475 516.157
189 0 51.0433 10.6772 545 70.745 920.616 516.71
190 0 52.0288 11.3399 590 71.3203 920.749 515.546
191 0 54.055 11.0443 597 72.1072 921.149 514.226
192 0 55.0213 10.6141 584 73.899 921.483 513.885
193 0 57.0526 11.7435 670 72.4731 921.228 513.603
194 0 58.0322 11.4764 666 73.8604 921.925 512.386
195 0 61.1286 11.713 716 74.9316 921.253 510.522
196 0 62.0361 11.3966 707 76.925 920.728 509.279
197 0 64.0477 11.4758 735 76.3048 920.725 508.737
198 0 68.0684 12.0761 822 76.2968 920.917 507.443
199 0 71.1092 12.8253 912 75.2972 920.522 505.569
200 0 72.0516 12.8519 926 75.9968 921.131 503.744
201 0 76.0626 13.4889 1026 80.5068 921.156 502.057
202 0 79.066 12.9386 1023 103.859 920.719 501.937
203 0 80.0855 12.6989 1017 103.034 920.696 500.616
204 0 83.0716 12.5795 1045 104.119 920.184 498.487
205 1 40.1002 10.6234 426 101.899 919.991 518.425
206 0 42.082 11.24 473 99.3171 919.167 518.956
207 0 43.0064 11.7889 507 89.9053 918.625 520.12
208 0 43.0367 11.4553 493 88.9412 919.548 520.298
209 0 43.0617 11.2397 484 89.9236 919.847 520.533
210 0 44.0103 11.8836 523 88.7973 920.159 519.394
211 0 46.0255 11.4285 526 89.8593 920.249 518.578
212 0 47.0241 11.3133 532 91.0639 919.652 518.517
213 0 48.0299 12.2632 589 89.2988 919.323 517.783
214 0 49.0781 11.9401 586 90.8328 918.628 516.474
215 0 51.0263 11.9742 611 90.9722 919.16 516.205
216 0 53.05 12.4034 658 90.6672 919.234 515.483
217 0 53.0236 12.1455 644 91.5683 919.587 515.079
218 0 55.047 12.7891 704 89.9545 919.242 514.075
219 0 58.0247 12.5119 726 89.6322 919.698 513.372
220 0 60.0469 12.8733 773 88.6662 919.859 512.34
221 0 61.0565 12.9061 788 88.9213 919.22 510.773
222 0 63.1001 12.3772 781 89.7734 920.333 510.329
223 0 66.0594 12.8067 846 88.5993 919.579 508.728
224 0 67.0459 12.2304 820 90.6561 919.295 507.994
225 0 69.1128 12.4 857 91.3279 919.433 506.027
226 0 71.1131 13.2184 940 89.784 919.805 504.896
227 0 72.0706 13.3758 964 90.0809 919.881 503.693
228 0 74.0535 12.8016 948 93.3133 920.096 502.474
229 0 77.0692 12.9364 997 93.2909 920.232 502.202
230 0 79.0428 12.9803 1026 93.7134 920.674 501.232
231 0 81.1342 12.769 1036 95.8523 919.949 498.466
232 0 82.0423 12.8714 1056 96.7367 919.327 497.797
233 0 87.1082 13.5004 1176 96.1624 919.446 497.713
234 0 88.0746 13.3183 1173 98.237 918.611 495.098
235 0 91.0701 13.8684 1263 96.8931 918.637 494.574
236 0 94.0719 13.8086 1299 96.6836 918.71 494.073
237 0 94.0789 13.3186 1253 99.6026 919.988 491.747
238 0 100.069 14.1403 1415 96.2254 919.729 490.711
239 0 102.107 13.6425 1393 98.6856 919.939 489.378
240 0 107.064 14.0196 1501 98.6216 919.753 487.182
241 0 108.066 13.6583 1476 101.553 919.959 485.556
242 0 114.063 13.738 1567 101.03 919.902 482.952
243 0 116.107 13.8751 1611 100.963 919.297 481.279
244 0 119.094 13.7119 1633 103.289 919.437 478.816
245 0 123.042 14.1659 1743 104.226 919.529 477.197
246 0 127.041 13.6963 1740 105.384 919.001 475.58
247 0 131.153 13.7092 1798 105.729 918.739 474.065
248 0 137.153 13.9188 1909 105.323 919.624 471.618
249 0 139.15 13.604 1893 108.612 919.22 467.639
250 0 145.099 13.9215 2020 108.766 919.934 466.527
251 0 148.126 13.9813 2071 109.621 919.548 466.225
252 0 154.161 14.0762 2170 109.553 920.765 461.989
253 0 160.094 14.5727 2333 108.994 920.555 459.846
254 0 165.151 14.3444 2369 110.636 920.604 458.564
255 0 172.114 14.688 2528 108.517 921.094 454.144
256 0 176.17 14.1624 2495 109.51 920.438 451.905
257 0 181.152 13.7399 2489 110.282 919.843 450.047
258 0 186.308 13.8212 2575 110.594 919.223 446.438
259 0 192.186 13.9865 2688 110.108 919.297 444.375
260 0 194.291 13.5261 2628 113.204 919.328 440.159
261 0 202.238 14.2159 2875 111.622 919.101 435.437
262 0 210.24 14.1172 2968 111.627 919.646 431.691
263 0 215.229 14.0037 3014 113.911 919.502 427.502
264 0 221.266 13.712 3034 114.497 919.465 423.976
265 0 231.216 14.1816 3279 113.27 919.802 417.294
266 0 237.195 13.6723 3243 115.779 920.087 413.666
267 0 245.377 13.5995 3337 116.438 919.755 409.744
268 0 254.271 14.1621 3601 115.259 919.114 405.054
269 0 263.357 14 3687 116.42 918.982 400.432
270 0 272.374 14.146 3853 116.718 918.09 396.581
271 0 282.356 14.1878 4006 117.1 918.387 389.966
272 0 292.308 14.5121 4242 116.806 918.375 385.507
273 0 302.366 14.3634 4343 117.536 918.759 381.438
274 0 312.326 14.3088 4469 118.203 918.36 371.953
275 0 323.356 14.4639 4677 117.978 918.766 366.235
276 1 95.0794 7.75142 737 96.1954 919.46 493.621
277 0 95.0361 9.83836 935 93.8278 919.465 490.583
278 0 99.0587 10.1455 1005 93.1423 918.675 488.645
279 0 101.054 10.6082 1072 91.3834 918.956 484.661
280 0 105.094 10.9806 1154 91.234 918.549 484.163
281 0 106.065 10.5218 1116 92.5941 917.849 481.125
282 0 112.065 10.0299 1124 92.3843 918.44 479.182
283 0 115.065 10.4636 1204 93.6046 918.959 478.02
284 0 121.168 10.8857 1319 101.809 919.069 474.918
285 0 126.1 10.8406 1367 101.492 918.974 472.546
286 0 129.102 10.5033 1356 102.808 919.011 470.104
287 0 133.206 10.968 1461 99.7433 919.164 469.107
288 0 136.13 10.7985 1470 101.597 919.79 467.381
289 0 140.11 11.4053 1598 101.64 919.256 463.187
290 0 144.149 11.4188 1646 102.578 918.246 460.781
291 0 148.092 11.0809 1641 96.0817 919.47 460.434
292 0 149.135 10.8895 1624 96.9495 917.504 460.138
293 0 152.095 10.7893 1641 99.7112 917.731 457.896
294 0 150.121 13.569 2037 86.6058 918.326 433.464
295 0 153.133 12.1985 1868 94.3501 918.37 433.778
296 0 170.154 12.9412 2202 89.5568 918.27 439.958
297 0 177.181 13.8221 2449 86.8657 918.426 436.687
298 0 180.193 12.9639 2336 90.9118 918.49 433.55
299 0 186.203 13.1738 2453 91.1912 918.336 431.011
300 0 194.216 13.243 2572 91.7111 917.895 429.619
301 0 198.195 13.1083 2598 94.276 917.143 425.552
302 0 207.229 14.0473 2911 91.3531 918.097 423.822
303 0 212.279 13.5152 2869 94.5605 918.119 420.129
304 0 218.25 13.7869 3009 95.987 918.347 419.183
305 0 225.268 13.4063 3020 97.7268 918.143 415.58
306 0 231.291 14.4969 3353 96.2025 918.628 411.144
307 0 238.213 14.0295 3342 98.292 918.818 406.089
308 0 241.299 13.4563 3247 101.13 919.403 397.693
309 0 243.247 13.8954 3380 101.352 918.248 395.413
310 0 248.333 13.7477 3414 102.535 918.083 393.566
311 0 256.265 13.9699 3580 103.274 918.781 389.33
312 0 264.198 13.8987 3672 104.681 918.118 384.385
313 0 271.331 14.2814 3875 104.532 919.04 379.736
314 0 279.314 14.797 4133 102.325 918.254 377.322
315 0 285.357 14.3224 4087 107.318 918.983 368.977
316 0 295.384 14.3644 4243 107.226 918.617 367.097
317 0 306.515 14.0613 4310 108.686 918.08 361.014
318 0 311.376 14.3364 4464 109.121 917.854 358.11
319 1 161.131 9.14782 1474 110.906 918.062 435.959
320 0 171.091 10.6084 1815 110.471 918.016 437.98
321 0 175.123 10.3299 1809 111.196 918.012 436.133
322 0 176.258 11.1711 1969 110.371 917.791 432.926
323 0 184.302 11.3401 2090 111.176 917.95 427.674
324 0 193.122 12.0235 2322 109.779 917.945 427.847
325 0 192.093 11.3226 2175 114.145 918.159 422.842
326 0 200.23 11.6066 2324 112.604 917.795 416.775
327 0 208.184 12.7051 2645 111.158 917.507 394.336
328 0 215.223 12.4243 2674 109.792 917.159 399.846
329 0 225.195 12.4914 2813 106.187 917.132 406.817
330 0 230.188 12.985 2989 103.607 916.081 408.589
331 0 230.189 13.0154 2996 153.924 915.09 408.74
332 0 229.297 10.3577 2375 112.15 916.383 411.014
333 0 217.292 8.57372 1863 116.953 916.765 406.157
334 0 221.375 8.24395 1825 116.759 916.573 408.836
335 0 72.0506 7.74456 558 82.767 915.45 500.944
336 0 73.0359 8.33837 609 80.7373 914.903 502.113
337 0 76.0475 8.79714 669 76.6069 914.888 501.04
338 0 77.1291 8.37556 646 70.4861 914.892 500.042
339 0 80.1156 8.68744 696 69.8678 915.108 498.907
340 0 81.1487 8.73705 709 70.0536 915.33 499.918
341 0 82.1276 8.5842 705 69.7035 915.769 498.301
342 0 84.1254 9.7949 824 72.9041 914.933 498.069
343 0 87.1889 9.38193 818 71.6809 915.229 496.121
344 0 90.1224 9.39832 847 74.2231 914.936 496.132
345 0 92.1012 9.80443 903 73.7176 914.288 495.702
346 0 92.0919 9.37107 863 73.9548 913.014 492.453
347 0 96.051 9.54701 917 74.1025 912.9 489.904
348 0 98.1297 10.1091 992 73.8105 913.969 489.356
349 0 99.0836 9.84018 975 74.5549 913.027 485.455
350 0 103.066 10.5661 1089 72.6612 913.898 487.642
351 0 102.17 9.29821 950 75.5263 914.886 481.228
352 0 103.088 9.71017 1001 74.7243 914.522 482.774
353 0 103.145 9.16184 945 77.0518 914.656 479.121
354 0 94.106 8.95798 843 79.8031 913.93 472.783
355 0 101.091 8.982 908 80.011 913.328 475.051
356 0 100.072 9.0235 903 80.5504 913.525 471.214
357 0 103.12 9.552 985 80.3706 914.609 470.478
358 0 102.086 8.4243 860 83.9826 914.786 467.899
359 0 106.048 8.70365 923 84.1549 914.74 467.93
360 0 112.144 9.7642 1095 82.8648 915.688 462.24
361 0 109.074 9.03056 985 83.9239 915.61 457.803
362 0 110.106 9.38185 1033 83.6467 916.056 453.738
363 1 121.069 10.589 1282 82.1974 915.75 456.264
364 0 124.103 10.1851 1264 84.9842 916.449 453.123
365 0 127.131 10.847 1379 84.0464 916.748 455.885
366 0 128.135 9.93486 1273 88.2765 916.324 450.712
367 0 133.077 10.618 1413 87.3107 916.924 447.674
368 0 134.079 10.285 1379 89.81 917.303 445.001
369 0 137.091 9.67972 1327 91.9246 916.327 441.005
370 0 141.094 10.5249 1485 90.604 916.758 440.067
371 0 145.099 10.7719 1563 91.4491 916.757 434.45
372 0 151.132 11.1624 1687 90.0071 916.704 435.574
373 0 158.1 10.8855 1721 90.1639 916.977 432.354
374 0 161.157 11.2809 1818 89.0875 916.975 431.859
375 0 165.102 11.0235 1820 91.7126 916.163 421.792
376 0 179.125 11.3273 2029 88.8773 916.425 428.392
377 0 184.169 11.7772 2169 87.9092 916.255 425.393
378 0 189.155 12.006 2271 87.3937 917.14 422.28
379 0 191.267 11.7584 2249 88.3828 917.208 416.482
380 0 197.255 12.0808 2383 88.1318 917.407 415.554
381 0 200.217 10.9981 2202 90.0227 917.127 407.691
382 0 200.116 10.5739 2116 90.4253 917.37 409.702
383 1 40.0633 5.41644 217 53.3502 918.152 509.677
384 0 38.0458 4.10032 156 55.6346 917.59 503.962
385 0 38.0511 6.78036 258 54.2287 917.655 506.492
386 0 50.0341 8.47421 424 53.5826 917.653 510.158
387 0 53.0142 9.48803 503 55.493 916.038 515.579
388 0 52.0466 8.14655 424 58.3255 916.347 516.302
389 0 53.0263 8.90124 472 58.5191 916.621 515.667
390 0 53.1012 8.47438 450 59.8378 917.442 515.491
391 0 54.0344 7.99491 432 60.713 917.965 514.093
392 0 56.0263 8.74589 490 60.6612 918.08 512.053
393 0 58.0352 8.805 511 60.683 917.362 512.245
394 0 58.036 8.37411 486 61.8128 917.628 510.768
395 0 61.0336 9.35551 571 60.9142 917.925 511.201
396 0 63.0319 9.18582 579 62.076 918.009 509.596
397 0 64.0381 9.10396 583 63.2573 917.648 509.503
398 0 66.0408 8.96416 592 63.5709 917.53 508.709
399 0 68.0782 8.90153 606 64.5347 917.383 507.947
400 0 71.0248 8.99686 639 65.2817 917.34 504.873
401 0 73.0813 9.41417 688 64.9273 917.844 502.631
402 0 77.084 10.1837 785 63.9185 918.096 500.887
403 0 77.058 10.0574 775 64.2026 917.711 499.437
404 0 82.0923 9.5624 785 64.1389 917.432 498.401
405 1 43.0491 8.89682 383 64.5274 918.225 518.094
406 0 46.0084 8.34631 384 64.6042 917.25 516.964
407 0 48.0719 8.25846 397 64.2544 917.798 516.169
408 0 47.0336 9.61015 452 64.2721 917.354 516.473
409 0 51.0823 9.49449 485 64.7278 916.577 515.645
410 0 48.0657 8.96689 431 67.1624 917.557 513.745
411 0 51.0345 9.93445 507 65.2387 917.45 514.667
412 0 53.0544 10.2725 545 65.3798 917.578 511.123
413 0 54.0621 9.32262 504 67.0298 917.131 511.421
414 0 55.0945 10.2188 563 65.8916 917.25 510.279
415 0 56.0348 10.1722 570 67.0298 916.874 510.565
416 0 59.1579 10.4128 616 67.1867 916.727 507.536
417 0 61.1499 10.1063 618 67.7184 917.469 506.956
418 0 61.0573 10.3509 632 68.0095 917.441 506.305
419 0 64.0814 10.0185 642 68.7601 918.28 505.086
420 0 67.1842 11.7885 792 66.2336 917.968 507.444
421 0 68.1447 11.7544 801 68.0137 917.367 506.105
422 0 69.0974 11.6936 808 68.8354 917.163 505.662
423 0 71.1401 11.2876 803 70.7933 917.442 504.814
424 0 75.1246 12.3395 927 72.1348 917.677 502.781
425 0 75.1389 11.3257 851 74.2844 917.224 502.217
426 0 78.1406 12.2471 957 73.9551 917.89 500.666
427 0 80.0959 12.0855 968 75.6539 917.28 499.833
428 0 81.1186 11.7852 956 77.7918 917.703 499.906
429 0 86.1569 12.0014 1034 77.1857 917.404 498.475
430 1 45.0449 10.323 465 72.7247 916.615 519.703
431 0 46.0458 10.9239 503 73.7137 916.644 517.626
432 0 44.0266 9.5624 421 72.4204 915.862 516.045
433 0 46.0458 11.9446 550 68.8527 915.798 519.385
434 0 48.0401 11.4488 550 71.5818 915.475 518.755
435 0 47.0393 10.927 514 73.5195 915.788 520.206
436 0 48.0503 11.2174 539 74.8404 916.573 519.033
437 0 51.0498 11.0284 563 74.3748 917.401 519.158
438 0 50.019 11.7755 589 76.1273 917.294 516.762
439 0 53.0417 12.0094 637 75.5714 916.92 517.21
440 0 53.0311 11.2387 596 78.8674 917.322 515.594
441 0 54.0906 11.5732 626 78.8387 916.885 516.045
442 0 57.0361 12.0275 686 79.1472 917.131 514.803
443 0 56.0429 12.4012 695 79.7583 916.469 513.803
444 0 59.0348 12.0268 710 80.6296 916.196 511.834
445 0 61.0345 12.4847 762 80.1575 916.29 510.894
446 0 61.0413 12.6144 770 81.8377 916.916 510.332
447 0 65.068 12.1412 790 82.3633 917.246 508.234
448 0 64.055 12.3019 788 84.2728 916.962 507.651
449 0 69.0441 12.731 879 82.6735 918.129 506.016
450 0 69.0542 12.816 885 83.9808 917.112 506.216
451 0 71.0756 12.6626 900 85.2367 916.544 504.519
452 0 71.0499 12.3716 879 87.7759 916.86 505.357
453 0 74.0395 12.912 956 87.4519 917.58 503.157
454 0 77.088 13.037 1005 87.6876 917.151 502.29
455 0 84.0184 11.0452 928 91.6929 917.552 502.474
456 0 85.0736 12.6009 1072 89.8265 918.407 500.378
457 0 83.04 12.777 1061 91.0952 918.428 497.951
458 0 87.0425 13.4302 1169 90.3028 918.417 497.392
459 0 89.1013 12.7944 1140 92.5465 917.697 496.149
460 0 90.0291 12.5071 1126 94.4476 916.96 492.791
461 0 94.1184 13.0155 1225 93.7633 917.091 493.167
462 0 96.1395 12.7523 1226 95.4258 918.104 490.454
463 0 98.0305 13.149 1289 95.6261 917.583 489.573
464 0 104.09 13.5172 1407 93.8237 917.758 487.556
465 0 107.066 13.6178 1458 94.7202 917.988 487.084
466 0 109.102 13.217 1442 96.4944 918.13 484.46
467 0 113.089 13.0428 1475 97.4495 918.298 483.555
468 0 119.173 14.1307 1684 94.519 917.707 482.657
469 0 122.104 13.554 1655 97.3722 917.2 479.765
470 0 127.081 13.8573 1761 96.6059 916.884 479.718
471 0 129.166 13.6027 1757 99.156 917.556 476.84
472 0 134.113 14.0105 1879 98.6328 917.531 474.108
473 0 139.215 14.4812 2016 97.5213 917.647 473.204
474 0 142.106 14.3133 2034 99.6775 917.977 469.257
475 0 147.14 14.4964 2133 100.571 918.171 466.606
476 0 153.216 14.4175 2209 101.482 917.962 465.648
477 0 157.122 14.8865 2339 101.028 917.701 461.339
478 0 161.13 14.0446 2263 102.421 916.932 461.223
479 0 167.14 14.3293 2395 102.142 917.091 457.511
480 0 171.075 15.841 2710 94.4502 916.95 455.503
481 0 178.109 14.2722 2542 101.478 917.432 451.498
482 0 184.122 14.2569 2625 101.22 917.658 449.096
483 0 189.141 14.6558 2772 100.661 917.141 445.719
484 0 197.261 14.169 2795 100.301 917.803 442.294
485 0 203.273 14.3108 2909 97.6232 917.596 438.606
486 0 210.199 13.9915 2941 98.3094 917.225 434.118
487 1 173.197 12.1942 2112 101.219 917.493 452.256
488 0 179.168 12.5246 2244 102.223 915.833 448.668
489 0 185.133 12.2561 2269 100.833 916.096 450.027
490 0 191.133 12.5305 2395 102.407 916.126 442.173
491 0 198.282 12.7848 2535 103.94 916.221 439.738
492 0 204.263 12.1216 2476 107.796 916.18 434.685
493 0 212.274 12.5168 2657 106.592 916.058 432.745
494 1 56.1011 9.25115 519 88.738 918.044 514.331
495 0 55.1667 9.60724 530 89.5981 918.742 512.743
496 0 57.1587 10.0422 574 88.007 918.376 510.406
497 0 58.1142 10.3245 600 88.485 917.9 508.327
498 0 61.1496 10.3026 630 90.0556 917.865 507.135
499 0 64.247 10.4596 672 91.1071 916.506 507.454
500 0 64.1604 10.3647 665 91.3233 916.802 508.889
501 0 67.1431 9.934 667 91.6042 917.37 509.6
502 0 68.1968 10.2644 700 92.8557 917.684 508.381
503 0 68.2198 9.572 653 95.5237 917.515 505.461
504 0 73.1512 10.1707 744 94.5255 917.464 503.758
505 0 73.364 10.0458 737 96.228 917.898 502.479
506 0 75.2934 9.81493 739 97.069 917.622 501.018
507 0 77.183 9.7949 756 97.3095 917.81 499.152
508 0 79.1844 9.87569 782 97.101 917.953 498.644
509 0 79.1037 9.83519 778 98.6298 916.828 494.234
510 0 81.072 10.0898 818 99.143 916.815 491.628
511 0 86.0928 10.57 910 97.4044 916.645 490.841
512 0 90.1933 11.8967 1073 92.8966 917.041 487.796
513 0 90.1385 11.3492 1023 95.2317 917.395 486.585
514 0 92.1991 11.3233 1044 96.2088 916.988 485.158
515 0 93.3227 10.6834 997 100.075 916.867 486.517
516 0 94.1836 10.7556 1013 100.951 916.712 484.387
517 0 98.2548 11.2768 1108 99.0054 916.895 483.004
518 0 99.2629 11.2429 1116 100.764 916.665 479.616
519 0 103.168 11.1468 1150 101.791 915.444 477.704
520 0 107.282 11.5304 1237 100.715 914.975 476.542
521 0 109.203 12.0418 1315 100.689 915.814 474.171
522 0 110.235 11.3303 1249 103.882 915.717 471.42
523 0 116.288 11.6607 1356 102.185 916.156 471.791
524 0 120.236 11.1032 1335 103.825 916.584 469.318
525 0 124.231 11.2693 1400 104.211 916.424 470.336
526 0 128.226 11.7058 1501 103.866 915.861 464.933
527 1 65.1017 8.7709 571 96.8757 916.328 497.168
528 0 74.2742 10.2324 760 98.4237 915.321 499.643
529 0 72.2276 8.61167 622 88.5 915.37 498.051
530 0 79.0354 10.7041 846 85.7707 914.756 504.326
531 0 79.0637 10.2955 814 84.6536 914.973 503.905
532 0 81.0701 10.4231 845 84.9053 914.994 502.465
533 0 86.1613 10.8982 939 83.0415 915.164 503.684
534 0 88.0851 11.3754 1002 83.2365 915.526 501.818
535 0 91.0549 11.2789 1027 83.5862 915.112 501.256
536 0 93.0618 11.6482 1084 102.051 914.853 500.25
537 0 94.0621 11.4074 1073 85.5266 915.034 499.039
538 0 98.1171 11.7309 1151 92.0773 915.661 498.308
539 0 102.137 11.279 1152 93.2031 915.87 496.234
540 0 103.222 10.9279 1128 94.5683 915.99 494.132
541 0 105.139 11.442 1203 92.217 915.853 493.265
542 0 109.108 11.5849 1264 91.9889 915.816 492.227
543 0 112.092 10.9463 1227 93.4124 915.417 490.349
544 0 115.117 11.1973 1289 90.8402 915.509 491.04
545 0 119.061 11.3723 1354 89.7312 915.736 486.584
546 0 121.107 11.4114 1382 90.712 915.079 485.123
547 0 123.081 11.1878 1377 90.0937 915.129 483.832
548 1 66.0916 10.1677 672 82.4985 915.025 514.274
549 0 68.06 11.2254 764 81.1793 914.925 512.884
550 0 71.1034 11.3778 809 82.2979 914.567 509.476
551 0 73.1075 11.613 849 78.563 914.036 509.464
552 0 74.1217 11.5756 858 76.8298 915.061 507.375
553 0 76.0627 11.1881 851 77.0646 915.384 507.7
554 0 79.0766 11.609 918 76.2571 915.549 506.129
555 0 78.1031 10.3837 811 80.0937 915.115 506.406
556 0 82.0762 11.2213 921 77.468 914.128 506.004
557 0 82.0714 11.1854 918 126.228 914.117 505.802
558 0 87.0616 10.9348 952 77.6922 913.607 503.057
559 0 88.0936 10.9429 964 77.7241 913.808 503.497
560 0 92.1094 11.3126 1042 77.5509 913.851 502.265
561 0 93.0757 11.1307 1036 78.1998 914.497 499.18
562 0 96.1332 10.8599 1044 78.1628 914.28 496.073
563 0 99.0804 10.8195 1072 78.3153 914.831 495.757
564 0 103.143 10.6454 1098 78.6867 914.903 493.44
565 1 54.1075 10.3498 560 77.4232 914.623 518.593
566 0 55.0393 11.2465 619 76.664 914.313 516.097
567 0 56.0238 11.1024 622 74.9276 914.011 517.003
568 0 59.0251 11.0631 653 74.1976 913.726 515.81
569 0 63.088 11.476 724 79.3246 914.994 515.358
570 0 62.1156 10.7219 666 81.545 914.338 513.017
571 0 63.068 11.7175 739 80.1123 914.898 512.444
572 0 66.0769 11.3201 748 79.8877 915.253 512.107
573 0 67.1111 11.4735 770 78.8987 914.632 510.947
574 0 69.0843 11.9998 829 77.8468 914.878 509.174
575 0 74.0883 12.836 951 75.3018 914.4 510.193
576 0 77.0837 12.9859 1001 73.976 913.897 509.591
577 0 78.1535 12.5394 980 76.9449 913.546 508.718
578 0 80.1391 12.2662 983 78.9156 914.415 507.61
579 0 82.0882 12.8033 1051 78.0048 914.344 505.743
580 0 83.0692 12.1345 1008 80.1458 914.375 504.169
581 0 86.0777 13.0115 1120 78.3152 915.014 503.213
582 0 90.0617 12.658 1140 78.7246 914.715 501.396
583 0 92.1164 12.2671 1130 76.2593 913.996 500.799
584 0 94.0973 12.4127 1168 76.8579 914.12 499.027
585 0 97.0622 13.2595 1287 75.7584 913.975 496.831
586 0 98.135 12.4522 1222 78.5507 914.125 495.881
587 0 102.115 12.6622 1293 79.6922 914.619 493.07
588 0 105.138 13.0115 1368 81.9598 914.57 492.439
589 0 108.099 12.1186 1310 84.2114 914.256 489.645
590 0 111.093 11.99 1332 83.7838 915.059 487.486
591 1 54.0386 8.58645 464 79.3297 915.343 514.8
592 0 58.0622 10.4715 608 77.8109 914.839 515.469
593 0 62.1127 11.3664 706 75.4703 915.365 515.246
594 0 61.0473 10.8768 664 79.4036 913.827 514.288
595 0 65.0228 11.719 762 77.8491 915.127 513.314
596 0 67.0839 11.9552 802 77.5611 914.744 511.862
597 0 70.0818 12.0859 847 77.7202 914.998 511.377
598 0 72.0444 11.9232 859 78.5995 916.051 508.698
599 0 74.0206 11.6454 862 80.9768 914.463 508.385
600 0 77.0946 12.0761 931 80.8378 914.474 505.523
601 0 80.1263 11.8937 953 81.3263 914.113 505.241
602 0 83.1197 11.2248 933 83.0986 914.503 503.785
603 0 84.1391 11.1007 934 82.7377 913.957 501.942
604 0 86.1757 11.5346 994 82.9185 913.994 501.835
605 0 89.1197 11.535 1028 82.9222 914.17 500.508
606 0 91.2315 10.994 1003 83.1097 913.739 499.197
607 0 95.1458 10.4787 997 82.5888 913.847 499.268
608 0 97.1291 10.1206 983 82.8718 914.028 494.255
609 1 51.0673 9.18395 469 74.4755 913.878 519.989
610 0 53.0463 9.61425 510 69.2059 913.363 519.99
611 0 54.1377 9.80832 531 70.5217 913.388 518.527
612 0 57.1475 10.4642 598 70.4632 914.319 519.226
613 0 57.0891 10.9653 626 72.8418 914.466 518.912
614 0 58.0363 11.2171 651 72.9263 914.616 517.515
615 0 60.0381 11.1596 670 73.6522 914.236 515.988
616 0 61.0685 10.9713 670 75.5463 914.612 513.843
617 0 63.0506 11.1974 706 74.8867 914.48 512.435
618 0 66.1019 10.6048 701 71.5692 913.529 512.257
619 0 66.0426 9.84214 650 71.1969 913.535 510.158
620 0 66.0916 8.48822 561 74.4011 914.387 509.078
621 0 70.0397 9.53745 668 76.3952 913.582 508.557
622 0 73.0897 10.234 748 75.5294 913.619 507.723
623 0 75.1885 10.4005 782 77.6714 914.136 506.864
624 0 77.0995 10.1816 785 79.6726 914.899 506.167
625 0 81.0958 9.76622 792 78.755 914.641 505.958
626 0 81.0439 9.85885 799 81.199 914.78 504.206
627 0 84.0974 9.71492 817 82.6096 914.969 501.634
628 0 89.0719 10.7554 958 80.6347 915.105 500.17
629 0 90.176 10.3021 929 82.3929 915.297 496.116
630 0 95.1079 10.22 972 82.1739 915.395 495.13
631 1 51.0496 8.9129 455 75.6462 915.031 519.837
632 0 50.0303 8.95458 448 73.7344 915.121 518.603
633 0 53.0085 10.3946 551 70.8966 914.635 517.187
634 0 55.0541 9.64506 531 74.6836 914.925 516.667
635 0 53.0231 10.4483 554 74.2202 915.621 516.094
636 0 58.0379 11.0617 642 71.8551 915.525 516.248
637 0 60.0681 10.9376 657 72.551 915.341 515.177
638 0 62.0404 10.8155 671 73.313 916.316 514.103
639 0 61.0187 10.2264 624 76.0144 915.535 515.17
640 0 63.047 11.0711 698 75.3209 914.904 512.569
641 0 65.0397 10.7627 700 77.3757 915.26 512.884
642 0 65.0368 10.3019 670 78.3806 914.97 511.94
643 0 69.0512 10.8905 752 77.1569 915.184 510.971
644 0 71.0735 11.059 786 77.6985 915.725 509.12
645 0 73.0289 11.2695 823 79.096 915.672 507.722
646 0 76.0332 11.666 887 78.3506 915.849 506.631
647 0 78.049 11.4031 890 79.6427 915.884 506.394
648 0 81.0822 11.8028 957 80.0157 916.338 504.15
649 0 82.0388 11.8237 970 80.7495 915.953 503.65
650 0 87.0584 12.4399 1083 79.9954 915.28 501.401
651 0 87.0753 12.3227 1073 81.5238 914.911 500.072
652 0 91.0931 11.4828 1046 83.9101 914.615 496.897
653 0 95.045 12.4783 1186 82.4393 915.671 495.365
654 0 98.0814 12.4794 1224 82.384 916.01 494.746
655 1 54.064 10.802 584 81.0206 915.616 518.219
656 0 55.053 11.0076 606 79.2987 916.299 516.191
657 0 56.0574 11.5239 646 77.7229 916.031 513.738
658 0 56.0218 11.9596 670 84.7328 917.028 513.343
659 0 61.0231 12.0282 734 82.6185 917.052 513.035
660 0 63.053 12.5133 789 82.2408 917.053 512.349
661 0 64.0568 11.5679 741 83.7679 916.694 511.775
662 0 68.0767 12.2803 836 82.0419 915.282 509.953
663 0 67.0736 12.1806 817 83.6304 915.725 507.857
664 0 71.0744 12.1281 862 82.8898 915.144 507.964
665 0 72.1275 12.2284 882 83.7177 915.388 505.842
666 0 73.063 12.7561 932 83.8927 916.238 504.779
667 0 78.0694 12.5273 978 83.7076 916.273 503.206
668 0 79.0871 12.7328 1007 83.6395 916.116 501.957
669 0 82.0534 12.2237 1003 84.993 915.969 499.978
670 0 85.1096 12.4428 1059 79.9934 916.283 501.339
671 0 86.0725 11.9667 1030 81.3689 915.64 499.56
672 1 46.0202 10.9734 505 82.3386 916.147 520.438
673 0 46.0233 10.4512 481 84.2204 915.642 519.414
674 0 48.0761 11.1282 535 83.8467 915.843 517.626
675 0 49.0857 11.4086 560 83.9929 916.132 516.416
676 0 50.0564 11.2673 564 84.6188 916.521 517.113
677 0 51.1069 11.7205 599 82.3873 916.663 513.394
678 0 51.055 11.5953 592 78.0794 916.312 516.655
679 0 52.0207 10.6688 555 81.0126 916.267 518.613
680 0 54.0217 11.3288 612 80.0327 916.27 515.814
681 0 55.0401 10.5741 582 81.7801 915.435 515.78
682 0 56.0135 11.765 659 80.8194 914.325 513.78
683 0 58.0259 11.4087 662 81.2508 915.094 511.813
684 0 61.0348 11.518 703 80.5647 916.129 511.909
685 0 63.0502 10.6582 672 82.4673 916.464 510.557
686 0 67.0778 11.3152 759 81.278 916.978 511.217
687 0 66.0705 11.3818 752 81.7673 917.073 510.289
688 0 69.0363 11.675 806 81.7866 916.737 508.207
689 0 71.0582 10.9769 780 83.4923 917.123 508.086
690 0 75.0774 11.1751 839 83.2718 917.099 507.483
691 0 79.0691 11.6354 920 81.6272 916.852 507.061
692 0 80.0408 11.1068 889 83.3847 915.757 504.884
693 0 84.0562 11.8373 995 82.197 916.038 503.655
694 0 86.0618 11.6544 1003 84.1266 916.448 501.737
695 0 90.1184 12.0619 1087 83.3597 915.523 500.597
696 0 92.0718 11.6322 1071 84.7022 915.712 500.396
697 0 96.1687 11.6358 1119 84.7078 915.871 497.293
698 0 99.0737 11.6681 1156 85.6574 915.49 496.037
699 0 104.207 12.1106 1262 85.2567 915.993 495.826
700 0 106.095 12.2814 1303 85.6646 916.01 492.491
701 1 57.0454 10.6932 610 88.159 915.513 516.718
702 0 58.0836 11.2941 656 88.6463 915.524 517.421
703 0 60.0806 11.5678 695 88.0561 915.483 514.348
704 0 60.1139 11.944 718 86.9234 915.323 514.338
705 0 63.1475 11.9403 754 86.947 915.59 512.02
706 0 63.1383 11.4669 724 89.5097 915.892 510.22
707 0 68.1121 12.8612 876 84.0719 916 513.244
708 0 70.0863 12.4418 872 85.2259 915.274 510.86
709 0 71.0649 12.4253 883 85.6806 915.091 509.31
710 0 73.0577 11.9495 873 86.228 914.594 509.048
711 0 74.0759 12.1767 902 87.0466 913.778 506.878
712 0 76.0578 11.8068 898 87.5167 914.509 503.972
713 0 75.029 11.1957 840 93.1571 915.661 506.08
714 0 76.0824 10.9618 834 94.3837 915.903 503.62
715 0 79.0999 11.1757 884 94.2772 915.787 504.139
716 0 80.0939 10.8623 870 96.108 916.033 502.249
717 0 81.0497 11.203 908 96.7698 916.207 497.762
718 0 85.1053 12.0557 1026 95.579 916.146 496.916
719 0 87.0564 11.6132 1011 97.7943 915.486 494.715
720 0 91.0844 11.7034 1066 97.4887 914.741 493.776
721 0 92.0836 11.6525 1073 99.6356 915.042 492.682
722 0 96.0546 11.4935 1104 100.71 914.962 491.035
723 0 99.0662 11.6993 1159 100.151 914.934 489.495
724 0 103.05 11.5769 1193 101.785 914.668 486.811
725 0 106.047 11.3158 1200 101.92 915.21 486.848
726 0 110.083 10.9917 1210 103.888 915.565 485.249
727 0 113.141 11.225 1270 104.139 915.01 482.461
728 1 55.0221 8.5602 471 91.8408 914.081 512.1
729 0 63.0173 10.5368 664 99.5618 912.973 516.765
730 0 66.0926 10.9392 723 101.473 914.292 517.632
731 0 69.1099 11.3732 786 101.856 913.684 516.574
732 0 67.0563 10.7372 720 93.8431 915.275 517.222
733 0 71.0372 10.8253 769 92.3823 915.255 516.876
734 0 71.0535 9.83766 699 93.731 915.217 516.481
735 0 73.1368 10.1454 742 96.6873 916.042 513.934
736 0 77.0964 10.8954 840 96.8298 915.887 510.049
737 0 81.0969 10.6786 866 98.2818 915.71 509.517
738 0 83.0985 11.0351 917 99.5376 915.353 508.863
739 1 42.0599 10.2235 430 102.698 915.795 527.916
740 0 44.0213 11.4717 505 99.3782 915.834 526.62
741 0 43.0369 11.1765 481 90.6071 913.37 526.676
742 0 46.0076 11.4546 527 89.1499 913.558 524.159
743 0 46.0216 10.6255 489 92.2168 913.888 523.937
744 0 48.0136 11.6634 560 89.425 913.993 523.562
745 0 51.0261 11.3471 579 89.5769 913.636 523.819
746 0 52.0121 11.1128 578 89.9048 914.569 522.941
747 0 51.0696 11.0046 562 92.6192 914.592 521.098
748 0 53.0311 11.5027 610 90.1738 914.126 521.256
749 0 56.011 11.7477 658 89.6307 913.015 519.632
750 0 58.0517 11.662 677 90.4963 912.843 518.625
751 0 59.0433 11.7202 692 90.4147 914.042 517.566
752 0 61.0404 12.3033 751 88.8495 913.872 516.945
753 0 62.0392 12.6049 782 89.2059 913.992 515.335
754 0 60.0993 11.2647 677 94.1551 914.306 515.75
755 0 63.0771 11.5731 730 92.7493 914.441 515.273
756 0 64.0518 11.0692 709 93.8858 914.567 514.98
757 0 66.0836 10.4867 693 95.1717 914.662 513.378
758 0 69.0556 10.687 738 94.2426 913.947 512.195
759 0 71.0402 10.4448 742 91.6456 914.04 511.946
760 0 74.0316 10.5766 783 91.2899 914.096 509.978
761 0 76.0595 11.2938 859 89.4377 914.16 509.222
762 1 40.0114 9.89718 396 90.7374 914.977 524.205
763 0 41.0321 10.2846 422 88.9787 915.46 524.701
764 0 44.0403 10.7856 475 86.6421 915.886 524.236
765 0 42.0304 9.37416 394 91.4975 916.878 523.886
766 0 45.0422 10.7899 486 88.2366 916.453 522.004
767 0 47.0206 10.6549 501 88.026 916.559 521.81
768 0 47.0161 10.9324 514 89.6323 915.94 520.961
769 0 49.0463 11.479 563 92.2842 915.968 520.551
770 0 52.034 11.7423 611 94.3682 916.527 519.378
771 0 51.0322 11.8749 606 96.1155 916.455 518.165
772 0 51.1157 11.3468 580 98.5155 916.231 518.486
773 0 51.0648 11.3973 582 87.4708 916.821 513.552
774 0 50.028 8.77509 439 82.6105 916.581 516.804
775 0 52.0502 9.66374 503 82.7853 916.111 512.883
776 0 53.0305 8.99482 477 82.2369 915.342 513.411
777 0 55.0312 9.3765 516 82.6046 915.618 511.696
778 0 59.0445 11.4151 674 86.4451 914.869 515.743
779 0 61.0257 10.9134 666 87.6186 914.749 515.222
780 0 61.0378 10.4034 635 89.1118 914.632 515.553
781 0 64.0104 11.2326 719 86.5382 915.519 514.264
782 0 67.0536 11.6921 784 85.6046 915.881 512.593
783 0 68.029 10.9659 746 86.5255 915.984 511.094
784 0 70.0908 11.0143 772 86.057 915.905 509.979
785 0 74.0328 11.8461 877 84.0867 915.35 509.141
786 0 76.0482 11.7031 890 83.509 915.703 509.117
787 0 77.0394 12.0977 932 83.8852 915.281 506.741
788 0 79.031 12.0459 952 84.251 915.557 505.053
789 0 82.0253 11.9232 978 84.5215 915.304 504.592
790 0 84.0328 11.7216 985 84.9929 916.214 503.63
791 0 87.045 12.3844 1078 83.1122 916.743 504.694
792 0 87.0879 11.7008 1019 85.6349 916.363 502.006
793 0 91.0642 11.739 1069 84.9457 916.936 500.301
794 0 92.0324 12.0718 1111 84.2016 917.213 499.032
795 0 94.0818 11.118 1046 85.5994 916.943 498.218
796 0 99.0326 12.198 1208 86.3228 917.68 495.646
797 0 104.143 12.7229 1325 90.1902 916.773 493.949
798 1 55.0416 11.5004 633 85.297 916.588 517.992
799 0 58.0223 12.0643 700 81.8057 916.733 516.45
800 0 60.0397 11.5257 692 81.2442 917.078 516.027
801 0 63.0335 12.1364 765 80.5216 917.356 515.508
802 0 64.0621 10.8332 694 83.6816 917.481 515.151
803 0 63.059 11.3227 714 83.1611 917.189 515.094
804 0 67.0323 10.7858 723 84.213 917.568 513.692
805 0 68.0362 11.4498 779 84.018 916.553 512.339
806 0 71.0431 11.5704 822 83.7105 916.687 510.87
807 0 76.0633 11.5562 879 83.3242 916.522 511.031
808 0 77.0088 11.4922 885 84.3977 916.258 508.473
809 0 81.0199 11.8736 962 84.21 915.775 507.338
810 0 84.1054 12.1752 1024 84.3008 916.048 505.784
811 0 86.064 11.2591 969 87.3777 915.974 504.755
812 0 88.0702 12.2402 1078 87.7236 915.664 501.949
813 0 90.0545 11.8484 1067 89.4199 916.384 500.26
814 0 95.054 12.0142 1142 89.5368 916.827 500.391
815 0 97.1444 11.2822 1096 94.0456 916.401 496.201
816 0 102.028 12.0849 1233 94.9911 916.33 497.47
817 1 48.0388 9.63804 463 90.7711 916.177 524.192
818 0 51.035 10.5026 536 88.3321 916.112 523.265
819 0 53.0211 11.0711 587 87.092 915.072 521.855
820 0 54.0158 10.8672 587 86.2777 915.192 520.918
821 0 58.0382 11.1478 647 85.6955 915.252 518.779
822 0 59.032 11.6886 690 85.4 914.851 517.306
823 0 63.0703 12.0818 762 83.8609 915.077 517.08
824 0 64.071 11.2063 718 86.0139 915.148 516.233
825 0 66.0415 11.7956 779 85.1759 915.363 515.483
826 0 70.0348 12.094 847 83.1346 916.148 516.264
827 0 72.0566 12.2959 886 83.3905 915.966 514.62
828 0 75.0465 11.766 883 84.667 915.73 511.41
829 0 76.1022 12.1416 924 84.3647 915.699 511.952
830 0 79.0516 11.9922 948 86.1213 915.781 510.215
831 0 81.04 12.0804 979 86.6895 915.008 509.255
832 0 84.0427 12.3033 1034 87.1741 914.756 508.086
833 0 88.0756 12.2963 1083 88.3804 914.28 505.748
834 0 91.1383 13.0022 1185 91.4776 914.297 505.964
835 0 94.145 12.1515 1144 94.2867 914.975 504.797
836 0 95.1812 12.6601 1205 94.2183 914.385 501.6
837 0 100.186 12.3769 1240 95.0879 914.469 499.99
838 0 100.191 12.4063 1243 95.9292 914.209 497.147
839 0 104.24 12.596 1313 95.8058 914.849 496.092
840 0 108.275 12.6067 1365 95.3253 914.815 495.401
841 0 112.163 13.4091 1504 94.5253 914.499 491.241
842 0 115.228 13.1739 1518 96.3715 914.406 491.344
843 0 119.148 13.8736 1653 95.2136 913.736 489.597
844 0 121.188 13.739 1665 94.7826 913.421 487.946
845 0 124.252 12.6839 1576 98.2424 913.529 487.341
846 0 130.167 13.5134 1759 97.4673 913.432 483.799
847 0 134.124 13.2788 1781 99.731 913.462 479.162
848 0 138.124 13.6037 1879 100.477 913.575 473.514
849 0 142.069 13.6272 1936 101.29 913.945 472.38
850 0 148.165 13.3702 1981 103.227 914.307 468.331
851 0 151.203 13.8424 2093 102.44 914.276 467.369
852 0 156.115 14.2907 2231 102.576 914.498 463.69
853 0 159.162 13.9292 2217 105.386 912.905 462.565
854 0 167.156 14.2442 2381 104.675 913.684 459.673
855 0 170.216 14.3053 2435 106.924 913.422 456.308
856 0 177.224 14.761 2616 105.906 913.869 453.965
857 0 180.193 14.2791 2573 108.727 913.92 451.746
858 0 186.194 14.211 2646 110.664 914.121 449.061
859 0 189.171 13.6596 2584 113.452 914.178 448.111
860 0 197.208 14.3554 2831 110.617 914.827 444.877
861 0 203.242 14.1752 2881 110.926 914.197 441.765
862 0 208.23 14.3303 2984 110.331 913.957 437.76
863 0 217.255 14.3058 3108 110.408 913.474 432.822
864 0 226.166 14.7193 3329 107.729 913.214 430.08
865 1 46.0142 10.9966 506 95.6858 913.986 518.3
866 0 48.1083 12.2848 591 93.6193 914.604 518.985
867 0 49.0646 12.5956 618 92.6828 915.037 518.396
868 0 51.0973 12.9557 662 91.3187 914.618 516.742
869 0 50.057 12.0662 604 90.1358 914.457 517.253
870 0 53.0927 12.0167 638 89.6881 913.86 516.967
871 0 54.0374 12.0287 650 90.6831 914.462 514.905
872 0 55.0915 11.6533 642 91.1012 914.042 514.075
873 0 58.0387 12.2677 712 89.9733 914.909 513.376
874 0 59.1491 12.2233 723 90.3638 914.728 514.441
875 0 61.057 13.0697 798 88.8722 914.49 513.16
876 0 62.0546 12.8758 799 90.2553 913.872 512.826
877 0 65.0557 12.789 832 90.4123 914.182 510.862
878 0 66.058 13.1248 867 89.6471 914.896 510.49
879 0 69.1393 13.5523 937 88.2295 914.789 508.965
880 0 71.0801 13.1401 934 89.7452 914.928 504.849
881 0 73.0892 12.7789 934 90.1306 914.99 505.298
882 0 77.0907 13.8279 1066 87.2495 915.218 502.603
883 0 80.0646 13.7264 1099 86.8571 914.883 501.083
884 0 82.0672 14.1957 1165 86.6618 914.931 498.3
885 0 87.1992 13.9795 1219 86.4044 914.772 496.413
886 0 88.1168 13.6069 1199 87.613 914.491 493.374
887 0 90.1267 13.9248 1255 87.3147 914.148 492.465
888 0 96.0853 13.7482 1321 87.1832 914.275 491.559
889 0 99.1721 13.29 1318 88.9439 914.37 488.803
890 1 50.0366 11.8713 594 88.2694 914.342 515.311
891 0 51.118 12.2462 626 87.3658 913.944 514.356
892 0 51.0648 13.1402 671 85.6319 914.319 514.651
893 0 52.0437 12.5664 654 86.8012 914.008 512.313
894 0 55.1114 12.9374 713 84.1978 913.21 510.363
895 0 56.0852 13.2477 743 84.07 913.826 507.462
896 0 57.1182 12.7805 730 84.7822 914.137 506.726
897 0 58.0627 12.6071 732 85.3784 914.735 506.585
898 0 60.0761 12.5008 751 85.249 914.172 504.977
899 0 61.1857 12.6827 776 84.2848 914.209 503.999
900 0 63.0554 13.0679 824 84.3968 913.962 503.108
901 0 64.1325 13.0979 840 85.0024 915.307 502.773
902 0 65.0843 12.3378 803 86.6662 915.501 501.833
903 0 70.1172 13.0211 913 84.8916 915.552 500.347
904 0 70.0462 13.02 912 86.4342 915.458 499.309
905 0 72.1032 12.7179 917 87.2988 915.05 497.405
906 0 74.1408 12.6246 936 88.0064 914.845 496.216
907 0 79.1611 12.9735 1027 87.1139 915.471 494.565
908 0 81.1444 12.2621 995 89.4372 915.521 493.551
909 0 84.0797 13.0352 1096 88.3184 915.796 490.85
910 0 85.0581 12.5561 1068 89.9204 915.816 490.992
911 0 89.0623 12.6653 1128 89.7527 915.216 490.059
912 0 92.0642 13.2951 1224 88.4183 915.316 488.401
913 0 95.1766 12.8393 1222 89.4656 915.017 487.971
914 0 97.0931 12.7918 1242 89.9831 914.473 485.297
915 0 100.086 13.1188 1313 88.8393 914.635 483.049
916 0 105.147 12.8391 1350 88.6452 915.273 481.661
917 0 110.118 13.3766 1473 87.1745 914.624 479.306
918 0 114.227 12.4751 1425 91.7944 915.665 475.999
919 1 54.122 11.973 648 89.625 915.191 506.981
920 0 55.0498 11.5895 638 90.2085 915.003 506.555
921 0 57.0455 12.3586 705 89.4057 914.082 505.376
922 0 58.0458 11.8699 689 91.7388 913.443 505.766
923 0 61.07 12.1991 745 91.3785 914.493 505.536
924 0 62.0418 11.4278 709 94.9182 913.932 503.425
925 0 66.0764 11.8499 783 93.6718 913.874 503.238
926 0 68.0378 11.9345 812 94.3399 914.127 501.9
927 0 71.0431 12.2461 870 94.3805 913.795 501.844
928 0 72.0854 11.7777 849 96.1248 914.647 501.71
929 0 78.0311 12.1618 949 94.4626 914.162 499.893
930 0 78.0278 12.3418 963 95.6147 912.993 499.745
931 0 80.0286 12.3581 989 96.2295 912.41 499.089
932 0 85.0988 12.2681 1044 96.0259 912.938 498.58
933 0 87.0833 11.9196 1038 97.2505 913.236 497.552
934 0 91.0761 12.2754 1118 97.6252 913.164 496.042
935 0 92.0712 12.0016 1105 99.4715 913.436 494.852
936 0 96.0524 12.6806 1218 98.3432 913.567 491.91
937 0 99.086 12.7768 1266 99.5434 913.697 490.829
938 0 105.129 12.6606 1331 100.082 913.703 490.009
939 0 107.109 12.8841 1380 101.156 912.753 489.361
940 0 112.072 13.0898 1467 100.237 912.661 487.974
941 0 114.086 12.8937 1471 102.19 912.711 486.139
942 0 118.13 13.2058 1560 102.8 912.934 484.926
943 0 122.072 13.402 1636 103.351 913.244 482.031
944 0 126.087 13.6652 1723 104.258 913.185 481.826
945 0 130.14 13.3625 1739 106.24 913.338 480.384
946 0 136.11 13.8564 1886 106.143 913.067 476.855
947 0 139.194 13.5351 1884 108.874 913.045 474.03
948 0 146.146 13.7739 2013 109.79 912.953 471.661
949 0 150.065 13.7474 2063 112.979 912.334 468.72
950 0 154.065 13.8318 2131 113.483 913.075 466.243
951 0 160.103 13.635 2183 123.402 912.529 467.048
952 0 165.173 13.8885 2294 124.073 913.687 464.547
953 0 171.097 14.7109 2517 120.952 913.398 461.733
954 0 176.09 14.061 2476 124.529 914.291 457.595
955 0 183.096 14.1783 2596 115.856 913.88 454.612
956 1 96.0876 11.4791 1103 111.576 913.821 497.309
957 0 100.064 12.5519 1256 108.631 914.568 497.133
958 0 101.052 12.0136 1214 110.55 914.264 495.079
959 0 103.044 11.6455 1200 112.158 914.084 492.703
960 0 109.098 11.8609 1294 109.988 913.076 490.349
961 0 112.097 12.0967 1356 109.467 913.886 488.44
962 0 111.088 11.7294 1303 158.584 913.876 487.172
963 0 118.046 12.707 1500 109.255 914.001 481.611
964 0 124.081 11.6214 1442 108.628 914.062 481.908
965 0 129.147 11.7927 1523 108.2 914.471 478.453
966 0 133.179 11.5259 1535 109.612 914.343 474.049
967 0 138.151 11.6177 1605 109.09 914.736 470.573
968 1 73.1237 10.0925 738 82.2886 913.816 511.94
969 0 74.0885 9.67762 717 82.9442 913.775 508.204
970 0 77.1718 9.20026 710 84.0197 913.876 506.545
971 0 81.2074 9.59273 779 81.5469 914.087 506.968
972 0 83.1636 10.5575 878 79.6993 914.062 504.927
973 0 85.1952 9.27282 790 81.5962 914.138 503.115
974 0 87.1751 10.1635 886 80.5711 914.71 501.536
975 0 88.1231 9.67964 853 81.5885 914.897 501.222
976 0 91.0726 8.66342 789 84.5856 915.2 497.551
977 0 93.1382 9.31948 868 83.9147 915.525 495.082
978 1 50.0463 8.27234 414 75.0169 914.843 521.152
979 0 51.0789 6.89131 352 84.2898 916.006 523.929
980 0 54.1448 7.77544 421 83.3872 916.112 521.435
981 0 56.14 8.46099 475 82.8421 916.021 518.655
982 0 55.0687 7.29997 402 73.9129 915.236 518.873
983 0 58.0435 8.32135 483 73.0766 915.47 516.381
984 0 60.0522 9.09209 546 72.2088 914.956 515.159
985 0 60.1575 7.74634 466 75.4335 915.062 512.803
986 0 59.0896 7.7171 456 75.8531 915.154 513.59
987 0 59.0417 7.57092 447 76.4206 914.622 511.353
988 0 64.1724 7.90059 507 75.5641 914.233 510.566
989 0 67.1281 8.31246 558 75.5574 914.246 510.419
990 0 67.1703 7.01203 471 77.3312 914.877 511.346
991 0 70.1316 8.07055 566 76.5442 914.297 507.91
992 0 71.0791 7.37207 524 78.126 913.702 503.487
993 0 73.1882 7.2826 533 78.2964 915.038 502.78
994 0 79.1961 7.53825 597 78.7236 914.915 501.27
995 0 79.0796 11.3936 901 108.565 914.815 419.966
996 0 83.2213 7.42598 618 80.377 915.071 496.299
997 1 0 0 0 -nan -nan -nan
998 1 38.0064 3.57834 136 80.8382 914.096 529
999 0 38.0226 3.23492 123 81.6585 914.309 527.439
1000 0 29.005 4.24064 123 82.0325 914.667 526.984
1001 0 28.0611 3.84875 108 84.0278 913.676 525.806
1002 1 43.0359 5.57674 240 81.3333 914.479 519.679
1003 0 44.0116 4.63514 204 80.0539 914.75 522.676
1004 0 38.0122 5.18255 197 80.9239 915.061 524.736
1005 0 47.0692 4.44027 209 82.3971 915.656 520.206
1006 0 52.044 6.09101 317 80.6246 915.555 517.032
1007 0 49.0299 3.75281 184 82.2609 915.141 519.87
1008 1 122.161 8.48062 1036 90.7954 916.991 473.928
1009 0 127.121 9.72301 1236 89.6578 915.957 474.155
1010 0 132.21 10.3774 1372 89.2544 916.072 473.473
1011 0 136.237 10.3349 1408 90.2777 916.156 473.776
1012 0 141.173 10.689 1509 90.2174 916.615 470.97
1013 0 143.189 10.8598 1555 91.1858 916.181 470.344
1014 0 149.205 10.8374 1617 92.0742 915.845 469.955
1015 0 154.176 11.6945 1803 91.5524 916.246 465.978
1016 0 157.199 11.1451 1752 94.4989 916.624 465.23
1017 0 160.115 10.5549 1690 96.5266 916.963 461.483
1018 0 167.21 11.4108 1908 95.4811 917.155 460.182
1019 0 173.117 11.6626 2019 95.5805 917.109 460.281
1020 0 177.266 11.3615 2014 97.707 916.155 455.445
1021 0 181.105 11.0433 2000 99.203 916.462 451.116
1022 0 186.28 11.6115 2163 98.5932 916.692 450.656
1023 0 192.113 11.5921 2227 99.8249 917.116 445.852
1024 0 199.116 12.3948 2468 97.4214 916.611 444.343
1025 0 203.299 11.4511 2328 101.076 915.721 439.392
1026 0 212.233 12.2224 2594 99.0297 915.409 437.61
1027 0 217.252 14.4625 3142 93.3189 915.889 430.209
1028 0 223.303 12.3241 2752 100.205 915.261 430.429
1029 0 229.286 11.8629 2720 101.999 915.467 427.646
1030 0 238.301 12.5723 2996 98.9536 915.498 425.367
1031 1 180.229 10.6753 1924 98.3934 916.251 456.366
1032 0 187.221 11.3929 2133 97.7539 916.67 453.684
1033 0 193.24 11.3331 2190 98.0201 915.914 449.691
1034 0 200.333 11.8253 2369 96.9557 915.004 446.48
1035 0 204.211 11.9876 2448 97.0347 915.51 444.164
1036 0 211.192 11.7145 2474 98.445 915.563 439.638
1037 0 218.196 11.6959 2552 98.7731 914.669 435.213
1038 0 226.266 11.9859 2712 96.7412 915.552 432.518
1039 0 232.509 11.6468 2708 99.0222 914.804 425.496
1040 0 240.48 12.0176 2890 98.054 914.903 423.547
1041 0 247.483 11.9039 2946 99.148 915.812 414.33
1042 1 58.1275 8.51576 495 84.699 915.376 509.291
1043 0 55.0492 8.57414 472 81.6949 915.843 505.559
1044 0 66.1018 10.3325 683 82.2401 914.196 511.946
1045 0 65.0758 9.81932 639 73.1956 914.127 514.282
1046 0 68.0328 9.65711 657 73.2451 914.183 511.89
1047 0 68.0236 9.64372 656 73.904 915.035 511.944
1048 0 70.0328 9.75257 683 74.142 915.382 509.602
1049 0 72.0522 10.3675 747 73.8581 914.946 505.825
1050 0 73.0772 10.0852 737 74.1927 914.758 507.209
1051 0 77.1104 9.83007 758 74.2335 915.354 505.859
1052 0 81.0896 10.8152 877 71.3945 915.691 504.358
1053 0 79.0886 10.1405 802 73.7045 915.212 503.802
1054 0 81.0993 9.03831 733 77.6644 915.333 505.754
1055 0 84.0645 9.15964 770 79.1896 915.222 502.9
1056 0 88.0772 9.36678 825 79.623 915.498 504.902
1057 0 90.0622 10.2263 921 78.6732 915.986 501.66
1058 0 96.1341 11.2135 1078 81.8924 916.406 497.512
1059 1 49.0681 9.3951 461 84.8113 915.599 521.755
1060 0 53.1737 9.76047 519 84.4277 916.287 514.299
1061 0 52.1785 10.6749 557 73.2531 915.856 512.573
1062 0 53.0261 10.2968 546 84.9267 915.097 520.031
1063 0 53.0577 9.76296 518 79.7413 916.176 521.212
1064 0 53.0435 8.99261 477 81.6268 915.866 520.969
1065 0 55.0442 9.08361 500 81.482 915.426 519.718
1066 0 59.0603 9.34638 552 76.0344 914.464 515.52
1067 0 63.1012 11.4736 724 72.4378 914.739 515.693
1068 0 66.0754 11.7896 779 71.8537 914.516 516.629
1069 0 66.0774 12.0919 799 72.7835 914.566 515.955
1070 0 69.1202 11.9213 824 73.3507 915.038 515.12
1071 0 70.1328 11.7064 821 74.4275 914.82 514.657
1072 0 71.1164 12.36 879 73.5358 915.164 513.273
1073 0 72.1039 12.1353 875 74.2377 914.461 513.434
1074 0 73.1053 12.2563 896 74.4955 915.198 512.169
1075 0 74.104 12.0776 895 75.2268 914.645 512.074
1076 0 75.1388 12.5501 943 74.5323 915.28 510.487
1077 0 77.0477 11.8887 916 76.0731 914.641 512.079
1078 0 79.1389 11.7136 927 75.8716 914.904 511.407
1079 0 79.1006 11.0998 878 78.2745 915.076 510.636
1080 0 82.0551 12.0773 991 78.3451 915.967 507.674
1081 0 86.0645 12.2001 1050 77.539 916.417 506.89
1082 0 87.1595 11.6224 1013 78.1826 916.243 503.948
1083 0 91.1392 11.9707 1091 77.1769 915.931 503.928
1084 1 46.159 10.2905 475 79.7937 915.564 523.124
1085 0 44.0061 9.93044 437 74.7574 914.565 519.162
1086 0 47.016 10.6985 503 73.8926 914.358 518.258
1087 0 48.0711 10.5261 506 72.8399 914.474 524.057
1088 0 50.0175 10.7962 540 72.2296 915.168 524.281
1089 0 50.0298 9.97406 499 84.1663 914.888 523.76
1090 0 52.0216 10.5533 549 83.2641 915.128 522.734
1091 0 55.0779 10.8574 598 82.3211 915.261 521.184
1092 0 56.0429 10.9202 612 82.2941 915.387 520.863
1093 0 57.073 10.8983 622 83.0209 914.063 518.836
1094 0 57.1171 10.5047 600 83.3967 914.215 519.058
1095 0 61.0767 10.757 657 82.828 914.332 517.916
1096 0 63.0508 10.9277 689 82.6372 915.084 517.321
1097 0 64.0844 11.0011 705 83.5149 914.784 516.549
1098 0 67.0263 10.7868 723 83.0913 915.188 516.069
1099 0 69.0229 11.3441 783 82.0728 916.94 516.261
1100 0 71.0282 10.9956 781 81.6364 916.718 515.545
1101 0 75.0462 11.5795 869 79.4603 916.392 512.311
1102 0 77.0348 11.3196 872 79.8922 915.994 510.587
1103 0 78.0207 11.2919 881 81.202 915.406 509.196
1104 0 79.0577 11.0679 875 82.3566 915.522 509.822
1105 0 84.0437 12.3507 1038 79.1715 915.241 507.609
1106 0 86.1319 12.179 1049 79.4786 915.015 506.05
1107 0 90.0543 11.8151 1064 77.2575 914.726 504.03
1108 0 94.0386 11.6973 1100 77.52 915.149 501.453
1109 0 98.0511 12.1263 1189 77.54 915.378 501.434
1110 1 48.0825 10.2324 492 79.2947 915.018 523.571
1111 0 49.1052 10.7117 526 79.2319 914.941 522.251
1112 0 52.1497 10.9876 573 74.3543 915.368 521.291
1113 0 54.0602 11.5612 625 71.344 916.568 520.211
1114 0 56.1416 10.9366 614 72.114 915.409 521.358
1115 0 56.0946 10.928 613 72.863 914.617 519.739
1116 0 60.0439 10.7921 648 72.8318 915.418 517.77
1117 0 61.03 11.3059 690 73.1145 915.678 518.116
1118 0 63.0919 11.4436 722 73.7798 915.999 516.445
1119 0 65.068 11.2651 733 74.4652 915.514 515.745
1120 0 64.0754 10.5501 676 78.6006 915.76 516.241
1121 0 66.0369 11.1453 736 78.7405 916.257 515.224
1122 0 68.0316 10.9802 747 81.004 915.388 514.823
1123 0 70.0494 11.2635 789 81.1179 915.771 513.868
1124 0 73.0974 11.4368 836 81.7344 914.675 510.349
1125 0 74.1235 11.4808 851 83.2914 914.816 510.383
1126 0 78.1221 10.778 842 85.2268 914.387 508.799
1127 0 79.1103 11.1996 886 86.2743 914.474 506.755
1128 0 80.073 11.2023 897 87.961 915.35 506.327
1129 0 84.0913 11.1189 935 87.7722 915.317 506.225
1130 0 88.0388 12.0629 1062 86.6365 915.547 503.114
1131 0 91.1929 11.4812 1047 98.4002 915.359 500.808
1132 0 92.0885 10.794 994 98.4155 915.266 499.595
1133 0 97.0542 11.5399 1120 96.4232 915.321 498.638
1134 0 100.114 10.3682 1038 96.3102 915.283 496.645
1135 0 104.151 11.2145 1168 95.5094 915.828 496.219
1136 0 107.104 10.9987 1178 96.5382 914.66 492.907
1137 0 110.069 11.52 1268 96.8312 915.211 492.561
1138 1 58.0296 9.61578 558 90.7061 914.068 520.72
1139 0 59.1038 10.2532 606 90.962 914.498 516.599
1140 0 61.0886 11.1477 681 90.0147 914.532 516.902
1141 0 63.1416 11.0545 698 91.3954 914.934 517.05
1142 0 66.0235 11.5565 763 90.5872 914.958 514.756
1143 0 68.0602 11.8719 808 91.4035 914.51 513.884
1144 0 70.07 11.3601 796 93.9887 915.034 512.902
1145 0 72.135 11.8805 857 94.2882 914.816 512.92
1146 0 77.0487 11.6679 899 95.4561 915.02 511.778
1147 0 78.1038 12.4322 971 95.1946 914.023 508.589
1148 0 81.1692 11.7409 953 97.4313 914.009 506.792
1149 0 82.093 11.8524 973 88.6516 913.75 506.202
1150 0 85.2001 11.9953 1022 87.866 914.173 505.687
1151 0 87.1571 11.5768 1009 89.4182 914.218 503.832
1152 0 91.2277 11.2795 1029 89.6443 913.929 502.62
1153 1 44.114 9.56613 422 87.5735 912.673 526.137
1154 0 47.1309 10.4815 494 85.3117 912.852 524.903
1155 0 48.1696 10.5461 508 85.9547 913.805 524.063
1156 0 48.1482 10.9038 525 87.4286 913.985 522.055
1157 0 49.107 10.8538 533 84.9343 913.315 523.19
1158 0 50.0396 11.431 572 83.9143 914.119 523.213
1159 0 52.0924 11.4796 598 83.9281 912.764 523.395
1160 0 55.0968 10.9625 604 84.7815 913.661 521.025
1161 0 56.0962 11.5694 649 83.8644 913.268 520.991
1162 0 56.0886 10.8222 607 87.0082 912.619 519.241
1163 0 60.0804 11.3681 683 86.2533 913.098 516.726
1164 0 61.0465 11.4339 698 85.7507 913.294 517.249
1165 0 64.0714 11.6589 747 85.8554 913.329 514.066
1166 0 64.0818 11.8911 762 87.0525 912.89 514.172
1167 0 68.0541 12.2696 835 86.1365 913.395 512.541
1168 0 71.0775 11.4101 811 88.3564 913.051 511.744
1169 0 72.0928 11.8042 851 88.9013 914.033 509.945
1170 0 75.109 11.5432 867 90.3956 914.143 508.478
1171 0 78.095 11.3451 886 91.9842 913.929 507.024
1172 0 80.0789 11.8383 948 90.692 913.997 506.962
1173 0 84.1288 12.1599 1023 90.8231 913.414 505.453
1174 0 87.1871 12.2495 1068 90.4476 913.54 502.646
1175 0 90.1891 12.2409 1104 91.3841 913.741 501.268
1176 0 91.1953 11.3931 1039 101.195 913.823 499.09
1177 1 50.1517 10.2688 515 96.9456 913.761 521.74
1178 0 50.0781 10.3438 518 94.583 913.237 520.712
1179 0 51.0928 10.8626 555 96.573 913.953 520.677
1180 0 52.0809 10.2341 533 87.5497 913.593 520.326
1181 0 52.0313 10.7051 557 88.535 913.874 520.241
1182 0 56.0336 10.8506 608 87.421 913.117 518.882
1183 0 57.0241 10.6622 608 88.0329 913.041 517.946
1184 0 60.0478 10.3251 620 87.2677 912.531 516.831
1185 0 61.0477 10.3362 631 89.954 912.502 516.528
1186 0 62.0289 9.57619 594 92.0572 912.411 517.005
1187 0 64.0592 10.8649 696 89.4986 912.756 514.888
1188 0 67.0441 10.7989 724 90.0663 912.892 513.42
1189 0 67.0416 9.71039 651 92.7588 913.214 512.687
1190 0 70.048 9.63626 675 92.1067 913.163 511.194
1191 0 75.0744 11.5485 867 87.0957 912.347 511.653
1192 0 78.0737 11.1177 868 89.1901 912.176 509.908
1193 0 80.0776 11.3265 907 88.849 911.918 509.095
1194 0 83.0472 11.6921 971 89.1936 912.829 507.057
1195 0 85.0257 11.1849 951 91.1956 912.539 506.219
1196 1 48.0094 9.85224 473 88.8499 912.362 525.968
1197 0 49.0115 9.83442 482 88.0498 912.606 524.73
1198 0 50.0128 11.0372 552 88.6938 913.029 523.52
1199 0 50.0546 10.8082 541 87.2847 913.917 522.715
1200 0 53.0759 10.7582 571 84.7793 914 522.86
1201 0 55.0624 11.2781 621 80.9002 913.607 522.622
1202 0 54.0545 10.6559 576 82.1267 912.682 521.104
1203 0 57.0595 11.4442 653 79.8178 913.211 518.608
1204 0 57.082 11.1419 636 81.1274 912.902 518.789
1205 0 60.038 12.059 724 79.7099 913.394 519.863
1206 0 61.0797 11.002 672 82.2664 913.158 517.796
1207 0 61.1022 11.1453 681 83.0294 913.662 517.488
1208 0 64.0449 11.4451 733 81.899 913.443 516.39
1209 0 64.0183 10.9656 702 91.1011 914.35 515.013
1210 0 69.0457 11.5576 798 80.3145 913.912 515.293
1211 0 70.0855 10.6441 746 82.9893 913.213 512.511
1212 0 71.0972 11.3225 805 83.164 912.742 511.523
1213 0 75.0807 11.9605 898 82.9621 912.718 510.571
1214 0 77.0636 11.7695 907 82.9482 913.293 509.512
1215 0 80.1008 11.9599 958 92.5678 913.594 508.045
1216 0 83.1088 11.7075 973 93.0863 913.772 506.657
1217 0 85.0524 11.1461 948 94.8238 913.903 505.43
1218 0 88.1307 10.8021 952 96.5609 913.957 503.654
1219 0 93.1653 12.0109 1119 96.0036 914.196 502.575
1220 1 47.2141 11.056 522 94.5038 913.833 524.387
1221 0 49.1248 11.5624 568 93.2482 912.933 523.273
1222 0 49.104 10.8138 531 85.9303 912.181 524.815
1223 0 52.0738 12.1558 633 81.3476 912.81 523.128
1224 0 53.0426 11.5756 614 83.7329 913.505 522.059
1225 0 53.0953 11.4323 607 84.939 913.517 521.797
1226 0 56.0622 11.6656 654 85.8639 912.901 519.599
1227 0 57.0986 12.0318 687 85.0873 913.384 519.811
1228 0 59.0783 11.5609 683 86.2665 913.798 519.445
1229 0 59.0465 12.1769 719 86.3658 914.47 519.466
1230 0 63.0257 12.3918 781 85.3291 914.022 517.647
1231 0 65.025 12.5029 813 86.2103 914.224 516.713
1232 0 67.0439 12.1115 812 87.5222 914.015 516.085
1233 0 69.0928 12.0707 834 88.0432 913.766 514.374
1234 0 72.071 12.6126 909 87.011 913.946 512.98
1235 0 74.0644 12.1651 901 88.9312 914.688 512.25
1236 0 74.041 11.9799 887 90.9808 914.489 511.998
1237 0 78.0343 12.3151 961 90.1134 914.973 510.073
1238 0 80.1125 12.3576 990 90.1131 914.476 507.568
1239 0 83.0342 11.9108 989 91.7927 914.735 506.266
1240 0 87.0402 12.8906 1122 90.1684 914.763 504.521
1241 0 89.104 12.7716 1138 95.5431 914.656 502.956
1242 0 93.1247 12.3276 1148 95.9268 914.273 501.996
1243 0 95.1842 11.1888 1065 97.6451 913.208 500.286
1244 1 49.0651 8.88615 436 94.3073 913.72 523.913
1245 0 52.0239 10.2837 535 92.1402 913.25 521.63
1246 0 51.029 10.7586 549 92.1639 914.133 520.512
1247 0 54.0626 11.6531 630 90.2143 914.195 518.508
1248 0 57.0513 11.0252 629 96.7424 914.035 517.448
1249 0 58.0544 11.2136 651 95.9416 915.002 518.204
1250 0 60.0622 11.2883 678 94.3392 915.274 515.827
1251 0 63.1974 11.7093 740 93.0757 915.17 514.758
1252 0 66.0249 11.9197 787 91.3863 915.639 513.691
1253 0 68.0413 11.2285 764 91.9241 915.611 513.804
1254 0 68.052 11.3002 769 93.9584 915.064 513.111
1255 0 72.0822 12.1528 876 90.6918 914.989 512.729
1256 0 75.1672 13.0908 984 87.7266 914.094 510.128
1257 0 77.2266 11.6929 903 92.0388 915.661 510.793
1258 0 79.2719 13.2708 1052 89.6321 914.802 507.667
1259 0 79.0764 12.5701 994 90.4095 915.403 507.688
1260 0 84.0771 12.8691 1082 89.9723 914.86 506.757
1261 0 82.0534 11.3463 931 84.9345 914.555 508.419
1262 0 85.0435 11.6176 988 84.832 914.205 507.224
1263 0 86.059 11.7245 1009 85.2696 914.273 506.276
1264 0 88.0951 11.3514 1000 87.692 914.342 504.304
1265 0 90.0568 11.4816 1034 89.3172 914.507 501.829
1266 0 93.0822 11.5704 1077 89.493 914.651 502.169
1267 0 97.1374 11.808 1147 90.0584 915.251 500.303
1268 0 99.091 11.6156 1151 90.7811 915.122 499.482
1269 0 103.073 11.9818 1235 92.3142 915.166 495.744
1270 0 105.126 11.8524 1246 93.2576 914.555 495.503
1271 0 107.076 11.6366 1246 94.9767 913.635 493.771
1272 0 112.063 11.8326 1326 94.2413 914.419 491.784
1273 0 116.066 11.9414 1386 94.1198 914.509 490.184
1274 1 45.0599 8.76611 395 83.8253 913.41 525.086
1275 0 48.0674 9.88195 475 86.2168 913.32 524.427
1276 0 50.0155 10.3768 519 84.9538 914.002 524.595
1277 0 52.0535 10.8542 565 84.8212 915.088 523.653
1278 0 52.015 11.439 595 83.3345 914.292 523.277
1279 0 52.0444 10.8177 563 87.1421 914.295 524.432
1280 0 55.0751 10.7671 593 87.6627 914.621 521.118
1281 0 56.0613 11.202 628 87.2054 914.162 519.338
1282 0 59.0453 10.9916 649 87.0077 914.242 520.046
1283 0 60.0641 11.6043 697 86.198 913.769 518.176
1284 0 63.0296 11.6295 733 86.442 913.876 518.123
1285 0 64.1043 11.9805 768 85.1133 914.25 517.522
1286 0 67.044 12.2159 819 83.9255 914.427 515.607
1287 0 69.1191 12.4278 859 83.7567 914.992 515.719
1288 0 72.0741 11.9044 858 84.486 914.427 514.751
1289 0 74.0748 12.2579 908 85.1619 914.699 513.261
1290 0 76.0425 12.1116 921 86.2063 914.956 513.149
1291 0 78.0439 12.3776 966 86.2288 914.717 511.341
1292 0 82.1048 12.6667 1040 84.9029 915.377 509.846
1293 0 86.124 12.8303 1105 97.9991 914.882 508.032
1294 0 86.0706 12.2458 1054 96.76 915.209 507.133
1295 0 89.0609 11.9244 1062 96.0245 914.252 505.721
1296 0 93.0915 12.665 1179 94.771 914.261 504.485
1297 1 46.0464 11.3581 523 92.501 913.272 526.335
1298 0 48.0351 11.4083 548 93.7646 913.268 525.739
1299 0 49.0424 11.8061 579 96.5268 914.85 524.523
1300 0 48.0762 11.461 551 93.0182 913.345 526.632
1301 0 50.1541 11.7438 589 91.6129 913.525 524.104
1302 0 51.0983 11.7616 601 92.8086 913.378 524.616
1303 0 52.0399 12.1253 631 93.5689 913.862 523.906
1304 0 53.0853 11.3779 604 96.5596 913.561 523.584
1305 0 55.0792 12.1462 669 95.2646 913.919 523.574
1306 0 56.1146 11.8329 664 96.5934 913.836 523.176
1307 0 57.1122 12.5017 714 96.0966 913.352 522.905
1308 0 59.0844 12.6937 750 96.0893 913.421 521.623
1309 0 61.0454 12.0894 738 97.1653 913.039 520.893
1310 0 63.1553 12.7305 804 94.7848 913.005 518.777
1311 0 64.1616 12.4218 797 95.256 912.69 518.553
1312 0 67.1741 12.7579 857 93.7351 913.205 517.023
1313 0 68.1066 12.0987 824 95.9927 913.366 516.231
1314 0 70.1224 12.25 859 95.0012 913.606 514.892
1315 0 71.0629 12.0879 859 95.241 913.241 513.353
1316 0 75.0994 12.2238 918 93.8932 913.91 512.974
1317 0 76.0797 11.9086 906 94.213 913.688 511.368
1318 0 80.1252 12.3931 993 92.4753 913.818 509.114
1319 0 82.0576 12.5278 1028 93.32 913.696 506.311
1320 0 84.0974 12.3309 1037 92.8264 913.928 504.412
1321 0 84.1037 12.4489 1047 94.5683 913.606 499.063
1322 0 88.0535 12.5265 1103 94.0762 913.653 499.024
1323 0 90.1654 12.6878 1144 93.1285 913.305 498.433
1324 0 94.1066 12.8578 1210 90.2264 914.54 495.207
1325 0 99.0951 13.2802 1316 88.6261 914.646 494.706
1326 0 102.224 13.0986 1339 88.7618 913.979 493.3
1327 0 104.063 12.7519 1327 89.884 914.197 491.471
1328 0 107.068 13.4214 1437 87.8017 915.071 488.394
1329 0 110.153 13.218 1456 86.4979 913.292 489.8
1330 0 114.162 13.4458 1535 85.727 913.422 482.818
1331 1 54.0507 10.7677 582 88.9124 913.418 512.909
1332 0 57.0413 11.255 642 88.1137 913.542 512.142
1333 0 58.0246 11.3917 661 88.7231 913.472 511.717
1334 0 61.0302 11.7647 718 89.9276 913.517 512.447
1335 0 68.0406 12.0369 819 82.5934 913.923 517.474
1336 0 70.033 12.6369 885 81.4746 912.58 515.202
1337 0 71.0172 13.377 950 81.3358 912.544 513.666
1338 0 74.0331 12.7781 946 82.7992 912.301 511.994
1339 0 73.0389 12.5413 916 85.6081 912.146 511.366
1340 0 77.0611 12.3928 955 86.6942 912.844 510.459
1341 0 78.1106 12.2903 960 87.3781 912.912 510.195
1342 0 82.0314 12.4952 1025 87.4722 913.011 508.326
1343 0 84.0373 12.2565 1030 88.5728 913.514 507.645
1344 0 85.0751 12.0952 1029 89.966 913.502 507.042
1345 0 88.0321 12.3591 1088 89.9393 913.417 505.567
1346 0 90.0344 12.0843 1088 90.625 912.698 502.409
1347 1 49.0456 10.2354 502 91.5299 913.384 521.277
1348 0 54.0198 11.0515 597 89.2278 912.759 520.291
1349 0 55.02 11.9593 658 88.0502 912.457 520.088
1350 0 58.0709 12.6569 735 84.351 913.082 519.693
1351 0 57.0615 11.5489 659 89.4522 913.294 520.452
1352 0 59.0564 11.6499 688 87.8401 913.381 519.618
1353 0 61.1079 11.4879 702 89.0442 913.107 519.613
1354 0 62.137 11.6678 725 89.8966 913.514 518.532
1355 0 67.0712 12.3302 827 87.7267 913.382 517.768
1356 0 67.1288 12.1259 814 89.0958 912.695 515.752
1357 0 69.0663 11.5252 796 91.6369 913.558 514.8
1358 0 72.0606 11.8373 853 89.8171 913.015 514.689
1359 0 74.0392 11.7235 868 90.5979 913.107 512.472
1360 0 75.1094 11.8228 888 91.4628 912.993 510.754
1361 0 75.0838 11.8534 890 92.3618 913.093 509.007
1362 0 78.1163 11.3677 888 90.9459 913.112 505.367
1363 0 79.0732 11.0404 873 93.6621 912.566 504.693
1364 0 83.0545 11.4985 955 96.0021 912.861 503.939
1365 0 85.1062 11.3623 967 95.728 912.4 502.766
1366 0 88.0736 11.7856 1038 96.0491 912.36 501.493
1367 0 91.1354 11.4665 1045 97.2392 912.831 499.466
1368 0 94.0653 11.3007 1063 98.7178 912.881 498.734
1369 0 97.1583 11.7128 1138 98.1924 913.312 496.463
1370 0 101.224 11.924 1207 98.1508 912.86 494.947
1371 1 53.0765 10.7769 572 94.3042 912.96 521.446
1372 0 53.1357 10.4261 554 97.2726 913.236 519.746
1373 0 55.1238 10.9934 606 97.637 913.239 518.267
1374 0 59.0967 11.5912 685 93.8818 913.003 519.508
1375 0 60.0581 11.5721 695 95.5971 913.111 518.26
1376 0 58.06 10.9542 636 100.278 913.222 515.261
1377 0 62.1069 11.1904 695 94.5424 912.973 517.694
1378 0 66.1269 11.7199 775 100.894 912.401 518.563
1379 0 67.14 12.3324 828 97.6341 912.419 518.145
1380 0 66.0973 11.9067 787 103.546 913.009 517.771
1381 0 67.1229 12.1419 815 107.777 913.15 518.687
1382 0 68.0962 11.704 797 109.55 913.144 518.917
1383 0 70.1142 12.4654 874 105.568 913.309 519.38
1384 0 72.0497 12.5191 902 101.79 912.716 517.295
1385 0 75.1382 12.7631 959 97.4651 911.944 516.494
1386 0 76.0961 12.0637 918 97.3007 911.219 514.641
1387 0 76.1958 11.9954 914 97.954 911.589 513.846
1388 0 80.1813 11.8731 952 96.1954 911.413 512.932
1389 0 83.113 12.0318 1000 93.135 912.016 511.014
1390 0 84.0875 11.381 957 93.092 912.482 509.595
1391 0 84.1098 10.4387 878 88.9362 912.418 505.902
1392 0 88.104 11.6453 1026 85.6345 912.704 504.698
1393 0 91.1072 11.6786 1064 85.6974 912.27 508.203
1394 1 48.0804 10.6904 514 89.5817 912.035 527.693
1395 0 49.092 11.3461 557 88.2657 911.356 527.174
1396 0 50.1019 11.6762 585 89.1897 911.73 525.039
1397 0 51.0376 11.1095 567 91.4709 911.665 524.908
1398 0 52.1434 10.7972 563 93.2806 911.897 526.172
1399 0 53.1136 10.6564 566 95.0689 912.27 524.67
1400 0 53.1891 11.0173 586 95.6587 912.816 525.845
1401 0 56.1185 11.155 626 97.9217 913.19 523.583
1402 0 57.1227 11.7116 669 98.0448 912.607 521.726
1403 0 58.162 11.0381 642 102.023 912.227 521.167
1404 0 60.1582 11.2537 677 103.025 912.381 520.818
1405 0 61.2039 11.5189 705 104.952 912.962 519.777
1406 0 63.1697 11.477 725 107.324 913.27 519.017
1407 0 66.2713 11.634 771 108.293 913.362 517.892
1408 0 69.2368 12.0889 837 107.896 912.851 516.458
1409 0 71.3022 11.9491 852 108.872 912.442 515.168
1410 0 72.3688 11.9388 864 111.7 912.389 514.493
1411 0 75.3129 12.1228 913 107.434 912.354 513.929
1412 0 77.2186 12.4063 958 107.303 911.467 513.428
1413 1 43.305 10.6685 462 115.963 911.697 528.623
1414 0 43.1968 11.5981 501 115.403 912.401 527.601
1415 0 43.1968 11.5749 500 152.46 913.384 527.726
1416 0 47.1197 12.4364 586 107.078 912.036 527.097
1417 0 48.0647 12.0879 581 108.019 911.277 527.723
1418 0 47.0333 12.6506 595 108.109 911.914 527.545
1419 0 47.0244 12.7593 600 108.27 912.192 525.813
1420 0 51.025 12.5233 639 106.153 911.606 525.712
1421 0 52.0549 12.3523 643 106.429 911.627 525.145
1422 0 55.0454 13.1346 723 102.917 910.949 522.69
1423 0 57.0815 13.0165 743 103.832 911.11 522.047
1424 0 58.0755 12.7076 738 104.241 911.37 522.041
1425 0 58.0315 12.9757 753 106.236 912.294 520.834
1426 0 60.0342 13.3757 803 103.875 911.863 519.369
1427 0 62.0461 13.0065 807 104.869 912.421 519.112
1428 0 63.0917 13.2347 835 104.702 912.089 516.078
1429 0 63.1034 11.8853 750 110.949 912.005 517.059
1430 0 65.1478 12.9705 845 109.382 912.088 517.651
1431 0 67.0693 12.6138 846 109.275 911.56 516.511
1432 0 68.1299 12.4908 851 108.751 912.162 515.019
1433 0 71.1341 12.118 862 108.867 911.804 514.824
1434 0 73.0579 12.1411 887 109.924 912.638 513.187
1435 0 76.1146 12.7702 972 107.608 912.331 511.506
1436 0 79.1362 12.7502 1009 108.152 912.711 508.445
1437 0 79.1479 12.862 1018 110.913 912.835 504.513
1438 1 44.0453 10.7162 472 111.555 912.987 523.525
1439 0 47.0392 11.0333 519 110.47 913.081 522.146
1440 0 47.0825 11.1931 527 110.285 913 520.575
1441 0 46.0648 11.7009 539 112.449 912.95 518.976
1442 0 49.0575 11.5783 568 111.919 913.065 517.567
1443 0 50.0427 11.7899 590 109.795 912.005 516.512
1444 0 51.0307 12.1691 621 111.374 911.683 521.723
1445 0 54.0456 11.7123 633 112.269 912.204 520.431
1446 0 57.058 11.9352 681 110.455 912.659 519.288
1447 0 58.0549 11.937 693 110.661 912.548 517.374
1448 0 60.0723 11.9523 718 109.975 913.085 515.306
1449 0 60.0224 11.8289 710 112.069 912.976 515.149
1450 0 65.0692 12.2178 795 108.955 912.567 514.714
1451 0 64.0659 12.6276 809 110.807 912.4 511.614
1452 0 66.0596 12.5341 828 110.359 912.752 510.733
1453 0 67.0187 12.4741 836 111.539 912.83 509.646
1454 0 70.0873 13.1978 925 109.088 912.549 508.206
1455 0 69.0967 12.8805 890 112.766 912.437 505.763
1456 0 73.0317 12.5973 920 114.391 912.638 504.22
1457 0 77.0537 12.7963 986 112.742 912.135 503.475
1458 0 78.0204 12.7403 994 114.359 913.176 502.573
1459 0 80.1407 12.9023 1034 114.44 913.742 500.358
1460 0 82.0768 12.5005 1026 114.441 913.724 497.66
1461 1 44.0515 10.1018 445 107.339 914.146 518.912
1462 0 46.0993 10.5208 485 113.138 914.099 519.573
1463 0 50.0541 11.5475 578 114.279 913.813 521.728
1464 0 50.0314 11.5328 577 112.239 913.596 523.863
1465 0 52.0596 11.7942 614 112.049 913.586 523.285
1466 0 53.052 12.1767 646 112.187 913.183 520.553
1467 0 56.0668 12.717 713 110.331 912.704 520.394
1468 0 57.0473 12.8315 732 111.648 912.79 519.48
1469 0 60.1684 12.4484 749 109.581 912.163 517.326
1470 0 61.1159 11.7973 721 112.094 912.234 516.753
1471 0 63.0252 12.4236 783 109.828 912.875 516.323
1472 0 64.1081 12.1981 782 110.019 912.318 513.408
1473 0 67.1087 12.7107 853 107.585 912.788 512.917
1474 0 67.0893 11.8201 793 107.585 912.499 509.228
1475 0 62.0151 11.4327 709 108.75 913.172 502.15
1476 0 70.0849 11.8142 828 104.61 912.942 503.431
1477 0 68.0273 12.5538 854 105.191 912.628 501.673
1478 0 71.0611 12.6652 900 104.89 912.951 500.693
1479 0 73.0371 12.2814 897 106.074 912.735 498.838
1480 0 78.0434 12.4034 968 103.79 912.95 497.154
1481 0 78.0262 12.4189 969 104.961 912.773 495.541
1482 0 84.0848 12.2614 1031 104.547 913.131 494.799
1483 0 86.0721 13.1053 1128 102.693 912.894 492.875
1484 0 85.0485 12.6281 1074 106.492 913.014 490.874
1485 0 90.0824 12.1888 1098 106.176 913.363 488.781
1486 0 93.0338 12.7588 1187 104.857 913.323 486.731
1487 1 48.0313 9.13988 439 94.3827 912.991 512.107
1488 0 59.0697 10.6315 628 98.5892 913.5 516.683
1489 0 58.1427 11.7126 681 99.0999 913.172 517.115
1490 0 61.0241 11.9461 729 95.7353 912.717 516.753
1491 0 64.0554 12.255 785 95.8548 913.261 515.766
1492 0 65.1199 11.7936 768 98.3555 913.467 514.605
1493 0 67.0683 11.9878 804 97.1094 912.797 512.532
1494 0 68.0411 11.6253 791 98.5234 913.129 510.564
1495 0 70.0297 12.1805 853 96.6284 913.256 509.852
1496 0 71.0626 11.6236 826 98.7324 914.078 508.058
1497 0 74.074 12.1905 903 97.3455 914.002 505.95
1498 0 74.0684 11.8404 877 97.3409 913.369 505.554
1499 0 77.1191 11.8129 911 97.831 913.486 502.85
1500 0 79.0504 11.6761 923 97.7172 913.104 500.056
1501 0 80.0544 11.717 938 98.951 913.213 496.812
1502 0 83.0747 11.9049 989 97.458 912.275 494.423
1503 0 85.0473 12.0874 1028 97.179 913.24 494.563
1504 0 91.1034 11.9205 1086 96.0875 912.206 491.848
1505 0 91.0717 12.0564 1098 96.9362 912.657 488.731
1506 1 49.057 8.52069 418 96.1435 912.471 511.16
1507 0 51.0328 9.99358 510 93.049 912.269 510.58
1508 0 54.0413 10.1959 551 94.6642 913.755 511.71
1509 0 58.0713 10.246 595 85.2067 913.096 515.797
1510 0 62.1246 11.1067 690 83.3145 913.51 514.758
1511 0 62.1256 11.2997 702 84.2735 913.604 513.91
1512 0 66.0879 11.1972 740 84.7946 913.65 512.397
1513 0 69.0773 11.6247 803 84.6127 913.446 511.173
1514 0 67.0923 10.3291 693 91.2136 913.863 511.654
1515 0 69.0925 10.5077 726 90.9394 913.507 512.351
1516 0 71.0798 11.1143 790 91.6949 913.99 509.727
1517 0 75.0816 11.1479 837 92.2509 914.303 509.45
1518 0 76.0661 10.6092 807 95.1636 914.125 507.571
1519 0 79.1275 11.3867 901 93.6027 913.707 507.286
1520 0 81.0411 11.2659 913 95.1117 913.666 504.88
1521 0 86.059 11.5502 994 93.6066 913.798 503.017
1522 0 88.096 11.5215 1015 94.4098 913.911 502.115
1523 0 90.0691 11.1359 1003 96.321 914.008 502.125
1524 0 93.0532 11.3269 1054 95.7324 914.602 500.008
1525 1 54.0069 10.9986 594 95.7828 914.025 519.966
1526 0 57.0439 11.3772 649 94.4299 913.336 518.724
1527 0 58.0282 12.0459 699 94.2804 913.584 517.256
1528 0 57.0285 10.7315 612 90.1274 913.252 519.941
1529 0 58.102 10.5332 612 90.7974 913.227 520.428
1530 0 60.0458 10.8917 654 89.8425 912.699 519.243
1531 0 61.0648 10.9556 669 90.5022 913.297 518.892
1532 0 62.0747 10.9868 682 91.8754 912.82 516.982
1533 0 64.061 11.5047 737 89.5536 913.204 517.258
1534 0 66.0315 10.9947 726 90.5303 913.645 514.817
1535 0 67.0306 10.8458 727 92.4484 913.795 514.384
1536 0 70.0603 11.6471 816 90.386 913.88 512.241
1537 0 73.0748 11.1803 817 91.8703 913.805 510.805
1538 0 74.0447 11.3175 838 94.1933 913.74 509.126
1539 0 77.0218 11.7369 904 94.9049 912.908 508.363
1540 0 78.0677 11.7334 916 95.6987 912.436 506.653
1541 0 81.1017 11.615 942 96.9013 912.784 506.096
1542 0 83.0575 11.3536 943 95.9926 912.586 506.637
1543 0 85.1189 11.1491 949 99.1286 912.217 503.683
1544 0 88.0924 11.1814 985 98.5959 912.628 503.08
1545 1 51.0164 9.95758 508 94.378 911.232 522.965
1546 0 52.0263 11.4557 596 91.3406 912.78 523.185
1547 0 53.1024 11.6379 618 88.1909 912.1 522.515
1548 0 53.0179 11.4678 608 90.1118 912.194 520.26
1549 0 55.051 10.8808 599 90.2922 912.145 518.608
1550 0 56.0776 11.0026 617 90.6029 912.214 519.459
1551 0 56.1182 10.6917 600 91.6133 912.898 517.862
1552 0 59.0743 10.4953 620 91.571 912.361 518.498
1553 0 60.0438 10.7588 646 91.8127 912.435 516.806
1554 0 61.0705 10.5616 645 92.2326 912.499 516.349
1555 0 63.0352 10.9621 691 90.1693 912.282 515.783
1556 0 65.0341 11.3325 737 89.7571 913.14 515.221
1557 0 67.06 10.6174 712 90.8455 911.994 514.213
1558 0 69.1146 10.9962 760 89.8118 912.687 513.6
1559 0 71.0335 10.8963 774 89.54 912.147 510.695
1560 0 72.0654 10.8929 785 89.6866 912.172 511.392
1561 0 75.0453 11.3531 852 88.3498 912.548 509.074
1562 0 76.0454 10.7962 821 90.3447 912.677 508.324
1563 0 80.076 11.2019 897 89.8885 912.958 506.537
1564 0 82.1024 11.4369 939 90.1001 913.268 506.911
1565 0 83.0402 10.9104 906 91.6711 913.205 505.592
1566 0 88.0957 11.6124 1023 89.7928 913.511 503.611
1567 0 90.0812 11.745 1058 90.5388 912.929 501.148
1568 0 92.0277 11.6595 1073 92.6281 912.593 499.465
1569 0 96.0744 11.9074 1144 93.3042 913.121 500.538
1570 0 97.1027 11.5651 1123 96.5468 912.599 497.638
1571 0 101.048 12.1229 1225 96.7763 912.67 495.753
1572 0 103.041 11.6847 1204 97.5216 912.691 495.141
1573 1 56.045 10.3131 578 96.6315 912.586 519.289
1574 0 57.1042 11.1901 639 95.7089 913.271 518.379
1575 0 58.0393 10.803 627 96.3078 913.536 516.018
1576 0 60.0468 11.3745 683 95.1567 913.294 513.922
1577 0 63.0715 11.1936 706 89.9915 912.901 513.69
1578 0 67.025 11.5479 774 83.4289 913.149 509.665
1579 0 66.0507 10.8704 718 85.7089 914.181 508.497
1580 0 69.0397 11.3413 783 84.9962 913.489 507.144
1581 0 71.0273 11.6293 826 84.3838 913.742 505.368
1582 0 71.0392 11.5148 818 86.1002 913.331 502.449
1583 0 76.0343 11.1923 851 90.4007 913.907 505.133
1584 0 82.0763 12.3787 1016 90.1535 913.187 506.633
1585 0 81.0279 12.5019 1013 90.9042 913.711 504.749
1586 0 86.0548 13.015 1120 88.6411 912.998 503.875
1587 0 87.0529 12.7164 1107 90.1653 912.651 501.564
1588 0 89.0386 12.7585 1136 89.6963 914.062 503.052
1589 0 90.034 12.5841 1133 90.9682 912.38 499.966
1590 0 94.0857 13.2432 1246 89.7071 912.978 498.223
1591 0 96.045 13.0251 1251 90.2158 912.66 497.464
1592 0 99.0331 12.723 1260 90.1317 913.148 495.894
1593 0 102.051 12.9543 1322 90.0726 913.126 495.216
1594 0 104.08 12.6249 1314 91.5639 913.679 492.554
1595 0 104.069 11.7422 1222 87.2365 913.429 486.875
1596 0 107.104 12.3338 1321 87.9856 912.892 488.325
1597 0 109.095 12.6678 1382 86.165 913.229 481.844
1598 0 112.118 12.362 1386 87.2078 913.343 478.014
1599 0 118.149 12.3149 1455 87.8687 912.998 478.179
1600 1 61.0892 10.1327 619 86.5929 912.683 506.658
1601 0 64.0164 11.294 723 83.8243 912.032 503.777
1602 0 69.0404 9.73343 672 80.8333 912.603 508.607
1603 0 72.021 10.3442 745 86.5034 913.129 512.248
1604 0 75.0537 10.6724 801 87.7104 912.933 510.125
1605 0 77.0574 10.9269 842 87.1734 913.425 509.107
1606 0 80.0716 10.8028 865 87.6543 913.269 507.585
1607 0 84.0704 11.5855 974 86.1099 913.509 505.315
1608 0 86.0803 11.7332 1010 86.3901 913.514 505.069
1609 0 87.0529 11.3609 989 88.5733 913.468 503.278
1610 0 90.0368 11.151 1004 88.5279 913.018 501.08
1611 0 93.0963 10.8597 1011 89.6558 913.015 500.175
1612 0 95.0925 11.431 1087 90.6044 912.993 495.836
1613 0 100.081 11.2908 1130 90.4451 913.109 492.624
1614 0 105.07 12.7344 1338 88.3812 913.447 492.754
1615 0 107.065 11.6565 1248 92.6587 913.024 489.238
1616 0 110.073 11.5196 1268 91.7524 912.48 487.368
1617 0 115.112 11.4063 1313 88.8088 912.127 486.708
1618 1 62.0788 9.08522 564 80.9557 912.599 514.316
1619 0 62.1737 9.9238 617 80.8006 911.935 512.366
1620 0 64.0947 11.249 721 81.7517 911.771 508.48
1621 0 67.1317 11.2763 757 81.9802 912.041 507.754
1622 0 68.0754 11.2375 765 75.4248 911.414 509.539
1623 0 71.0772 11.1428 792 76.0114 912.187 508.927
1624 0 74.0566 11.1941 829 76.0338 911.935 507.273
1625 0 75.1205 10.4765 787 74.5146 912.419 502.024
1626 0 80.0782 10.9143 874 87.3032 912.333 504.109
1627 0 83.0431 11.7048 972 85.0288 911.143 502.547
1628 0 84.0713 11.1096 934 87.4647 911.171 500.143
1629 0 87.0904 11.069 964 88.6068 911.705 497.7
1630 0 91.1062 11.1408 1015 87.0374 912.421 497.494
1631 0 94.0659 11.4601 1078 85.975 912.417 497.326
1632 0 98.1505 11.0952 1089 87.6455 912.365 493.443
1633 0 101.075 11.5261 1165 87.921 911.968 492.521
1634 0 104.067 11.2331 1169 90.2883 912.259 491.591
1635 1 53.0879 9.66322 513 85.6686 912.014 516.834
1636 0 53.0648 9.66742 513 81.5302 912.335 512.259
1637 0 51.0158 9.74208 497 77.0322 913.286 507.636
1638 0 58.0432 9.97534 579 72.829 912.444 513.406
1639 0 60.0477 10.2918 618 71.9272 912.062 513.413
1640 0 63.058 10.974 692 70.3396 911.986 512.546
1641 0 65.0615 10.3287 672 71.1786 911.838 510.033
1642 0 66.064 10.3082 681 73.2012 912.48 509.866
1643 0 67.0891 10.5233 706 72.898 912.239 510.717
1644 0 70.0305 11.0952 777 71.4852 912.719 509.494
1645 0 72.0388 10.2028 735 73.219 912.299 508.363
1646 0 75.0585 10.5384 791 73.5171 912.769 507.302
1647 0 78.1501 10.9661 857 72.4656 912.725 507.019
1648 0 83.0733 11.7607 977 70.6561 911.91 506.555
1649 0 85.0996 11.7862 1003 71.1874 912.968 505.998
1650 0 87.1593 11.2552 981 72.7788 913.146 504.317
1651 1 49.0843 9.90133 486 72.607 913.389 523.358
1652 0 51.0492 9.85325 503 74.4791 913.924 522.592
1653 0 50.0473 10.4701 524 71.874 913.244 520.029
1654 0 54.1681 10.5043 569 80.3357 911.524 516.861
1655 0 48.059 9.90449 476 76.9979 913.282 510.561
1656 0 57.1021 11.1379 636 81.3475 913.78 516.5
1657 0 57.0548 11.1297 635 81.4079 913.317 516.345
1658 0 59.103 11.0993 656 81.5351 913.184 514.061
1659 0 60.0764 10.7197 644 81.8634 913.132 517.087
1660 0 62.0621 11.2629 699 79.8512 913.07 515.884
1661 0 62.1213 11.0107 684 80.633 913.042 515.263
1662 0 65.0467 12.2681 798 78.3709 913.41 511.332
1663 0 67.0767 11.8521 795 78.4352 913.18 512.865
1664 0 66.0376 11.9023 786 78.7341 913.232 510.607
1665 0 69.0808 11.5517 798 79.2694 913.744 510.232
1666 0 71.0563 11.6387 827 79.0036 913.832 507.525
1667 0 72.1122 11.704 844 78.3341 913.339 505.674
1668 0 74.0726 11.3402 840 78.5548 913.925 506.238
1669 0 77.1038 11.478 885 79.0079 913.646 503.463
1670 0 79.0854 11.7974 933 79.3033 913.443 502.482
1671 0 80.0718 11.5521 925 80.7762 912.492 501.821
1672 0 83.1022 11.4678 953 80.7492 912.246 500.36
1673 0 84.1429 11.5161 969 81.2208 911.903 498.507
1674 0 89.0638 12.4405 1108 79.5569 911.414 497.93
1675 0 89.0821 11.7869 1050 81.261 911.713 495.69
1676 0 94.0796 12.2024 1148 80.5819 913.113 494.666
1677 0 96.09 12.1449 1167 82.0428 912.476 495.458
1678 0 97.0431 11.4382 1110 84.1613 913.39 492.973
1679 0 99.0999 11.887 1178 85.0255 912.464 491.716
1680 0 104.116 12.3516 1286 83.7932 912.527 490.774
1681 0 107.052 12.2837 1315 83.4601 912.413 489.975
1682 0 110.054 11.885 1308 84.7087 912.465 486.961
1683 1 61.0632 9.13807 558 81.8566 912.194 511.229
1684 0 63.0796 10.8276 683 76.7174 912.148 511.193
1685 0 65.0817 10.095 657 75.8843 912.085 510.353
1686 0 69.0791 10.9874 759 74.5165 911.813 509.821
1687 0 68.1336 11.3747 775 74.031 911.072 508.747
1688 0 71.1093 11.4894 817 73.9816 911.4 507.135
1689 0 75.0733 11.9217 895 71.3386 912.389 507.52
1690 0 78.119 11.5081 899 71.8598 912.27 507.039
1691 0 78.1139 10.5103 821 74.5201 912.826 506.402
1692 0 78.061 10.3637 809 75.6267 912.876 503.883
1693 0 82.0976 10.585 869 74.7618 912.736 502.606
1694 0 85.0773 10.8725 925 75.1816 913.053 502.456
1695 0 90.0402 11.4615 1032 74.1851 912.816 501.943
1696 0 93.0672 11.6475 1084 75.2703 913.263 499.236
1697 0 94.0797 11.5966 1091 76.7296 912.646 497.826
1698 0 98.0871 11.5204 1130 76.7336 912.574 494.921
1699 0 101.056 11.3996 1152 77.5417 912.06 493.909
1700 0 104.084 12.096 1259 76.7069 912.611 492.154
1701 0 108.135 12.1422 1313 76.294 912.061 490.444
1702 0 112.281 11.881 1334 77.3163 911.436 488.936
1703 0 113.121 11.9607 1353 78.1279 912.006 485.703
1704 0 115.094 12.0858 1391 80.4982 912.615 477.072
1705 0 116.207 10.2834 1195 80.0753 912.405 480.725
1706 0 116.209 11.2212 1304 78.842 912.796 477.437
1707 1 67.116 10.8916 731 73.2435 913.066 503.547
1708 0 64.0657 10.6609 683 75.2167 913.816 500.795
1709 0 67.0856 10.9562 735 75.1918 913.739 501.227
1710 0 69.1644 10.9449 757 75.782 913.029 500.771
1711 0 72.0747 11.0025 793 75.9483 912.855 498.574
1712 0 77.0932 11.5315 889 75.8976 912.09 496.799
1713 0 79.1087 10.7826 853 77.9086 912.239 495.583
1714 0 82.0619 11.0161 904 77.4148 911.455 493.878
1715 0 86.035 11.228 966 77.1077 912.706 492.264
1716 0 87.0659 10.4748 912 79.5439 912.008 489.241
1717 0 90.0688 11.2692 1015 77.9823 912.463 489.632
1718 1 46.0236 8.71292 401 71.4339 912.182 513.025
1719 0 51.021 9.50588 485 71.1443 912.21 512.082
1720 0 51.0386 10.4431 533 64.6998 912.659 513.248
1721 0 54.0198 9.03372 488 66.8934 913.928 513.691
1722 0 52.042 8.51236 443 67.8352 912.427 512.657
1723 0 56.048 8.93876 501 67.3832 912.264 513.735
1724 0 57.0598 8.2545 471 69.8535 912.293 511.098
1725 0 63.0646 10.3386 652 72.8144 912.04 515.192
1726 0 63.0567 9.46768 597 75.4539 911.987 513.097
1727 0 65.0524 10.2071 664 74.497 911.985 513.69
1728 0 69.0985 10.608 733 74.1774 912.244 511.956
1729 0 69.0672 10.7576 743 75.2113 912.577 510.497
1730 0 71.117 9.58984 682 77.3343 912.588 508.824
1731 0 74.0672 10.0179 742 76.9528 912.83 507.221
1732 0 77.0403 10.2024 786 77.5496 912.995 506.209
1733 0 81.0633 10.2759 833 77.1164 912.335 506.744
1734 0 82.1795 10.0633 827 78.1669 911.712 504.745
1735 0 86.0674 10.6893 920 77.4989 913.061 503.412
1736 0 91.0856 11.4508 1043 74.7939 912.609 502.216
1737 0 94.0593 11.2482 1058 75.5189 912.66 499.2
1738 1 50.0118 10.4975 525 70.7219 912.669 521.389
1739 0 53.0232 11.0706 587 69.833 913.457 521.072
1740 0 54.0153 10.5711 571 68.8511 913.755 521.245
1741 0 52.0325 9.47485 493 72.1846 912.761 520.241
1742 0 55.0133 9.27049 510 71.6941 912.992 521.563
1743 0 54.0344 10.1232 547 71.4095 913.042 520.15
1744 0 59.0473 10.2799 607 70.6656 913.318 519.596
1745 0 59.0443 9.75538 576 72.2014 913.398 517.944
1746 0 60.0476 9.10944 547 73.3364 912.861 517.384
1747 0 63.0365 10.9143 688 70.5174 911.868 514.124
1748 0 64.0872 10.6261 681 70.7812 912.282 513.523
1749 0 68.0461 11.0072 749 70.2697 912.768 512.849
1750 0 70.0421 10.0225 702 72.0427 913.258 513.272
1751 0 73.0687 11.3318 828 70.5181 913.359 509.337
1752 0 75.0886 11.2267 843 71.72 912.973 508.571
1753 0 76.0564 10.7157 815 73.7031 912.859 507.501
1754 0 80.2256 11.3555 911 73.4775 912.934 505.45
1755 0 84.0965 12.2359 1029 72.0311 913.878 506.073
1756 0 85.0917 11.4935 978 74.6667 913.618 503.999
1757 0 89.1349 12.6662 1129 73.581 913.404 502.531
1758 0 90.1318 11.7051 1055 77.3251 913.709 502.244
1759 0 94.1794 12.4231 1170 75.9128 913.742 498.003
1760 0 95.1795 12.0824 1150 81.0244 913.671 497.199
1761 0 99.1125 12.39 1228 82.4666 912.606 495.677
1762 0 103.119 11.0455 1139 82.1984 913.026 492.851
1763 1 54.0773 9.19054 497 75.996 912.272 518.932
1764 0 57.059 10.0422 573 73.7714 913.031 519.079
1765 0 57.1567 10.5849 605 74.7669 912.906 514.514
1766 0 60.046 11.0415 663 72.3258 913.707 516.528
1767 0 60.0186 11.0466 663 73.1765 913.41 515.804
1768 0 64.0432 11.7889 755 71.6808 913.629 514.638
1769 0 66.0492 11.3854 752 72.238 913.835 512.915
1770 0 68.0237 12.1869 829 70.8106 913.298 512.583
1771 0 71.0614 11.9193 847 71.1842 913.041 511.576
1772 0 72.0337 11.6751 841 72.4697 912.406 511.351
1773 0 74.0348 12.2645 908 72.9592 912.639 508.99
1774 0 78.0818 12.0771 943 79.4274 912.352 506.4
1775 0 80.1329 12.0051 962 79.2048 912.577 506.518
1776 0 82.1167 11.4593 941 77.3974 911.764 504.02
1777 0 84.0725 11.7161 985 77.2244 912.09 501.341
1778 0 86.1138 11.5196 992 78.4728 913.099 499.81
1779 0 90.1222 11.9726 1079 76.5301 912.656 498.2
1780 0 91.3335 12.2299 1117 79.419 913.369 495.549
1781 0 95.2532 12.2306 1165 78.9871 913.717 493.316
1782 0 98.1653 12.0002 1178 77.8727 913.503 494.272
1783 0 100.212 12.0045 1203 78.7955 913.485 490.144
1784 1 51.0623 10.1249 517 71.3308 913.843 515.588
1785 0 57.2085 10.9949 629 68.4563 913.227 511.956
1786 0 58.0792 12.1214 704 66.3665 913.335 515.746
1787 0 58.057 10.972 637 70.0926 912.837 514.272
1788 0 60.0454 10.9251 656 70.5534 913.018 515.358
1789 0 63.0549 11.6089 732 68.9645 913.291 514.716
1790 0 65.0149 11.3974 741 69.1619 913.132 512.858
1791 0 65.0424 10.8391 705 70.4525 913.366 513.145
1792 0 68.0416 11.4048 776 69.5361 912.79 510.871
1793 0 71.1425 11.3013 804 70.8259 912.344 509.001
1794 0 73.0256 11.5987 847 71.7261 912.799 508.048
1795 0 76.0618 12.1086 921 70.7644 913.244 507.951
1796 0 77.1509 11.8728 916 72.5317 912.383 507.239
1797 0 78.1556 11.5923 906 74.3477 912.996 505.309
1798 0 82.2082 12.2616 1008 74.255 912.422 503.22
1799 0 84.2268 11.8015 994 75.1529 911.68 503.491
1800 0 87.222 11.8892 1037 76.5284 912.457 500.806
1801 0 90.2771 12.0296 1086 78.2459 912.498 499.155
1802 0 93.2366 11.9159 1111 78.3555 912.104 498.21
1803 0 93.2825 11.7493 1096 80.1542 912.46 495.797
1804 0 98.247 11.9902 1178 79.3345 912.767 494.595
1805 0 100.214 11.9146 1194 79.9146 912.051 491.716
1806 0 103.204 11.5112 1188 80.4714 912.518 491.579
1807 0 106.241 12.4434 1322 79.6241 911.8 489.256
1808 0 111.268 11.5038 1280 81.8062 912.579 488.08
1809 0 112.347 11.4378 1285 83.9813 912.399 487.363
1810 1 61.1797 9.93794 608 77.1974 912.433 514.664
1811 0 63.1049 10.0943 637 76.3469 912.372 514.019
1812 0 65.1092 10.0907 657 75.7276 912.554 513.049
1813 0 66.0648 9.99019 660 76.4591 912.771 510.733
1814 0 71.1546 11.3696 809 74.9914 912.989 510.064
1815 0 73.1004 11.149 815 75.9791 912.92 508.958
1816 0 75.102 11.1582 838 76.7936 912.57 506.863
1817 0 79.1953 10.7456 851 77.4759 912.378 506.184
1818 0 80.2482 10.5298 845 79.0876 912.002 503.327
1819 0 82.2287 10.3735 853 80.3787 912.152 502.046
1820 0 86.27 10.386 896 80.5424 911.143 499.711
1821 0 89.2853 11.3457 1013 79.5726 911.253 497.576
1822 0 92.2194 11.6787 1077 79.3955 912.264 495.75
1823 0 95.3332 11.2028 1068 80.6227 912.363 495.61
1824 0 97.3202 10.6761 1039 83.3744 912.54 491.212
1825 0 101.247 11.4967 1164 81.4313 912.333 492.741
1826 0 104.264 11.3462 1183 83.7811 913.014 488.632
1827 0 107.365 12.3783 1329 83.0948 913.023 488.148
1828 1 56.2414 9.67258 544 80.5533 912.574 514.767
1829 0 58.2025 10.1714 592 80.7466 912.674 514.005
1830 0 60.2121 10.6125 639 84.0063 912.77 513.898
1831 0 60.0717 10.8038 649 78.5223 911.888 515.06
1832 0 62.0971 10.5319 654 78.8456 911.236 514.7
1833 0 63.0499 9.72246 613 81.4437 912.075 514.016
1834 0 66.0505 10.5677 698 80.5115 911.828 512.12
1835 0 66.0702 10.0045 661 83.6384 912.08 510.289
1836 0 72.0746 10.3643 747 85.913 912.446 508.537
1837 0 73.0781 11.1114 812 86.6798 912.802 508.047
1838 0 75.0755 11.0689 831 88.1564 912.723 507.527
1839 0 79.0518 11.309 894 89.8445 913.167 506.126
1840 0 81.0716 11.237 911 90.9484 912.771 505.096
1841 0 83.1196 11.309 940 91.4798 911.802 504.272
1842 0 87.0404 12.408 1080 86.8306 912.239 502.69
1843 0 90.0916 12.0322 1084 88.1245 912.536 502.949
1844 0 90.0615 12.0584 1086 90.6777 913.036 500.083
1845 0 93.0559 12.0895 1125 92.5093 912.687 497.127
1846 0 96.0449 12.0985 1162 91.9372 912.753 496.49
1847 0 99.0659 11.8406 1173 93.7809 912.601 494.552
1848 0 102.095 12.1652 1242 93.5298 913.149 492.295
1849 0 103.069 11.8076 1217 95.2408 912.824 493.266
1850 0 108.043 12.3376 1333 94.2521 913.03 489.842
1851 0 110.103 12.6064 1388 93.9409 912.256 491.094
1852 0 114.079 12.5176 1428 94.9104 912.623 487.986
1853 0 116.125 12.7535 1481 96.2019 913.213 486.63
1854 0 121.103 12.3944 1501 96.3291 913.677 485.911
1855 0 122.065 12.7555 1557 96.203 913.003 484.85
1856 0 128.067 12.798 1639 96.7913 913.785 482.743
1857 0 129.052 12.3284 1591 98.7844 913.107 479.923
1858 1 71.0823 10.6215 755 85.2848 912.592 512.574
1859 0 71.0733 10.4962 746 88.7694 912.387 509.808
1860 0 73.1431 10.7187 784 88.4184 913.247 509.686
1861 0 74.0752 11.1103 823 89.2467 913.283 509.702
1862 0 77.0601 11.251 867 89.1407 912.704 508.483
1863 0 79.0387 11.4627 906 89.1049 912.998 506.668
1864 0 81.0587 11.4485 928 89.3599 912.97 506.679
1865 0 82.0754 11.5016 944 90.4227 912.887 504.755
1866 0 86.0964 11.522 992 100.865 913.342 503.132
1867 0 87.0677 11.1522 971 101.771 914.009 502.26
1868 0 90.0851 11.5113 1037 100.585 913.707 501.917
1869 0 91.0947 11.4716 1045 99.5818 913.645 501.554
1870 0 93.0777 11.2594 1048 101.169 913.197 498.01
1871 0 94.1071 11.6251 1094 100.113 913.418 498.473
1872 0 95.0929 11.3047 1075 101.458 913.561 497.827
1873 0 95.096 10.7575 1023 103.028 913.167 496.137
1874 0 97.1263 11.1092 1079 102.106 913.404 494.858
1875 0 99.1041 11.271 1117 101.886 913.177 495.432
1876 0 102.088 11.5586 1180 101.277 913.132 494.09
1877 0 102.146 11.5913 1184 101.329 912.365 492.601
1878 0 104.086 12.2206 1272 99.989 913.044 491.189
1879 0 105.092 11.7802 1238 101.025 912.946 490.659
1880 0 108.129 11.8655 1283 100.804 913.27 488.509
1881 0 109.098 11.6684 1273 100.737 912.413 488.951
1882 0 110.145 11.6211 1280 101.502 913.088 487.658
1883 0 109.091 11.77 1284 101.639 912.604 487.47
1884 0 113.077 12.4252 1405 100.009 912.687 487.035
1885 0 113.096 12.1844 1378 100.339 912.022 486.933
1886 0 114.105 11.2879 1288 102.234 912.935 482.909
1887 0 116.085 12.0342 1397 99.7172 913.069 482.636
1888 0 115.067 11.0631 1273 102.013 913.444 483.081
1889 0 119.088 12.5705 1497 98.1563 913.049 482.164
1890 0 119.088 12.4026 1477 99.0298 912.569 481.85
1891 0 121.093 12.0981 1465 99.6232 912.664 482.386
1892 0 122.131 11.5859 1415 101.319 912.429 482.148
1893 0 122.119 11.8737 1450 101.001 911.593 480.712
1894 0 125.077 12.5923 1575 98.3105 912.644 480.968
1895 0 125.127 12.2995 1539 99.0585 912.387 479.028
1896 0 127.089 12.5188 1591 97.1672 912.437 480.3
1897 0 128.115 12.5434 1607 96.0996 912.569 479.787
1898 0 128.12 12.3868 1587 95.4291 912.853 478.591
1899 0 128.14 12.1274 1554 95.2928 912.958 479.936
1900 0 128.127 12.4017 1589 94.3883 912.649 479.2
1901 0 131.124 13.2165 1733 91.547 912.982 481.62
1902 0 131.213 13.3828 1756 90.5757 913.515 481.154
1903 0 130.155 12.6465 1646 91.9192 913.332 481.006
1904 0 130.145 12.2017 1588 92.3155 913.283 480.288
1905 0 132.14 13.1224 1734 88.9631 913.056 480.999
1906 0 131.137 13.3905 1756 87.6435 912.648 480.114
1907 0 133.102 13.1629 1752 86.758 912.758 480.985
1908 0 132.193 12.4818 1650 88.6036 913.057 480.696
1909 0 133.223 12.9332 1723 86.4631 913.014 480.686
1910 0 133.103 12.6293 1681 87.1077 911.977 480.067
1911 0 132.163 12.2046 1613 86.5908 911.226 479.686
1912 0 133.189 12.0055 1599 86.5316 911.804 480.238
1913 0 133.148 11.7163 1560 86.1647 912.013 479.497
1914 0 131.137 11.385 1493 86.4883 912.245 478.281
1915 0 132.205 11.3006 1494 85.8072 911.831 478.58
1916 0 132.131 10.7847 1425 86.5319 913.067 476.917
1917 0 133.168 10.07 1341 85.8986 912.981 479.568
1918 0 134.194 9.60546 1289 86.2227 912.233 476.868
1919 0 134.108 9.38051 1258 84.8116 912.692 477.733
1920 0 133.177 9.77647 1302 84.2842 912.81 475.161
1921 0 133.176 9.25092 1232 83.7662 912.222 479.322
1922 0 130.144 8.55976 1114 85.3878 912.004 473.286
1923 0 130.181 7.7815 1013 85.385 911.335 474.247
1924 0 134.183 9.97145 1338 80.6659 911.167 478.55
1925 0 133.159 9.21454 1227 81.3024 911.359 477.646
1926 0 133.15 9.43295 1256 80.9347 912.045 474.611
1927 0 134.165 8.92932 1198 80.3239 911.931 477.039
1928 0 132.141 9.21741 1218 80.0977 912.112 472.783
1929 0 132.308 9.12267 1207 79.3239 912.42 471.151
1930 0 134.191 9.27782 1245 77.9647 912.053 472.863
1931 0 132.17 8.39073 1109 79.2083 912.191 470.949
1932 0 131.114 9.18282 1204 78.9917 912.585 470.37
1933 0 131.208 9.61071 1261 76.5052 912.508 469.165
1934 0 128.184 8.51902 1092 77.2747 912.519 468.762
1935 0 128.145 8.04556 1031 77.2221 911.794 468.994
1936 1 184.187 6.06448 1117 91.3644 911.996 433.361
1937 1 49.0732 4.6665 229 70.6507 911.908 513.991
1938 0 49.1682 5.55237 273 70.2857 911.74 514.26
1939 0 38.0716 6.09378 232 69.1638 911.819 514.608
1940 0 46.0928 6.31335 291 67.4639 911.416 514.388
1941 0 41.1662 6.77741 279 66.8674 911.806 516.839
1942 0 38.1254 7.73763 295 66.3424 911.336 515.688
1943 0 38.0992 5.80065 221 67.7738 911.566 514.262
1944 0 38.0836 5.09406 194 68.1186 912.428 514.304
1945 0 39.0635 3.81431 149 68.6577 912.698 515.886
1946 0 39.0794 6.37165 249 66 912.173 511.695
1947 0 36.0825 3.99086 144 67.3056 911.979 512.347
1948 1 120.121 2.37261 285 79.5053 910.639 444.151
1949 0 118.08 2.21884 262 78.8664 910.546 446.053
1950 1 46.0907 2.71204 125 74.664 910.968 447.712
1951 0 42.0614 3.73264 157 77.1592 909.701 440.025
1952 0 37.0425 1.13383 42 76.8333 910.571 446
1953 0 37.0453 2.6724 99 76.9697 911.293 440.414
1954 1 26.0104 4.53664 118 75.6441 910.576 437.763
1955 0 31.0651 3.38 105 77.4286 910.61 434.438
1956 0 23.0054 2.08646 48 78.5625 910.583 432.208
1957 0 22.0288 4.76648 105 75.5238 910.705 431.619
1958 1 37.0482 5.72227 212 74.5236 910.509 423.561
1959 0 37.0073 5.9718 221 74.4253 910.647 421.756
1960 0 31.0458 5.44357 169 74.9172 910.237 422.03
1961 0 28.0556 5.1683 145 75.1862 910.91 418.703
1962 1 47.0743 11.2375 529 126.896 911.032 377.728
1963 0 49.1122 11.1581 548 126.438 910.699 377.237
1964 0 49.0862 11.0418 542 126.64 911.247 377.026
1965 0 49.0829 11.1037 545 128.345 911.165 375.895
1966 0 50.0881 11.5796 580 127.326 911.091 375.974
1967 0 52.0716 11.0041 573 129.178 911.558 375.487
