time division length width area intensity CMx CMy
0 0 59.075 14.1007 833 98.7191 1376.56 505.167
1 0 61.0245 14.5679 889 96.0034 1375.93 504.74
2 0 63.0553 15.0979 952 93.8078 1375.23 504.161
3 0 64.0176 15.1208 968 93.9835 1375.36 503.898
4 0 67.0313 14.8587 996 93.8203 1375.33 503.095
5 0 69.0226 14.459 998 94.2876 1375.38 502.03
6 0 68.0262 15.0824 1026 95.0536 1375.93 500.934
7 0 71.0454 14.3429 1019 95.524 1375.54 502.15
8 0 74.0888 15.198 1126 93.0879 1376.15 499.544
9 0 76.1107 14.8993 1134 93.9515 1375.72 499.238
10 0 79.0551 15.1793 1200 93.115 1375.74 499.033
11 0 80.0634 15.0381 1204 91.544 1374.73 498.38
12 0 80.063 15.0506 1205 148.83 1373.71 498.437
13 0 83.0234 13.5865 1128 95.9158 1375.11 496.393
14 0 84.0503 13.8608 1165 96.8335 1375.16 495.15
15 0 86.0752 14.4641 1245 94.6241 1374.47 493.712
16 0 86.0499 13.3992 1153 96.8317 1374.43 494.827
17 0 90.0951 13.7077 1235 96.6049 1374.27 492.422
18 0 95.0316 14.4794 1376 95.3452 1374.26 489.575
19 0 97.0186 14.8322 1439 93.9917 1374.83 489.089
20 0 100.033 14.8651 1487 93.3255 1374.74 488.149
21 0 106.037 15.4475 1638 92.6569 1374.52 485.631
22 0 108.125 15.0196 1624 93.8781 1374.36 484.252
23 0 113.088 16.023 1812 90.4592 1374.62 481.332
24 0 116.072 15.4043 1788 92.811 1374.16 479.325
25 0 121.156 15.8474 1920 91.4865 1375 477.141
26 0 127.108 15.9943 2033 90.7644 1373.78 475.468
27 0 131.139 16.7303 2194 88.9503 1373.81 474.931
28 0 135.193 16.1325 2181 90.994 1373.56 473.853
29 0 140.114 16.251 2277 90.8331 1374.23 471.407
30 1 81.0703 13.6918 1110 95.8721 1374.11 500.554
31 0 81.0865 13.6644 1108 95.9684 1374.05 499.996
32 0 85.0932 14.1492 1204 94.9344 1374.39 498.186
33 0 87.1414 14.7462 1285 93.9486 1373.89 495.573
34 0 89.0928 13.9405 1242 96.1457 1373.89 496.203
35 0 94.0583 14.6505 1378 93.2017 1373.63 493.388
36 0 97.1377 14.2066 1380 94.5123 1373.45 491.964
37 0 99.0499 14.3665 1423 93.3036 1373.42 490.17
38 0 102.179 14.318 1463 93.5523 1373.18 486.803
39 0 106.097 14.1757 1504 93.7547 1373.95 485.385
40 0 111.11 14.5531 1617 93.0111 1373.56 483.825
41 0 115.197 14.7573 1700 92.1794 1373.71 483.159
42 0 118.132 14.9663 1768 92.8914 1373.53 480.159
43 0 122.109 14.8146 1809 93.0227 1373.63 478.462
44 0 127.027 14.5954 1854 93.7584 1373.4 475.728
45 0 131.108 15.0487 1973 93.3609 1372.91 472.711
46 0 135.063 14.1786 1915 96.0616 1373.23 471.053
47 0 140.07 14.8497 2080 94.85 1372.9 468.233
48 0 146.106 14.3731 2100 95.4548 1372.67 464.139
49 0 151.113 14.6646 2216 95.861 1372.74 461.916
50 0 156.133 14.8591 2320 95.5302 1372.92 459.79
51 0 162.182 14.718 2387 95.1688 1373.42 457.834
52 0 166.155 14.2878 2374 96.7089 1373.24 455.369
53 0 173.139 14.5086 2512 96.9877 1373.95 451.289
54 0 178.213 14.6622 2613 96.9594 1373.71 448.701
55 0 184.13 15.0437 2770 96.1469 1374.02 445.975
56 0 188.175 14.3165 2694 98.3326 1374.34 441.084
57 0 197.17 14.6371 2886 96.5852 1373.49 437.25
58 0 202.138 14.8858 3009 95.8332 1374.06 435.733
59 0 211.136 14.8483 3135 95.2246 1373.52 430.476
60 0 219.154 15.2039 3332 93.3649 1373.12 428.253
61 0 225.138 14.0358 3160 96.912 1373.16 421.731
62 0 235.149 14.544 3420 95.0988 1372.93 417.428
63 0 245.235 14.6186 3585 94.6446 1373.78 410.956
64 1 189.109 13.5477 2562 94.13 1373.8 442.025
65 0 195.139 13.7133 2676 94.4339 1374.14 436.133
66 0 202.173 13.8644 2803 94.1167 1373.97 432.657
67 0 211.173 14.2348 3006 94.177 1373.47 427.898
68 0 216.238 13.5314 2926 96.0349 1374.12 424.353
69 0 224.161 13.9364 3124 95.6092 1373.69 418.589
70 0 233.137 14.5365 3389 94.342 1373.26 414.857
71 0 240.264 13.3728 3213 97.295 1373.53 411.661
72 0 249.242 13.6494 3402 95.9347 1373.67 405.72
73 1 62.06 11.6017 720 78.875 1373.84 505.624
74 0 64.0909 12.5447 804 79.5112 1373.9 505.831
75 0 68.1169 12.6253 860 77.6605 1373.84 505.165
76 0 72.1493 12.682 915 80.0842 1374.22 504.167
77 0 71.0415 12.0071 853 83.2227 1373.94 501.899
78 0 75.0964 12.2776 922 82.0586 1374.5 501.559
79 0 76.1083 12.0618 918 83.4227 1374.96 499.986
80 0 80.148 12.2523 982 81.9511 1374.64 498.803
81 0 83.0836 12.3129 1023 82.2571 1374.56 497.222
82 0 84.0674 11.467 964 84.0809 1375.69 497.242
83 0 86.0892 11.976 1031 84.0048 1375.38 494.553
84 0 91.1029 12.3596 1126 83.5719 1375.41 494.181
85 0 93.1159 12.4469 1159 84.6135 1374.95 492.614
86 0 97.0985 12.7911 1242 84.008 1375.67 491.063
87 0 98.1102 12.7713 1253 85.1205 1375.1 488.378
88 0 103.143 12.5747 1297 84.2783 1375.55 485.168
89 0 106.183 12.2336 1299 83.0916 1375.23 484.405
90 0 110.201 12.087 1332 83.0405 1375.09 483.417
91 1 57.1275 10.3978 594 76.3889 1375.78 511.114
92 0 59.0794 10.3928 614 70.0358 1375.18 509.857
93 0 60.0563 10.6567 640 69.6406 1374.82 508.8
94 0 61.0391 10.0919 616 70.2857 1373.75 509.123
95 0 62.1193 10.013 622 70.2379 1373.25 508.51
96 0 65.0703 10.066 655 66.829 1374.15 505.562
97 0 68.0572 11.2552 766 64.4164 1374.38 506.401
98 0 69.078 11.5811 800 65.0988 1374.56 506.174
99 0 70.0544 11.3055 792 65.1692 1373.94 504.309
100 0 74.0553 11.91 882 63.7415 1373.71 503.748
101 0 76.0361 12.3231 937 63.461 1373.69 501.87
102 0 77.0619 11.8736 915 64.7639 1374.29 498.704
103 0 78.0595 11.3375 885 65.5514 1374 499.359
104 0 80.0686 11.0405 884 67.0848 1373.54 497.292
105 0 85.0507 11.7812 1002 66.1916 1373.73 494.726
106 0 89.0899 11.5501 1029 66.7561 1374.23 494.455
107 0 90.05 11.9045 1072 67.9244 1374 492.624
108 0 93.0869 11.3657 1058 70.3875 1373.97 489.595
109 0 96.0464 11.4216 1097 70.5661 1373.58 488.979
110 0 99.0978 12.0285 1192 69.307 1374.45 487.331
111 0 103.154 11.0223 1137 71.4486 1374.1 482.401
112 1 55.2088 9.92596 548 65.177 1373.91 508.679
113 0 59.2245 10.2998 610 64.8033 1373.59 506.949
114 0 60.068 10.9376 657 63.3714 1373.79 508.528
115 0 60.0518 10.2578 616 65.1997 1372.83 509.938
116 0 59.0543 10.1432 599 66.3573 1373.21 508.876
117 0 62.043 9.78354 607 66.575 1373.58 508.697
118 0 65.0389 10.9781 714 65.4804 1374 506.343
119 0 65.027 9.93434 646 67.9892 1373.49 504.743
120 0 68.0572 11.1377 758 66.9657 1373.72 503.544
121 0 72.0369 11.0777 798 67.3985 1374.35 502.717
122 0 75.0361 12.1542 912 66.0318 1373.68 501.599
123 0 76.0154 11.0636 841 68.0464 1373.84 499.887
124 0 80.0932 11.8237 947 67.5407 1374.14 497.989
125 0 83.0517 11.8842 987 67.7366 1373.57 498.279
126 1 43.0184 10.9488 471 68.414 1374.15 516.743
127 0 46.0036 11.2817 519 67.3526 1373.84 516.428
128 0 46.0097 11.628 535 68.8262 1373.87 514.991
129 0 49.0346 11.808 579 67.4991 1373.5 514.451
130 0 51.0332 11.7963 602 66.5664 1373.47 514.776
131 0 50.0206 12.235 612 66.8056 1373.4 514.064
132 0 52.0194 12.2647 638 67.1489 1373.22 511.729
133 0 55.0118 12.5428 690 65.6377 1373.27 511.804
134 0 56.0352 12.3494 692 66.2818 1372.86 510.842
135 0 57.0511 12.4976 713 66.0042 1373.35 510.794
136 0 58.0606 11.4363 664 68.1235 1373.97 510.268
137 0 59.1143 11.9937 709 67.1284 1373.88 507.993
138 0 60.0472 11.3244 680 69.2132 1374.28 509.371
139 0 61.026 11.5033 702 69.2892 1373.98 507.897
140 0 63.0524 11.3556 716 68.986 1374.03 508.535
141 0 64.0441 11.5858 742 69.3976 1374.39 506.865
142 0 68.0574 11.505 783 68.9655 1372.82 506.72
143 0 70.0566 11.8476 830 68.7783 1373.56 504.513
144 0 73.0137 12.2443 894 68.0682 1373.27 502.16
145 0 75.0605 11.8971 893 69.6394 1373.92 503.054
146 0 78.0391 12.7244 993 68.8943 1373.62 500.935
147 0 80.0972 12.1602 974 69.5606 1373.23 500.181
148 0 83.0847 12.5775 1045 70.2986 1373.9 496.755
149 0 86.0407 12.0873 1040 72.101 1373.12 495.668
150 0 87.0812 11.9429 1040 73.376 1372.36 493.65
151 0 92.0564 12.1013 1114 73.5727 1372.65 491.772
152 0 96.0648 11.8149 1135 73.2264 1372.92 490.539
153 0 99.1602 12.4243 1232 76.1948 1373.12 487.976
154 1 51.0118 11.6444 594 68.3956 1373.39 513.593
155 0 50.0606 10.727 537 71.0428 1373.33 512.825
156 0 52.111 10.0938 526 71.635 1373.15 514.798
157 0 55.1423 10.4457 576 70.724 1373.5 513.005
158 0 55.0774 10.9301 602 70.9468 1373.8 512.385
159 0 58.0897 11.224 652 70.5046 1373.7 510.13
160 0 60.0799 12.0673 725 68.5117 1373.02 510.53
161 0 63.0751 12.5089 789 67.9899 1372.52 508.123
162 0 64.0887 12.1238 777 69.52 1372.51 508.106
163 0 67.1059 13.1136 880 69.0227 1372.52 505.897
164 0 67.0843 12.6408 848 71.0377 1372.9 504.336
165 0 71.1323 12.779 909 71.8383 1372.98 501.021
166 0 73.0628 12.8793 941 76.0266 1373.1 501.16
167 0 77.1125 12.981 1001 74.8492 1373.97 498.717
168 0 78.1325 12.1588 950 76.5253 1373.77 497.524
169 0 82.1442 12.9772 1066 75.2711 1373.37 494.557
170 0 83.2206 12.8574 1070 75.129 1373.38 494.09
171 0 87.3241 12.8487 1122 74.5169 1372.82 491.308
172 0 91.1865 12.3593 1127 75.1526 1373.68 490.752
173 1 44.0684 10.6199 468 71.6645 1373.83 511.28
174 0 46.1294 11.0775 511 66.7691 1373.53 510.442
175 0 48.0464 10.9686 527 73.7457 1372.9 510.636
176 0 48.0604 11.2983 543 74.2173 1372.13 510.497
177 0 51.1058 11.3881 582 73.1924 1372.45 509.964
178 0 52.0861 11.8266 616 71 1371.91 509.388
179 0 53.0459 12.2912 652 69.6702 1372.32 507.552
180 0 54.1023 12.1437 657 68.9574 1372.43 509.531
181 0 56.1074 12.4761 700 68.4029 1372.76 508.626
182 0 56.0378 12.2417 686 70.0539 1372.72 507.243
183 0 60.0892 12.9807 780 68.5205 1372.92 506.682
184 0 60.0854 12.0994 727 71.6286 1373.01 506.451
185 0 63.0722 12.2399 772 74.7863 1373.15 502.082
186 0 63.0747 12.9053 814 75.0688 1372.99 501.708
187 0 66.1886 12.5248 829 76.4524 1372.39 499.964
188 0 68.0627 12.8117 872 73.5161 1372.68 499.843
189 0 69.0675 12.2634 847 74.32 1373.37 499.437
190 0 73.0959 12.682 927 73.4973 1373.34 498.42
191 0 75.0694 13.0945 983 74.0885 1373.59 496.304
192 0 76.0605 11.9773 911 76.3557 1373.67 496.765
193 0 79.064 12.9136 1021 74.7738 1373.34 494.254
194 0 81.1177 12.8579 1043 75.3921 1374.02 493.067
195 0 84.1194 12.8508 1081 76.1943 1373.29 490.254
196 0 87.1949 12.8104 1117 76.6884 1372.65 489.192
197 0 90.1896 12.5181 1129 76.9929 1372.56 487.732
198 1 47.2201 11.3511 536 79.5821 1372.73 506.91
199 0 51.1947 11.7395 601 77.7654 1372.23 506.952
200 0 51.0172 11.4275 583 79.3962 1372.37 507.664
201 0 54.0678 13.0947 708 74.8489 1372.37 509.164
202 0 56.069 12.7165 713 95.8752 1371.95 509.604
203 0 57.0562 13.4955 770 93.7597 1371.91 508.455
204 0 58.0833 12.7059 738 96.2995 1371.3 506.657
205 0 60.0257 13.311 799 94.2278 1370.9 507.202
206 0 61.0991 13.0771 799 95.2128 1370.71 505.006
207 0 65.0938 13.3039 866 93.4238 1370.74 505.103
208 0 67.0584 13.5852 911 92.8211 1371.44 503.519
209 0 67.0795 12.0454 808 98.5941 1371.65 503.619
210 0 68.0299 12.1858 829 99.029 1371.92 503.367
211 0 70.0599 12.575 881 98.7707 1372.04 502.083
212 0 73.0719 12.823 937 98.5528 1371.32 502.228
213 0 74.0562 13.4492 996 97.8765 1371.11 499.44
214 0 77.0532 13.1208 1011 99.3452 1370.45 498.323
215 0 79.0281 13.3117 1052 99.2947 1370.9 497.357
216 0 81.0678 12.8411 1041 100.942 1371.05 496.452
217 0 82.062 13.0877 1074 100.889 1371.57 494.675
218 0 85.0494 13.451 1144 98.6198 1371.26 493.136
219 0 88.0577 13.071 1151 99.4778 1371.62 490.546
220 0 88.0502 13.197 1162 99.9527 1371.76 489.042
221 0 93.1565 13.3539 1244 98.7862 1371.3 487.148
222 0 96.044 13.296 1277 98.3172 1372.16 485.661
223 0 101.086 13.8693 1402 96.4551 1371.36 483.578
224 1 49.0552 10.7226 526 97.8745 1371.13 509.268
225 0 50.0659 11.2052 561 97.7041 1371.34 507.13
226 0 54.0227 12.106 654 98.1024 1372.36 510.297
227 0 56.0662 12.7171 713 86.8822 1371.31 509.861
228 0 57.0639 12.7927 730 84.4986 1372.32 508.705
229 0 58.0152 12.0486 699 86.1431 1372.52 508.601
230 0 58.03 12.304 714 86.4678 1373.01 507.721
231 0 59.087 11.7115 692 90.2558 1372.19 507.111
232 0 61.0479 12.8096 782 88.8376 1371.81 505.352
233 0 61.0596 11.9392 729 91.5912 1371.8 505.63
234 0 66.0982 12.0276 795 89.8616 1371.04 505.142
235 0 67.0857 12.0741 810 90.5827 1370.85 504.127
236 0 69.0472 12.3539 853 92.3646 1370.95 501.972
237 0 71.0365 12.937 919 92.5201 1372.14 501.338
238 0 72.1037 12.3849 893 96.5857 1371.97 500.574
239 0 75.1183 12.9928 976 100.524 1372.12 498.755
240 0 78.0224 13.4833 1052 98.2861 1372.09 497.727
241 0 79.0577 13.623 1077 100.859 1372.25 497.737
242 0 82.0855 13.3032 1092 101.372 1372.25 496.406
243 0 83.1527 13.5534 1127 100.934 1371.59 496.492
244 0 84.1039 12.5678 1057 105.298 1371.72 493.081
245 0 87.1234 13.3489 1163 103.012 1371.86 492.839
246 0 91.1274 12.9928 1184 101.827 1371.26 492.127
247 0 93.0683 13.2591 1234 100.9 1370.97 491.545
248 0 96.203 12.6399 1216 102.648 1371.83 490.035
249 0 98.0771 12.6635 1242 103.148 1371.33 488.267
250 0 101.189 13.3908 1355 101.516 1371.9 486.221
251 0 104.162 13.2294 1378 101.019 1371.39 482.972
252 0 108.168 12.3696 1338 102.005 1372.7 481.391
253 0 111.228 12.9374 1439 99.7901 1372.53 480.108
254 0 116.102 12.6785 1472 99.3784 1372.65 478.337
255 0 119.164 12.68 1511 99.8266 1373.18 475.261
256 0 122.163 12.7043 1552 99.4459 1372.47 473.526
257 0 127.231 13.7466 1749 97.1406 1371.95 471.679
258 0 131.148 13.1531 1725 98.8533 1371.41 469.594
259 0 134.167 13.5801 1822 98.4045 1371.44 466.994
260 0 139.099 13.2712 1846 99.3456 1371.52 464.457
261 0 144.146 13.5488 1953 99.3774 1371.35 463.327
262 0 149.22 13.785 2057 98.3335 1371.91 459.729
263 0 155.13 14.1366 2193 97.3019 1371.85 458.314
264 0 159.168 14.1046 2245 97.6922 1371.85 453.876
265 0 165.194 14.0562 2322 97.7528 1372.19 451.298
266 0 171.197 14.2818 2445 97.1117 1372.4 448.779
267 0 175.233 13.8501 2427 98.1376 1371.97 445.051
268 0 181.128 13.5982 2463 99.2619 1371.4 440.565
269 0 186.162 13.4937 2512 99.125 1371.22 437.206
270 0 191.147 13.2882 2540 99.1311 1370.32 437.293
271 0 198.295 13.5606 2689 99.1703 1370.73 430.953
272 0 202.154 12.9851 2625 101.246 1370.69 427.74
273 0 211.235 13.0566 2758 100.75 1371.12 425.199
274 0 217.192 13.6147 2957 99.1941 1370.75 418.561
275 0 224.198 13.5014 3027 99.4367 1371.2 416.378
276 0 231.304 14.0594 3252 98.8173 1371.79 410.883
277 0 239.284 13.7285 3285 99.8813 1371.41 406.259
278 0 247.295 14.6505 3623 98.5584 1370.86 398.562
279 0 257.19 13.9935 3599 101.431 1370.84 395.544
280 1 310.238 9.43147 2926 106.472 1371.07 404.925
281 0 308.224 8.2148 2532 107.835 1370.49 407.539
282 1 73.0579 10.5943 774 89.9121 1371.75 491.05
283 0 76.0418 11.7304 892 88.3061 1371.55 490.954
284 0 78.088 12.0505 941 88.4793 1370.66 488.9
285 0 80.0675 11.1281 891 89.917 1370.34 490.62
286 0 84.1269 11.3162 952 89.2679 1370.54 490.348
287 0 84.1183 10.9132 918 91.2309 1370.68 486.399
288 0 85.0906 11.4819 977 91.2006 1370.78 485.969
289 0 89.0837 11.5509 1029 90.0972 1370.34 483.236
290 0 91.0978 11.076 1009 91.8365 1369.89 481.464
291 0 94.1395 12.0035 1130 90.0106 1370.75 479.619
292 0 97.1384 11.3652 1104 91.4918 1369.64 478.005
293 0 102.124 11.5154 1176 89.8257 1369.99 476.469
294 0 104.109 11.8338 1232 89.5942 1370.16 473.955
295 0 106.133 11.4196 1212 91.1287 1370.13 472.177
296 0 111.127 11.4824 1276 89.906 1370.13 471.599
297 1 60.0885 9.55257 574 86.5418 1369.87 496.429
298 0 64.1 10.7332 688 85.1788 1370.03 497.783
299 0 70.0916 12.0557 845 79.058 1370.02 499.775
300 0 67.1329 11.4996 772 81.5505 1369.69 498.425
301 0 71.1306 11.8093 840 80.9976 1369.01 497.554
302 0 76.1016 11.4452 871 80.473 1369.9 494.972
303 0 79.1009 12.01 950 79.1516 1370.09 495.183
304 0 80.0894 11.637 932 80.8712 1370.41 494.017
305 0 82.0642 12.4415 1021 79.2419 1370.2 491.109
306 0 83.0638 12.1593 1010 80.299 1370.5 489.308
307 0 85.115 11.5256 981 82.6147 1370.87 491.403
308 0 85.0373 10.9129 928 85.1498 1371.38 489.518
309 0 88.0538 11.2431 990 84.7879 1370.09 488.079
310 0 88.0819 11.092 977 86.7932 1370.04 483.821
311 0 95.0796 12.0531 1146 83.863 1370.81 485.734
312 0 100.077 12.1307 1214 83.4745 1370.08 485.02
313 1 54.0331 9.91984 536 83.7463 1370.67 505.026
314 0 55.0431 9.77415 538 83.5112 1370.12 503.422
315 0 57.0304 10.2226 583 81.3945 1370.79 504.597
316 0 57.0142 10.4009 593 82.1889 1370.53 503.705
317 0 63.0435 12.2772 774 74.8966 1371.76 507.097
318 0 64.0332 12.1812 780 75.632 1371.51 506.622
319 0 64.0876 12.0148 770 76.3909 1370.53 507.148
320 0 65.1087 10.3673 675 76.4459 1369.89 506.778
321 0 68.023 11.1727 760 73.9645 1369.86 506.512
322 0 68.0873 10.3543 705 75.8071 1370.18 506.474
323 0 70.0518 10.9776 769 75.7711 1370.37 505.822
324 0 72.024 10.7603 775 76.9006 1370.12 505.284
325 0 75.0748 10.8026 811 77.1936 1370.47 503.175
326 0 79.0249 11.6672 922 76.0033 1369.97 501.452
327 0 82.0994 11.3643 933 77.612 1370.1 500.133
328 0 83.1172 11.3695 945 78.9238 1369.7 499.532
329 0 85.0773 11.801 1004 79.261 1369.83 498.501
330 0 89.0519 12.0492 1073 80.9609 1368.79 497.417
331 0 89.0484 12.0496 1073 129.567 1367.79 497.41
332 0 96.1719 12.1241 1166 86.41 1369.1 492.66
333 0 96.0532 11.1813 1074 88.5372 1369.39 489.583
334 0 101.126 11.9652 1210 85.957 1369.13 489.225
335 1 52.2204 9.78545 511 80.8532 1369.25 514.29
336 0 51.2084 9.54921 489 81.6544 1368.67 512.851
337 0 53.2357 10.2751 547 79.011 1368.41 510.331
338 0 55.1383 10.3921 573 79.6195 1368 511.185
339 0 54.0726 9.9311 537 77.1527 1367.47 512.868
340 0 55.0456 8.97438 494 77.2996 1368.34 514.032
341 0 55.0673 9.80618 540 75.763 1368.63 514.419
342 0 57.0943 10.1061 577 75.6776 1368.02 513.617
343 0 61.0514 10.3355 631 74.5483 1368.17 512.892
344 0 62.0484 10.3306 641 75.9002 1368.01 512.017
345 0 62.1159 9.65936 600 77.2133 1367.46 510.478
346 0 66.0966 10.7418 710 75.6507 1366.37 507.899
347 0 67.0403 10.3818 696 77.0014 1366.23 507.488
348 0 69.0966 11.0425 763 76.9056 1366.68 506.256
349 0 70.0192 10.8827 762 77.4318 1366.1 507.463
350 0 74.0663 11.3412 840 76.6024 1367.04 505.504
351 0 77.0262 12.1128 933 75.8692 1367.78 504.043
352 0 79.0351 11.7163 926 77.2333 1367.57 502.945
353 0 81.0768 11.3349 919 78.9217 1367.43 502.181
354 0 83.055 12.0402 1000 79.993 1367.04 499.945
355 0 87.073 11.7947 1027 80.8043 1366.63 499.253
356 0 88.0471 11.6983 1030 82.6786 1366.76 496.421
357 0 91.1023 12.0743 1100 82.3218 1367.82 496.34
358 0 94.034 12.1233 1140 83.0693 1367.89 494.465
359 0 98.0959 12.1514 1192 83.5419 1367.84 492.682
360 0 100.092 12.3087 1232 83.612 1368.83 491.344
361 0 102.089 11.9014 1215 84.9465 1368.62 489.212
362 0 106.085 11.8962 1262 83.0967 1369.03 487.49
363 0 108.179 11.6474 1260 83.8444 1368.83 487.776
364 0 112.137 11.8694 1331 84.5875 1369.02 483.053
365 0 115.143 11.9764 1379 83.7585 1369.46 483.695
366 0 120.121 12.3959 1489 83.8731 1368.93 481.317
367 0 121.169 11.5954 1405 86.7445 1369.57 478.715
368 0 125.137 12.0907 1513 86.4349 1369.94 476.291
369 0 131.141 12.4218 1629 84.9306 1369.03 474.869
370 0 136.078 11.9711 1629 85.3732 1369.55 472.383
371 0 141.121 12.8755 1817 84.104 1369.43 468.487
372 1 76.0649 10.3727 789 82.9468 1369.9 502.577
373 0 78.1535 10.7225 838 85.3484 1370.22 502.407
374 0 84.1132 11.6272 978 83.8497 1370.08 499.857
375 0 86.1692 12.6263 1088 84.5377 1369.5 497.623
376 0 89.1908 12.4228 1108 86.7347 1369.56 495.497
377 0 89.1122 10.829 965 80.5876 1368.08 498.489
378 0 90.0869 10.2124 920 82.0304 1368.85 496.91
379 0 95.0363 9.99618 950 76.5716 1369.3 489.585
380 0 98.0278 10.752 1054 81.1233 1369.2 494.256
381 0 100.087 10.7407 1075 81.68 1369.08 492.44
382 0 103.046 11.1115 1145 81.2349 1369.52 490.375
383 0 108.044 11.449 1237 82.3023 1369.62 488.958
384 0 110.109 10.7348 1182 84.0677 1369.09 486.508
385 0 112.053 11.0573 1239 84.8216 1368.95 485.814
386 0 117.084 11.0604 1295 82.4124 1369.23 479.809
387 0 120.036 12.1297 1456 80.9313 1369.5 481.286
388 0 124.089 11.7174 1454 83.8783 1369.89 482.003
389 0 126.155 11.6919 1475 85.6339 1369.76 478.259
390 0 130.174 11.6537 1517 87.3619 1369.88 475.355
391 0 134.095 11.6559 1563 87.0045 1370.34 476.746
392 0 141.264 12.9545 1830 89.1497 1370.45 471.804
393 0 144.209 13.6122 1963 89.1075 1369.61 469.594
394 0 150.357 12.9559 1948 92.8203 1369.88 465.561
395 0 155.345 13.6406 2119 93.757 1370.14 464.073
396 0 157.339 12.8957 2029 97.4815 1370.23 460.426
397 0 161.352 12.5812 2030 98.4665 1369.91 458.855
398 0 166.409 13.1964 2196 97.0952 1369.87 455.184
399 0 169.383 12.7581 2161 99.3119 1369.88 451.013
400 0 175.131 12.7276 2229 97.3432 1369.24 451.176
401 0 179.109 12.9307 2316 98.9266 1369.65 445.883
402 0 185.126 12.8669 2382 100.887 1370.03 444.597
403 0 188.15 12.5697 2365 101.282 1369.51 439.464
404 0 194.166 12.8087 2487 100.301 1369.21 438.588
405 0 198.169 12.6004 2497 101.529 1370.26 432.189
406 0 205.197 12.8949 2646 99.2441 1369.23 422.744
407 0 205.196 12.8901 2645 158.543 1368.24 422.351
408 0 205.201 12.8557 2638 158.194 1367.24 422.281
409 1 162.136 12.8904 2090 97.3737 1369.17 452.926
410 0 164.232 13.3105 2186 94.2539 1369.89 448.808
411 0 165.143 12.8616 2124 93.2382 1370.02 444.692
412 0 170.337 13.397 2282 93.1547 1369.82 440.928
413 0 173.309 12.1517 2106 96.0532 1369.36 441.181
414 0 181.373 12.24 2220 94.4342 1369.38 440.618
415 0 187.341 12.6508 2370 95.0325 1369 436.389
416 0 193.223 12.1518 2348 96.1938 1369.22 433.969
417 0 201.346 13.0174 2621 94.2076 1369.88 435
418 0 209.281 12.8344 2686 95.6299 1369.71 429.723
419 0 217.243 13.5424 2942 93.5517 1370.47 428.599
420 0 222.301 13.4188 2983 94.0966 1370.29 423.528
421 0 230.368 12.9879 2992 96.5521 1369.66 421.862
422 0 240.312 13.4408 3230 94.5663 1369.46 419.735
423 0 246.254 13.677 3368 93.788 1369.6 414.687
424 0 257.242 14.1501 3640 93.6396 1369.87 409.845
425 0 266.317 13.7505 3662 94.9227 1369.19 403.891
426 0 274.357 14.2661 3914 92.4773 1369.82 399.18
427 0 280.311 15.5292 4353 88.4388 1369.18 392.011
428 0 289.422 15.5551 4502 89.345 1369.59 384.483
429 0 298.477 16.1453 4819 88.7931 1369.26 381.026
430 0 298.471 12.2558 3658 100.627 1369.21 392.134
431 1 80.2154 10.4718 840 83.281 1369.26 495.805
432 0 81.2587 10.5219 855 83.4807 1368.55 500.739
433 0 86.3183 11.8631 1024 81.6631 1368.47 492.574
434 0 88.1862 12.0994 1067 83.1556 1368.16 495.848
435 0 91.2841 12.0065 1096 84.1068 1368.29 495.565
436 0 93.2184 12.2079 1138 84.0562 1369.09 492.914
437 0 94.2667 11.6478 1098 85.571 1369.8 491.887
438 0 98.293 11.9744 1177 85.2863 1369.99 488.517
439 0 103.226 12.1481 1254 84.4514 1369.52 488.108
440 0 106.135 12.1167 1286 81.8375 1370.05 486.125
441 1 53.2062 10.1868 542 78.2398 1370.53 513.854
442 0 53.1025 10.0937 536 77.694 1370.77 513.358
443 0 56.1854 10.323 580 76.9759 1370.01 511.557
444 0 56.3301 11.042 622 74.5514 1369.39 508.773
445 0 57.1154 11.2754 644 72.2671 1369.65 509.607
446 0 59.1664 10.9353 647 73.6074 1370.02 508.508
447 0 61.1564 11.4134 698 74.8238 1370.37 504.781
448 0 64.1998 12.134 779 73.1836 1369.86 506.913
449 0 66.2391 11.9567 792 73.8194 1371.08 505.597
450 0 67.25 11.7472 790 75.0038 1370.04 505.146
451 0 70.4216 12.0844 851 73.9706 1369.46 504.968
452 0 72.1972 12.9368 934 73.2816 1369.81 503.214
453 0 73.2407 11.0731 811 76 1370.51 503.526
454 0 75.2683 12.4488 937 77.5326 1370 500.534
455 0 78.2337 12.6672 991 76.6287 1370.31 500.139
456 0 80.1667 12.1247 972 74.4681 1370.88 499.101
457 0 80.2095 11.7692 944 77.517 1370.98 496.779
458 0 86.2048 12.8183 1105 76.2733 1370.92 495.557
459 0 87.32 11.9904 1047 78.7593 1370.12 494.816
460 1 49.2499 10.3757 511 74.6869 1369.25 511.268
461 0 48.0179 9.99626 480 74.8167 1370.35 514.221
462 0 50.2257 10.2935 517 71.0561 1369.53 512.95
463 0 53.1542 11.8711 631 68.4865 1369.35 512.853
464 0 55.0206 11.5775 637 68.1115 1370.73 512.625
465 0 52.0343 11.1273 579 72.981 1370.91 513.712
466 0 53.0354 10.8418 575 73.9513 1371.05 511.586
467 0 55.0989 11.3432 625 72.1584 1370.7 512.976
468 0 58.0799 10.7955 627 73.2233 1370.39 511.735
469 0 59.0694 10.8686 642 73.947 1369.51 509.961
470 0 59.0831 10.9507 647 74.2179 1369.48 510.238
471 0 59.0902 10.374 613 75.1484 1370.06 509.202
472 0 63.0324 11.4227 720 72.3069 1369.81 507.425
473 0 63.061 10.7356 677 74.2644 1370.19 507.514
474 0 67.0413 11.0976 744 73.6022 1370.53 506.665
475 0 69.1612 11.437 791 73.6903 1370.76 505.455
476 0 69.1441 11.3242 783 75.5262 1370.53 504.142
477 0 73.0277 11.9681 874 74.5767 1370.15 503.727
478 0 75.1411 11.9642 899 74.8165 1369.41 501.778
479 0 78.1488 11.5677 904 76.0221 1369.52 499.874
480 0 79.1527 11.5852 917 77.108 1369.43 497.751
481 1 43.0388 10.1536 437 79.1991 1370.24 515.879
482 0 45.0316 10.3261 465 78.443 1370.34 513.97
483 0 46.0429 11.4024 525 76.7829 1369.87 514.465
484 0 49.0307 11.4214 560 70.0339 1369.96 514.332
485 0 51.0747 11.1993 572 69.8077 1369.64 513.526
486 0 51.1382 11.4005 583 72.0086 1369.61 512.033
487 0 53.0969 11.0741 588 69.3537 1369.03 510.502
488 0 56.0563 11.2922 633 70.8499 1368.43 510.689
489 0 56.0709 11.646 653 68.7075 1368.08 510.732
490 0 57.0999 10.7881 616 70.401 1368.36 508.693
491 0 60.0685 11.3204 680 69.4941 1368.6 508.09
492 0 61.0646 11.0866 677 69.5229 1368.56 507.835
493 0 63.0658 11.4325 721 69.4896 1368.3 507.481
494 0 67.068 12.1071 812 68.2303 1369.27 506.762
495 0 67.0282 11.4877 770 69.6026 1370.31 506.217
496 0 71.0737 11.1715 794 69.5617 1369.64 503.399
497 0 74.0664 12.1513 900 67.74 1368.6 503.134
498 0 77.0537 12.7573 983 67.3906 1368.86 502.372
499 0 78.0805 12.4999 976 68.8279 1368.25 501.071
500 0 81.0396 12.6111 1022 68.501 1367.93 500.884
501 0 83.1273 12.4869 1038 70.1464 1368.41 497.835
502 0 86.0796 12.349 1063 80.1674 1369.12 498.341
503 0 89.0668 11.1938 997 80.8716 1368.48 496.109
504 0 92.0859 11.1852 1030 80.3893 1368.54 496.275
505 1 49.0844 10.757 528 73.1856 1368.78 516.083
506 0 50.1573 11.4241 573 73.623 1368.3 514.253
507 0 55.0423 11.3186 623 73.5281 1369.48 514.262
508 0 55.05 11.535 635 74.4425 1368.97 513.077
509 0 55.0193 11.1597 614 77.3046 1368.37 513.818
510 0 56.064 11.4869 644 79.1056 1368.34 512.644
511 0 59.1168 11.7056 692 79.2688 1368.15 511.965
512 0 62.0225 12.0924 750 80.9867 1368.91 509.657
513 0 62.0672 11.8903 738 82.1125 1369.32 510.925
514 0 66.0452 12.0978 799 82.5507 1368.99 509.936
515 0 67.1131 12.0245 807 84.1834 1368.68 509.067
516 0 68.0743 12.0016 817 85.164 1368.6 508.211
517 0 71.1146 12.1916 867 85.2699 1368.85 508.691
518 0 73.0932 12.573 919 83.84 1368.74 508.001
519 0 76.0758 12.8162 975 85.0195 1367.42 505.192
520 0 79.0418 12.1075 957 86.4462 1367.07 504.567
521 0 82.0412 12.445 1021 85.857 1367.81 503.649
522 0 84.0486 12.2667 1031 86.42 1367.75 502.411
523 0 87.02 12.342 1074 87.6555 1368.19 500.485
524 0 89.0436 11.9717 1066 89.4625 1368.73 499.439
525 0 93.1206 12.4355 1158 89.6477 1368.48 496.874
526 1 50.0416 10.6511 533 91.955 1368.05 518.715
527 0 54.0611 12.5599 679 87.5891 1367.68 517.683
528 0 55.0907 13.1964 727 83.795 1366.83 515.447
529 0 53.047 11.2542 597 87.4941 1367.28 517.603
530 0 56.0214 12.2275 685 85.2569 1367.55 515.721
531 0 58.0504 12.1102 703 85.5405 1367.36 515.63
532 0 59.0555 12.0734 713 86.2567 1367.49 513.826
533 0 61.0332 12.0754 737 85.9281 1367.54 514.882
534 0 61.0759 11.7559 718 86.7451 1367.85 513.617
535 0 64.0712 11.9086 763 85.8283 1367.3 511.667
536 0 66.154 12.229 809 123.713 1367.44 510.55
537 0 67.116 11.5174 773 87.0595 1367.37 510.955
538 0 70.1123 11.938 837 85.2246 1367.46 510.564
539 0 71.0999 12.5457 892 84.1715 1367.76 510.059
540 0 73.1876 11.8053 864 85.9583 1368.04 509.435
541 0 77.0956 11.8684 915 85.0601 1368.15 508.133
542 0 79.0824 12.0001 949 85.1465 1368.11 505.273
543 0 82.0928 12.7051 1043 83.72 1367.68 506.081
544 0 85.0849 12.5874 1071 83.5649 1367.62 503.13
545 0 89.1784 12.4806 1113 83.9371 1367.59 502.283
546 1 48.0935 11.3945 548 84.0547 1366.98 521.44
547 0 49.158 12.0835 594 82.4579 1366.94 520.269
548 0 51.0863 11.6274 594 82.9125 1367 519.517
549 0 52.047 12.6616 659 80.041 1367.06 519.2
550 0 53.0506 13.0064 690 84.5739 1367.79 517.957
551 0 54.0938 12.5338 678 86.1018 1367.35 518.627
552 0 54.0389 12.9906 702 87.1353 1368.29 516.319
553 0 57.0438 12.4992 713 86.8303 1368.47 517.172
554 0 58.1434 13.0195 757 87.2417 1368.63 516.432
555 0 60.1027 13.3605 803 87.1793 1368.09 516.208
556 0 60.0337 12.3764 743 91.3795 1367.34 514.917
557 0 60.0337 12.393 744 149.249 1366.31 514.786
558 0 63.0369 13.2304 834 90.2926 1366.58 512.662
559 0 64.1515 13.2655 851 91.423 1366.69 512.457
560 0 68.0982 13.6714 931 90.652 1366.77 510.658
561 0 70.1441 13.1586 923 91.6349 1367.37 509.424
562 0 73.0693 13.6446 997 91.4624 1367.21 509.049
563 0 76.1047 13.5865 1034 91.4478 1367.78 506.147
564 0 77.1131 13.772 1062 91.7589 1367.82 506.006
565 0 81.1342 13.6564 1108 92.1616 1367.81 504.389
566 0 84.0943 13.7703 1158 92.7461 1367.41 502.351
567 0 86.1281 14.0024 1206 93.8449 1367.12 499.603
568 0 89.1061 13.4671 1200 96.03 1366.7 498.156
569 1 44.0651 11.6872 515 100.223 1367.37 519.392
570 0 45.0937 11.6203 524 97.9466 1367.21 518.702
571 0 46.0927 11.9759 552 94.2065 1367.22 515.859
572 0 48.0436 12.447 598 95.4398 1367.77 517.689
573 0 48.0995 13.0147 626 95.9473 1367.29 516.653
574 0 51.0546 12.8686 657 95.8341 1367.54 516.417
575 0 53.0834 13.1868 700 94.9243 1367.05 515.19
576 0 54.0612 13.5772 734 93.2452 1366.54 514.751
577 0 55.0207 12.9406 712 96.6952 1366.08 514.232
578 0 59.1172 13.3295 788 95.1827 1367 513.169
579 0 60.0556 12.8881 774 97.4302 1366.81 512.076
580 0 62.0472 13.4736 836 95.8325 1366.9 511.781
581 0 63.0317 13.9612 880 94.5193 1367.44 510.56
582 0 64.0884 13.809 885 95.6463 1367.16 509.263
583 0 68.0658 13.5016 919 94.6431 1366.54 508.166
584 0 69.0392 13.1954 911 91.9045 1366.65 508.88
585 0 72.0387 13.3539 962 92.2963 1366.62 506.891
586 0 73.0463 13.7858 1007 93.3803 1366.71 505.179
587 0 75.0814 13.5187 1015 95.1005 1367.07 503.915
588 0 78.0672 13.4756 1052 97.231 1366.85 502.235
589 0 81.0682 13.6798 1109 97.119 1366.6 500.006
590 0 84.1927 13.8254 1164 96.9433 1367.35 499.32
591 0 88.1578 13.7821 1215 99.5885 1367.88 496.788
592 1 48.0759 11.8563 570 99.3737 1367.49 516.97
593 0 50.0442 12.389 620 95.6564 1367.56 514.742
594 0 52.1431 12.2739 640 97.0281 1366.63 511.942
595 0 52.1242 12.6429 659 97.5842 1366.97 512.66
596 0 51.0179 12.5642 641 94.5476 1367.43 515.445
597 0 53.0328 12.1246 643 94.9191 1367.3 515.07
598 0 55.0393 12.809 705 92.4539 1367.3 514.177
599 0 57.0274 13.0639 745 91.6738 1367.22 513.442
600 0 60.0607 13.2033 793 90.7226 1367.01 511.02
601 0 62.0508 13.8757 861 89.0976 1366.94 510.647
602 0 62.0119 13.32 826 91.5121 1366.59 510.433
603 0 65.0509 13.2358 861 90.2776 1366.73 509.096
604 0 68.0298 13.1119 892 90.5527 1366.14 509.259
605 0 69.1016 13.3282 921 90.8512 1366.68 507.965
606 0 70.1117 12.9365 907 93.4675 1366.31 505.498
607 0 73.0924 13.2435 968 92.189 1366.43 504.139
608 0 75.0532 12.7376 956 92.9885 1366.65 504.162
609 0 79.1084 13.7659 1089 90.3159 1366.86 501.662
610 0 80.0774 12.9125 1034 91.8317 1366.17 500.788
611 0 84.0747 13.0598 1098 91.4772 1366.03 499.969
612 0 85.1774 12.832 1093 92.1189 1365.92 499.693
613 1 47.0266 12.0783 568 92.963 1365.96 518.317
614 0 47.0385 12.224 575 92.4226 1366.02 517.259
615 0 50.0191 12.3553 618 90.8754 1365.5 515.472
616 0 49.0238 12.4429 610 92.0918 1366.07 514.9
617 0 51.0272 12.3268 629 88.7234 1366.11 516.035
618 0 54.0767 12.3158 666 88.1381 1366.31 514.907
619 0 53.0653 11.8345 628 89.414 1366.25 511.764
620 0 57.0728 12.1599 694 86.9712 1366.85 511.575
621 0 60.0689 12.4357 747 85.5582 1366.09 509.443
622 0 60.1209 12.4749 750 84.928 1366.07 507.16
623 0 64.0479 12.5843 806 83.9119 1366.1 505.474
624 0 67.0445 13.2897 891 81.3468 1366.76 505.236
625 0 67.0255 13.1741 883 82.0578 1366.33 504.868
626 0 70.0801 12.7854 896 83.6004 1366.46 502.419
627 0 72.0421 13.159 948 82.808 1366.63 501.783
628 0 70.0356 13.0362 913 85.5312 1366.81 498.709
629 0 75.0223 13.2094 991 84.1251 1367.1 496.519
630 0 77.0358 13.3574 1029 84.2663 1367.29 491.485
631 0 79.0897 13.4151 1061 84.7823 1367.13 491.314
632 0 83.0779 13.9146 1156 84.4593 1367.79 488.312
633 0 85.0786 13.0115 1107 87.4752 1367.2 487.59
634 0 91.1151 14.0591 1281 85.2123 1366.66 486.674
635 0 94.0734 13.5745 1277 86.0063 1367.58 484.991
636 0 97.1936 13.4474 1307 86.4858 1367.38 481.881
637 0 102.148 13.5392 1383 86.436 1367.37 482.045
638 1 55.1426 11.298 623 87.9165 1368.31 508.604
639 0 59.0303 11.6889 690 86.4565 1367.45 507.551
640 0 60.0829 11.9002 715 86.172 1366.87 506.091
641 0 64.2037 12.7719 820 84.5768 1367.11 507.84
642 0 66.2257 13.1973 874 84.1991 1366.9 507.043
643 0 67.1742 12.2666 824 85.6384 1367.17 505.737
644 0 71.2329 12.2696 874 85.8513 1367.67 502.676
645 0 74.3136 12.1108 900 85.8356 1367.61 500.656
646 0 72.1702 11.847 855 88.1684 1367.79 498.515
647 0 75.2207 11.7787 886 88.4492 1367.92 496.529
648 0 78.2008 12.0843 945 87.6942 1368.5 495.667
649 0 80.1966 12.2823 985 86.9797 1368.04 496.316
650 0 84.2161 12.0998 1019 87.5594 1367.5 492.576
651 0 85.0955 12.0335 1024 88.7607 1367.18 490.977
652 0 88.166 12.5332 1105 87.6579 1366.97 490.912
653 0 92.1408 12.2964 1133 87.6858 1367.95 490.321
654 0 93.1463 12.475 1162 88.9355 1368.22 486.91
655 0 96.1542 12.0952 1163 88.939 1368.1 487.769
656 0 100.163 12.1502 1217 88.2243 1368.69 486.131
657 0 102.076 12.5299 1279 88.0985 1368.22 484.787
658 0 105.118 12.1673 1279 89.1134 1368.95 482.891
659 0 110.12 12.668 1395 86.9197 1368.8 481.595
660 0 114.102 12.3048 1404 87.3654 1368.83 480.372
661 0 117.09 12.6313 1479 86.7992 1368.46 478.113
662 0 121.117 12.6489 1532 87.8531 1367.19 475.143
663 0 128.159 12.8746 1650 87.2224 1367.72 472.554
664 0 131.083 12.2823 1610 88.3907 1367.14 471.07
665 0 137.225 12.5487 1722 88.7207 1367.35 468.482
666 0 141.272 12.7697 1804 90.2533 1368.19 465.241
667 1 80.1548 10.7168 859 85.1455 1368.02 496.236
668 0 82.1637 10.5886 870 86.0483 1368 494.74
669 0 86.1749 11.4535 987 84.078 1367.82 494.691
670 0 87.2722 11.1376 972 86.2099 1367.79 490.938
671 0 93.229 12.0456 1123 82.959 1367.51 490.757
672 0 95.2287 11.2886 1075 85.5367 1367.79 489.127
673 0 97.12 11.2026 1088 86.739 1367.09 486.314
674 0 100.133 11.7743 1179 86.3554 1367.26 485.964
675 0 101.178 10.4766 1060 88.8311 1367.62 483.285
676 0 104.175 11.7111 1220 86.7164 1367.82 484.643
677 0 107.159 11.8049 1265 87.3866 1367.95 480.678
678 0 111.232 11.6333 1294 87.6291 1368.17 479.732
679 0 115.094 11.9033 1370 86.1066 1368.11 480.667
680 1 60.0156 9.49753 570 81.3 1367.8 507.749
681 0 62.0386 9.9293 616 80.2273 1366.9 509.898
682 0 63.015 9.68024 610 86.818 1366.15 506.631
683 0 65.0312 10.3643 674 85.365 1366.77 505.343
684 0 67.0536 11.7369 787 82.9174 1368.34 506.426
685 0 66.0818 10.6989 707 77.4965 1369.16 507.223
686 0 65.0735 10.7724 701 80.4964 1368.67 507.321
687 0 68.0163 11.2767 767 79.7445 1368.89 506.507
688 0 72.033 11.3559 818 79.1663 1368.6 505.757
689 0 72.059 10.8106 779 81.8177 1369.01 506.534
690 0 75.0154 11.6243 872 81.1823 1368.93 505.265
691 0 78.0462 11.5444 901 80.8535 1368.85 504.383
692 0 80.0485 11.3056 905 81.5249 1367.9 503.102
693 0 81.0169 11.2446 911 82.2975 1368.22 502.111
694 0 84.0733 11.49 966 82.2246 1368.81 501.892
695 0 86.0419 11.3666 978 82.3568 1367.75 500.084
696 0 89.0971 10.9319 974 82.9938 1368.08 499.471
697 0 92.0215 11.5408 1062 81.6751 1368.14 497.032
698 0 93.0354 11.1678 1039 82.8932 1367.92 496.841
699 0 98.0528 11.6468 1142 81.5236 1368.43 496.622
700 0 100.129 10.7661 1078 82.8506 1368.66 494.358
701 0 104.069 10.6948 1113 84.1662 1368.68 490.191
702 0 107.138 11.0979 1189 84.4802 1368.62 489.684
703 0 109.189 10.5047 1147 85.0209 1368.5 488.083
704 1 64.0857 9.89301 634 81.571 1368.43 512.926
705 0 65.0431 9.96262 648 82.2361 1368.79 511.498
706 0 66.0464 10.7803 712 80.6334 1369.23 510.654
707 0 69.0721 11.2346 776 79.5129 1369.61 508.813
708 0 65.0418 9.28634 604 74.8228 1368.65 512.929
709 0 68.035 9.18645 625 74.792 1368.37 512.456
710 0 70.1049 9.17197 643 75.5537 1368.07 511.149
711 0 73.1031 9.67128 707 75.5714 1367.14 510.228
712 0 74.0788 8.54495 633 76.8341 1368.02 509.589
713 0 76.0862 9.85724 750 76.1973 1368.11 506.561
714 0 79.076 9.69953 767 76.5971 1368.43 506.756
715 0 81.0659 9.06669 735 78.117 1368.35 505.958
716 0 81.0921 9.816 796 77.8053 1368.59 505.763
717 0 83.0894 9.70039 806 78.732 1368.77 502.77
718 0 85.0674 9.94505 846 79.6785 1368.94 501.116
719 0 87.0948 9.77096 851 79.7203 1368.22 503.4
720 0 89.0922 9.94475 886 80.719 1367.33 497.685
721 0 91.1076 9.73575 887 83.3112 1367.8 496.505
722 0 95.099 10.7782 1025 82.5307 1367.8 497.929
723 0 96.1043 10.7487 1033 84.7832 1367.92 494.922
724 0 99.1122 11.1692 1107 84.1743 1367.67 494.175
725 0 104.092 11.096 1155 84.0554 1368 494.329
726 0 106.06 11.2577 1194 85.7848 1368.66 492.153
727 0 108.09 11.0094 1190 87.6319 1368.16 491.428
728 0 110.091 11.7903 1298 88.4237 1367.54 488.491
729 0 113.052 11.623 1314 91.0198 1366.7 486.215
730 0 119.089 12.201 1453 89.8286 1366.74 483.936
731 0 122.098 12.5391 1531 91.3442 1367.28 481.839
732 0 127.087 12.2121 1552 92.6166 1367.22 482.996
733 0 132.175 12.8391 1697 89.8503 1366.29 478.481
734 1 71.0721 9.72252 691 91.8119 1366.2 505.687
735 0 75.1301 10.5151 790 93.8962 1366.78 505.119
736 0 80.0263 12.271 982 90.2138 1368.01 504.304
737 0 81.1253 11.4884 932 85.4785 1366.84 503.394
738 0 82.0445 11.9082 977 84.3429 1367.66 504.07
739 0 86.0419 11.413 982 85.6619 1366.74 502.612
740 0 89.0786 11.8547 1056 85.5691 1366.95 501.29
741 0 92.0967 12.8126 1180 84.6314 1366.78 500.597
742 0 92.0579 12.8072 1179 86.4767 1367.1 496.926
743 0 94.1278 11.92 1122 90.7576 1367.53 497.206
744 0 93.0487 11.3919 1060 95.8915 1367.61 497.179
745 0 97.1198 11.6351 1130 95.9177 1367.45 495.1
746 0 99.1389 11.8117 1171 96.316 1368.48 494.961
747 0 101.063 11.8837 1201 98.7194 1368.44 492.881
748 0 106.079 12.4152 1317 99.3948 1367.69 491.332
749 0 109.145 11.9291 1302 100.865 1366.59 489.977
750 0 109.085 12.0915 1319 104.735 1366.41 488.304
751 0 113.142 12.4887 1413 102.914 1367.6 485.541
752 0 118.042 12.6735 1496 103.674 1367.6 485.139
753 0 118.108 12.3701 1461 104.91 1367.6 482.793
754 0 123.102 12.8267 1579 104.332 1367.96 480.236
755 0 127.161 12.496 1589 104.994 1367.95 480.375
756 0 130.169 12.7065 1654 104.288 1368.12 477.317
757 0 133.22 12.3105 1640 106.134 1368.23 475.09
758 0 135.143 12.5792 1700 111.429 1367.36 466.541
759 0 142.127 13.4739 1915 109.103 1366.59 472.372
760 0 144.106 12.5463 1808 113.113 1366.74 467.475
761 0 148.058 12.8733 1906 112.589 1366.4 467.834
762 1 84.1234 11.3643 956 102.633 1366.3 498.49
763 0 81.098 9.92627 805 99.2435 1367.19 492.564
764 0 84.0728 10.5385 886 87.9289 1367.64 493.12
765 0 88.1031 10.3515 912 88.9101 1368.35 492.924
766 0 94.1512 12.6499 1191 94.1301 1367.5 495.745
767 0 98.1058 11.9871 1176 109.279 1367.52 495.071
768 0 100.139 12.3628 1238 108.705 1366.92 493.01
769 0 102.15 11.6299 1188 112.464 1366.78 491.945
770 0 104.084 11.7405 1222 112.477 1367.4 489.222
771 0 107.112 12.1462 1301 108.992 1367.1 487.537
772 0 109.086 12.1372 1324 108.328 1367.87 489.112
773 0 109.088 11.4311 1247 110.168 1367.93 490.103
774 0 116.178 11.9816 1392 108.986 1368.2 485.21
775 0 119.173 11.9658 1426 109.316 1368.07 484.538
776 1 66.0436 9.59971 634 107.259 1367.06 510.014
777 0 65.018 9.3205 606 109.241 1367.02 510.993
778 0 67.0105 10.1029 677 107.323 1366.75 509.42
779 0 65.0784 10.787 702 103.793 1366.39 508.919
780 0 67.0373 11.7845 790 104.667 1366.55 510.31
781 0 68.0437 11.8453 806 106.486 1367.94 507.661
782 0 72.0278 11.9954 864 106.216 1367.32 507.009
783 0 73.0383 12.0485 880 105.933 1367.24 505.207
784 0 75.0414 12.1933 915 105.337 1367.41 505.573
785 0 76.0348 11.9551 909 107.481 1367.08 503.472
786 0 75.0834 11.3873 855 95.0269 1368.35 505.443
787 0 78.1196 11.3544 887 95.6347 1367.82 504.654
788 0 78.0533 10.4416 815 98.8356 1368.21 503.004
789 0 81.0895 11.2592 913 97.9825 1367.82 501.146
790 0 85.0804 11.5655 984 96.939 1368.64 501.008
791 0 86.041 11.204 964 99.8195 1369.2 501.187
792 0 89.1092 11.817 1053 98.8889 1368.85 498.997
793 0 92.0776 12.1637 1120 99.4938 1369.29 497.682
794 0 94.0944 11.7435 1105 101.626 1369.61 497.685
795 0 94.1058 11.8377 1114 103.112 1369.27 494.87
796 0 99.1187 12.4497 1234 103.23 1370.17 493.628
797 0 101.049 12.489 1262 103.498 1369.29 494.814
798 0 103.072 12.2535 1263 105.874 1369.05 492.271
799 0 106.068 12.0018 1273 106.822 1369.09 489.44
800 0 110.092 12.3533 1360 106.013 1369.55 488.646
801 1 59.0308 10.791 637 106.403 1369.92 515.95
802 0 62.048 11.0721 687 104.879 1370 514.704
803 0 63.1007 11.7114 739 105.196 1369.74 513.03
804 0 64.0502 10.7103 686 107.363 1369.97 513.776
805 0 67.0612 11.1689 749 106.574 1368.93 511.491
806 0 71.099 12.8412 913 101.848 1368.97 510.999
807 0 72.0996 12.566 906 102.939 1368.04 510.171
808 0 74.0993 13.1445 974 100.714 1367.6 509.859
809 0 76.0681 13.3696 1017 101.321 1367.17 507.936
810 0 78.1432 13.1809 1030 101.651 1367.47 508.147
811 0 80.0898 13.5972 1089 100.45 1367.29 507.65
812 0 81.0941 13.3549 1083 102.761 1366.97 505.278
813 0 84.0686 13.4533 1131 101.692 1367.69 504.014
814 0 86.0963 13.1248 1130 103.819 1368.09 503.953
815 0 90.0645 14.0122 1262 101.19 1367.87 502.597
816 0 92.0801 13.6512 1257 102.651 1367.8 502.677
817 0 95.1106 13.4265 1277 102.756 1367.92 500.757
818 0 97.1059 13.3463 1296 103.061 1367.91 498.132
819 0 100.089 13.0284 1304 102.688 1367.2 495.906
820 0 102.08 12.6666 1293 100.098 1366.83 495.42
821 1 56.0653 11.4153 640 104.484 1367.03 516.083
822 0 58.0576 11.6092 674 105.656 1366.83 515.119
823 0 62.0549 12.5373 778 98.3085 1367.23 515.866
824 0 61.0335 11.6166 709 90.9944 1367.33 511.457
825 0 64.0377 11.4464 733 91.9004 1367.54 511.308
826 0 65.0458 11.4535 745 92.2537 1368.31 510.362
827 0 65.0612 11.2202 730 94.2342 1367.98 509.141
828 0 69.0428 11.6449 804 92.5298 1367.92 509.369
829 0 70.0485 11.6633 817 93.2338 1367.91 508.624
830 0 72.014 11.8866 856 93.9416 1367.84 507.033
831 0 73.0518 11.4302 835 96.5976 1367.08 505.438
832 0 77.0491 12.6413 974 93.5862 1366.88 504.301
833 0 80.0889 12.3613 990 94.6404 1366.45 503.893
834 0 82.051 12.285 1008 95.8165 1366.4 503.231
835 0 84.0548 12.2896 1033 100.972 1366.97 503.026
836 0 86.0631 12.2236 1052 111.261 1366.7 502.531
837 0 88.1259 11.7559 1036 107.729 1366.74 499.625
838 0 92.1803 11.8463 1092 109.69 1366.42 498.165
839 0 94.1347 12.6627 1192 110.388 1366.97 498.77
840 0 99.1512 13.2323 1312 115.205 1367.13 499.043
841 0 101.113 13.6382 1379 114.875 1366.84 497.496
842 1 52.0424 11.7212 610 110.416 1367.54 521.649
843 0 53.0336 11.8416 628 110.021 1365.55 520.65
844 0 52.0572 10.4692 545 105.275 1365.86 514.429
845 0 56.069 12.5025 701 106.621 1365.74 516.679
846 0 57.0427 12.0611 688 98.1381 1365.13 517.086
847 0 57.0709 12.5458 716 97.0447 1365.13 516.281
848 0 59.0829 12.6771 749 96.7517 1365.26 513.897
849 0 60.0405 12.7747 767 96.2138 1365.82 512.863
850 0 62.0333 12.2515 760 96.7263 1366.47 511.828
851 0 64.0371 12.2741 786 95.2519 1366.24 510.929
852 0 65.0462 12.9446 842 94.0226 1366.36 510.506
853 0 69.0217 12.7351 879 93.5279 1365.12 509.877
854 0 70.1485 12.2169 857 93.6079 1365.78 507.95
855 0 73.0717 13.0009 950 91.9642 1365.48 506.871
856 0 73.0685 12.851 939 93.2172 1366.02 506.003
857 0 75.0284 12.8618 965 93.7782 1365.96 505.361
858 0 79.0596 13.1293 1038 93.1975 1366.21 504.886
859 0 82.0401 13.5787 1114 91.807 1366.35 502.537
860 0 83.0492 12.6672 1052 94.0466 1367.05 501.529
861 0 86.0435 13.005 1119 93.782 1366.52 499.672
862 0 88.0872 12.8395 1131 95.0416 1366.26 498.369
863 0 90.0704 12.6679 1141 96.8098 1365.64 497.935
864 1 47.0286 11.4398 538 102.524 1365.8 517.123
865 0 50.0111 12.2373 612 99.8726 1366.42 516.85
866 0 52.0517 11.9112 620 101.458 1366.68 515.877
867 0 54.0275 11.7348 634 103.121 1366.36 513.763
868 0 54.0147 12.0338 650 102.557 1366.18 512.214
869 0 57.0221 12.2058 696 102.533 1366.05 512.52
870 0 59.0283 12.5533 741 102.266 1365.37 511.279
871 0 59.009 12.5405 740 103.322 1365.96 511.172
872 0 60.039 12.3253 740 103.632 1365.52 510.664
873 0 61.039 12.877 786 102.758 1366.39 510.454
874 0 65.0356 12.6392 822 101.774 1366.41 510.815
875 0 66.0672 13.2138 873 101.625 1366.5 509.198
876 0 68.0543 13.0337 887 103.177 1365.86 509.942
877 0 70.079 12.9996 911 103.336 1366.11 509.391
878 0 73.0745 13.5889 993 101.092 1366.78 507.306
879 0 76.0805 13.0257 991 102.006 1366.69 507.038
880 0 78.0688 14.1286 1103 99.602 1366.76 503.639
881 0 78.1164 13.5055 1055 100.656 1366.6 505.954
882 0 81.0698 13.8152 1120 99.8938 1366.9 504.979
883 0 84.0736 13.5596 1140 100.216 1366.75 503.415
884 0 86.0799 13.6734 1177 98.7018 1366.77 502.828
885 1 48.0633 11.9842 576 97.8785 1366.39 520.203
886 0 49.0373 12.0928 593 97.0877 1365.98 519.292
887 0 49.0456 12.3151 604 98.457 1365.87 517.637
888 0 52.04 12.9131 672 97.2574 1365.99 516.552
889 0 51.0296 13.0709 667 95.8591 1366.44 513.648
890 0 53.0321 12.8413 681 96.6241 1366.26 515.416
891 0 54.0459 13.0075 703 96.2432 1365.99 515.373
892 0 58.0273 13.6487 792 94.3939 1366.52 515.468
893 0 59.0625 13.8836 820 96.5098 1365.82 513.295
894 0 60.0281 13.8935 834 96.434 1365.15 511.802
895 0 62.0327 13.2672 823 97.5407 1365.63 510.555
896 0 62.0884 12.9493 804 97.8072 1365.87 508.313
897 0 64.0414 12.8511 823 96.3633 1366.73 506.008
898 0 66.0263 12.4496 822 97.9331 1366.14 504.967
899 0 69.0243 13.2707 916 97.7784 1366.04 505.179
900 0 72.0683 13.8202 996 96.0161 1366 504.445
901 0 72.0754 13.1529 948 100.256 1367.12 502.589
902 0 73.0632 12.7835 934 101.158 1367.51 500.574
903 0 76.0509 13.3858 1018 99.7082 1367.59 498.36
904 0 79.0429 13.6508 1079 97.8804 1367.53 496.373
905 0 81.0553 13.9411 1130 97.7991 1367.16 493.942
906 0 81.0517 13.2385 1073 100.914 1366.8 491.802
907 0 84.0759 13.5473 1139 100.499 1367.53 489.691
908 0 87.0483 13.5097 1176 100.88 1367.66 489.113
909 0 90.0394 13.1165 1181 102.787 1367.93 487.761
910 0 93.1256 13.4764 1255 102.704 1367.92 486.386
911 0 94.0472 13.4826 1268 103.76 1367.38 486.947
912 0 99.0676 13.9501 1382 104.728 1367.4 485.568
913 0 104.054 14.1657 1474 103.676 1367.08 485.076
914 0 108.202 13.1698 1425 105.566 1366.52 483.177
915 0 112.16 13.8553 1554 104.022 1366.95 482.456
916 1 60.0766 12.3675 743 101.061 1367.55 511.54
917 0 62.0622 12.5197 777 100.909 1367.01 510.265
918 0 64.0511 12.7086 814 101.133 1368.01 509.118
919 0 66.0348 12.448 822 100.959 1367.38 507.78
920 0 70.0455 13.0344 913 98.1457 1367.23 506.976
921 0 71.1529 12.705 904 99.4934 1366.13 507.512
922 0 73.0338 12.2957 898 100.305 1365.7 505.618
923 0 77.061 13.2103 1018 98.8517 1366.75 504.273
924 0 78.079 12.9996 1015 100.321 1366.14 502.928
925 0 82.0693 13.1352 1078 98.6438 1366.03 502.34
926 0 87.116 13.1664 1147 97.2424 1366.32 502.069
927 0 88.0369 12.9264 1138 98.9965 1366.09 501.075
928 1 49.0503 11.9265 585 93.0256 1366.74 522.485
929 0 48.0211 11.3492 545 96.4917 1366.13 522.382
930 0 51.0299 12.7572 651 91.1521 1364.93 521.704
931 0 51.0299 12.3653 631 94.7211 1364.48 520.092
932 0 54.0912 12.7932 692 100.802 1365.2 519.616
933 0 56.0682 13.4301 753 97.498 1365.56 520.128
934 0 57.0328 13.2555 756 98.9868 1365.53 519.712
935 0 58.0184 12.9959 754 99.8714 1365.85 518.934
936 0 61.0449 13.2362 808 98.823 1366.01 516.595
937 0 61.0048 12.8678 785 101.437 1366.1 515.98
938 0 64.0266 13.0102 833 101.066 1365.98 514.538
939 0 65.0171 13.1965 858 101.768 1365.13 515.065
940 0 67.0279 13.6809 917 100.025 1364.95 514.025
941 0 69.0554 13.5688 937 100.447 1364.86 513.418
942 0 72.0508 13.8652 999 99.6466 1365.07 512.933
943 0 73.0223 13.489 985 99.9756 1365.38 511.927
944 0 75.0646 14.1744 1064 98.3393 1365.33 511.735
945 0 79.0261 14.1219 1116 97.6649 1365.51 510.811
946 0 79.0474 14.0802 1113 98.5598 1365.25 509.083
947 0 82.0397 13.7616 1129 98.5943 1365.16 505.557
948 0 85.0594 13.9549 1187 97.3041 1364.97 506.274
949 0 85.0524 13.7445 1169 99.0436 1364.3 504.348
950 0 87.0662 13.8515 1206 97.5298 1365.04 503.688
951 0 91.1034 14.6208 1332 103.325 1364.57 503.405
952 0 93.0536 14.0349 1306 105.698 1365.83 502.056
953 0 96.0682 14.6667 1409 103.111 1365.45 501.198
954 0 99.0838 13.6753 1355 105.769 1366.23 498.643
955 1 53.0173 11.9584 634 97.5142 1366.04 521.08
956 0 57.0494 12.2701 700 97.1071 1365.63 518.976
957 0 58.0222 13.3053 772 100.236 1366.23 518.163
958 0 58.0279 12.7697 741 94.0445 1366.46 517.876
959 0 61.0244 12.6507 772 93.0078 1366.37 517.233
960 0 63.0404 12.7696 805 93.2311 1365.24 515.67
961 0 65.0511 12.5286 815 95.4209 1366.27 514.807
962 0 64.0525 12.6771 812 160.735 1368.27 514.812
963 0 72.0558 14.239 1026 96.5526 1366.24 510.74
964 0 72.0637 13.9876 1008 94.3651 1365.84 510.799
965 0 74.0855 13.4709 998 96.6273 1366.37 509.405
966 0 74.0855 13.5384 1003 166.57 1366.36 509.398
967 0 78.0761 13.8839 1084 97.7232 1366.6 507.061
968 0 81.1216 13.4366 1090 99.2248 1365.7 505.637
969 0 83.1097 13.6085 1131 98.3581 1365.58 502.393
970 0 86.1708 14.0651 1212 98.5767 1365.67 500.494
971 0 89.134 13.519 1205 99.5444 1365.91 500.066
972 1 47.071 11.9182 561 95.6417 1365.72 520.834
973 0 49.0873 12.1416 596 92.3473 1365.72 519.572
974 0 49.1124 12.8481 631 90.8542 1366.11 519.407
975 0 50.0915 12.7567 639 97.5571 1366.47 518.93
976 0 54.1277 13.7083 742 95.4164 1366.7 517.516
977 0 53.061 12.2312 649 89.1926 1366.86 520.077
978 0 55.0626 12.6946 699 89.133 1366.13 518.827
979 0 57.0849 12.35 705 98.939 1367.24 518.787
980 0 58.1096 12.3215 716 101.133 1367.49 518.422
981 0 62.1232 12.942 804 99.6878 1367.6 516.802
982 0 63.064 11.972 755 93.7974 1366.8 515.407
983 0 66.1091 12.7668 844 93.7559 1367.07 514.998
984 0 65.0537 13.0508 849 95.9494 1366.64 514.734
985 0 67.1011 12.8612 863 98.9849 1366.93 511.88
986 0 68.1018 13.1861 898 100.698 1366.98 510.571
987 0 72.178 13.4529 971 100.895 1366.34 509.521
988 0 74.1001 13.5492 1004 101.826 1366.05 508.189
989 0 77.1358 13.7679 1062 101.146 1366.32 506.929
990 0 79.1006 13.4512 1064 102.834 1366.93 504.921
991 0 82.1237 14.2833 1173 100.967 1366.31 502.466
992 0 84.1292 14.2162 1196 102.079 1365.79 502.283
993 0 86.084 14.4975 1248 101.577 1367.09 501.718
994 0 89.1139 14.027 1250 104.227 1367.09 498.987
995 0 90.108 13.8057 1244 106.03 1367.06 499.236
996 0 92.1065 14.2118 1309 105.323 1366.98 498.476
997 0 94.054 13.7155 1290 107.963 1366.15 496.83
998 0 97.0514 13.7762 1337 108.492 1366.45 496.494
999 0 98.1417 13.5009 1325 110.565 1366.4 494.715
1000 0 101.032 13.8371 1398 109.55 1366.84 493.406
1001 0 106.063 13.8031 1464 108.869 1366.65 490.772
1002 0 107.108 14.0045 1500 109.313 1367.26 490.111
1003 0 112.064 13.2781 1488 108.888 1367.46 487.425
1004 0 116.134 13.2261 1536 108.072 1367.91 485.453
1005 0 120.051 13.7358 1649 107.139 1368.28 483.276
1006 0 126.142 14.222 1794 105.278 1368.29 482.649
1007 0 130.144 13.7771 1793 107.578 1368.03 479.573
1008 0 135.212 14.089 1905 107.213 1368.28 474.75
1009 0 140.122 14.0307 1966 107.217 1367.34 472.254
1010 1 72.096 10.9437 789 104.336 1367.72 507.534
1011 0 76.1166 11.9028 906 104.172 1367.8 505.588
1012 0 78.1035 12.317 962 111.538 1368.42 503.941
1013 0 81.0786 13.6288 1105 108.271 1367.91 503.795
1014 0 84.2122 13.5491 1141 109.32 1367.52 502.878
1015 0 87.1809 13.9939 1220 107.563 1368.01 501.68
1016 0 89.1343 13.9004 1239 108.957 1368.46 500.861
1017 0 90.0771 13.2997 1198 110.41 1368.69 499.388
1018 0 93.1031 12.7278 1185 112.233 1369.01 499.451
1019 0 97.0862 12.9988 1262 105.442 1368.78 495.315
1020 0 100.136 13.222 1324 104.004 1367.82 493.642
1021 0 101.143 12.8234 1297 104.909 1368.15 492.685
1022 0 105.195 13.0805 1376 102.788 1368.24 492.11
1023 0 109.131 12.8103 1398 104.276 1369.05 490.045
1024 0 112.229 13.4012 1504 103.37 1368.73 486.791
1025 0 118.164 12.9227 1527 102.676 1368.52 485.437
1026 0 121.133 12.8784 1560 101.182 1368.09 483.775
1027 0 124.134 13.3968 1663 102.357 1368.37 481.479
1028 0 128.107 13.3951 1716 102.44 1368.19 482.6
1029 0 132.243 13.2559 1753 103.131 1368.37 479.18
1030 0 137.142 13.1397 1802 103.976 1368.35 476.212
1031 0 141.246 12.1278 1713 107.929 1368.85 476.43
1032 0 146.231 13.0137 1903 108.228 1368.57 473.705
1033 0 152.273 14.3229 2181 106.232 1368.21 470.012
1034 0 156.231 12.9551 2024 110.5 1367.85 468.454
1035 0 158.181 13.611 2153 102.553 1367.8 464.184
1036 0 164.34 13.4234 2206 98.9044 1367.94 463.337
1037 0 168.199 13.3413 2244 98.9229 1367.34 458.719
1038 0 173.311 13.219 2291 99.1977 1368.23 456.618
1039 0 179.222 13.6981 2455 97.8411 1367.78 454.069
1040 0 185.313 13.3558 2475 98.4473 1367.81 450.892
1041 1 86.2536 11.0836 956 92.4425 1368.55 502.517
1042 0 89.1082 12.0415 1073 89.1845 1368.31 501.289
1043 0 92.3402 11.6309 1074 94.0261 1368.03 498.041
1044 0 94.3172 12.0021 1132 94.7942 1367.61 497.236
1045 0 99.2464 11.8292 1174 93.5971 1367.07 495.014
1046 0 102.228 12.0906 1236 92.7233 1367.06 493.248
1047 0 104.269 11.3744 1186 95.4351 1367.76 491.142
1048 0 108.38 11.7273 1271 93.8529 1368.19 489.352
1049 0 113.308 12.338 1398 92.2146 1367.86 485.713
1050 0 115.451 12.1177 1399 93.6719 1367.69 485.227
1051 0 119.4 13.1742 1573 91.7444 1368.17 483.65
1052 0 123.258 12.4942 1540 93.0344 1368.55 482.052
1053 0 128.394 12.9055 1657 92.3199 1368.15 478.601
1054 0 132.3 13.0914 1732 96.1565 1368.25 479.917
1055 0 136.368 13.6542 1862 97.1117 1367.86 476.694
1056 0 141.325 12.7578 1803 99.3405 1368.18 476.394
1057 0 144.242 13.2971 1918 98.0777 1368.58 474.726
1058 0 148.293 13.6284 2021 98.6477 1368.79 471.367
1059 0 153.31 13.2999 2039 100.679 1368.28 471.329
1060 0 159.275 13.687 2180 99.4982 1367.96 467.275
1061 0 161.208 14.3417 2312 98.7141 1367.69 464.133
1062 0 165.464 13.7069 2268 101.73 1367.69 463.795
1063 0 168.275 13.781 2319 103.527 1367.46 460.067
1064 0 176.256 13.9457 2458 102.751 1367.1 458.216
1065 0 180.454 13.6268 2459 103.78 1366.78 456.468
1066 0 183.367 13.7266 2517 103.78 1367.02 455.009
1067 0 190.309 14.2137 2705 102.684 1367.26 452.02
1068 0 194.312 13.9261 2706 104.695 1367.03 448.022
1069 0 200.37 14.1289 2831 103.771 1367.3 449.731
1070 0 207.51 14.2788 2963 103.413 1367.67 443.924
1071 0 212.356 14.471 3073 103.633 1367.54 439.612
1072 0 219.28 14.2831 3132 104.321 1367.49 437.488
1073 0 228.422 14.622 3340 102.362 1366.75 434.253
1074 0 235.29 14.412 3391 102.417 1367.41 428.238
1075 0 241.365 14.099 3403 103.473 1366.57 425.581
1076 0 251.318 14.7701 3712 101.431 1367.33 423.982
1077 1 289.369 14.5109 4199 97.2889 1366.02 414.679
1078 0 289.239 14.3446 4149 98.4546 1366.37 410.288
1079 0 290.37 23.1945 6735 77.82 1366.45 385.23
1080 0 293.419 19.3103 5666 87.6783 1366.87 385.462
1081 0 297.435 16.101 4789 97.5427 1367.11 393.562
1082 0 302.43 16.6121 5024 96.9106 1367.17 388.587
1083 0 310.394 16.4952 5120 97.8445 1367.09 381.488
1084 0 320.498 16.6834 5347 96.8964 1367.24 381.477
1085 0 329.372 16.8988 5566 96.6524 1366.81 375.271
1086 0 337.365 16.4629 5554 98.051 1366.83 369.609
1087 0 347.447 16.1636 5616 97.9662 1367.01 365.681
1088 0 359.434 16.3591 5880 94.5281 1367.45 363.996
1089 0 371.41 16.4023 6092 106.363 1367.07 353.87
1090 0 383.428 16.5716 6354 105.577 1367.32 347.324
1091 0 383.485 13.2704 5089 115.135 1367.4 360.141
1092 0 383.449 10.9715 4207 118.461 1367.44 376.989
1093 0 383.516 10.6853 4098 118.745 1366.09 383.189
1094 0 383.668 11.0825 4252 116.675 1366.31 385.774
1095 0 387.966 12.9831 5037 116.863 1366.29 357.918
1096 0 394.758 16.7495 6612 105.456 1367.08 339.782
1097 0 392.51 16.155 6341 103.718 1366.61 342.818
1098 0 403.445 16.2426 6553 102.394 1367 339.45
1099 0 419.415 17.3647 7283 96.8271 1368.54 332.239
1100 0 426.787 17.9692 7669 95.866 1368.29 323.27
