time division length width area intensity CMx CMy
0 0 71.0918 12.4065 882 83.1655 623.339 506.232
1 0 73.0608 12.2227 893 83.5521 622.848 505.019
2 0 73.0899 12.3547 903 84.9014 622.033 504.808
3 0 76.058 12.4116 944 84.7182 622.227 504.1
4 0 77.072 12.6246 973 84.5591 622.259 503.028
5 0 80.068 13.1014 1049 83.2154 622.326 502.608
6 0 82.2118 13.4166 1103 87.883 622.552 501.557
7 0 84.093 12.8667 1082 89.5277 622.187 500.911
8 0 87.135 13.2782 1157 87.4296 622.655 500.551
9 0 89.1259 13.3968 1194 86.6248 622.322 499.353
10 0 90.1876 12.7512 1150 88.8609 622.377 499.147
11 0 91.1663 12.373 1128 89.2872 621.461 497.649
12 0 91.1647 12.9107 1177 141.346 620.492 496.696
13 0 97.1124 13.16 1278 86.3028 621.96 495.645
14 0 98.0976 12.6812 1244 86.4293 622.11 493.968
15 1 49.0513 11.0089 540 88.7852 620.954 519.415
16 0 53.0321 10.9368 580 87.9138 620.948 518.498
17 0 55.0641 11.5683 637 87.1868 620.887 517.022
18 0 55.0737 11.1487 614 89.1987 620.767 517.142
19 0 57.0423 11.7457 670 90.7567 621.351 515.069
20 0 58.087 11.7066 680 91.1338 621.287 515.465
21 0 62.0657 12.3418 766 91.9661 620.971 513.858
22 0 64.071 12.892 826 93.6005 620.88 512.473
23 0 66.0767 12.9244 854 97.4169 621.205 510.785
24 0 67.0368 13.0078 872 93.547 620.921 511.201
25 0 68.0294 12.9503 881 92.7934 621.65 510.193
26 0 72.016 13.1915 950 91.6684 620.433 511.007
27 0 72.0729 12.8759 928 93.3578 620.578 509.589
28 0 74.044 13.4785 998 92.1994 620.324 508.585
29 0 78.0499 13.1711 1028 94.6206 621.014 506.432
30 0 78.0367 13.2374 1033 99.4017 620.853 505.254
31 0 80.0276 13.5078 1081 99.1841 620.901 504.006
32 0 84.0349 13.4349 1129 98.7927 621.121 502.797
33 0 85.1073 12.9719 1104 100.216 620.591 500.767
34 0 88.0606 13.2522 1167 99.8817 620.388 500.986
35 0 91.0533 12.8935 1174 100.956 620.233 498.652
36 0 93.1208 13.8422 1289 99.1552 620.185 498.395
37 0 98.0593 14.5014 1422 96.7623 620.025 497.546
38 0 100.129 15.0805 1510 96.2828 619.823 494.862
39 0 103.106 14.4705 1492 98.9658 620.595 493.595
40 0 104.076 14.1243 1470 100.467 620.182 492.215
41 0 108.073 14.4624 1563 98.7991 620.34 491.861
42 0 111.063 14.3342 1592 98.9353 619.982 490.281
43 0 112.114 14.2801 1601 99.2655 620.094 488.889
44 0 119.137 14.5043 1728 96.8119 619.951 486.446
45 0 119.041 14.2807 1700 98.5312 619.438 484.606
46 0 125.101 14.6362 1831 97.5505 619.791 483.22
47 0 130.123 14.6784 1910 96.9461 619.357 480.982
48 0 133.106 14.2894 1902 96.8801 619.15 478.176
49 0 138.097 13.8453 1912 97.4315 619.152 477.151
50 0 141.079 14.1836 2001 96.7461 619.392 473.962
51 0 144.11 13.7811 1986 97.571 620.001 471.202
52 0 148.145 14.0808 2086 96.5594 619.905 469.592
53 0 155.154 13.7734 2137 97.2808 620.451 465.917
54 0 159.121 14.1528 2252 96.3806 620.195 464.11
55 0 165.178 14.3724 2374 95.8176 620.591 459.859
56 0 170.117 15.0896 2567 93.626 620.818 459.734
57 0 176.089 15.1458 2667 93.1327 620.065 456.857
58 0 182.146 15.1033 2751 93.6401 620.75 453.246
59 0 187.062 14.9683 2800 94.3689 620.167 450.317
60 0 193.185 15.3428 2964 93.6434 619.936 448.359
61 0 199.22 14.9884 2986 95.8898 620.069 442.21
62 0 207.137 14.2611 2954 97.6578 619.675 440.068
63 0 213.192 14.4236 3075 98.039 620.626 435.625
64 1 54.0798 11.52 623 89.3274 620.404 513.352
65 0 56.0465 11.4012 639 89.0266 620.757 512.75
66 0 56.0877 11.4642 643 90.6034 620.633 512.062
67 0 59.0519 12.1419 717 89.4184 620.165 511.805
68 0 62.06 12.2784 762 91.227 621.052 512.911
69 0 63.0248 12.3285 777 87.87 620.082 514.528
70 0 66.0275 12.616 833 87.4814 619.528 513.45
71 0 67.061 12.3022 825 88.983 619.893 512.027
72 0 68.0662 11.9002 810 90.3901 620.214 509.841
73 0 73.0591 12.6884 927 87.6483 620.192 508.794
74 0 75.0541 12.6042 946 88.6892 620.716 508.093
75 0 77.0346 12.6307 973 90.1028 620.51 506.905
76 0 79.0437 12.8916 1019 90.0265 620.895 506.416
77 0 82.0286 13.1783 1081 90.1258 620.712 503.901
78 0 85.1038 13.1956 1123 90.4648 620.524 501.691
79 0 88.0757 13.2954 1171 90.8685 621.085 501.383
80 0 88.0348 12.6654 1115 93.7274 620.733 500.353
81 0 92.0685 13.251 1220 93.0443 620.649 498.542
82 0 95.0618 12.9179 1228 93.9251 621.721 496.453
83 0 99.0466 13.3876 1326 92.8967 621.406 494.532
84 0 101.084 13.009 1315 94.8251 621.436 492.693
85 0 104.028 13.256 1379 95.1682 621.063 490.558
86 0 107.082 13.1675 1410 94.8823 621.937 490.784
87 0 110.104 12.5881 1386 97.2511 621.364 485.263
88 0 114.064 13.3259 1520 95.3724 621.823 483.355
89 0 118.099 13.1415 1552 96.0696 621.468 482.197
90 0 121.08 12.8179 1552 97.9008 621.452 480.171
91 0 126.057 13.4066 1690 98.0751 621.709 476.743
92 0 132.113 13.708 1811 96.4633 620.994 476.942
93 0 136.118 13.3634 1819 98.9098 621.075 474.863
94 0 142.13 14.4023 2047 96.0689 620.839 474.178
95 1 79.1524 12.0274 952 100.228 620.376 504.293
96 0 81.1344 11.8199 959 97.4317 620.883 496.605
97 0 79.0517 11.1446 881 94.2202 621.126 494.203
98 0 84.027 12.5912 1058 96.5832 620.388 501.966
99 0 87.1163 12.5464 1093 95.8079 619.752 499.782
100 0 90.0315 12.1735 1096 96.2974 619.641 498.217
101 0 92.0586 12.1988 1123 96.8931 619.576 497.396
102 0 97.0478 12.6536 1228 92.6425 620.414 495.286
103 0 100.099 12.9272 1294 90.6669 620.258 493.34
104 0 105.163 12.7326 1339 90.2681 619.803 492.996
105 0 109.088 12.7695 1393 92.3187 620.156 489.216
106 0 113.141 12.2237 1383 91.2697 620.539 488.352
107 0 115.164 12.6602 1458 90.2455 620.232 485.193
108 1 61.1992 10.4413 639 79.4883 620.552 509.282
109 0 66.0823 12.1969 806 85.3226 620.068 510.921
110 0 66.166 11.5467 764 79.8547 620.863 511.505
111 0 69.0683 11.0905 766 80.4843 620.945 508.961
112 0 73.1452 12.2633 897 76.8149 620.867 507.599
113 0 74.2107 11.5347 856 78.2161 620.461 506.41
114 0 76.1716 11.1984 853 79.8019 619.967 504.632
115 0 79.0901 11.4174 903 78.7907 619.411 504.29
116 0 84.0676 12.1212 1019 77.9274 619.745 502.985
117 0 87.1118 12.3175 1073 81.52 620.023 500.255
118 0 91.192 12.4463 1135 80.3057 620.354 499.164
119 0 93.1376 11.5098 1072 81.2267 619.895 496.711
120 1 49.0765 10.6568 523 73.7055 619.706 520.054
121 0 50.1065 10.7371 538 80.2361 621.217 516.905
122 0 53.161 11.8696 631 77.7195 620.385 515.477
123 0 53.1481 12.023 639 77.892 619.836 516.521
124 0 55.1522 11.4229 630 79.0968 620.071 515.781
125 0 56.1924 11.5496 649 78.9122 619.633 514.014
126 0 59.1123 11.5712 684 78.2398 620.351 514.216
127 0 60.1397 11.1574 671 77.8718 619.94 513.574
128 0 60.0597 12.0713 725 76.4207 619.763 511.91
129 0 64.0857 12.218 783 74.6296 620.04 512.467
130 0 64.05 12.2248 783 75.1596 620.424 511.736
131 0 67.1408 12.5855 845 74.0533 620.511 509.773
132 0 69.1305 12.8163 886 73.9831 620.376 509.03
133 0 71.0972 11.7867 838 76.2554 620.482 507.712
134 0 74.0287 12.8329 950 73.1337 620.253 507.329
135 0 77.0582 12.3413 951 73.6856 620.615 506.376
136 0 79.0676 12.7739 1010 73.5139 621.282 505.187
137 0 80.0761 12.6754 1015 74.4493 621.082 503.951
138 0 83.0482 12.7516 1059 74.2389 621.521 502.505
139 0 86.0548 13.0033 1119 73.7614 621.055 501.177
140 0 89.1295 12.4874 1113 74.8158 621.163 501.004
141 0 90.0851 12.9655 1168 75.0248 621.505 498.203
142 0 95.0992 13.1442 1250 74.176 619.803 498.68
143 0 97.1352 12.7554 1239 75.619 620.446 496.882
144 0 100.09 12.9783 1299 75.0293 620.332 495.875
145 0 102.114 12.8093 1308 77.4817 620.901 493.767
146 0 106.089 12.5461 1331 78.9121 620.557 491.514
147 1 56.0518 11.2396 630 77.2635 620.517 518.578
148 0 57.0745 11.2309 641 72.7051 621.148 514.722
149 0 61.1267 12.9403 791 75.0695 619.898 516.762
150 0 57.0311 10.9589 625 71.8112 619.573 517.806
151 0 60.062 11.1385 669 72.3871 619.318 517.368
152 0 61.0747 11.3304 692 72.4451 619.727 516.592
153 0 64.0875 11.7808 755 71.9232 619.62 515.195
154 0 65.0509 11.5141 749 72.6849 620.187 516.037
155 0 68.0939 12.3653 842 71.6591 619.791 513.79
156 0 70.0941 11.8555 831 72.9795 619.659 514.193
157 0 72.0878 12.0825 871 73.9862 620.038 512.065
158 0 75.051 12.4049 931 73.4973 620.35 512.194
159 0 77.0706 12.4042 956 74.91 620.229 509.086
160 0 80.0982 11.9728 959 75.3775 619.309 508.389
161 0 82.018 12.1315 995 74.8724 618.968 505.577
162 0 85.0648 12.3553 1051 74.55 619.073 505.343
163 0 88.0506 11.5615 1018 75.3674 619.171 504.742
164 0 91.0487 12.2352 1114 73.8043 619.555 503.363
165 0 93.0901 11.7843 1097 76.6828 619.521 499.887
166 0 96.0956 11.6967 1124 78.2936 619.564 498.619
167 0 99.0423 11.3891 1128 77.8493 620.512 496.534
168 1 51.0914 10.2561 524 76.6126 620.576 520.67
169 0 52.0193 11.5534 601 75.3311 620.161 518.333
170 0 55.0999 11.5245 635 75.5606 619.994 517.825
171 0 58.0298 12.528 727 75.2572 619.521 515.737
172 0 58.0594 11.5399 670 73.1 620.333 516.527
173 0 59.0358 11.078 654 71.4404 620.619 515.789
174 0 63.0358 11.9139 751 65.4208 620.314 513.751
175 0 64.0335 11.9313 764 72.1492 620.268 512.928
176 0 66.0382 11.6145 767 73.1982 619.562 511.36
177 0 69.0761 11.2629 778 73.5373 618.852 511.048
178 0 71.0647 11.6091 825 72.6679 619.438 509.187
179 0 73.0861 11.247 822 73.455 619.957 507.257
180 0 75.0741 11.6285 873 73.7984 620.036 505.911
181 0 77.1164 11.0612 853 75.8066 620.144 504.843
182 0 79.0383 11.3236 895 76.6291 620.259 503.247
183 0 83.0545 12.0523 1001 75.977 620.247 503.168
184 0 86.1364 12.3177 1061 75.4015 620.422 500.857
185 0 88.0538 11.845 1043 76.5523 620.301 499.789
186 0 90.1117 11.6744 1052 78.3546 620.155 497.572
187 1 46.0148 9.51868 438 76.226 619.363 521.169
188 0 46.0309 9.6457 444 73.9617 618.797 521.811
189 0 46.0398 10.5344 485 74.1464 619.012 519.874
190 0 51.0341 11.071 565 71.9487 619.053 518.097
191 0 49.0107 9.79379 480 76.1188 619.879 517.708
192 0 50.0335 9.81343 491 76.3503 619.851 517.128
193 0 52.0209 10.342 538 75.3494 619.651 518.072
194 0 53.051 10.8009 573 75.733 620.274 515.52
195 0 55.0383 10.52 579 76.8152 619.484 515.005
196 0 58.032 10.701 621 77.4155 618.915 513.605
197 0 57.0306 10.1524 579 79.4629 618.822 513.238
198 0 61.0449 11.5816 707 77.9731 619.126 513.393
199 0 63.0373 11.1204 701 79.1155 618.746 510.195
200 0 66.0287 11.7373 775 79.5226 619.254 511.003
201 0 69.072 12.4218 858 78.7343 619.331 508.481
202 0 70.0516 11.8056 827 103.784 618.981 507.389
203 0 73.0503 12.6762 926 106.712 618.704 505.843
204 0 76.03 12.7055 966 105.736 618.328 505.212
205 0 79.0292 13.2356 1046 103.225 617.901 504.817
206 0 82.0692 13.5008 1108 102.363 617.677 504.247
207 0 84.0684 12.9656 1090 105.069 617.716 503.12
208 0 87.0846 12.9414 1127 102.559 618.527 501.343
209 0 89.0581 13.2722 1182 102.299 618.788 498.507
210 0 90.0982 13.1967 1189 102.149 618.968 497.873
211 0 94.0469 13.1318 1235 101.794 619.123 496.755
212 1 48.1193 11.4091 549 99.5938 618.517 519.816
213 0 48.114 11.8884 572 100.278 618.698 517.965
214 0 50.0553 11.5273 577 95.0017 617.731 517.033
215 0 51.0443 11.8329 604 96.207 618.386 519.472
216 0 51.0165 11.2121 572 88.514 617.972 520.878
217 0 52.052 11.4117 594 88.17 618.439 519.623
218 0 53.0531 10.7817 572 89.1049 618.073 518.14
219 0 55.0462 10.8818 599 88.8598 618.367 517.421
220 0 57.0642 11.3381 647 88.5131 618.564 516.244
221 0 60.0817 11.7174 704 88.9418 617.705 513.183
222 0 61.0305 11.9612 730 89.0068 618.911 514.836
223 0 64.0143 11.3725 728 90.5234 618.261 514.036
224 0 65.0194 11.212 729 91.7695 617.838 512.68
225 0 67.0808 11.5383 774 91.7248 618.071 511.376
226 0 71.1807 12.8265 913 89.4118 618.399 509.602
227 0 71.0388 11.909 846 92.6383 618.475 509.233
228 0 74.0274 12.5494 929 92.8461 618.653 507.253
229 0 76.0386 12.0597 917 95.2585 618.895 506.279
230 0 82.0759 13.3413 1095 90.9324 619.381 506.373
231 0 84.0876 12.3562 1039 94.5544 618.558 504.893
232 0 86.1204 13.3418 1149 94.3151 618.075 502.548
233 0 89.0341 13.478 1200 95.5942 618.012 501.904
234 0 92.084 13.2596 1221 95.6953 617.327 500.158
235 0 93.0355 12.6833 1180 99.4466 617.241 498.776
236 1 49.0309 11.5641 567 98.6931 617.236 521.471
237 0 52.0454 12.2777 639 100.958 618.876 519.795
238 0 52.0622 11.9857 624 91.7276 619.109 519.845
239 0 53.0352 11.9543 634 91.5268 618.615 520.929
240 0 55.0211 11.6501 641 93.0281 618.52 520.676
241 0 56.0372 11.6708 654 94.6177 618.869 519.474
242 0 57.0291 12.4322 709 92.9408 618.973 518.822
243 0 59.0446 11.6861 690 94.6768 618.328 518.08
244 0 60.0188 11.9463 717 95.7308 618.364 515.993
245 0 64.028 11.9635 766 97.1762 618.509 514.441
246 0 66.0447 12.431 821 96.5688 618.111 513.184
247 0 68.0455 12.4476 847 97.5136 617.63 513.687
248 0 69.0524 12.0343 831 99.787 618.55 512.946
249 0 73.0309 12.7069 928 99.1972 618.129 510.838
250 0 74.048 12.843 951 100.156 618.72 509.769
251 0 77.0421 12.6035 971 100.574 618.364 509.111
252 0 80.0178 12.7597 1021 101.372 619.607 507.602
253 0 79.0746 12.7348 1007 104.822 619.275 505.642
254 0 83.0741 12.856 1068 104.798 619.168 504.204
255 0 87.0766 12.6211 1099 106.682 619.712 502.529
256 0 87.0563 12.4977 1088 108.87 618.918 501.454
257 1 47.0089 11.2319 528 106.922 618.142 523.794
258 0 47.0291 10.7806 507 111.477 617.627 522.274
259 0 49.0268 11.6875 573 106.663 617.951 521.237
260 0 51.02 11.5053 587 111.218 617.84 520.106
261 0 53.0122 12.2236 648 119.077 617.412 519.017
262 0 50.01 11.4977 575 108.703 618.802 520.341
263 0 54.0148 11.9967 648 106.525 618.449 519.261
264 0 54.031 11.3824 615 107.782 618.618 518.741
265 0 57.0144 11.576 660 107.121 618.83 516.811
266 0 57.0105 11.7522 670 107.69 619.019 516.055
267 0 61.0139 11.8825 725 106.186 618.652 515.109
268 0 62.0239 12.1727 755 107.274 618.072 513.241
269 0 65.0214 12.7497 829 105.097 618.051 513.908
270 0 66.0572 12.1864 805 107.327 617.217 512.574
271 0 68.0315 13.1557 895 104.686 617.178 511.307
272 0 72.0407 12.3541 890 106.692 617.444 510.765
273 0 73.062 12.5373 916 107.159 618.004 508.983
274 0 74.0297 13.0083 963 106.452 617.6 508.212
275 0 76.0254 12.2196 929 109.893 618.187 507.251
276 0 79.0556 13.0162 1029 108.485 618.54 506.324
277 0 82.0697 13.0499 1071 107.681 618.173 505.36
278 0 82.0365 12.7626 1047 110.159 617.607 502.735
279 0 85.0488 12.7809 1087 110.017 617.671 502.219
280 0 89.0596 13.1373 1170 108.798 617.833 501.516
281 0 90.0416 12.9051 1162 110.404 617.265 498.614
282 0 93.0456 12.9184 1202 108.177 617.998 498.631
283 0 97.0403 12.9534 1257 107.286 618.541 497.6
284 0 99.0865 12.6152 1250 106.368 618.219 495.526
285 0 102.093 12.2045 1246 107.025 618.094 491.169
286 1 53.1595 11.4185 607 98.9555 618.847 516.588
287 0 56.1428 10.7939 606 101.347 618.969 515.018
288 0 57.047 11.324 646 105.52 618.565 514.678
289 0 59.0368 11.4166 674 98.1202 618.295 513.57
290 0 60.0285 12.1276 728 92.6511 617.499 512.713
291 0 60.0374 11.5928 696 94.8477 618.356 511.833
292 0 63.0161 11.7906 743 94.7577 617.213 511.47
293 0 66.0284 11.389 752 94.0824 617.508 511.203
294 0 67.0465 11.2608 755 96.657 617.694 508.421
295 0 69.0918 11.0143 761 97.7661 617.598 507.61
296 0 71.0582 11.1036 789 98.2497 617.564 506.866
297 0 75.032 11.4484 859 97.156 617.821 505.52
298 0 76.0912 11.2497 856 98.7593 617.974 504.652
299 0 79.0535 11.4606 906 99.4316 617.918 504.657
300 1 44.0165 10.0417 442 97.0837 617.821 523.389
301 0 44.0885 10.0026 441 98.7937 615.551 522.717
302 0 45.0605 10.8743 490 95.9 616.661 521.739
303 0 43.0522 10.0576 433 93.933 616.954 521.506
304 0 46.0219 10.734 494 90.0911 617.399 520.676
305 0 50.0508 11.4284 572 98.6661 617.061 521.231
306 0 49.0605 11.6795 573 97.4555 617.621 520.967
307 0 49.1024 10.5901 520 100.54 617.779 522.625
308 0 48.0675 11.047 531 101.454 618.373 520.687
309 0 52.075 11.0418 575 101.2 617.15 521.339
310 0 53.1109 11.2218 596 100.401 617.099 519.971
311 0 53.0451 11.0095 584 102.041 617.759 520.197
312 0 57.079 11.5104 657 98.8052 617.135 519.189
313 0 58.0975 10.6545 619 100.803 618.132 518.462
314 0 57.0807 10.6866 610 102.387 617.439 516.907
315 0 61.0938 11.0649 676 101.188 618.286 516.669
316 0 62.1329 11.073 688 102.323 617.919 514.805
317 0 63.1345 10.834 684 100.077 617.38 515.744
318 0 66.0826 11.0165 728 101.964 617.139 513.037
319 0 67.0701 10.9438 734 102.559 616.693 511.837
320 0 71.13 11.008 783 101.905 616.722 510.799
321 0 76.0975 12.2737 934 97.8051 616.666 509.116
322 0 78.0807 12.2822 959 96.6757 616.789 510.508
323 0 78.1697 11.7949 922 100.245 616.869 508.859
324 0 81.0732 11.4958 932 101.648 616.568 506.577
325 0 84.1674 11.9761 1008 99.6875 616.96 506.232
326 0 87.2229 12.084 1054 99.111 616.613 503.843
327 0 90.1706 11.9108 1074 99.8743 616.915 501.594
328 0 95.0328 11.8275 1124 102.307 615.94 501.146
329 1 47.0437 9.65061 454 97.8348 616.319 525.412
330 0 47.0269 10.6322 500 97.892 615.43 524.284
331 0 47.0315 10.6949 503 127.976 614.421 524.354
332 0 46.0132 9.64941 444 90.4797 615.617 524.342
333 0 49.0079 9.75354 478 88.1695 616.103 524.473
334 0 48.0169 9.87152 474 87.9641 615.901 523.916
335 0 51.0184 9.9376 507 87.0986 615.99 522.742
336 0 52.0161 9.95846 518 86.0521 615.288 521.1
337 0 53.029 10.0511 533 85.1857 615.477 520.799
338 0 54.0222 9.311 503 85.5686 614.833 518.316
339 0 56.0202 9.90715 555 84.3009 615.773 517.541
340 0 57.0498 9.78093 558 83.6165 615.353 517.855
341 0 61.0415 10.1079 617 81.175 615.883 516.794
342 0 62.0262 9.8668 612 81.6928 615.843 516.511
343 0 63.0165 10.0133 631 80.9097 615.796 515.815
344 0 65.032 10.2411 666 80.4249 615.901 515.833
345 0 67.0403 10.1581 681 81.0044 615.081 513.257
346 0 68.0462 10.0079 681 80.0852 613.924 510.527
347 0 72.0317 10.6064 764 80.0458 613.83 510.158
348 0 75.0471 10.5534 792 79.9293 614.617 507.556
349 0 76.0337 9.75883 742 81.6482 613.662 506.873
350 0 80.1431 9.74507 781 81.2407 614.536 507.557
351 0 82.0281 10.2648 842 80.9869 615.152 504.208
352 0 86.0546 9.71476 836 82.1782 614.833 502.098
353 0 89.0888 10.8768 969 80.8751 615.079 500.574
354 0 90.1941 9.91196 894 83.7181 614.421 498.994
355 1 47.033 9.18504 432 84.7616 613.954 521.91
356 0 48.061 9.92488 477 82.8553 614.103 520.669
357 0 51.0841 10.2184 522 80.1284 614.571 521.358
358 0 51.1182 10.4464 534 77.8071 614.564 519.68
359 0 54.0491 10.472 566 75.8816 613.928 520.823
360 0 55.045 11.0273 607 76.4959 615.855 519.87
361 0 51.0165 9.36952 478 81.341 615.586 522.345
362 0 55.029 10.9215 601 76.5324 615.88 520.002
363 0 56.0257 9.42425 528 79.7178 615.718 520.644
364 0 59.0835 10.3751 613 78.3409 615.817 517.7
365 0 60.0159 9.7974 588 78.7466 616.257 518.786
366 0 62.0499 10.3143 640 77.975 615.712 516.255
367 0 64.0702 10.3168 661 77.115 616.253 516.127
368 0 68.0311 10.4364 710 76.4225 616.5 512.951
369 0 71.0832 10.2415 728 75.967 615.493 513.389
370 0 74.1112 11.2534 834 74.3789 615.709 510.064
371 0 74.1217 10.901 808 76.4913 615.774 509.38
372 0 80.0682 10.4786 839 76.4708 615.758 508.843
373 0 81.1121 10.6766 866 76.8337 615.982 508.915
374 0 85.1448 11.8739 1011 74.7369 616.059 504.484
375 0 88.1129 11.4512 1009 76.4807 615.398 504.684
376 0 91.078 11.8031 1075 76.7674 615.561 503.212
377 1 47.0901 11.7647 554 77.6245 614.511 524.455
378 0 48.0383 11.3451 545 80.5376 615.635 523.015
379 0 52.1144 11.8969 620 77.3532 615.871 522.953
380 0 52.0897 11.2114 584 80.5582 615.685 522.473
381 0 51.0998 11.3895 582 81.7973 615.541 520.065
382 0 56.0621 11.5229 646 79.2136 615.844 521.028
383 0 57.0349 11.6946 667 80.7046 615.931 520.261
384 0 57.0734 12.0722 689 81.4688 615.255 517.753
385 0 60.0794 11.9675 719 80.8011 615.2 518.327
386 0 61.0429 11.9588 730 81.7795 615.277 515.849
387 0 64.0213 11.7461 752 82.9136 615.621 515.188
388 0 66.049 12.415 820 81.9195 615.926 513.772
389 0 67.0193 12.0711 809 84.157 615.921 511.522
390 0 71.0531 12.3288 876 82.3756 615.946 511.537
391 0 73.0734 12.549 917 81.7906 616.549 510.148
392 0 74.0408 12.6957 940 83.0245 616.679 508.981
393 0 78.0375 13.3141 1039 82.0462 616.042 508.7
394 0 80.0984 12.8592 1030 84.8932 616.076 506.384
395 0 82.07 12.4893 1025 86.879 616.468 505.331
396 0 84.0593 12.9314 1087 86.7093 616.694 504.142
397 0 88.0638 13.4107 1181 86.3133 616.34 503.528
398 0 90.039 13.1276 1182 88.6531 616.449 502.645
399 0 93.0414 13.1877 1227 89.9772 616.503 499.705
400 0 95.0762 13.3262 1267 90.6196 616.529 497.972
401 0 99.0887 13.3214 1320 91.0826 616.906 498.094
402 1 54.0316 10.7345 580 99.8172 617.241 519.152
403 0 56.0275 11.1552 625 105.024 615.974 517.51
404 0 59.0377 11.1285 657 105.697 615.545 516.075
405 0 59.1011 12.5717 743 105.061 616.699 516.864
406 0 63.0795 12.2702 774 107.654 615.968 514.95
407 0 64.0482 12.959 830 104.617 616.008 515.111
408 0 65.085 12.3992 807 107.592 615.752 513.301
409 0 67.0606 12.8988 865 106.622 615.793 512.275
410 0 68.0449 13.1825 897 105.577 616.618 512.264
411 0 72.0418 13.2978 958 102.642 616.592 511.388
412 0 72.1048 12.7731 921 106.82 616.44 508.996
413 0 75.0397 13.1797 989 104.535 615.976 507.385
414 0 76.0417 13.177 1002 105.105 615.978 508.237
415 0 77.0317 13.423 1034 106.262 615.583 506.755
416 0 81.0602 13.2864 1077 107.211 615.837 505.242
417 0 82.0506 13.3698 1097 107.227 616.46 504.057
418 0 84.0988 13.2582 1115 107.769 616.343 503.418
419 0 87.1251 13.4864 1175 107.885 617.014 501.002
420 0 89.0424 12.9826 1156 109.76 616.804 500.237
421 0 92.0747 13.8909 1279 108.335 616.199 499.64
422 0 96.0723 13.7709 1323 107.009 616.071 498.967
423 0 97.0591 13.7751 1337 107.767 616.079 495.404
424 0 100.089 13.7577 1377 107.893 616.595 496.458
425 0 103.119 13.4214 1384 109.017 615.84 493.798
426 0 105.144 13.7241 1443 108.129 616.818 492.65
427 0 108.09 13.3407 1442 108.799 616.574 490.516
428 0 110.108 13.3052 1465 109.097 617.238 489.406
429 0 114.098 13.5059 1541 107.41 616.916 488.308
430 0 118.073 13.6441 1611 106.99 616.901 486.601
431 0 122.135 13.9764 1707 106.612 617.032 482.19
432 0 123.115 13.4914 1661 109.098 616.181 480.984
433 0 127.151 13.5351 1721 106.54 615.979 479.205
434 0 129.215 12.6378 1633 108.036 615.541 474.132
435 0 132.086 12.0603 1593 106.53 615.477 471.488
436 0 138.121 12.7859 1766 104.843 616.272 469.024
437 0 141.187 12.1116 1710 106.495 617.019 468.165
438 1 78.0857 9.32308 728 99.978 617.288 499.044
439 0 82.0522 10.2374 840 98.6298 616.893 500.937
440 0 82.0658 10.3088 846 100.874 617.058 498.678
441 0 85.0727 10.5204 895 100.821 616.396 498.785
442 0 90.0639 11.1809 1007 101.749 616.349 497.784
443 0 93.1011 10.8592 1011 99.1602 615.827 496.899
444 0 97.1403 11.4885 1116 97.2841 615.581 494.351
445 0 100.168 11.4108 1143 97.3263 615.059 492.826
446 0 103.229 11.363 1173 97.9693 615.691 490.932
447 1 54.1148 9.57224 518 91.5753 615.836 516.39
448 0 56.0957 9.37682 526 92.2928 615.787 515.981
449 0 59.0314 10.3504 611 89.257 617.458 515.574
450 0 60.0363 10.0939 606 90.5627 616.218 515.054
451 0 61.031 10.8469 662 89.4562 615.544 514.382
452 0 61.028 9.83155 600 94.055 615.582 514.563
453 0 62.0433 10.0575 624 94.5994 616.287 513.325
454 0 65.031 10.2874 669 93.852 615.91 511.027
455 0 68.064 10.6811 727 93.0151 616.354 510.967
456 0 70.063 10.7189 751 93.8375 616.987 510.342
457 0 72.0877 10.6676 769 92.7945 616.923 508.397
458 0 73.0382 10.4329 762 93.6247 616.928 508.297
459 0 78.0806 10.7709 841 91.4566 616.3 507.869
460 0 80.0458 11.3935 912 89.8871 615.499 504.103
461 0 85.0568 11.5452 982 89.887 615.802 502.385
462 0 88.0458 11.1646 983 89.5626 616.882 501.952
463 0 91.0713 10.9914 1001 90.3846 616.277 500.499
464 1 45.0378 10.9241 492 89.6138 616.049 522.717
465 0 47.0253 10.3774 488 92.5451 616.295 521.395
466 0 49.0383 11.1749 548 90.6186 616.6 520.12
467 0 46.0435 10.4684 482 91.2988 616.158 522.268
468 0 48.0158 9.93422 477 93.7904 616.382 521.317
469 0 48.0248 10.2655 493 94.5213 615.686 520.6
470 0 49.0366 10.0333 492 95.9573 615.661 522.035
471 0 50.0175 10.2764 514 96.6809 616.198 520.689
472 0 53.036 10.8605 576 95.8142 616.26 518.672
473 0 54.0453 10.1766 550 98.4345 616.407 519.016
474 0 56.0171 10.9252 612 96.4967 616.765 517.94
475 0 57.069 11.0568 631 98.0475 616.948 516.209
476 0 57.0394 10.9223 623 97.9213 616.607 516.488
477 0 60.0992 10.8321 651 97.9923 616.352 515.793
478 0 60.0425 10.9089 655 99.0305 615.615 515.255
479 0 64.0769 11.2677 722 98.1274 615.753 513.338
480 0 68.0823 11.398 776 93.3454 615.263 510.43
481 0 68.0451 11.5659 787 98.5413 616.053 511.845
482 0 70.0872 12.299 862 98.6926 615.941 510.28
483 0 72.1056 12.1627 877 98.4185 615.403 509.514
484 0 73.0781 12.3977 906 98.9834 616.053 509.04
485 0 77.0428 11.9804 923 100.519 615.884 506.884
486 0 79.0777 12.1273 959 101.006 615.383 506.173
487 0 80.0589 11.9412 956 101.384 615.593 505.666
488 0 82.078 11.8546 973 102.635 614.252 502.688
489 0 86.0367 11.5648 995 104.09 614.643 502.77
490 0 87.0972 11.7455 1023 104.177 614.477 501.057
491 1 46.021 10.6908 492 104.258 614.25 521.866
492 0 44.071 10.1881 449 99.1648 614.532 517.528
493 0 46.0494 10.2499 472 96.5085 614.398 516.614
494 0 50.0128 11.717 586 104.423 615.28 519.8
495 0 51.0247 11.955 610 102.454 616.108 519.759
496 0 51.04 11.1873 571 94.8336 615.94 520.821
497 0 50.042 11.0907 555 95.3261 615.357 519.845
498 0 52.0871 11.6536 607 93.7776 615.56 519.094
499 0 55.0852 11.5457 636 92.6352 614.632 518.522
500 0 55.0635 11.514 634 92.7855 614.502 517.749
501 0 58.0467 11.5769 672 91.9315 615.045 517.496
502 0 59.0326 11.2988 667 91.5712 615.292 516.669
503 0 62.0228 11.4635 711 89.4824 615.236 515.27
504 0 62.0349 12.3963 769 88.2978 615.693 514.205
505 0 67.0272 11.7564 788 87.6548 616.154 512.52
506 0 69.0648 11.8584 819 87.3944 615.858 510.549
507 0 70.0491 11.7917 826 88.6271 615.998 509.593
508 0 74.0671 11.8676 879 88.4164 615.736 508.182
509 0 78.1034 11.664 911 98.8167 614.645 506.458
510 0 81.0582 11.905 965 99.5731 614.606 505.19
511 0 81.0421 11.9321 967 101.309 614.63 503.218
512 0 84.0656 11.5029 967 101.508 615.302 503.017
513 0 87.094 12.1019 1054 100.565 615.742 501.807
514 0 90.0866 11.4778 1034 100.751 615.42 500.994
515 0 94.0464 11.8771 1117 100.235 615.1 499.404
516 0 96.0382 11.4017 1095 100.752 614.978 497.459
517 0 100.08 11.1711 1118 98.4562 615.119 497.762
518 0 103.159 10.6438 1098 97.4463 615.013 496.529
519 1 54.0195 11.4959 621 89.9597 613.963 521.548
520 0 55.0195 12.0321 662 88.7477 613.508 520.634
521 0 57.0332 12.0281 686 88.6297 614.238 520.026
522 0 57.0298 11.643 664 89.2696 614.182 518.989
523 0 60.0311 12.1604 730 87.437 614.666 517.984
524 0 63.0372 12.0564 760 87.0263 615.07 515.949
525 0 63.0822 11.7149 739 87.6874 615.072 515.717
526 0 67.0483 12.1405 814 85.1929 614.792 513.645
527 0 70.0276 12.0381 843 85.1174 614.272 512.493
528 0 71.0588 11.8071 839 86.1549 613.938 512.216
529 0 74.0494 11.6139 860 95.8535 614.099 510.786
530 0 76.1468 11.8062 899 96.1724 614.295 509.265
531 0 80.0816 11.8879 952 92.188 614.297 510.62
532 0 82.1248 12.1157 995 91.6603 614.221 507.529
533 0 85.1128 11.8901 1012 91.4387 614.195 507.603
534 0 87.095 11.6425 1014 87.0957 615.085 507.335
535 0 89.0791 12.2924 1095 88.3352 614.613 504.47
536 0 92.1652 11.5011 1060 96.3755 614.506 503.262
537 0 96.0969 11.2907 1085 89.5567 614.182 502.056
538 0 97.2035 11.4502 1113 89.7197 614.697 501.552
539 1 52.1307 10.3394 539 87.9202 614.174 523.677
540 0 52.0904 11.0001 573 87.8778 614.373 521.904
541 0 55.0611 11.2784 621 86.3929 614.548 522.093
542 0 57.1002 11.8213 675 88.1452 614.524 521.369
543 0 58.1069 12.0468 700 92.1814 614.226 520.653
544 0 59.0205 12.2669 724 86.0014 614.645 521.023
545 0 61.0328 11.7478 717 87.9693 614.495 520.049
546 0 63.0166 12.5205 789 86.5577 614.098 518.58
547 0 66.0535 13.1106 866 85.2968 613.896 517.545
548 0 69.1248 12.5715 869 87.4074 613.688 516.374
549 0 68.0619 12.3564 841 90.063 613.95 515.817
550 0 71.0566 12.9756 922 88.2321 613.903 514.003
551 0 71.0612 12.5244 890 90.8921 613.575 513.456
552 0 75.0583 12.7501 957 91.9143 614.718 512.874
553 0 77.074 13.1043 1010 91.1416 615.251 512.696
554 0 78.121 12.8519 1004 94.0936 615.45 510.823
555 0 80.0413 12.2687 982 97.0519 614.949 510.243
556 0 84.0776 12.2625 1031 96.9796 614.238 510.086
557 0 83.0551 12.3171 1023 98.3324 614.278 509.648
558 0 86.0507 12.0394 1036 100.082 613.573 506.441
559 0 89.0259 12.0077 1069 99.8092 613.746 506.753
560 0 92.059 12.0683 1111 100.175 613.636 504.943
561 0 96.0788 12.2087 1173 99.7749 614.182 504.094
562 0 99.0844 12.3935 1228 98.7557 613.889 502.849
563 0 102.046 12.1808 1243 98.8761 614.489 502.618
564 1 55.0276 10.8673 598 101.065 614.818 524.355
565 0 59.0515 11.7694 695 98.2345 614.565 523.868
566 0 60.1047 11.6796 702 99.1595 613.345 520.49
567 0 62.0162 12.5129 776 92.8466 613.129 521.253
568 0 59.017 11.1832 660 97.4227 613.536 522.471
569 0 60.0314 11.6939 702 96.312 614.459 522.553
570 0 64.0972 11.1861 717 96.7406 614.262 521.241
571 0 66.0312 11.3734 751 97.3262 614.545 519.77
572 0 67.0311 11.3082 758 97.3272 614.544 518.687
573 0 70.0526 11.3343 794 97.0605 613.123 515.475
574 0 72.0369 11.3692 819 97.8364 614.042 517.598
575 0 74.008 12.5797 931 96.9871 613.843 515.658
576 0 76.023 11.878 903 98.2425 613.245 513.032
577 0 79.0896 11.9232 943 99.1835 613.112 513.526
578 0 82.0395 11.9698 982 100.601 614 511.662
579 0 83.0594 11.6302 966 98.7164 613.767 511.1
580 0 86.0546 11.7367 1010 99.2822 613.927 509.306
581 0 89.0579 11.9248 1062 98.0782 614.422 508.149
582 0 92.0505 11.5589 1064 99.6776 614.085 506.413
583 0 93.0353 11.7482 1093 98.2452 613.323 505.446
584 0 96.0474 10.9842 1055 101.355 613.546 502.37
585 0 101.058 11.3103 1143 99.4121 613.176 500.786
586 0 105.074 12.0962 1271 96.0071 613.665 498.647
587 0 107.143 12.8054 1372 103.04 613.66 496.161
588 1 58.024 12.4776 724 104.561 612.794 521.051
589 0 61.0228 13.2082 806 100.733 612.669 521.243
590 0 60.0509 12.3895 744 104.259 613.527 520.035
591 0 64.092 12.8097 821 101.691 614.143 518.904
592 0 65.0678 12.9404 842 101.113 613.798 518.303
593 0 66.0676 13.0775 864 100.603 613.519 517.131
594 0 69.0287 12.8642 888 100.965 612.516 515.296
595 0 71.0319 12.9942 923 100.371 612.878 514.985
596 0 72.0345 13.3964 965 100.254 613.261 513.933
597 0 75.0169 13.2104 991 100.231 613.143 513.146
598 0 78.0257 12.9188 1008 100.695 613.458 511.915
599 0 80.0463 13.4422 1076 99.9916 613.497 510.327
600 0 81.0658 12.9894 1053 101.962 613.191 508.612
601 0 85.0636 13.1549 1119 100.87 613.128 508.463
602 0 86.0533 13.0849 1126 102.699 612.655 506.352
603 0 88.0688 12.7627 1124 102.56 613.016 506.137
604 0 92.1109 12.9952 1197 101.391 612.343 505.822
605 0 94.0894 12.9451 1218 101.825 612.895 503.776
606 0 98.1182 12.9538 1271 101.592 612.749 500.629
607 1 51.0917 10.0408 513 99.3587 613.78 524.745
608 0 52.0503 11.1431 580 97.55 613.874 522.636
609 0 53.0357 11.7091 621 95.1675 613.404 524.767
610 0 57.0939 12.5407 716 94.0712 613.598 520.494
611 0 57.0383 12.5004 713 96.6914 612.348 523.345
612 0 60.0201 12.4792 749 101.029 611.888 522.51
613 0 61.063 12.7737 780 100.763 611.915 522.468
614 0 64.0537 13.0047 833 99.2617 612.21 520.844
615 0 64.0523 12.3493 791 102.158 611.86 520.508
616 0 68.0227 12.8634 875 100.177 612.329 519.295
617 0 69.0282 12.5311 865 101.357 612.361 518.292
618 0 70.2076 12.8476 902 102.443 612.514 516.543
619 0 73.0709 12.44 909 102.287 612.373 515.385
620 0 75.0721 12.7344 956 103.451 613.101 513.503
621 0 76.082 13.4066 1020 102.039 612.501 512.35
622 0 79.1144 12.9054 1021 101.513 612.476 511.44
623 0 79.0883 12.8338 1015 103.437 612.511 510.752
624 0 79.1067 13.526 1070 103.564 613.077 508.922
625 0 80.0517 12.9541 1037 105.123 612.767 509.372
626 0 81.1411 13.1746 1069 106.343 612.866 508.423
627 0 82.0589 13.1735 1081 107.252 612.958 508.666
628 0 83.1181 13.3545 1110 106.458 613.223 507.34
629 0 84.1493 13.3453 1123 105.33 613.687 506.43
630 0 87.1797 13.2944 1159 101.366 614.063 502.851
631 0 87.1285 12.7972 1115 101.238 613.933 500.616
632 0 89.0914 12.8407 1144 95.3435 614.025 504.313
633 0 90.0756 12.9669 1168 94.6978 613.779 504.02
634 0 89.0554 12.9133 1150 96.0026 613.179 504.024
635 0 89.0524 12.8801 1147 95.32 614.037 504.257
636 0 88.0984 12.3385 1087 89.5952 613.752 504.547
637 0 80.0501 10.1936 816 80.4816 613.929 499.716
638 0 81.1249 10.8105 877 75.1437 615.009 502.769
639 0 76.1247 8.01317 610 79.8213 614.325 496.167
640 0 76.3131 7.63958 583 76.5163 613.602 498.242
641 0 73.1952 7.37753 540 76.4241 613.852 495.909
642 0 70.2025 6.79463 477 74.0943 613.499 494.176
643 1 59.1639 5.84816 346 73.0434 613.512 489.361
644 1 36.0455 7.35181 265 72.2906 613.849 481.158
645 0 35.0175 7.02507 246 70.122 613.683 481.289
646 0 30.0174 8.29518 249 68.0241 613.904 479.871
647 0 20.0253 4.29458 86 60.7558 615.616 518.628
648 1 35.0524 7.61716 267 66.1161 614.513 485.476
649 1 67.1422 5.70431 383 62.5065 614.441 495.295
650 1 33.0247 6.84336 226 64.1327 613.611 481.748
651 0 28.0106 4.7125 132 64.9924 613.273 479.985
652 0 31.0187 5.35161 166 63.6747 612.849 481.47
