time division length width area intensity CMx CMy
0 0 49.0301 11.9314 585 92.3265 999.446 513.785
1 0 50.0507 12.1477 608 91.3322 998.836 513.211
2 0 52.0463 12.681 660 89.2409 998.206 512.012
3 0 52.0713 12.118 631 90.9525 998.331 512.453
4 0 54.0702 12.3358 667 90.2774 998.289 512.088
5 0 56.0647 12.2359 686 89.5175 998.421 510.776
6 0 58.065 13.0027 755 87.155 998.735 509.464
7 0 61.0842 12.0489 736 88.1005 998.443 509.985
8 0 62.1052 12.3983 770 87.4117 998.968 508.553
9 0 63.1343 12.6239 797 87.3036 998.532 508.09
10 0 65.0739 12.3091 801 88.598 998.567 507.845
11 0 69.1425 12.6406 874 87.1419 997.598 505.142
12 0 69.1425 12.6839 877 140.425 997.621 505.184
13 0 73.0801 12.9037 943 87.4369 997.944 503.766
14 0 76.1192 12.5067 952 88.6702 997.97 502.275
15 0 78.028 13.085 1021 87.5886 997.208 501.116
16 0 81.0486 12.7331 1032 88.1521 997.221 497.843
17 0 85.0495 12.8043 1089 87.1341 997.166 497.767
18 0 85.0346 13.1358 1117 87.5828 997.13 497.201
19 0 90.0562 13.6915 1233 86.2393 997.744 496.928
20 0 92.0952 13.4209 1236 88.0793 997.662 494.768
21 0 94.056 13.9917 1316 88.133 997.471 494.418
22 0 99.1322 13.7392 1362 88.2203 997.5 492.75
23 1 47.0209 11.6118 546 91.9158 997.165 516.839
24 0 50.0135 11.6169 581 91.1566 996.888 515.275
25 0 50.1185 12.5303 628 91.0526 998.334 514.952
26 0 51.0483 11.9103 608 85.1135 997.184 515.484
27 0 51.0288 12.5223 639 83.0767 996.881 515.587
28 0 53.0115 12.3558 655 82.9527 996.84 514.151
29 0 56.0262 12.4585 698 82.1991 997.804 513.62
30 0 58.0189 12.3236 715 82.4294 997.515 513.176
31 0 58.0261 12.3048 714 83.2213 997.478 511.901
32 0 62.0708 13.1946 819 81.0452 997.857 511.088
33 0 63.0676 12.8434 810 81.6704 997.112 510.305
34 0 66.0603 12.8367 848 82.0083 997.026 509.787
35 0 67.1158 12.62 847 83.4345 996.932 508.171
36 0 70.098 13.5525 950 87.3863 996.819 505.425
37 0 73.043 14.0191 1024 85.9971 996.811 504.764
38 0 75.0288 13.7414 1031 86.6702 996.431 502.242
39 0 77.0247 13.3723 1030 87.0544 997.154 503.116
40 0 78.0523 13.1066 1023 88.0987 996.79 500.715
41 0 79.0251 13.2996 1051 86.9058 996.962 499.201
42 0 82.1094 13.1897 1083 86.1237 996.595 499.626
43 0 85.0429 13.0875 1113 86.212 996.747 496.708
44 0 87.0656 13.1625 1146 86.4607 996.536 495.258
45 0 89.1605 13.5935 1212 85.8045 996.112 494.195
46 0 92.1371 13.1652 1213 86.4097 996.433 493.708
47 0 94.115 13.271 1249 86.5845 996.056 491.887
48 0 97.1062 13.2638 1288 86.3626 995.872 490.377
49 0 100.106 13.7654 1378 85.9122 995.909 488.784
50 0 103.044 13.2759 1368 87.1623 996.141 486.797
51 0 106.097 13.3369 1415 87.2622 996.71 484.948
52 0 111.066 14.1538 1572 85.3817 996.616 483.386
53 1 60.0229 11.9454 717 85.2678 997.142 510.833
54 0 60.0727 12.7346 765 85.1255 996.926 508.699
55 0 63.0569 13.2261 834 83.2962 997.253 506.811
56 0 65.0484 12.4676 811 83.7645 997.564 506.797
57 0 68.0419 12.7422 867 82.346 996.404 504.197
58 0 69.065 12.452 860 83.4046 997.296 503.794
59 0 72.0266 12.0927 871 83.2193 996.712 502.258
60 0 73.0461 12.2799 897 82.5897 996.642 501.518
61 0 77.1446 12.6256 974 81.2331 996.637 500.107
62 0 79.0669 12.4957 988 81.1336 996.346 497.135
63 0 82.0663 12.6605 1039 80.3523 997.314 496.458
64 0 86.0754 13.1048 1128 78.6543 997.144 493.737
65 0 86.066 11.8397 1019 81.3337 997.548 492.845
66 0 90.0621 12.5025 1126 79.7211 997.368 491.481
67 0 93.0497 11.9399 1111 80.9838 996.918 489.797
68 0 96.1002 12.1228 1165 79.1554 997.561 488.842
69 0 100.17 12.2491 1227 78.5354 996.957 484.76
70 0 100.114 11.8165 1183 79.2029 996.323 483.948
71 0 105.111 12.0635 1268 78.6144 996.677 482.071
72 1 51.0556 10.5375 538 75.0335 996.814 506.206
73 0 53.0746 11.1164 590 74.1339 997.125 505.432
74 0 55.1078 11.6862 644 73.2655 997.719 505.034
75 0 58.0305 11.1493 647 73.1576 997.161 505.941
76 0 61.06 11.4478 699 72.568 997.403 505.371
77 0 63.0396 11.469 723 73.491 997.227 502.124
78 0 65.0952 11.3219 737 73.901 997.037 501.558
79 0 68.0756 11.8251 805 74.4099 997.59 500.209
80 0 70.0616 11.5327 808 75.3502 997.249 499.214
81 0 74.0755 11.7043 867 75.7209 997.204 498.159
82 0 74.0155 11.3355 839 77.4887 998.317 495.243
83 0 80.075 12.0762 967 75.9731 998.126 496.037
84 0 81.1898 11.8734 964 77.8185 998.218 495.386
85 0 84.1328 11.6482 980 79.3786 997.751 493.554
86 0 86.0611 12.189 1049 78.7264 998.553 491.396
87 0 90.0895 11.644 1049 79.47 997.968 489.346
88 0 92.1002 11.7264 1080 79.5982 998.318 487.189
89 0 94.0606 11.886 1118 80.1252 998.011 486.616
90 0 98.1646 12.2244 1200 79.93 998.128 484.682
91 0 103.125 12.8679 1327 79.266 998.385 485.418
92 0 106.088 12.3105 1306 79.3009 997.599 482.723
93 0 109.096 11.9161 1300 80.7338 997.307 480.219
94 0 116.037 11.7635 1365 79.9971 997.602 477.286
95 1 60.0552 10.3571 622 72.2299 997.431 507.211
96 0 63.0426 9.676 610 71.0213 997.325 506.831
97 0 63.0429 10.136 639 71.3568 997.571 505.687
98 0 65.0815 10.894 709 71.6939 997.855 506.582
99 0 67.0631 11.3326 760 71.7026 997.322 504.757
100 0 70.0911 11.0856 777 71.9382 997.063 504.257
101 0 73.0973 11.1906 818 71.2445 997.044 504.143
102 0 74.0776 10.84 803 71.3126 997.088 502.364
103 0 74.0582 10.2487 759 73.1041 997 501.431
104 0 78.0916 10.1547 793 73.1854 996.546 500.709
105 0 81.0288 10.5395 854 73.0059 996.936 498.582
106 0 82.0752 10.8803 893 73.9541 997.402 497.923
107 0 84.1328 11.1372 937 74.0395 997.133 496.793
108 0 88.0514 11.3229 997 73.9398 997.228 493.513
109 0 91.073 10.9253 995 74.4714 996.996 493.539
110 0 92.0701 10.4594 963 76.1433 997.813 490.009
111 0 97.1039 10.8955 1058 74.3526 997.773 489.719
112 0 98.0964 10.3164 1012 74.7164 997.699 489.15
113 0 102.089 10.6378 1086 73.7081 997.279 488.479
114 0 106.056 11.7203 1243 73.1207 996.741 483.266
115 0 107.13 11.556 1238 74.4645 996.249 483.118
116 0 112.098 11.4275 1281 75.7315 996.613 481.088
117 0 116.212 11.2811 1311 78.6056 996.798 479.386
118 0 118.101 11.2107 1324 78.719 996.877 476.341
119 0 125.134 11.7633 1472 77.7874 996.536 472.729
120 0 128.112 12.4344 1593 77.1563 996.701 472.038
121 0 132.157 12.0841 1597 78.2173 997.176 469.518
122 0 136.142 11.7598 1601 78.777 996.409 468.359
123 0 141.142 11.8462 1672 78.0006 996.597 466.455
124 0 145.15 12.4354 1805 77.2227 996.971 463.465
125 0 148.254 12.0739 1790 78.8899 996.442 461.093
126 0 151.249 11.6431 1761 81.816 997.036 456.234
127 0 156.296 12.0156 1878 81.7045 996.674 456.19
128 0 160.264 12.4919 2002 82.4351 996.331 453.638
129 0 165.195 12.5549 2074 83.0887 996.605 450.786
130 0 171.289 12.9606 2220 82.9721 996.858 448.642
131 0 174.247 12.6487 2204 84.4832 996.802 444.279
132 0 180.258 13.4086 2417 84.0492 996.612 442.679
133 0 183.148 13.1205 2403 85.9322 996.673 440.279
134 0 189.232 12.7674 2416 87.3854 996.185 437.938
135 0 196.299 13.1432 2580 87.0969 996.531 433.981
136 0 202.192 13.4031 2710 86.2122 997.251 432.061
137 0 206.226 13.0003 2681 87.1936 997.036 428.482
138 0 213.337 13.1576 2807 87.8618 997.391 425.897
139 0 216.243 12.3149 2663 91.4822 996.952 421.237
140 0 227.156 13.4489 3055 89.6655 997.029 420.926
141 0 233.264 13.3583 3116 90.1293 997.528 419.562
142 1 182.216 10.3778 1891 91.6468 996.119 447.269
143 0 188.239 11.1826 2105 90.258 996.767 443.77
144 0 196.244 12.3469 2423 88.3772 996.488 438.155
145 0 202.347 12.2265 2474 89.7829 997.071 435.515
146 0 207.229 11.9047 2467 90.4751 996.775 432.404
147 0 215.299 12.8937 2776 89.2821 996.37 426.388
148 0 222.424 13.1506 2925 89.373 997.049 423.944
149 0 228.451 12.6154 2882 90.5625 996.104 422.411
150 0 237.377 12.6718 3008 91.9229 995.398 415.609
151 0 244.404 12.6757 3098 92.734 995.513 410.904
152 0 254.39 12.4494 3167 93.4228 995.858 406.691
153 0 264.371 12.8796 3405 93.1789 995.585 402.575
154 0 272.535 13.1029 3571 93.4828 996.005 396.2
155 1 87.2118 10.1821 888 76.1216 996.195 494.575
156 0 90.2404 9.84038 888 76.3671 996.116 492.681
157 0 94.1602 10.3228 972 69.7315 996.48 492.016
158 0 95.2226 10.3337 984 69.185 996.95 491.779
159 0 101.299 10.4542 1059 75.3352 997.183 488.61
160 0 103.133 10.1326 1045 74.4995 996.52 486.064
161 0 105.198 9.98118 1050 74.0895 995.865 481.069
162 0 108.242 9.68197 1048 73.8139 995.749 482.268
163 0 110.207 9.70898 1070 74.0037 995.98 479.554
164 0 116.219 10.3254 1200 72.0933 996.272 476.987
165 0 119.352 10.3057 1230 72.7065 996.258 474.463
166 0 125.346 10.8979 1366 72.5212 996.247 472.362
167 0 126.229 10.0135 1264 74.0878 997.143 468.85
168 0 130.231 10.9268 1423 73.6212 996.916 469.287
169 0 135.171 11.5039 1555 74.3595 996.697 463.918
170 0 140.214 11.1401 1562 76.3348 996.716 461.207
171 0 146.335 12.7652 1868 71.7628 995.944 454.36
172 0 150.299 12.1225 1822 73.5928 996.456 457.733
173 0 153.187 11.0322 1690 70.2225 996.456 455.659
174 0 157.279 10.3574 1629 67.6028 996.548 459.533
175 1 88.1544 10.1526 895 72.0156 996.645 493.648
176 0 93.1528 10.4237 971 71.8012 995.856 492.513
177 0 94.1418 10.6754 1005 67.4915 994.349 489.705
178 0 98.2236 9.5191 935 71.1102 995.443 488.452
179 0 102.287 10.4021 1064 67.8656 995.442 486.825
180 0 105.212 10.9114 1148 68.2692 995.584 486.132
181 0 108.109 10.5726 1143 70.0901 995.757 485.676
182 0 111.198 11.1153 1236 70.6125 996.118 482.779
183 0 115.089 11.0263 1269 71.8282 996.269 481.481
184 0 118.107 11.0069 1300 72.2338 996.6 479.903
185 0 122.218 11.7414 1435 72.5359 996.996 474.041
186 0 124.297 10.9978 1367 75.1624 996.808 470.247
187 0 128.337 11.3997 1463 74.9563 996.05 470.813
188 0 131.318 11.2703 1480 74.4899 995.836 470.428
189 0 136.326 11.3552 1548 74.6182 996.191 465.314
190 0 139.326 11.5915 1615 74.579 996.307 464.762
191 0 143.349 12.487 1790 72.7749 996.651 463.374
192 0 147.194 11.4814 1690 74.1775 996.524 463.166
193 1 79.1737 9.64967 764 71.356 996.046 498.945
194 0 84.1592 10.7653 906 72.2682 996.52 497.957
195 0 88.1996 10.8277 955 75.5979 996.095 492.358
196 0 89.2503 11.2381 1003 76.7438 995.333 490.443
197 0 93.3229 11.487 1072 75.875 995.195 488.694
198 0 94.1033 10.8498 1021 75.6131 995.557 489.787
199 0 96.1553 10.1294 974 69.9014 994.882 489.462
200 0 102.082 10.6385 1086 69.825 995.497 487.416
201 0 103.033 10.3559 1067 70.8875 995.612 487.38
202 0 108.133 10.5148 1137 90.8285 995.281 485.482
203 0 110.128 10.2789 1132 90.129 995.193 481.255
204 0 114.104 11.1828 1276 88.5243 994.654 480.373
205 0 116.189 10.6465 1237 92.6952 994.204 478.508
206 0 118.207 10.414 1231 94.0877 993.994 477.659
207 0 124.2 11.2239 1394 91.8199 993.979 476.883
208 0 128.224 11.2772 1446 93.7483 994.603 473.341
209 0 133.16 11.6251 1548 93.6835 994.954 471.722
210 1 72.0158 9.92838 715 92.3888 994.845 503.448
211 0 75.0344 10.3286 775 91.1677 995.243 503.812
212 0 75.0189 11.0506 829 88.1918 995.353 501.02
213 0 78.0488 11.4159 891 89.5724 995.515 500.492
214 0 80.0528 10.6805 855 89.0058 994.434 500.695
215 0 79.1012 10.3665 820 90.3256 994.802 499.813
216 0 85.0478 11.323 963 86.5929 994.775 499.081
217 0 85.0555 10.9811 934 88.2034 995.301 496.124
218 0 88.0418 10.7335 945 87.7704 995.139 495.326
219 0 92.0529 10.885 1002 87.4062 995.417 493.32
220 0 96.0509 11.4835 1103 86.0925 995.723 492.125
221 0 99.0401 11.7225 1161 84.9001 995.035 490.491
222 0 102.04 11.8188 1206 85.6036 996.123 489.119
223 0 104.068 11.3291 1179 87.0509 995.449 488.915
224 0 107.069 11.5907 1241 87.1797 995.019 486.637
225 0 111.052 11.6072 1289 86.5617 995.021 484.213
226 0 114.091 11.447 1306 88.098 995.39 481.461
227 0 116.079 11.8626 1377 87.9572 995.277 480.83
228 0 119.092 12.419 1479 87.9466 995.516 479.913
229 0 124.071 12.0979 1501 88.557 995.787 478.574
230 0 126.137 12.2565 1546 89.5149 996.274 476.03
231 0 129.163 12.3333 1593 90.7351 995.466 471.84
232 0 135.112 12.3823 1673 93.4328 994.971 470.543
233 0 138.113 11.9612 1652 93.7349 994.969 469.103
234 0 144.116 11.8099 1702 92.1204 994.197 467.679
235 1 76.091 10.2377 779 89.3954 994.807 500.216
236 0 77.0791 10.0027 771 90.9196 995.029 497.156
237 0 81.0486 11.1785 906 85.5519 996.009 497.132
238 0 83.103 11.6843 971 85.5273 995.823 494.753
239 0 86.1746 12.1846 1050 88.341 995.734 493.558
240 0 87.2317 11.8993 1038 90.9961 995.397 491.34
241 0 87.0899 12.1828 1061 92.1904 996.301 492.98
242 0 90.1 12.3973 1117 91.6356 996.18 491.121
243 0 94.0454 12.4408 1170 91.8632 995.418 489.178
244 0 94.0801 12.2874 1156 93.7803 995.554 487.203
245 0 98.0491 12.4631 1222 93.8944 995.651 486.326
246 0 102.126 12.4944 1276 93.9099 994.545 482.541
247 0 103.028 12.2782 1265 94.5644 994.741 482.709
248 0 107.129 12.6296 1353 93.4619 995.599 480.306
249 0 108.051 12.4478 1345 95.8126 994.569 478.798
250 0 111.109 12.5913 1399 95.4596 994.466 478.338
251 0 113.049 12.9325 1462 94.249 995.112 475.88
252 0 119.093 13.6279 1623 88.3185 996.171 476.007
253 0 120.057 12.9189 1551 91.2553 995.812 473.281
254 0 124.096 13.0785 1623 90.7505 995.904 471.281
255 0 126.075 12.9368 1631 91.8197 996.502 469.559
256 0 132.091 13.0289 1721 91.3167 995.744 468.973
257 0 136.037 13.8271 1881 89.9564 995.192 465.896
258 0 137.089 13.1082 1797 93.2031 994.56 462.835
259 0 143.079 13.6149 1948 91.365 994.8 460.236
260 0 148.08 13.594 2013 91.7248 994.599 456.009
261 0 149.072 12.8796 1920 95.2177 994.451 455.28
262 0 157.092 13.5462 2128 93.2904 994.73 451.023
263 1 80.037 10.0079 801 95.7853 994.434 487.868
264 0 82.0936 11.4625 941 92.7535 994.471 485.713
265 0 87.0693 12.3235 1073 93.027 995.078 484.259
266 0 88.0549 11.913 1049 95.0038 995.56 484.804
267 0 91.0448 11.3461 1033 89.8529 995.851 487.751
268 0 93.0647 10.8849 1013 91.843 995.184 486.23
269 0 96.0521 11.5875 1113 90.3702 995.066 484.835
270 0 99.1307 12.0144 1191 89.5382 994.19 481.961
271 0 98.0756 11.5625 1134 92.2019 994.524 481.186
272 0 102.046 11.5928 1183 92.7016 994.407 479.918
273 0 105.046 11.8234 1242 91.8816 994.791 478.233
274 0 111.086 12.1347 1348 90.618 994.105 475.912
275 0 112.073 12.0725 1353 91.4789 994.17 474.618
276 0 117.058 12.2846 1438 91.0104 994.822 472.22
277 0 119.068 11.9512 1423 92.033 994.328 468.033
278 0 125.124 12.2199 1529 91.1504 993.909 465.932
279 0 126.082 11.7384 1480 94.0149 993.866 463.464
280 0 130.099 11.914 1550 94.2387 994.184 458.535
281 0 132.093 11.9688 1581 95.3017 993.775 456.266
282 0 137.151 11.7462 1611 96.1868 994.44 454.814
283 1 71.0566 9.96388 708 93.3983 994.674 487.6
284 0 73.0484 10.8695 794 91.3615 994.121 484.054
285 0 81.1362 11.4745 931 90.9989 993.826 488.197
286 0 82.0857 10.5134 863 91.117 995.278 489.258
287 0 87.0531 10.7865 939 90.5666 995.463 487.709
288 0 87.1068 10.5847 922 92.6518 995.439 486.302
289 0 88.0774 10.1048 890 93.2034 994.824 483.225
290 0 92.0716 10.2529 944 93.5477 994.435 479.684
291 0 95.0667 10.7714 1024 92.8008 995.093 478.938
292 0 99.1409 10.7423 1065 93.3117 994.068 477.831
293 0 106.079 10.9352 1160 91.5362 994.432 476.888
294 0 107.159 10.1345 1086 94.1713 994.567 475.938
295 0 109.11 10.9614 1196 93.2993 994.459 473.416
296 0 115.095 10.4609 1204 93.8264 994.429 473.542
297 0 120.069 11.3601 1364 91.6884 994.729 470.225
298 1 66.0317 8.84424 584 92.2449 995.231 499.312
299 0 68.0398 8.70079 592 91.8243 994.934 498.449
300 0 65.0905 9.2333 601 89.9667 994.591 493.431
301 0 74.1377 10.9931 815 85.8405 991.596 499.286
302 0 78.0766 11.1301 869 88.9528 992.46 498.606
303 0 80.1098 11.1472 893 89.5711 992.616 497.634
304 0 81.0983 11.1346 903 90.1539 993.009 496.483
305 0 85.135 10.8651 925 90.7081 993.25 496.074
306 0 87.1164 11.41 994 90.9527 993.642 494.329
307 0 88.1115 11.2698 993 92.9466 993.928 492.44
308 0 92.1065 11.4976 1059 92.5694 994.704 490.968
309 0 94.2515 11.9468 1126 91.9307 993.472 492.151
310 0 97.2411 12.1656 1183 91.6281 993.34 488.982
311 0 100.138 11.9036 1192 92.177 993.989 489.877
312 0 102.216 11.7888 1205 92.478 993.378 488.498
313 0 106.186 11.7624 1249 92.0416 994.288 487.318
314 0 108.175 11.9343 1291 90.7986 993.603 485.167
315 0 111.177 11.4862 1277 92.4573 994.36 483.738
316 0 114.236 11.9665 1367 91.6796 994.127 482.721
317 1 64.1856 9.62832 618 87.754 992.843 510.283
318 0 65.1869 10.7383 700 84.8643 992.59 510.007
319 0 68.1735 10.8693 741 82.309 992.656 507.104
320 0 69.1306 10.1113 699 88.0029 992.265 507.926
321 0 71.2126 10.897 776 85.5876 992.348 507.857
322 0 73.1439 11.033 807 86.2838 992.602 505.67
323 0 75.1485 11.2311 844 85.9645 992.694 506.884
324 0 77.2002 11.114 858 87.3508 992.605 504.712
325 0 78.1844 10.731 839 88.7557 993.068 503.449
326 0 81.1489 10.4992 852 89.4965 992.751 502.045
327 0 81.2063 10.7997 877 89.1197 992.928 502.011
328 0 85.1595 10.3453 881 88.6061 992.485 502.426
329 0 85.1848 11.2696 960 89.3104 992.578 499.653
330 0 90.325 11.7575 1062 88.4397 991.646 498.26
331 0 90.325 11.7133 1058 136.283 990.637 498.272
332 0 93.0934 11.0212 1026 86.8002 993.087 495.295
333 0 97.1021 10.9987 1068 87.1105 993.233 493.254
334 1 52.0439 9.95313 518 85.7915 993.324 517.625
335 0 52.0824 10.6946 557 83.4919 993.548 516.056
336 0 54.0351 10.9003 589 82.9966 992.849 515.526
337 0 56.0848 10.6446 597 83.8325 992.883 513.015
338 0 59.049 10.2965 608 88.6891 992.327 513.612
339 0 59.0794 10.6128 627 88.2919 992.396 512.408
340 0 60.063 10.6888 642 89.0732 992.612 512.626
341 0 62.0265 11.1888 694 86.9424 992.925 514.646
342 0 63.0642 11.2742 711 88.4712 992.615 513.068
343 0 66.0594 11.5956 766 86.6906 992.636 513.381
344 0 65.0386 11.5777 753 88.5126 992.576 512.753
345 0 68.0255 12.5247 852 85.6197 991.669 512.366
346 0 70.059 12.0042 841 87.2438 990.584 510.616
347 0 71.0422 11.9788 851 87.6545 990.364 510.249
348 0 71.0656 11.5808 823 89.9089 991.053 508.95
349 0 76.0356 12.0338 915 88.4175 990.124 508.445
350 0 76.0325 12.2579 932 88.4807 991.033 507.327
351 0 78.0322 12.1873 951 90.51 991.701 504.915
352 0 79.0772 12.5953 996 90.253 991.278 505.643
353 0 82.0648 12.2464 1005 92.2159 991.32 503.551
354 0 84.049 11.9573 1005 92.5015 990.296 502.25
355 0 85.0537 12.1218 1031 92.9185 989.771 501.655
356 0 89.051 12.3749 1102 92.4138 989.948 499.839
357 0 90.0895 11.977 1079 93.8128 991.298 499.041
358 0 94.0891 12.35 1162 94.5112 991.373 496.986
359 0 98.1604 12.663 1243 93.1939 991.282 496.168
360 1 51.0112 11.5465 589 88.8302 992.066 520.261
361 0 51.0188 11.0939 566 90.6696 991.756 518.519
362 0 52.0445 11.6055 604 87.0878 992.007 519.002
363 0 57.0286 11.8712 677 95.5214 992.185 517.62
364 0 55.0418 12.2089 672 97.186 992.362 515.912
365 0 60.0934 11.9813 720 94.8778 992.578 516.067
366 0 60.0238 12.5617 754 94.2812 992.239 515.154
367 0 63.0359 12.5801 793 93.3115 992.825 513.858
368 0 63.0209 12.9005 813 92.0049 993.176 514.062
369 0 65.0148 12.6279 821 91.5286 992.248 513.989
370 0 66.0179 12.4815 824 92.1942 992.619 510.608
371 0 70.0172 13.0539 914 89.7265 992.563 510.033
372 0 70.0496 12.1914 854 92.2272 992.357 510.064
373 0 72.0495 12.6163 909 90.9604 992.644 509.238
374 0 75.0229 13.7158 1029 87.1584 992.695 508.29
375 0 77.1038 12.9955 1002 83.6497 991.899 505.881
376 0 79.038 13.1709 1041 83.5207 992.005 505.426
377 0 83.053 13.1362 1091 83.8598 991.848 504.691
378 0 84.082 12.8565 1081 86.4015 992.652 502.421
379 0 86.0909 13.0444 1123 90.5102 992.715 500.849
380 0 90.08 12.6887 1143 90.1898 992.808 498.698
381 0 93.1197 12.339 1149 90.0139 992.733 497.362
382 1 47.0711 10.4735 493 87.0588 992.984 519.507
383 0 49.0941 10.6734 524 86.563 992.916 519.334
384 0 51.0644 10.8099 552 85.6123 992.208 517.993
385 0 52.111 11.7634 613 84.2692 992.055 516.804
386 0 55.0869 11.7632 648 92.7068 992.242 514.011
387 0 58.0802 11.949 694 91.4251 992.399 513.546
388 0 60.083 11.817 710 91.2366 992.656 511.873
389 0 61.0924 12.3583 755 89.5709 992.6 511.183
390 0 64.0621 11.9884 768 90.8906 992.768 509.141
391 0 65.0274 12.4255 808 89.3849 993.398 508.464
392 0 67.0499 11.8867 797 91.1757 993.486 508.351
393 0 70.0597 11.7471 823 92.2576 992.807 506.444
394 0 72.0892 13.1643 949 89.7682 992.867 504.007
395 0 74.0567 13.1251 972 90.8076 993.232 504.128
396 0 75.0739 12.4944 938 93.4243 993.349 502.946
397 0 79.0458 12.7521 1008 93.5575 993.026 501.358
398 0 80.044 12.9054 1033 93.9148 992.956 500.594
399 0 82.0596 13.0027 1067 94.0984 992.87 499.073
400 0 86.1089 12.2287 1053 96.0513 992.923 497.108
401 0 89.0759 13.1012 1167 94.1302 993.253 496.489
402 0 91.0789 13.0217 1186 96.2732 993.53 493.766
403 0 93.1948 12.4578 1161 98.3514 993.022 491.963
404 0 96.1345 12.961 1246 96.8884 992.697 493.444
405 0 100.111 12.9756 1299 98.0269 993.707 491.241
406 0 103.066 13.0886 1349 98.7494 992.726 488.641
407 0 103.071 13.1074 1351 143.821 990.726 488.661
408 0 103.058 13.1479 1355 143.139 988.738 488.661
409 1 60.0493 11.2907 678 89.91 992.409 512.628
410 0 61.081 10.7235 655 91.7069 993.194 511.182
411 0 62.0307 11.188 694 91.6844 993.085 511.03
412 0 64.0704 10.8943 698 93.6218 992.854 508.371
413 0 66.0266 11.5408 762 93.6299 992.331 507.247
414 0 69.1331 11.919 824 92.7658 992.266 507.306
415 0 73.0332 10.8307 791 95.6637 991.668 505.267
416 0 74.0405 11.3451 840 96.5298 992.108 503.171
417 0 78.0451 11.5574 902 96.6397 992.734 501.806
418 0 78.0492 10.7368 838 99.0513 992.576 502.537
419 0 82.0205 12.2286 1003 95.2522 993.423 500.807
420 0 86.0654 11.5842 997 95.8826 993.222 500.209
421 0 87.067 11.3935 992 98.006 992.482 498.382
422 0 90.0602 11.781 1061 96.5806 992.161 496.285
423 0 92.1114 11.6055 1069 97.9439 992.279 495.369
424 0 96.1373 11.2755 1084 99.3561 992.602 493.435
425 0 100.178 11.8789 1190 98.1731 992.103 492.088
426 1 54.1069 9.59213 519 94.4143 992.272 515.102
427 0 54.1115 10.2751 556 94.2014 991.817 513.986
428 0 56.0925 10.964 615 94.1203 992.659 513.867
429 0 59.0734 11.2064 662 94.5091 992.795 512.486
430 0 59.0184 11.1321 657 99.3075 993.122 510.763
431 0 61.0171 10.915 666 90.488 992.992 512.017
432 0 62.0212 10.5609 655 93.1176 992.374 511.307
433 0 63.0401 10.5806 667 93.4138 992.099 511.211
434 0 66.0649 11.6098 767 91.8318 991.864 508.596
435 0 68.0304 10.3777 706 94.6558 991.84 509.504
436 0 69.0403 10.9067 753 94.3825 992.598 508.481
437 0 70.0274 11.3099 792 94.0341 993.348 505.333
438 0 74.0884 11.2703 835 95.2455 993.479 503.88
439 0 76.0247 10.878 827 96.0411 993.087 502.788
440 0 78.0615 10.812 844 97.4775 993.352 503.201
441 0 81.0988 11.3689 922 95.2918 992.982 503.107
442 0 82.0934 11.0849 910 97.0132 993.167 499.831
443 0 86.0863 11.6395 1002 96.3044 992.571 498.237
444 0 90.1982 11.5412 1041 96.7253 992.386 497.175
445 1 45.0369 10.4803 472 97.017 992.775 518.153
446 0 48.0547 10.384 499 96.6092 993.226 517.673
447 0 50.0976 11.3578 569 92.2777 993.221 516.179
448 0 48.0663 10.3607 498 87.006 992.271 518.303
449 0 49.0937 9.9198 487 87.9343 993.77 517.509
450 0 50.0858 10.1626 509 88.6248 992.697 517.358
451 0 51.0593 10.5955 541 88.6839 992 516.29
452 0 53.066 10.3268 548 90.2701 992.427 515.307
453 0 52.0655 10.3716 540 91.5148 992.928 516.017
454 0 54.0771 10.8364 586 91.9061 992.507 514.7
455 0 57.0331 11.1339 635 91.2047 992.869 514.532
456 0 59.0414 11.602 685 90.6686 993.727 512.193
457 0 60.0702 11.3534 682 91.4648 993.808 511.594
458 0 62.0797 11.4208 709 91.7123 993.743 512.158
459 0 66.1792 11.9373 790 89.762 992.954 509.267
460 0 68.0234 11.9812 815 92.1313 992.62 508.029
461 0 68.0436 11.7866 802 95.01 992.828 507.317
462 0 72.0347 11.8415 853 94.8359 993.816 505.298
463 0 73.0597 11.9491 873 95.2921 993.245 505.586
464 0 76.0645 12.4237 945 94.7598 993.516 503.923
465 0 77.0228 12.321 949 96.0411 993.925 503.625
466 0 81.0688 12.3105 998 96.7766 993.987 501.715
467 0 81.0212 12.145 984 99.3323 994.144 501.292
468 0 85.0676 12.4372 1058 99.2505 993.632 500.765
469 0 86.1044 12.4732 1074 100.462 992.886 497.822
470 0 89.0867 12.6282 1125 100.415 992.732 497.519
471 0 90.0817 12.1889 1098 102.381 993.331 496.729
472 1 46.0374 10.9042 502 103.564 993.614 517.855
473 0 50.0225 10.9151 546 101.987 993.672 517.293
474 0 49.0656 11.026 541 98.159 993.813 515.804
475 0 52.0344 11.3002 588 97.0986 993.917 515.162
476 0 49.0294 10.9322 536 93.8153 992.703 516.114
477 0 52.0356 11.5114 599 91.4558 992.554 516.104
478 0 52.0919 10.6734 556 94.4335 991.698 515.772
479 0 54.0888 11.1298 602 93.495 991.91 513.942
480 0 56.0874 11.9991 673 91.893 991.844 512.284
481 0 59.0393 11.179 660 90.9697 992.509 512.955
482 0 60.0473 12.0405 723 89.9668 992.701 512.113
483 0 62.0203 11.851 735 89.7306 992.125 511.355
484 0 65.0914 11.7373 764 89.8822 992.588 511.08
485 0 67.1114 11.7864 791 90.2453 992.422 508.778
486 0 68.0702 12.0905 823 90.8214 992.004 507.055
487 0 71.0377 12.2329 869 89.8481 992.139 506.315
488 0 73.0486 11.9783 875 90.8926 990.725 505.318
489 0 75.0675 11.7761 884 91.9604 991.217 505.238
490 0 77.0392 12.0069 925 92.0065 990.905 503.444
491 0 79.0566 11.9661 946 92.7114 991.135 503.533
492 0 83.0574 12.076 1003 91.7527 991.108 503.07
493 0 85.0843 12.611 1073 92.8071 990.967 500.874
494 0 89.0595 12.3176 1097 95.7074 992.192 499.102
495 0 91.0755 11.6936 1065 97.9765 993.037 497.608
496 0 95.0401 12.5105 1189 97.0446 992.473 495.481
497 0 98.0412 11.791 1156 97.7483 991.824 495.394
498 1 52.0877 11.4038 594 90.6111 991.919 517.919
499 0 54.0178 11.1815 604 90.4553 991.164 516.692
500 0 55.033 11.6839 643 89.6221 990.762 516.236
501 0 57.0402 12.0617 688 88.9724 991.452 515.065
502 0 56.029 11.5476 647 90.8872 991.828 515.139
503 0 58.0586 11.5573 671 86.9642 992.303 515.595
504 0 61.0654 11.7415 717 87.0237 992.374 513.693
505 0 62.0436 11.8787 737 86.6825 992.82 512.573
506 0 64.0872 10.9694 703 89.862 992.371 509.057
507 0 68.0374 11.5819 788 88.7893 992.496 507.64
508 0 70.115 11.4098 800 89.4075 992.541 507.786
509 0 73.0439 11.3083 826 89.3584 991.432 505.539
510 0 73.0727 11.0301 806 91.7047 991.47 504.447
511 0 78.0752 11.284 881 90.5199 991.342 502.229
512 0 81.0854 11.4694 930 90.9925 992.005 500.577
513 0 83.0701 12.1464 1009 91.5699 992.572 500.584
514 0 85.105 12.2202 1040 93.0346 992.258 498.031
515 0 88.0968 13.0538 1150 93.7826 991.992 497.803
516 0 92.107 12.6049 1161 98.143 991.874 495.791
517 0 96.2115 12.8467 1236 97.0914 992.05 494.994
518 0 98.2212 12.3599 1214 99.5354 992 491.744
519 1 50.1158 10.9746 550 97.5945 990.575 516.716
520 0 51.2112 10.9156 559 96.1843 990.004 516.258
521 0 51.1326 11.832 605 93.8397 991.377 516.412
522 0 53.1063 11.1098 590 92.6153 990.117 517.681
523 0 55.0276 11.9031 655 90.4076 990.65 517.478
524 0 55.0146 11.2516 619 93.3603 991.103 516.342
525 0 56.0549 11.5244 646 93.1269 990.851 515.819
526 0 60.0646 11.9538 718 91.6086 990.337 513.329
527 0 62.0779 12.146 754 91.317 990.085 512.69
528 0 63.1114 11.5352 728 93.0632 989.508 511.471
529 0 65.0466 11.315 736 93.6427 989.921 511.054
530 0 66.1057 11.89 786 92.9555 990.28 509.192
531 0 68.0511 11.5501 786 94.8995 990.254 508.489
532 0 71.1746 11.9003 847 95.1854 990.292 506.378
533 0 73.0994 11.587 847 97.5643 990.541 504.752
534 0 77.1761 12.0504 930 95.9108 990.963 503.612
535 0 80.1581 12.413 995 95.1377 990.478 503.017
536 0 82.2459 12.5842 1035 116.037 990.328 501.385
537 0 82.1558 12.0259 988 99.1832 990.545 499.381
538 1 42.0653 10.0558 423 93.2671 990.402 519.726
539 0 44.0745 10.5276 464 91.1724 990.603 519.448
540 0 47.1579 11.8962 561 95.8627 990.752 521.481
541 0 50.0813 11.2817 565 85.354 991.522 523.763
542 0 48.02 10.2666 493 90.142 991.613 522.523
543 0 51.0122 11.3502 579 88.506 991.161 522.264
544 0 52.0346 11.9344 621 86.6409 991.04 521.697
545 0 53.1081 11.8438 629 87.1542 990.976 521.514
546 0 57.0247 11.872 677 85.6189 990.458 519.92
547 0 57.0462 11.9377 681 86.8781 990.681 518.182
548 0 59.1214 11.7724 696 87.6379 990.407 516.884
549 0 62.0504 12.3126 764 86.0432 990.17 515.907
550 0 64.0359 12.493 800 85.2625 990.32 515.409
551 0 64.0404 12.2891 787 86.1296 989.892 513.02
552 0 67.0736 12.0316 807 86.2193 991.321 511.705
553 0 67.0919 11.9239 800 86.7525 991.402 511.218
554 0 69.016 11.664 805 87.3925 991.409 512.261
555 0 72.024 11.9682 862 87.5232 990.962 509.588
556 0 76.0261 12.5089 951 85.755 989.735 510.634
557 0 76.0269 12.535 953 133.462 988.74 510.46
558 0 82.0439 12.4689 1023 85.6843 989.053 506.746
559 0 84.0898 12.4748 1049 86.6473 989.448 506.381
560 1 41.0495 10.6457 437 88.9428 989.348 527.238
561 0 43.0395 10.7808 464 90.0323 989.989 526.539
562 0 45.0793 11.4909 518 88.2703 990.43 524.471
563 0 47.0295 12.2264 575 88.2104 990.664 524.332
564 0 49.0712 12.4309 610 91.9918 990.443 523.328
565 0 51.0163 11.8198 603 91.6136 990.634 523.643
566 0 52.0523 11.1234 579 92.8083 990.123 521.95
567 0 53.0269 12.2579 650 90.5508 990.529 520.792
568 0 53.0466 12.0083 637 91.5243 990.138 520.027
569 0 57.08 13.0694 746 87.8405 990.563 519.343
570 0 58.1319 11.904 692 89.802 990.283 518.844
571 0 60.0198 12.146 729 88.5185 991.196 518.13
572 0 60.1015 12.7784 768 88.8177 991.017 516.897
573 0 64.1441 12.8305 823 87.4326 990.628 516.425
574 0 65.1695 12.7053 828 88.1232 990.937 515.325
575 0 67.0969 12.4894 838 89.6527 990.36 514.746
576 0 70.1827 13.4221 942 86.2856 989.787 513.331
577 0 70.0487 12.891 903 91.3522 989.256 512.728
578 0 72.1362 12.3239 889 94.8436 989.956 511.953
579 0 76.1631 13.2873 1012 93.333 989.843 510.101
580 0 76.1429 12.8049 975 95.5087 989.762 508.776
581 0 80.1472 13.0136 1043 93.5254 990.355 508.098
582 0 83.0896 13.4192 1115 92.6036 990.263 506.758
583 0 84.0846 12.7015 1068 94.5515 989.725 505.706
584 0 88.0838 12.2384 1078 90.564 989.6 502.207
585 0 92.0612 13.1543 1211 89.3675 989.396 500.802
586 1 48.0816 10.8358 521 86.8848 989.251 523.979
587 0 47.0671 12.0041 565 87.5487 989.676 523.926
588 0 52.1096 12.3586 644 85.4581 989.533 523.46
589 0 53.0802 12.3021 653 85.7703 989.331 522.44
590 0 56.0599 13.0039 729 83.9328 990.034 521.701
591 0 57.1555 12.5622 718 87.3914 990.435 521.056
592 0 58.0802 12.8787 748 87.266 990.056 519.521
593 0 60.1336 12.6718 762 88.2428 989.898 518.786
594 0 62.0705 12.518 777 98.6474 989.498 517.607
595 0 64.1191 12.9447 830 98.1639 989.828 516.798
596 0 68.1076 12.6711 863 98.3268 990.072 515.841
597 0 69.1744 12.7648 883 91.1178 989.701 514.696
598 0 69.0808 12.1452 839 99.764 990.025 514.33
599 0 72.0783 12.9026 930 94.572 989.968 512.938
600 0 75.1349 12.7504 958 94.8873 989.931 511.608
601 0 77.1426 12.3278 951 96.7434 990.303 508.017
602 0 80.1168 12.8562 1030 97.2039 989.888 507.749
603 0 80.1023 12.4591 998 99.6262 990.176 507.617
604 0 84.2041 13.1941 1111 98.7768 989.435 506.62
605 1 44.0782 10.8444 478 102.331 990.663 525.628
606 0 46.0455 11.1629 514 101.802 990.208 524.691
607 0 47.046 11.1805 526 103.54 990.238 523.559
608 0 49.0587 10.8034 530 103.458 990.56 523.162
609 0 51.0115 12.2129 623 99.4783 990.432 522.562
610 0 53.0316 12.5774 667 99.6507 989.73 522.628
611 0 55.0544 12.6239 695 99.882 988.643 522.829
612 0 56.0554 12.5768 705 99.9433 988.61 521.786
613 0 57.036 13.1145 748 99.2901 988.604 521.929
614 0 59.0505 12.2268 722 101.586 988.814 519.299
615 0 63.0936 12.9649 818 98.5098 988.532 518.786
616 0 64.0352 12.743 816 100.032 988.764 518.369
617 0 67.0391 13.3355 894 96.481 988.756 516.987
618 0 70.056 12.9468 907 97.4509 988.892 515.921
619 0 71.0608 13.017 925 96.7686 988.721 512.492
620 0 73.0693 12.9603 947 97.6177 989.436 511.851
621 0 74.0584 12.3551 915 98.9235 988.805 510.937
622 0 77.073 13.5067 1041 94.0932 988.795 509.92
623 0 80.0699 12.8388 1028 96.9329 988.854 507.482
624 0 83.1216 12.7404 1059 106.058 989.662 506.492
625 0 86.1026 12.2877 1058 105.963 989.197 504.776
626 0 88.0751 12.2282 1077 105.704 989.345 503.777
627 0 90.0721 12.057 1086 104.831 989.58 502.354
628 0 95.1011 12.166 1157 104.671 989.861 501.061
629 1 52.0365 11.0115 573 102.236 989.653 521.241
630 0 53.0401 12.236 649 98.5701 989.92 520.908
631 0 55.0198 12.4319 684 95.1652 990.137 519.422
632 0 53.0325 11.2572 597 95.6951 990.9 520.576
633 0 55.0184 11.4144 628 95.1608 990.44 519.955
634 0 56.0844 11.7145 657 96.1948 990.207 518.493
635 0 59.0322 11.5191 680 96.6559 991.107 517.256
636 0 62.0508 12.1513 754 93.2281 991.005 516.552
637 0 62.0681 11.858 736 96.0326 990.808 516.26
638 0 64.0436 11.539 739 97.23 991.866 515.318
639 0 67.0156 12.7433 854 93.3244 991.303 513.184
640 0 70.0269 12.2667 859 95.6391 990.637 511.113
641 0 70.0318 11.9945 840 100.062 990.948 511.15
642 0 75.0488 12.4719 936 98.6699 990.639 510.142
643 0 76.0471 12.0978 920 100.941 990.928 508.466
644 0 79.0349 12.4629 985 101.169 991.421 505.288
645 0 81.0673 12.4341 1008 101.878 991.418 505.461
646 0 86.0286 12.5656 1081 101.616 991.524 503.977
647 0 86.0514 12.5971 1084 104.02 991.615 501.633
648 0 91.0416 12.2801 1118 104.8 992.19 500.065
649 0 94.0348 12.3784 1164 104.435 991.701 498.748
650 1 47.0316 10.8225 509 108.255 991.491 520.244
651 0 48.0555 10.9457 526 108.734 991.182 518.842
652 0 50.0403 11.6106 581 104.797 990.465 518.11
653 0 52.035 11.5883 603 103.617 990.75 518.292
654 0 52.0091 12.4594 648 111.199 990.745 516.866
655 0 54.0791 12.6296 683 107.832 991.425 518.685
656 0 55.0604 12.6225 695 109.486 992.075 516.187
657 0 58.0976 12.3757 719 109.04 991.502 515.737
658 0 59.1105 12.0791 714 110.997 992.214 514.688
659 0 61.0923 12.7839 781 107.969 992.261 514.48
660 0 62.0855 12.4828 775 108.466 992.141 513.488
661 0 63.0631 12.4003 782 108.407 991.905 511.588
662 0 66.04 12.2956 812 108.903 990.589 511.181
663 0 68.1219 12.5363 854 108.663 991.078 509.744
664 0 71.0614 12.7495 906 106.595 990.539 509.298
665 0 71.0521 12.0616 857 110.383 990.809 506.952
666 0 73.0916 12.2039 892 109.7 991.642 507.748
667 0 76.0917 12.4192 945 109.067 991.673 506.514
668 0 79.1372 12.7121 1006 107.603 991.549 505.861
669 0 80.1614 12.9489 1038 107.171 991.193 503.537
670 0 83.0941 12.4317 1033 108.901 991.112 502.364
671 0 84.0951 12.8307 1079 106.895 990.9 500.889
672 0 86.0505 12.4578 1072 107.725 991.15 501.653
673 0 89.0238 12.1204 1079 107.75 990.373 499.235
674 0 91.0543 12.0697 1099 109.478 990.572 496.399
675 0 93.087 12.5044 1164 107.833 990.954 494.834
676 0 97.0776 12.4746 1211 107.089 991.193 494.386
677 0 100.057 12.1731 1218 107.073 991.327 492.004
678 0 103.037 12.6751 1306 102.722 991.582 491.791
679 0 105.068 12.0399 1265 103.3 991.815 489.977
680 0 110.059 12.2662 1350 101.46 991.913 487.82
681 1 54.0346 10.993 594 96.6582 991.024 515.838
682 0 57.0306 11.3097 645 95.4388 989.819 515.524
683 0 58.0448 11.7151 680 95.8235 990.197 514.988
684 0 60.0126 12.6973 762 92.3373 991.552 514.142
685 0 64.1064 12.4637 799 99.2253 991.924 513.327
686 0 65.09 12.6133 821 100.086 992.178 511.603
687 0 66.078 12.6063 833 98.7995 992.281 510.941
688 0 71.077 12.5076 889 96.9145 992.02 510.459
689 0 73.0574 12.6339 923 96.4594 992.294 509.57
690 0 73.0452 12.0747 882 98.5181 992.326 508.31
691 0 76.0703 12.3044 936 96.0972 992.077 507.209
692 0 78.0474 12.3771 966 95.1449 990.887 506.242
693 0 81.1032 12.5149 1015 94.3182 991.229 505.162
694 0 83.0978 12.383 1029 96.7949 991.703 503.593
695 0 86.0844 12.8711 1108 95.1742 990.688 502.4
696 0 89.1377 13.3277 1188 94.4394 991.007 501.835
697 0 92.1844 13.1801 1215 95.1086 991.553 497.184
698 0 94.0766 12.9044 1214 94.8015 991.069 499.236
699 0 94.1524 11.7257 1104 96.7935 991.626 496.942
700 0 98.0896 12.1725 1194 94.1172 991.801 495.033
701 1 54.0274 10.9204 590 89.617 991.393 519.198
702 0 56.0774 10.6638 598 89.1438 991.274 519.933
703 0 59.044 11.3813 672 88.1265 991.503 516.292
704 0 61.0726 11.6419 711 87.3516 991.231 516.8
705 0 63.0992 11.886 750 87.472 991.492 515.767
706 0 64.1347 11.0081 706 90.5382 991.841 514.738
707 0 66.1665 10.9421 724 90.587 992.108 514.772
708 0 68.0465 11.7126 797 89.7428 991.398 513.405
709 0 70.0253 11.6244 814 90.4988 991.027 512.714
710 0 72.0451 11.1319 802 91.6135 990.535 512.838
711 0 72.043 11.6319 838 93.3138 989.672 510.394
712 0 75.0649 11.4834 862 93.3678 990.339 509.331
713 0 78.0377 11.0844 865 94.963 990.575 509.288
714 0 80.0945 11.3366 908 95.0672 991.089 508.717
715 0 84.1301 11.5535 972 96.6224 991.069 505.473
716 0 83.1121 11.7793 979 99.6425 991.307 504.978
717 0 89.0793 11.5964 1033 101.372 991.624 502.794
718 0 90.1499 11.5918 1045 105.318 991.724 502.449
719 0 92.3087 11.5157 1063 104.358 990.987 500.533
720 0 95.1394 11.3307 1078 105.161 990.148 497.262
721 0 96.2645 11.2503 1083 107.584 990.722 496.803
722 0 101.19 12.0862 1223 106.426 990.657 495.044
723 0 103.31 12.0318 1243 108.052 990.516 491.394
724 0 108.319 12.0016 1300 108.378 990.207 490.503
725 0 109.23 11.929 1303 108.036 990.749 488.711
726 0 112.144 11.9935 1345 109.034 991.094 487.432
727 0 115.156 11.3585 1308 111.057 990.57 484.878
728 0 121.226 12.1427 1472 108.439 990.096 484.204
729 0 125.116 11.7252 1467 108.868 989.301 482.308
730 1 66.0761 10.9268 722 104.83 989.69 510.058
731 0 67.0879 10.9558 735 104.899 990.249 507.912
732 0 69.035 10.4585 722 104.759 990.604 511.075
733 0 72.0616 10.8518 782 102.781 990.591 508.235
734 0 77.0586 11.1344 858 98.4277 990.803 506.953
735 0 78.0519 11.3899 889 100.01 991.286 505.47
736 0 81.0526 10.5117 852 101.799 991.312 503.004
737 0 85.0491 11.6521 991 97.9596 991.332 502.381
738 0 85.0406 10.7596 915 100.638 990.902 500.637
739 0 90.0593 11.2037 1009 98.5907 990.424 498.1
740 0 91.0844 11.0776 1009 99.3637 990.761 493.971
741 0 93.0626 10.9818 1022 99.5969 990.266 493.214
742 0 97.0771 10.7749 1046 99.6032 990.149 489.181
743 1 48.0258 9.61983 462 97.658 991.305 513.89
744 0 51.0291 10.445 533 97.7073 989.961 514.265
745 0 54.0346 10.9004 589 91.3022 989.216 517.229
746 0 54.04 10.7883 583 94.0686 990.103 517.334
747 0 57.1269 10.7655 615 94.1203 990.026 516.33
748 0 58.066 10.7464 624 94.5192 989.482 516.026
749 0 59.0614 11.0055 650 94.4692 988.414 513.197
750 0 61.0637 10.1042 617 96.2042 988.182 513.301
751 0 64.0746 11.2369 720 93.1153 989.14 511.324
752 0 63.0667 10.6237 670 96.2866 989.084 508.966
753 0 67.067 10.8101 725 95.7062 989.414 507.988
754 0 70.0825 11.0156 772 93.3329 989.707 508.132
755 0 72.0747 11.4881 828 92.7947 989.958 506.324
756 0 74.1036 10.9037 808 93.1782 990.109 503.974
757 0 77.0536 11.8878 916 91.06 990.298 503.106
758 0 78.0799 11.3858 889 93.054 989.629 503.832
759 0 79.1195 10.9202 864 94.6933 989.729 502.159
760 0 84.1286 11.2328 945 93.2286 989.735 500.181
761 0 85.1659 11.2369 957 93.5371 989.762 496.502
762 0 88.0612 11.844 1043 92.3471 989.977 494.062
763 0 93.0823 11.5811 1078 91.8395 990.479 494.787
764 0 94.081 11.9578 1125 91.9236 990.69 492.133
765 0 96.0723 11.3873 1094 93.6362 991.372 492.15
766 0 98.0757 10.8488 1064 95.1306 990.926 488.949
767 1 50.0324 10.1934 510 92.598 990.676 514.451
768 0 50.0359 9.65308 483 95.2671 990.064 513.209
769 0 52.0117 9.95929 518 93.5946 990.004 512.313
770 0 55.0146 10.2518 564 93.2855 990.48 510.732
771 0 58.0143 11.2903 655 90.4718 990.444 513.272
772 0 58.0304 11.3389 658 90.9559 991.246 512.419
773 0 58.0827 10.2784 597 93.536 992.117 513.843
774 0 63.0792 11.1606 704 91.4631 992.19 511.876
775 0 64.0855 10.7357 688 94.3488 992.1 508.212
776 0 66.1893 11.5729 766 92.1775 990.824 507.871
777 0 69.0894 11.1305 769 93.9571 991.104 506.492
778 0 69.065 10.9896 759 94.8946 990.601 506.951
779 0 71.1463 10.8368 771 95.869 990.549 502.578
780 0 75.1074 11.9163 895 94.0771 990.223 503.983
781 0 77.1042 11.1148 857 95.8028 991.245 502.3
782 0 78.0345 11.2258 876 96.3425 991.7 502.49
783 0 80.0558 11.3796 911 96.2569 991.701 498.971
784 0 83.0427 11.5362 958 95.7129 991.7 497.555
785 0 84.053 11.576 973 96.1305 991.244 492.536
786 0 85.0856 11.5061 979 95.0398 991.531 492.311
787 0 88.0538 11.8791 1046 94.4684 991.026 489.365
788 0 90.0418 11.5613 1041 95.3074 991.346 484.556
789 0 91.0838 11.2534 1025 96.8771 990.979 483.317
790 0 95.0739 11.2018 1065 96.8732 991.865 482.594
791 1 51.0197 8.76133 447 92.1924 992.931 506.584
792 0 53.0377 9.71007 515 90.2738 992.577 505.184
793 0 55.0242 9.52309 524 91.1718 993.031 504.328
794 0 58.0606 8.73226 507 87.8895 992.223 504.055
795 0 60.0361 9.2944 558 83.5 992.346 501.027
796 0 62.0854 9.26143 575 84.9913 993.28 501.16
797 0 66.061 9.55178 631 83.2139 992.266 501.924
798 0 71.0192 9.72976 691 82.534 992.097 504.009
799 0 74.0226 10.3077 763 82.401 991.934 504.436
800 0 75.0475 10.1536 762 84.7782 992.289 503.169
801 0 78.0737 11.1689 872 87.2856 992.892 505.393
802 0 82.0355 10.8855 893 88.7604 993.21 503.759
803 0 86.0699 11.6068 999 88.1461 992.879 504.007
804 0 90.078 11.6788 1052 88.4743 992.775 502.96
805 0 90.0726 11.1355 1003 91.7109 991.672 498.578
806 0 95.121 11.827 1125 89.2133 991.896 497.164
807 0 96.1069 11.0398 1061 91.5099 991.784 495.151
808 1 53.1133 9.82805 522 80.2759 991.169 519.046
809 0 56.1131 10.764 604 81.5116 990.566 517.93
810 0 57.1383 11.6384 665 85.6075 990.842 518.711
811 0 61.0974 11.6699 713 81.8513 990.296 519.316
812 0 61.073 11.2325 686 84.0991 989.888 518.22
813 0 64.0816 11.6414 746 83.2909 990.847 517.548
814 0 63.0376 11.5804 730 87.2767 991.462 516.744
815 0 65.1024 11.8736 773 86.1397 991.131 516.329
816 0 66.1012 12.2842 812 85.4618 991.131 516.893
817 0 68.0907 12.3071 838 85.3365 991.042 514.209
818 0 72.0757 12.0152 866 85.3568 990.816 513.866
819 0 73.0749 12.0835 883 87.2718 989.678 511.626
820 0 76.0468 13.5048 1027 83.8987 989.716 511.338
821 0 78.054 12.0173 938 88.0672 989.751 508.811
822 0 82.0676 13.4889 1107 84.9286 989.566 507.165
823 0 84.0802 13.5942 1143 85.9939 989.72 506.032
824 0 84.1881 11.9019 1002 92.0419 989.895 507.29
825 0 88.0954 12.5659 1107 90.3279 990.105 505.052
826 1 45.0131 11.4189 514 95.4728 991.286 526.821
827 0 47.0661 11.367 535 96.2299 991.83 524.71
828 0 51.1253 12.3227 630 91.7143 991.524 523.236
829 0 51.0965 12.1143 619 90.0759 991.365 521.649
830 0 54.0929 11.8315 640 96.4297 990.977 522.669
831 0 56.082 11.287 633 99.91 990.422 522.42
832 0 57.1304 11.6925 668 98.7575 990.087 521.385
833 0 58.0757 11.6228 675 98.9378 989.621 520.711
834 0 59.1038 11.9789 708 96.9944 989.661 520.346
835 0 59.0797 11.8992 703 98.2831 990.08 520.676
836 0 60.1192 11.9596 719 99.032 989.729 518.56
837 0 62.0862 11.9994 745 97.7973 989.816 517.083
838 0 66.0664 12.0031 793 95.4653 989.531 515.409
839 0 68.103 12.5105 852 93.7852 990.024 514.67
840 0 70.107 12.3383 865 92.259 989.791 513.236
841 0 71.0829 12.1689 865 93.3133 989.412 510.635
842 0 75.1022 12.5829 945 92.1132 989.414 509.611
843 0 77.1682 12.1812 940 92.8819 988.772 507.451
844 0 80.1066 11.6095 930 91.4484 988.342 507.026
845 0 81.0562 11.9793 971 90.5747 988.423 505.137
846 0 83.082 12.0965 1005 89.8169 988.342 504.062
847 0 85.0509 12.228 1040 88.3538 988.518 500.75
848 0 87.0744 11.3926 992 89.8498 988.842 498.614
849 0 94.0748 12.8621 1210 86.1157 989.3 498.01
850 0 97.0225 12.6775 1230 85.9894 989.787 497.695
851 1 51.0293 10.3666 529 83.4159 989.705 521.318
852 0 52.0128 11.2665 586 84.0631 989.797 519.567
853 0 54.0188 11.8107 638 86.5423 988.699 519.249
854 0 55.0165 11.96 658 85.8754 989.502 517.336
855 0 57.0577 12.5662 717 76.7671 989.432 517.149
856 0 57.0593 12.1453 693 78.7302 989.997 516.26
857 0 59.031 11.7565 694 79.4654 990.023 516.086
858 0 61.0341 12.0588 736 79.2704 990.202 516.022
859 0 63.0922 11.9825 756 79.5873 990.247 514.78
860 0 64.0405 11.8363 758 79.9222 990.704 514.201
861 0 66.0421 12.2346 808 78.3738 990.343 513.481
862 0 67.0659 12.197 818 79.1345 990.11 511.051
863 0 71.044 12.1896 866 79.0277 989.501 510.218
864 0 72.0415 12.7982 922 78.3558 989.333 509.458
865 0 76.054 13.1749 1002 76.99 989.804 508.313
866 0 78.0431 12.5572 980 86.3051 990.045 506.617
867 0 81.0449 12.6967 1029 85.5374 990.61 504.563
868 0 83.0619 12.0753 1003 86.2542 990.247 503.329
869 0 85.1394 12.1565 1035 86.3478 990.259 501.242
870 0 84.1208 11.9233 1003 88.0718 989.648 499.527
871 0 89.1354 11.7574 1048 87.6584 990.198 497.94
872 0 90.0822 11.7892 1062 86.8277 989.553 497.584
873 0 95.0621 12.6549 1203 84.724 990.391 495.766
874 0 96.0694 12.8345 1233 84.5912 990.208 496.109
875 0 96.0941 11.187 1075 83.0037 990.072 496.505
876 0 100.063 12.2523 1226 81.6419 989.478 494.806
877 0 102.074 11.7757 1202 83.4043 989.753 492.845
878 0 106.194 11.3189 1202 82.0108 990.213 491.338
879 0 110.148 11.4845 1265 81.4403 989.987 490.545
880 1 60.1246 10.8608 653 81.1945 990.289 513.773
881 0 62.0717 10.8262 672 79.1979 990.174 513.193
882 0 65.0362 11.2553 732 74.235 990.023 512.273
883 0 67.0464 11.8873 797 73.3952 989.556 512.336
884 0 68.0313 11.4506 779 75.3979 989.745 512.958
885 0 71.0598 12.4543 885 73.9356 989.629 510.638
886 0 73.0437 11.322 827 76.7944 989.203 507.206
887 0 77.0441 11.4739 884 76.2353 989.223 504.95
888 0 79.0783 11.2167 887 77.8196 989.669 504.278
889 0 84.0507 12.1831 1024 76.1338 989.629 502.509
890 0 86.0631 11.8866 1023 77.0088 989.497 500.665
891 0 90.0516 11.8377 1066 77.2505 988.944 499.19
892 0 90.0778 11.8897 1071 79.1485 989.415 498.559
893 0 94.0834 11.628 1094 81.0759 988.949 497.419
894 0 99.1082 12.4813 1237 79.3015 988.24 496.394
895 0 101.081 12.0497 1218 81.2718 988.826 493.306
896 0 104.158 12.2218 1273 81.4627 989.14 492.149
897 1 53.0724 10.4574 555 83.8739 989.899 517.141
898 0 56.0683 11.8605 665 81.6842 989.412 514.914
899 0 57.0897 11.298 645 82.2465 989.308 515.814
900 0 59.0548 11.9889 708 84.435 989.199 512.685
901 0 59.0947 12.2854 726 83.438 990.168 514.227
902 0 62.0404 11.9277 740 83.4446 990.385 514.208
903 0 64.0162 11.7002 749 84.3204 990.55 511.509
904 0 65.0462 12.1452 790 83.9582 990.373 511.019
905 0 66.043 11.8256 781 85.2087 989.91 508.907
906 0 67.0372 11.6055 778 85.3213 989.636 507.757
907 0 70.0726 11.7878 826 85.0048 990.352 506.948
908 0 73.068 11.4551 837 84.8518 990.552 505.283
909 0 75.0671 11.8561 890 85.4202 990.934 502.853
910 0 76.0215 11.4573 871 86.5075 991.381 502.9
911 0 80.0221 12.0092 961 85.1061 990.466 501.322
912 0 83.0902 12.7211 1057 84.0407 990.652 499.655
913 0 84.0918 11.7372 987 86.4813 990.36 498.572
914 0 90.0444 12.9048 1162 82.7496 989.859 497.893
915 1 48.0109 11.914 572 83.5245 990.171 518.986
916 0 49.0235 11.8923 583 85.1406 990.997 517.497
917 0 53.0244 12.8997 684 81.7208 990.399 516.184
918 0 54.2101 13.3554 724 81.7044 990.841 515.025
919 0 55.0108 12.2885 676 82.4601 990.219 517.034
920 0 55.0346 11.9561 658 84 990.158 516.904
921 0 57.041 12.903 736 81.7582 989.164 517.894
922 0 59.044 12.6008 744 82.2849 988.708 515.396
923 0 61.0138 12.8823 786 81.5038 989.766 514.159
924 0 62.0207 12.0766 749 83.5354 989.142 513.268
925 0 64.0861 12.6392 810 82.6877 989.136 511.794
926 0 65.0349 12.7162 827 83.1064 989.346 510.271
927 0 70.0537 12.4904 875 83.2617 989.129 509.374
928 0 71.0545 12.61 896 83.106 989.958 506.06
929 0 74.1983 12.9787 963 81.6895 989.433 505.778
930 0 76.0536 12.1888 927 82.8986 988.252 505.41
931 0 81.1522 12.9017 1047 81.914 987.614 504.854
932 0 83.1939 12.9577 1078 82.3043 988.216 501.646
933 0 84.083 12.3212 1036 83.556 988.475 501.755
934 0 88.0909 12.7595 1124 82.0872 988.462 500.544
935 0 92.1725 12.661 1167 82.0643 988.746 498.02
936 0 95.1728 12.388 1179 82.0339 988.914 496.884
937 1 50.0865 10.2622 514 84.3521 988.825 517.969
938 0 50.076 10.2844 515 82.7903 988.784 516.668
939 0 52.1016 11.324 590 82.3475 988.086 515.161
940 0 56.0642 11.8436 664 81.9895 988.681 518.881
941 0 58.0677 11.8482 688 80.1468 988.278 520.459
942 0 59.0135 12.6581 747 78.66 988.522 520.376
943 0 59.0434 11.9404 705 80.0965 988.739 518.455
944 0 62.0363 11.6222 721 80.1956 988.8 517.628
945 0 66.0748 12.3042 813 77.8967 988.887 516.813
946 0 67.0926 12.1474 815 79.1215 988.631 515.374
947 0 68.0639 12.0181 818 80.011 988.5 510.637
948 0 69.0918 11.5788 800 82.3912 988.391 510.272
949 0 73.0733 12.3985 906 80.9183 987.769 508.476
950 0 76.0354 12.6388 961 79.6701 988.494 506.979
951 0 79.0694 12.6092 997 88.6269 987.861 507.886
952 0 81.065 12.2248 991 91.4712 989.03 506.378
953 0 84.0518 12.0164 1010 91.7644 988.527 505.074
954 0 87.0608 12.6348 1100 91.3118 989.408 501.947
955 0 90.1106 12.5291 1129 83.822 989 501.192
956 0 91.1362 12.2893 1120 81.9321 988.846 496.246
957 0 94.0879 11.8931 1119 83.3905 989.573 494.802
958 0 96.0789 11.9901 1152 84.0903 989.407 495.436
959 0 101.073 11.9814 1211 83.3749 989.211 494.068
960 0 105.114 11.6635 1226 83.7814 988.006 492.344
961 0 109.061 12.3876 1351 84.1843 989.051 491.771
962 1 58.0336 11.9241 692 129.189 988.861 516.666
963 0 62.0211 12.0282 746 80.1997 988.989 515.869
964 0 62.0528 11.5547 717 81.6137 989.169 516.149
965 0 63.0674 11.5432 728 82.6264 989.453 514.412
966 0 68.035 12.3319 839 81.0203 989.489 510.694
967 0 69.0458 11.7313 810 82.263 989.844 513.047
968 0 72.0502 12.297 886 81.5418 988.823 512.696
969 0 74.0358 12.1158 897 82.5853 988.603 509.079
970 0 78.0596 12.5417 979 82.0194 988.722 507.127
971 0 80.1046 12.8832 1032 81.4661 988.97 506.129
972 0 81.0947 12.3683 1003 82.654 988.787 503.223
973 0 85.0592 11.9916 1020 82.9029 988.81 502.168
974 0 86.0646 11.503 990 84.5242 989.39 500.364
975 0 89.0499 11.9259 1062 83.162 990.034 499.242
976 0 92.0812 12.0111 1106 83.4539 990.277 497.944
977 0 96.1144 12.5788 1209 81.5964 990.724 496.707
978 1 51.0807 10.7085 547 83.5612 990.424 519.441
979 0 53.0671 11.0426 586 90.9147 991.594 519.594
980 0 53.0362 11.5959 615 92.3447 991.639 518.171
981 0 55.0614 11.7142 645 89.0946 991.326 518.157
982 0 58.0269 11.7015 679 78.162 990.916 517.339
983 0 56.0288 11.1193 623 80.0466 991.026 517.026
984 0 61.0254 12.6013 769 76.4148 990.547 515.88
985 0 62.0203 11.3834 706 79.4844 990.688 516.443
986 0 64.0381 11.9304 764 79.2893 990.698 514.194
987 0 67.0122 12.4753 836 78.5514 990.309 513.679
988 0 68.0107 11.9393 812 79.9877 990.006 513.382
989 0 70.0207 11.9822 839 81.6532 990.167 512.242
990 0 72.0182 12.719 916 82.1277 990.864 510.047
991 0 74.0482 12.0192 890 85.0697 990.253 508.924
992 0 77.0445 12.6031 971 85.3605 989.562 507.736
993 0 79.0436 12.9802 1026 85.693 990.942 506.511
994 0 82.0972 12.875 1057 86.5317 990.311 505.528
995 0 84.0467 12.7905 1075 87.8502 990.554 503.558
996 0 86.09 12.9283 1113 88.2183 990.628 502.371
997 0 89.1448 12.6536 1128 89.328 989.784 502.503
998 0 91.1024 12.5573 1144 90.9939 990.297 499.223
999 0 93.0533 11.8964 1107 92.8871 990.34 499.369
1000 0 96.1592 12.3961 1192 92.1183 990.651 497.554
1001 1 49.1278 11.236 552 94.8714 990.049 518.511
1002 0 52.0288 12.0126 625 93.7472 990.71 517.442
1003 0 53.092 11.9227 633 96.6777 990.842 516.458
1004 0 54.0788 12.6297 683 95.4231 991.296 516.52
1005 0 55.0181 12.5413 690 94.0319 991.878 517.467
1006 0 58.06 12.3837 719 93.975 991.74 516.74
1007 0 59.0094 12.7946 755 94.3497 991.49 515.372
1008 0 61.0274 12.4534 760 96.05 991.697 513.141
1009 0 65.0253 12.672 824 95.415 990.6 512.05
1010 0 66.0158 12.8757 850 96.6435 990.629 510.136
1011 0 68.0366 12.508 851 98.6063 990.792 508.866
1012 0 70.0508 13.1619 922 97.4197 991.33 508.11
1013 0 72.0301 12.6336 910 100.198 990.749 507.423
1014 0 73.1023 13.0365 953 101.504 990.409 507.052
1015 0 75.0498 13.3245 1000 101.904 990.8 504.881
1016 0 78.0977 13.0734 1021 103.695 991.328 503.936
1017 0 81.1013 14.0072 1136 101.33 991.701 502.581
1018 0 83.1475 13.2776 1104 105.119 991.856 501.552
1019 0 85.0753 13.4234 1142 106.61 991.821 500.616
1020 0 86.1499 13.1979 1137 107.869 990.904 498.454
1021 0 90.0902 13.2312 1192 107.061 991.234 497.515
1022 0 93.0978 13.0508 1215 107.601 991.489 496.119
1023 0 98.2191 13.7142 1347 105.208 992.076 494.578
1024 0 101.095 13.6505 1380 104.243 991.769 491.25
1025 1 50.0701 12.4625 624 104.934 991.641 514.917
1026 0 53.0285 12.3707 656 101.021 991.473 514.518
1027 0 53.0618 12.7587 677 101.654 991.765 514.052
1028 0 56.0303 13.2785 744 100.897 991.396 512.703
1029 0 59.0246 13.7231 810 99.9691 991.451 510.635
1030 0 60.0877 13.3804 804 101.092 991.524 510.063
1031 0 63.0957 13.329 841 101.822 992.055 508.397
1032 0 65.0911 14.0265 913 100.169 991.709 506.881
1033 0 69.0367 14.1374 976 98.373 991.373 506.234
1034 0 69.0367 14.0795 972 146.334 990.372 506.186
1035 0 72.0483 13.6853 986 100.246 991.295 503.548
1036 0 73.0279 13.2278 966 102.239 991.313 503.24
1037 0 74.1132 13.277 984 102.748 990.39 501.455
1038 0 78.0336 13.1482 1026 102.171 991.35 499.968
1039 0 82.105 13.3 1092 100.473 990.732 499.286
1040 0 84.0386 13.47 1132 99.7102 990.784 497.539
1041 0 87.0586 13.2095 1150 99.513 991.535 496.295
1042 0 90.0717 13.2228 1191 98.9295 991.479 493.99
1043 0 94.0763 13.2977 1251 97.9824 991.125 491.787
1044 0 97.0805 13.1849 1280 97.4359 990.748 488.647
1045 1 47.0346 11.2045 527 102.765 990.135 513.047
1046 0 48.0586 11.9854 576 100.802 990.13 511.326
1047 0 52.0408 11.9522 622 99.5129 990.979 510.789
1048 0 56.022 13.2091 740 93.123 991.331 510.954
1049 0 58.0648 13.106 761 92.4244 990.846 508.201
1050 0 57.04 11.7111 668 97.253 990.734 509.055
1051 0 58.0713 12.2952 714 95.7633 991.202 507.85
1052 0 62.0726 12.5337 778 93.32 991.554 507.798
1053 0 61.0314 12.4035 757 94.3144 991.168 506.085
1054 0 65.0237 12.3647 804 96.857 991.298 507.029
1055 0 68.0392 13.0954 891 95.1145 991.037 504.218
1056 0 70.0359 12.3365 864 97.2431 991.359 503.264
1057 0 73.0342 12.3778 904 94.7732 991.971 504.549
1058 0 72.0363 11.994 864 96.978 992.221 503.713
1059 0 76.0498 12.3998 943 95.3213 991.732 502.424
1060 0 75.073 11.5354 866 97.94 991.485 498.34
1061 0 85.0692 13.0364 1109 94.8747 991.294 498.807
1062 0 80.0995 11.5356 924 97.3355 991.371 498.543
1063 0 85.0751 12.3538 1051 94.49 991.216 496.968
1064 0 87.0592 12.0608 1050 94.9581 991.042 494.948
1065 0 90.0308 11.7849 1061 94.5523 990.694 494.545
1066 0 94.054 12.025 1131 92.9974 990.91 491.84
1067 0 99.0788 12.5153 1240 91.204 991.157 488.869
1068 0 103.076 12.5442 1293 90.9188 990.975 488.832
1069 0 109.101 12.5939 1374 90.2802 991.009 478.095
1070 0 114.098 13.3481 1523 88.8444 991.47 479.307
1071 0 121.223 13.5618 1644 90.3133 991.35 480.71
1072 1 62.0288 11.543 716 88.2179 991.592 514.592
1073 0 62.0449 10.9598 680 91.0221 989.938 515.56
1074 0 65.0522 11.5907 754 90.9814 990.625 513.874
1075 0 68.0687 11.5472 786 90.8104 989.945 513.193
1076 0 70.0281 11.9666 838 89.8675 991.112 512.385
1077 0 73.0817 12.1782 890 90.382 989.766 513.116
1078 0 76.1172 11.929 908 91.2115 990.123 510.537
1079 0 76.0896 12.3407 939 91.6592 990.325 510.894
1080 0 80.0672 12.5145 1002 93.0669 990.533 508.748
1081 0 83.1005 12.1901 1013 94.2823 990.877 506.894
1082 0 84.0402 12.3036 1034 94.3801 991.053 504.969
1083 0 85.0691 12.3782 1053 94.4065 990.804 504.005
1084 0 89.0657 12.1371 1081 94.8612 990.909 502.535
1085 0 90.0399 11.717 1055 96.018 990.536 500.479
1086 0 92.0941 12.0095 1106 95.1175 990.462 499.784
1087 0 96.0306 12.1315 1165 94.0386 990.624 496.957
1088 0 99.075 11.7386 1163 93.2528 990.913 494.857
1089 0 102.065 11.4143 1165 106.422 990.734 494.036
1090 0 107.12 11.9305 1278 104.025 990.919 492.311
1091 0 111.088 12.2966 1366 104.388 991.097 490.253
1092 0 114.079 12.5527 1432 103.709 991.065 489.392
1093 1 64.1181 10.4495 670 96.1 989.506 517.146
1094 0 66.0855 11.4246 755 92.4768 989.78 515.685
1095 0 68.1008 11.0278 751 94.4634 989.804 513.726
1096 0 70.0902 11.6707 818 90.7115 990.74 514.48
1097 0 71.0565 11.4557 814 92.1253 990.362 512.676
1098 0 72.1109 11.0108 794 94.3866 990.679 511.225
1099 0 76.0923 11.3283 862 93.181 992.429 511.857
1100 0 79.0343 11.5266 911 92.9528 992.336 510.806
1101 0 80.0584 11.7789 943 93.0392 991.962 507.119
1102 0 82.1206 11.3613 933 93.9121 991.498 505.941
1103 0 87.0698 11.4391 996 92.8795 991.219 505.112
1104 0 88.035 11.4727 1010 93.0594 991.247 503.496
1105 0 91.057 12.0913 1101 91.6067 990.771 503.034
1106 0 93.1224 11.6943 1089 92.258 990.61 502.319
1107 0 95.1441 11.6035 1104 91.6241 990.382 502.692
1108 0 99.093 11.4337 1133 92.9479 990.701 498.525
1109 0 101.071 11.7047 1183 93.552 990.904 498.593
1110 0 105.174 11.9991 1262 97.2615 990.855 496.076
1111 0 106.125 11.722 1244 99.6342 990.958 492.695
1112 0 107.118 10.9318 1171 95.6217 991.013 494.46
1113 1 60.0844 10.1025 607 90.7166 991.376 518.395
1114 0 60.0713 11.0202 662 89.8082 991.199 517.269
1115 0 63.0496 11.0389 696 89.4885 990.457 516.118
1116 0 64.049 11.7879 755 93.1695 990.601 515.343
1117 0 66.0596 10.8992 720 96.2236 990.703 514.325
1118 0 68.0486 11.2567 766 96.4843 991.056 512.86
1119 0 71.0558 11.3854 809 97.2447 990.473 511.231
1120 0 72.0834 11.0983 800 99.1675 990.65 511.264
1121 0 76.0658 11.3454 863 98.9073 991.036 511.098
1122 0 78.1328 11.506 899 99.6007 990.227 509.049
1123 0 81.1259 11.476 931 100.561 990.719 506.835
1124 0 84.1288 11.7201 986 102.153 989.626 505.31
1125 0 85.0813 12.0708 1027 104.098 989.676 504.292
1126 0 87.0835 12.0918 1053 105.65 989.291 503.785
1127 0 92.0952 12.0962 1114 105.486 989.344 501.738
1128 0 94.182 12.4015 1168 106.262 990.314 500.432
1129 0 97.1289 12.2312 1188 107.822 990.127 498.597
1130 0 102.116 12.6523 1292 107.106 990.445 496.558
1131 0 104.132 13.31 1386 107.688 990.424 496.162
1132 1 55.0898 10.6735 588 112.386 989.767 522.299
1133 0 56.0288 10.9051 611 110.704 990.084 522.232
1134 0 57.057 11.1993 639 102.61 990.365 521.174
1135 0 58.0219 11.8576 688 103.185 990.849 520.762
1136 0 61.0465 11.3356 692 104.935 989.692 521.462
1137 0 61.0469 11.2045 684 101.326 990.684 517.689
1138 0 63.0515 11.1179 701 103.728 989.853 516.996
1139 0 66.0532 11.8389 782 103.519 990.54 516.638
1140 0 66.1424 11.7776 779 107.478 990.51 516.074
1141 0 69.1018 12.9085 892 109.74 990.758 515.59
1142 0 70.0979 12.0546 845 115.32 990.494 514.108
1143 0 73.0701 12.577 919 115.564 990.154 512.446
1144 0 76.1335 13.3581 1017 113.075 990.662 513.097
1145 0 78.1113 12.9047 1008 118.468 990.643 511.605
1146 0 79.0507 13.6495 1079 119.437 990.61 511.966
1147 0 84.0902 13.2834 1117 126.797 989.907 510.226
1148 0 85.074 12.9769 1104 129.968 989.925 508.464
1149 0 89.1095 13.3768 1192 113.933 989.73 506.471
1150 0 90.156 13.7318 1238 113.709 990.184 506.232
1151 0 90.1642 12.9874 1171 117.961 990.243 505.487
1152 0 94.1191 13.1535 1238 117.931 989.795 503.752
1153 0 97.1266 13.6935 1330 117.06 989.209 502.973
1154 0 100.094 13.5572 1357 118.146 989.293 501.74
1155 0 100.078 13.5294 1354 121.392 990.158 500.091
1156 0 104.136 13.0791 1362 123.022 990.134 498.836
1157 0 107.152 13.3736 1433 122.517 989.649 497.225
1158 0 111.227 14.1063 1569 119.523 990.372 495.796
1159 0 114.166 13.8045 1576 121.008 988.997 491.494
1160 0 116.135 13.9579 1621 121.269 989.676 489.691
1161 1 61.0351 11.9112 727 117.717 989.765 521.454
1162 0 61.0584 12.267 749 118.095 987.521 517.19
1163 0 64.0344 12.1497 778 118.704 989.311 519.118
1164 0 64.0296 12.6816 812 118.671 989.409 517.736
1165 0 67.0476 12.946 868 117.225 989.682 517.047
1166 0 67.0498 12.5877 844 118.326 989.244 516.553
1167 0 69.0416 12.8184 885 118.148 989.798 513.954
1168 0 74.0667 12.6643 938 115.682 989.359 513.84
1169 0 75.0514 12.8712 966 115.178 990.424 512.212
1170 0 77.0516 12.6279 973 115.936 990.429 511.965
1171 0 78.0428 12.5188 977 117.895 990.161 510.707
1172 0 80.1135 12.4074 994 118.407 989.843 509.867
1173 0 84.0914 12.5934 1059 118.023 989.297 507.73
1174 0 85.1023 12.6554 1077 119.536 989.392 506.032
1175 0 88.0433 11.96 1053 122.016 989.758 505.171
1176 0 91.0548 12.498 1138 119.848 989.895 505.401
1177 0 92.043 12.6463 1164 121.015 989.72 502.406
1178 0 96.0646 12.3355 1185 120.815 989.534 501.487
1179 0 96.0329 12.4541 1196 121.239 989.879 500.516
1180 0 100.103 12.647 1266 119.945 990.238 499.251
1181 0 104.069 13.2124 1375 117.987 989.982 496.689
1182 0 108.157 13.2863 1437 117.984 989.141 496.168
1183 0 111.077 13.135 1459 118.775 989.269 492.03
1184 0 115.052 13.0202 1498 118.718 988.748 490.073
1185 0 118.12 13.1053 1548 118.896 988.733 488.437
1186 0 122.176 13.1286 1604 119.013 988.586 487.292
1187 1 66.0464 10.3261 682 107.933 988.839 512.103
1188 0 66.0242 10.6779 705 107.851 989.078 509.76
1189 0 71.0521 11.5549 821 110.125 988.513 511.855
1190 0 71.0535 10.6821 759 103.505 988.402 513.771
1191 0 73.0742 11.1804 817 101.919 987.645 514.404
1192 0 77.1209 11.4625 884 99.802 987.536 513.097
1193 0 77.0615 10.4202 803 101.494 987.473 511.29
1194 0 80.146 10.9051 874 99.8856 988.421 511.006
1195 0 84.0287 10.8296 910 100.292 988.264 510.125
1196 0 86.0656 10.3061 887 101.247 988.665 508.698
1197 0 89.1027 11.3689 1013 97.0898 989.072 508.334
1198 0 91.0985 11.0101 1003 99.9761 989.202 506.566
1199 0 94.049 10.3244 971 101.654 989.104 504.03
1200 0 98.0525 10.4842 1028 99.751 989.258 503.558
1201 0 101.162 10.7057 1083 97.9991 989.239 502.215
1202 1 54.0164 10.2006 551 94.7477 988.107 523.278
1203 0 56.0192 11.2997 633 92.9084 988.621 522.068
1204 0 59.099 10.254 606 94.8069 988.432 519.462
1205 0 60.0966 11.4982 691 91.1288 988.831 519.886
1206 0 62.084 10.7435 667 92.3223 988.831 518.748
1207 0 63.0207 10.6156 669 93.2287 989.102 518.716
1208 0 66.0528 11.0366 729 104.919 989.23 516.837
1209 0 68.1191 11.0835 755 111.87 989.972 514.33
1210 0 72.0776 10.891 785 101.575 989.503 515.417
1211 0 74.086 11.1087 823 99.4192 989.013 512.825
1212 0 75.0987 10.8524 815 100.726 988.294 510.897
1213 0 77.1117 10.5431 813 101.747 988.299 510.09
1214 0 81.1056 10.7268 870 99.3391 988.42 510.405
1215 0 82.0767 10.7339 881 100.361 989.262 509.058
1216 0 86.0521 11.005 947 97.1257 989.276 508.06
1217 0 88.0464 11.0964 977 96.8997 989.198 505.083
1218 0 91.0501 9.91761 903 96.3699 989.236 506.257
1219 0 94.0546 10.5577 993 95.3223 989.498 503.585
1220 0 95.0801 9.98106 949 95.705 989.218 504.662
1221 0 99.0656 9.64007 955 96.422 988.491 503.13
1222 0 100.085 9.31205 932 98.1427 987.954 499.3
1223 0 104.062 9.10995 948 97.2141 988.665 499.674
1224 1 56.0498 9.59861 538 90.1357 989.714 521.028
1225 0 57.0519 9.71046 554 91.435 989.821 520.338
1226 0 58.0733 10.6762 620 90.1016 989.266 518.135
1227 0 60.0977 10.5661 635 90.1008 989.726 518.189
1228 0 64.1149 10.528 675 101.575 990.422 515.542
1229 0 66.1052 10.8615 718 98.383 990.864 514.563
1230 0 69.0439 11.2103 774 96.0633 990.322 511.894
1231 0 71.0722 10.8059 768 96.3555 990.417 511.32
1232 0 72.0817 11.0708 798 95.3784 990.238 510.619
1233 0 74.0708 10.841 803 94.3811 989.955 509.968
1234 0 73.0899 10.7539 786 95.1679 989.852 507.135
1235 0 78.1061 11.6636 911 91.6872 990.612 506.676
1236 0 78.1054 11.062 864 93.4317 990.637 505.78
1237 0 82.1933 10.9985 904 92.9469 990.919 505.114
1238 0 84.1935 11.1648 940 92.4468 990.452 500.629
1239 0 88.1605 11.9101 1050 89.6238 990.611 501.769
1240 0 91.1065 12.0957 1102 88.8367 990.452 500.122
1241 0 93.076 11.41 1062 87.5396 990.202 495.796
1242 0 97.1506 11.405 1108 87.4874 989.703 496.01
1243 0 100.078 11.2313 1124 88.6851 988.601 495.071
1244 0 105.07 12.6392 1328 84.9247 989.174 496.199
1245 0 107.071 12.3843 1326 86.5852 988.864 494.041
1246 0 109.096 12.7136 1387 86.429 989.827 492.971
1247 0 112.074 12.8308 1438 86.5285 990.28 490.401
1248 0 116.135 12.5458 1457 87.6863 990.053 489.561
1249 1 62.0846 10.5179 653 78.3155 990.3 516.691
1250 0 66.1796 11.2119 742 81.0067 990.063 513.373
1251 0 68.1191 11.7001 797 78.1443 989.831 515.961
1252 0 68.0586 11.0052 749 79.9065 989.957 516.239
1253 0 70.0659 11.2037 785 80.4624 990.252 513.977
1254 0 74.0983 12.0651 894 80.2931 990.036 513.777
1255 0 77.1748 12.0894 933 80.0815 989.931 512.159
1256 0 78.0991 11.511 899 80.614 989.356 510.137
1257 0 81.0447 11.4011 924 82.2695 990.95 508.981
1258 0 83.1085 12.0926 1005 82.2706 990.182 505.496
1259 0 87.0657 12.3011 1071 82.3548 990.12 506.405
1260 0 89.0498 12.3526 1100 85.2436 989.594 503.475
1261 0 93.1268 12.6924 1182 84.4171 989.651 503.758
1262 0 93.2457 12.0113 1120 87.9589 988.784 496.352
1263 0 98.2443 12.4384 1222 85.8846 989.03 498.993
1264 0 100.321 11.7124 1175 88.5481 989.119 494.65
1265 0 104.276 12.6299 1317 86.3895 989.279 496.156
1266 0 105.22 12.0414 1267 88.135 989.435 493.373
1267 1 57.1728 10.5645 604 83.7632 989.8 517.478
1268 0 58.0947 11.1026 645 82.7907 989.698 516.567
1269 0 62.0905 11.6765 725 83.6386 989.763 516.061
1270 0 64.0409 11.7893 755 80.6384 989.727 516.167
1271 0 65.1892 11.2749 735 88.9429 989.087 514.046
1272 0 68.0496 11.7708 801 87.1086 989.828 514.308
1273 0 69.1196 11.7767 814 86.5479 989.928 513.022
1274 0 70.1352 11.9341 837 84.4349 989.212 509.558
1275 0 74.0938 11.8364 877 85.8495 989.034 508.966
1276 0 78.0811 12.09 944 85.0477 989.082 508.593
1277 0 80.1145 11.8455 949 85.5901 989.888 508.226
1278 0 81.0765 11.7543 953 87.001 989.64 507.481
1279 0 82.0685 11.7341 963 88.4662 989.403 505.415
1280 0 86.0794 11.8379 1019 87.5142 989.558 503.381
1281 0 89.1707 12.134 1082 87.9067 989.056 501.154
1282 0 92.121 11.702 1078 88.4963 989.068 500.161
1283 0 94.149 11.5562 1088 90.1158 988.934 498.52
1284 0 100.154 12.2811 1230 88.235 988.918 497.68
1285 0 102.117 11.859 1211 89.4856 989.409 495.514
1286 0 105.074 12.1819 1280 89.8117 989.903 493.849
1287 0 108.103 11.7018 1265 92.7265 990.34 491.524
1288 0 113.078 12.5577 1420 90.7479 989.751 491.394
1289 0 114.143 11.8711 1355 94.0221 990.417 489.192
1290 0 120.112 12.1303 1457 94.1709 990.701 487.212
1291 0 123.22 12.4006 1528 93.7762 990.237 481.566
1292 1 66.2028 10.921 723 91.1217 991.057 512.393
1293 0 68.2459 11.2388 767 87.0365 990.349 511.039
1294 0 71.0659 11.6793 830 81.3193 990.402 512.996
1295 0 72.0952 11.8732 856 81.4217 989.68 510.084
1296 0 76.061 12.2007 928 81.3513 989.514 509.693
1297 0 77.0683 12.2618 945 82.1725 988.998 508.747
1298 0 81.1149 12.0077 974 82.3563 988.671 507.344
1299 0 85.0939 12.5156 1065 81.0338 989.198 507.108
1300 0 86.046 11.7147 1008 83.4107 989.196 504.041
1301 0 90.0949 12.3092 1109 83.2254 989.139 503.963
1302 0 93.1079 12.8023 1192 83.3767 989.094 501.08
1303 0 96.1233 12.5464 1206 85.291 989.594 500.252
1304 0 98.1049 11.7527 1153 87.8838 989.278 499.254
1305 0 102.109 11.38 1162 89.1058 989.551 497.521
1306 0 103.11 10.7749 1111 90.5464 989.535 496.02
1307 0 106.107 11.281 1197 91.3292 989.202 496.029
1308 0 110.144 11.6938 1288 93.486 988.977 492.266
1309 0 116.277 12.5304 1457 99.4743 988.404 486.629
1310 0 118.18 12.4133 1467 99.7314 988.279 486.724
1311 0 122.291 12.8627 1573 99.054 988.13 483.905
1312 0 126.23 12.6357 1595 96.7072 988.494 482.149
1313 0 130.227 12.102 1576 95.6453 988.593 481.076
1314 0 134.253 12.387 1663 94.9465 988.904 478.138
1315 1 77.1301 10.4758 808 95.4097 988.578 510.498
1316 0 76.0281 9.08874 691 93.1158 989.881 503.583
1317 0 79.0986 10.5059 831 91.1191 989.388 506.004
1318 0 80.0411 10.5571 845 89.5728 989.491 502.785
1319 0 83.0888 10.3865 863 93.1402 989.207 501.479
1320 0 85.0441 10.2888 875 92.528 989.431 498.289
1321 0 89.0461 10.736 956 90.477 989.087 497.341
1322 0 92.1474 10.3096 950 90.9242 989.099 497.487
1323 0 96.0878 10.0845 969 90.9226 989.187 496.09
1324 0 99.0755 9.9621 987 90.7842 990.451 494.513
1325 0 102.087 10.3833 1060 90.2462 990.446 492.048
1326 0 107.136 10.7527 1152 88.9575 989.793 491.33
1327 0 111.224 10.834 1205 89.6282 989.944 491.489
1328 0 112.208 9.75867 1095 92.6128 990.914 488.178
1329 0 118.132 11.1739 1320 88.2432 989.005 484.802
1330 0 119.232 10.249 1222 90.9362 989.133 482.191
1331 0 124.216 10.6106 1318 88.9165 989.436 482.218
1332 1 69.1331 9.76377 675 81.4193 989.31 509.785
1333 0 72.1071 9.43041 680 81.0029 989.204 511.374
1334 0 74.0609 9.15463 678 81.8864 988.951 508.597
1335 0 75.0768 9.55022 717 84.5858 989.803 505.483
1336 0 79.045 10.3865 821 78.7783 988.7 504.715
1337 0 82.0481 10.2623 842 79.9454 988.545 503.184
1338 0 86.0583 10.5859 911 80.6498 988.243 501.394
1339 0 88.0717 10.8321 954 82.6321 988.049 501.122
1340 0 90.1414 10.7276 967 83.7766 988.568 501.8
1341 0 93.0634 10.9173 1016 84.1939 988.758 499.378
1342 0 96.122 11.1421 1071 84.4528 988.386 496.376
1343 0 101.234 11.7648 1191 83.0403 988.889 496.073
1344 0 102.22 11.7002 1196 84.9431 988.915 493.454
1345 0 104.312 11.8107 1232 85.8945 988.924 492.064
1346 0 109.227 11.5265 1259 85.7053 988.215 490.496
1347 0 112.362 11.9258 1340 85.1224 989.016 489.796
1348 1 59.1344 9.57142 566 79.1254 988.064 516.216
1349 0 60.2363 9.84456 593 79.3794 987.649 516.789
1350 0 63.2467 10.4828 663 79.8522 987.584 513.703
1351 0 66.0865 10.683 706 80.8697 987.904 516.391
1352 0 69.0847 10.8418 749 81.7316 988.068 513.351
1353 0 70.139 10.8214 759 83.0474 987.532 513.198
1354 0 73.2415 11.9058 872 82.297 987.826 511.417
1355 0 75.158 11.6954 879 83.8714 987.703 510.367
1356 0 77.205 11.7479 907 84.6152 987.046 508.51
1357 0 79.1616 11.6597 923 86.6999 988.009 507.847
1358 0 80.3489 11.7363 943 87.3213 987.648 507.54
1359 0 84.1919 11.7945 993 88.8197 987.786 505.593
1360 0 85.226 11.5927 988 91.583 987.94 503.986
1361 0 88.127 12.0054 1058 91.1512 987.942 504.426
1362 0 90.0868 11.8108 1064 93.4398 987.992 501.536
1363 0 94.25 12.7958 1206 91.6874 987.482 501.875
1364 0 97.2916 12.8583 1251 92.8729 987.799 500.382
1365 0 100.182 12.5471 1257 94.7749 987.284 499.495
1366 0 103.16 13.0186 1343 94.9702 987.115 498.684
1367 0 105.181 12.9681 1364 96.283 987.834 496.173
1368 0 110.213 12.9658 1429 96.4626 987.98 496.836
1369 1 62.1292 10.1724 632 94.6266 989.717 514.448
1370 0 64.1104 11.371 729 92.192 989.181 517.807
1371 0 66.1065 11.5268 762 93.1325 989.327 517.049
1372 0 67.0576 11.4677 769 93.5124 989.277 517.254
1373 0 69.0498 11.9479 825 93.2339 989.44 516.496
1374 0 71.0443 11.6829 830 94.2096 989.342 515.508
1375 0 74.0698 11.9482 885 92.7458 988.366 514.51
1376 0 76.0834 12.1577 925 94.013 987.968 512.029
1377 0 77.1026 11.8154 911 91.0648 988.125 512.283
1378 0 77.0277 12.0606 929 96.2896 987.496 512.364
1379 0 78.0804 12.4743 974 92.8758 987.464 511.412
1380 0 77.0408 12.2143 941 97.2062 987.902 511.844
1381 0 78.016 11.895 928 100.691 988.042 510.6
1382 0 80.0337 12.4698 998 99.4419 988.268 510.956
1383 0 82.0151 12.5952 1033 97.0087 988.341 511.002
1384 0 83.086 12.5292 1041 96.1537 987.623 509.686
1385 0 87.1062 12.3068 1072 94.4011 986.74 508.515
1386 0 89.1098 11.7271 1045 94.1722 985.746 508.169
1387 0 94.1289 12.5041 1177 90.5624 986.156 507.149
1388 0 98.0994 12.8339 1259 88.5798 985.862 505.199
1389 0 99.167 12.9882 1288 88.2904 986.494 502.05
1390 0 103.219 12.304 1270 88.9842 986.902 502.141
1391 0 104.172 12.585 1311 89.032 986.826 500.726
1392 1 58.0233 10.8922 632 88.3117 987.5 524.791
1393 0 59.0322 11.3497 670 89.4955 988.13 523.496
1394 0 58.0265 11.3224 657 92.7169 988.484 521.072
1395 0 60.047 11.6908 702 90.443 987.08 518.89
1396 0 57.0271 9.74975 556 83.1277 987.183 513.741
1397 0 62.0205 11.9638 742 86.9245 986.462 521.377
1398 0 62.0738 11.3091 702 90.198 986.903 520.392
1399 0 66.0456 11.4315 755 90.6702 987.139 518.811
1400 0 66.013 10.9524 723 93.6916 987.667 518.621
1401 0 68.0191 11.9084 810 94.8 987.917 517.933
1402 0 70.0596 11.9041 834 95.488 987.55 517.966
1403 0 72.0457 11.6037 836 99.3445 987.028 515.97
1404 0 73.0291 12.0363 879 100.191 987.035 516.064
1405 0 75.0466 12.259 920 102.249 987.711 513.965
1406 0 76.0321 12.4027 943 104.323 988.002 514.057
1407 0 79.0353 12.0073 949 107.529 988.051 512.29
1408 0 82.0409 12.4816 1024 108.231 987.678 511.076
1409 0 83.0587 11.9193 990 111.018 987.283 509.431
1410 0 85.0397 12.1943 1037 111.47 987.206 509.29
1411 0 88.0344 12.4951 1100 110.249 987.411 507.228
1412 0 91.0265 12.0844 1100 112.819 986.539 504.589
1413 0 96.0968 12.9557 1245 111.231 986.741 504.266
1414 0 97.0455 12.3859 1202 115.172 987.523 501.25
1415 0 97.0455 12.3447 1198 141.32 988.504 501.031
1416 1 51.0374 10.4825 535 116.426 987.966 524.329
1417 0 55.0906 11.0001 606 117.911 986.556 523.843
1418 0 51.0429 10.2855 525 107.888 988.063 517.792
1419 0 56.0322 11.3149 634 104.415 988.009 523.669
1420 0 56.017 10.9788 615 105.216 987.226 524.205
1421 0 56.0194 10.4071 583 106.736 987.425 522.688
1422 0 60.0139 10.5975 636 103.745 986.594 521.3
1423 0 62.0162 11.755 729 101.735 986.925 518.868
1424 0 66.0721 11.4118 754 101.558 987.651 516.826
1425 0 66.0378 11.66 770 103.192 988.529 516.997
1426 0 67.0279 10.9208 732 104.873 987.451 515.552
1427 0 69.0372 10.9072 753 105.125 987.882 515.611
1428 0 73.0544 12.6755 926 100.941 988.057 509.363
1429 0 75.0411 11.9001 893 101.682 987.473 513.04
1430 0 74.053 11.3162 838 105.73 987.381 512.483
1431 0 79.0404 12.2595 969 101.001 986.729 509.974
1432 0 80.0468 11.7181 938 102.078 987.269 508.826
1433 0 84.0722 12.3941 1042 99.5086 986.917 509.47
1434 0 87.0443 12.6947 1105 99.9674 987.823 507.997
1435 0 91.0322 12.1166 1103 100.092 987.568 506.515
1436 0 93.0726 12.227 1138 99.3401 987.946 502.646
1437 0 95.056 12.3611 1175 97.943 987.923 503.494
1438 0 99.0693 12.5972 1248 97.7404 988.065 501.875
1439 1 54.0174 10.2374 553 96.792 987.897 524.302
1440 0 56.0583 10.9886 616 94.0195 988.135 523.093
1441 0 55.0181 10.851 597 93.5025 988.02 522.482
1442 0 58.052 12.0926 702 90.6211 988.286 520.204
1443 0 61.0638 12.1676 743 87.576 987.151 519.903
1444 0 59.0465 11.4147 674 90.6142 987.16 518.684
1445 0 64.0332 12.228 783 87.3103 987.949 518.696
1446 0 65.0441 11.2078 729 90.2702 988.513 517.808
1447 0 66.0608 11.6559 770 88.5792 988.456 515.716
1448 0 68.0721 11.5025 783 87.7497 988.92 513.411
1449 0 69.0362 11.6316 803 87.4707 988.882 513.179
1450 0 71.0756 10.9742 780 89.209 988.356 512.077
1451 0 72.0352 11.5638 833 88.3241 988.186 511.346
1452 0 76.0768 11.541 878 87.5877 988.263 510.757
1453 0 77.0978 11.1028 856 88.6846 988.217 509.206
1454 0 78.0785 10.6944 835 90.2599 987.739 509.104
1455 0 82.0623 10.3945 853 89.4666 987.59 508.712
1456 0 84.1007 10.3091 867 90.6344 987.791 506.498
1457 0 86.1037 10.6964 921 89.0152 987.429 506.739
1458 0 86.0557 9.28468 799 91.9825 988.521 506.526
1459 0 90.0854 9.99051 900 90.2067 988.906 503.344
1460 0 89.0526 9.36526 834 91.2434 989.076 501.689
1461 0 92.061 9.76527 899 92.782 989.326 500.911
1462 0 96.1744 11.0424 1062 89.339 989.025 498.172
1463 0 100.091 10.5505 1056 88.7566 989.724 497.862
1464 0 102.084 10.1583 1037 88.8554 989.19 493.654
1465 0 106.102 9.67938 1027 89.6066 989.382 494.397
1466 0 108.093 9.44561 1021 89.2458 988.692 491.71
1467 0 111.094 10.3696 1152 87.7005 988.244 489.603
1468 0 116.12 10.3169 1198 88.5467 988.528 487.834
1469 0 118.088 10.7547 1270 86.9968 988.387 489.156
1470 0 122.138 10.6846 1305 87.3318 988.378 486.588
1471 0 126.159 10.463 1320 88.2614 988.307 484.39
1472 0 130.168 10.8706 1415 87.0262 988.354 484.085
1473 0 135.176 11.1114 1502 86.6365 988.728 479.593
1474 0 140.196 11.2058 1571 87.0993 988.206 476.462
1475 0 144.169 11.7224 1690 86.1752 988.46 475.201
1476 0 145.167 11.1802 1623 87.8515 988.494 473.53
1477 0 150.225 10.8237 1626 90.0111 987.945 466.657
1478 0 156.164 11.7377 1833 88.5816 988.216 467.247
1479 0 161.226 11.4932 1853 91.6411 988.008 464.101
1480 0 165.196 11.3623 1877 92.342 988.148 459.64
1481 0 169.144 11.5168 1948 91.9872 987.897 459.503
1482 0 176.193 12.1458 2140 92.2808 987.972 455.213
1483 0 179.206 11.9081 2134 93.9311 987.799 451.942
1484 0 185.201 11.6576 2159 95.5466 987.887 447.49
1485 0 188.151 11.1984 2107 95.8102 988.321 446.105
1486 0 195.191 11.1737 2181 96.1852 988.072 442.088
1487 0 200.1 11.5642 2314 96.5225 987.512 437.007
1488 0 205.22 11.2513 2309 98.7492 987.959 433.748
1489 1 36.0202 8.52299 307 87.2671 987.489 518.651
1490 0 35.0091 8.76914 307 85.7948 986.342 517.293
1491 0 46.0579 10.6171 489 84.4785 986.736 520.857
1492 0 45.0341 9.81479 442 80.914 987.351 523.923
1493 0 47.0496 10.2658 483 80.6542 986.648 521.526
1494 0 49.0502 9.80629 481 81.8711 987.214 521.8
1495 0 51.024 10.2893 525 80.8533 987.627 520.684
1496 0 53.0602 10.441 554 79.9152 988.41 519.888
1497 0 55.0377 11.1742 615 79.9756 988.278 519.943
1498 0 56.0977 11.2126 629 80.5358 988.548 518.879
1499 0 58.0757 11.7777 684 80.3655 988.683 517.424
1500 0 60.0267 11.1784 671 83.3979 988.307 516.635
1501 0 58.1015 10.1202 588 88.4303 988.265 517.236
1502 0 62.0589 10.5706 656 86.7165 987.412 514.802
1503 0 64.1207 10.8857 698 87.4971 988.321 514.971
1504 0 67.1426 11.6171 780 84.7141 987.22 513.95
1505 0 67.0719 11.1224 746 87.5844 987.603 512.574
1506 0 69.0865 11.4639 792 89.5455 987.354 511.144
1507 0 72.0627 12.0451 868 89.5219 986.994 511.296
1508 0 76.1348 11.9525 910 90.1571 987.585 509.613
1509 0 78.0875 11.7048 914 91.1379 987.559 509.649
1510 0 81.054 12.4238 1007 89.856 987.901 508.93
1511 0 82.036 11.946 980 91.8469 988.087 507.793
1512 0 86.0829 12.2092 1051 91.3054 988.003 504.557
1513 0 88.0921 12.3394 1087 91.5345 987.861 503.108
1514 0 89.0911 11.7408 1046 94.1013 988.248 503.567
1515 1 51.032 10.8363 553 93.0579 987.327 520.986
1516 0 53.0584 11.5156 611 91.3011 987.967 521.087
1517 0 57.0799 11.5627 660 89.7955 988.177 519.98
1518 0 57.0534 11.0598 631 86.7163 988.277 518.198
1519 0 58.0409 11.0267 640 82.1234 988.838 516.739
1520 0 60.0299 10.5781 635 84.6362 988.92 515.694
1521 0 60.0515 11.6234 698 84.0215 988.904 516.776
1522 0 62.024 10.77 668 86.9925 989.014 517.344
1523 0 64.0414 11.7736 754 85.5544 989.18 516.757
1524 0 66.0276 12.0101 793 88.1955 989.827 515.914
1525 0 66.0422 12.1892 805 88.9627 989.441 514.861
1526 0 69.0483 11.9192 823 89.4399 989.759 515.214
1527 0 70.0432 12.064 845 90.7432 989.976 513.865
1528 0 73.0549 12.5933 920 89.3533 989.571 513.877
1529 0 76.0511 12.6757 964 89.694 989.499 512.743
1530 0 76.0814 12.8678 979 90.3136 988.925 512.506
1531 0 78.0404 12.2501 956 93.2542 989.344 510.594
1532 0 80.0558 13.0659 1046 91.5143 988.661 510.975
1533 0 84.0667 13.4298 1129 91.023 988.563 510.689
1534 0 87.0445 13.4184 1168 92.1241 989.005 506.18
1535 0 89.0325 13.2199 1177 94.7366 989.054 505.178
1536 0 93.1065 13.5866 1265 92.298 989.134 503.656
1537 0 97.0543 13.2606 1287 93.5175 989.019 502.008
1538 0 99.0821 13.3929 1327 93.2592 988.86 501.43
1539 0 103.147 13.9219 1436 92.2291 988.976 498.649
1540 0 105.128 13.6501 1435 93.8502 988.56 495.548
1541 0 107.076 13.1683 1410 94.883 988.855 494.974
1542 0 111.174 13.3485 1484 94.1664 988.635 491.302
1543 0 115.075 13.6172 1567 94.4799 988.161 491.833
1544 0 118.118 13.0802 1545 97.3709 988.776 488.293
1545 0 122.17 12.9737 1585 96.1596 987.778 486.522
1546 0 128.213 12.955 1661 94.8236 988.31 486.207
1547 0 131.242 13.1056 1720 95.0204 987.685 481.467
1548 0 134.263 12.8628 1727 96.4661 987.866 478.886
1549 0 139.248 12.7183 1771 95.9678 987.771 476.601
1550 0 141.36 12.7971 1809 96.4992 987.894 473.506
1551 0 146.259 12.683 1855 96.4178 988.534 472.885
1552 0 151.175 12.846 1942 95.7106 988.1 471.783
1553 0 156.165 13.1784 2058 95.7653 988.161 467.014
1554 0 164.195 14.0504 2307 92.8301 988.095 465.749
1555 0 167.187 12.9735 2169 96.4841 987.722 463.274
1556 0 178.132 17.1726 3059 83.5982 988.726 453.002
1557 0 181.152 15.6388 2833 89.1034 987.512 454.14
1558 0 181.145 12.835 2325 98.1725 988.258 456.113
1559 0 190.28 13.2962 2530 96.6759 987.658 453.086
1560 0 196.192 13.0536 2561 98.3218 987.883 451.389
1561 0 202.226 13.4206 2714 96.7782 988.227 447.899
1562 0 207.212 13.3679 2770 97.1762 988.181 443.837
1563 0 213.258 12.8061 2731 99.4233 988.219 440.431
1564 0 222.172 12.8729 2860 99.0157 988.626 437.538
1565 0 231.181 13.0504 3017 96.8929 988.444 433.776
1566 0 236.203 12.9168 3051 97.4677 988.65 431.186
1567 1 179.157 11.4648 2054 98.2946 987.942 458.593
1568 0 186.133 12.6522 2355 95.5384 987.33 452.782
1569 0 195.142 12.5088 2441 96.0893 988.258 450.795
1570 0 200.141 12.3213 2466 97.0531 987.854 447.873
1571 0 208.171 12.336 2568 97.3719 987.529 443.233
1572 0 216.205 12.0996 2616 97.1992 987.5 441.897
1573 0 223.196 12.2448 2733 97.9495 987.662 433.817
1574 0 232.241 12.9564 3009 96.3091 988.027 435.53
1575 0 240.243 12.6497 3039 97.3159 988.334 431.584
1576 1 60.1301 10.2943 619 83.5267 988.603 519.777
1577 0 60.1 9.95008 598 85.4415 989.184 518.46
1578 0 61.0836 11.0832 677 85.0251 988.702 516.696
1579 0 61.1056 11.4556 700 83.5 989.611 517.863
1580 0 64.1235 10.9944 705 85.4582 989.104 516.008
1581 0 67.0944 11.1187 746 85.7105 989.102 514.261
1582 0 71.1836 12.0955 861 85.4878 988.634 512.984
1583 0 73.1783 11.9161 872 91.3796 989.219 511.154
1584 0 77.147 12.379 955 92.422 989.247 508.773
1585 0 77.226 11.8095 912 92.4715 989.603 508.936
1586 0 81.224 11.9054 967 92.2182 989.109 507.013
1587 0 83.1957 12.0319 1001 92.0939 988.707 505.652
1588 0 84.1256 11.5542 972 94.6996 990.021 504.539
1589 0 88.1977 10.7486 948 95.0042 988.394 501.006
1590 0 91.1288 10.9515 998 95.0401 988.704 500.565
1591 0 93.1643 10.6049 988 94.5395 988.251 502.035
1592 0 95.0949 10.7156 1019 95.0618 988.653 498.414
1593 0 99.2599 11.5354 1145 92.4122 988.546 498.924
1594 0 101.088 10.3771 1049 92.041 988.672 492.999
1595 0 104.172 11.6826 1217 92.2679 988.651 495.019
1596 0 108.144 10.6617 1153 91.5559 988.374 491.271
1597 0 111.13 10.8161 1202 92.926 988.439 489.482
1598 0 116.083 11.3884 1322 87.8911 988.508 489.305
1599 0 119.174 11.9573 1425 86.4639 988.368 487.352
1600 1 67.1108 9.80468 658 82.5274 987.839 518
1601 0 67.0823 9.85357 661 81.407 987.601 515.169
1602 0 70.075 10.4888 735 80.1592 987.619 512.901
1603 0 74.0705 12.0291 891 77.22 988.096 514.102
1604 0 76.1037 12.0756 919 77.0783 987.922 513.898
1605 0 79.0576 11.4347 904 78.417 988.311 512.736
1606 0 80.0345 11.6575 933 78.1426 988.092 510.942
1607 0 83.0602 11.8107 981 76.2987 988.697 508.998
1608 0 84.1057 12.1871 1025 75.9015 988.518 508.162
1609 0 87.0818 12.0461 1049 75.3766 988.402 506.32
1610 0 89.109 11.8507 1056 76.053 987.98 505.529
1611 0 93.0334 12.4364 1157 74.4555 987.874 503.9
1612 0 95.1287 12.1414 1155 76.0156 987.81 501.244
1613 0 99.0593 12.6086 1249 75.434 987.964 498.079
1614 0 101.039 12.4903 1262 76.0166 988.414 500.917
1615 0 104.095 12.6519 1317 77.1306 988.261 496.966
1616 0 106.113 11.9213 1265 85.615 987.872 494.676
1617 0 109.152 12.2582 1338 85.009 987.275 493.602
1618 0 113.061 12.5773 1422 85.4452 987.515 490.619
1619 0 118.085 12.5333 1480 85.4439 986.763 490.316
1620 1 64.0648 11.2855 723 76.296 987.192 517.625
1621 0 64.0695 11.2378 720 77.8986 987.124 516.353
1622 0 67.0372 11.8293 793 75.8159 987.069 515.559
1623 0 70.0877 12.1419 851 77.376 988.489 507.326
1624 0 69.0968 11.6503 805 80.2398 987.616 506.21
1625 0 71.0468 11.2602 800 81.3675 987.42 509.605
1626 0 75.0675 11.4297 858 80.7238 987.407 509.558
1627 0 77.0522 11.4468 882 80.8118 986.814 508.255
1628 0 79.1007 11.7319 928 80.6584 986.349 506.811
1629 0 81.0991 11.0482 896 82.7366 986.865 505.374
1630 0 84.0849 11.536 970 82.3588 987.58 504.668
1631 0 86.1643 11.4549 987 83.5785 987.679 502.808
1632 0 91.0792 11.3308 1032 83.438 987.459 500.601
1633 0 92.1432 11.3844 1049 84.0381 987.188 497.051
1634 0 93.2181 11.4463 1067 85.1743 987.475 495.752
1635 0 97.2041 11.3164 1100 85.0582 987.772 494.837
1636 0 99.2076 11.5011 1141 85.2419 987.631 492.938
1637 0 102.14 11.9444 1220 85.1738 987.628 491.211
1638 0 104.201 11.6602 1215 86.9333 987.842 489.447
1639 0 107.143 11.7226 1256 86.1624 987.361 489.554
1640 0 111.188 12.3125 1369 85.2637 987.323 488.443
1641 0 115.25 11.974 1380 86.9188 987.074 486.248
1642 0 115.089 11.3651 1308 89.4916 987.667 485.381
1643 0 120.118 10.9643 1317 89.9499 987.388 485.088
1644 0 124.212 11.2147 1393 89.3274 987.767 484.412
1645 0 130.223 11.8258 1540 87.9532 987.298 482.751
1646 0 135.252 11.8445 1602 88.8658 987.266 480.69
1647 0 139.241 11.8428 1649 90.0085 987.451 479.385
1648 1 77.0929 10.4679 807 81.9579 986.639 509.658
1649 0 79.0868 10.6339 841 82.7313 987.673 509.467
1650 0 84.165 11.8814 1000 82.15 987.872 504.408
1651 0 83.0782 11.9044 989 86.6572 987.431 505.752
1652 0 84.0572 12.4558 1047 88.1261 987.902 506.689
1653 0 85.0756 12.9062 1098 89.7204 987.266 504.564
1654 0 89.1858 12.0871 1078 90.3442 987.108 501.177
1655 0 94.1874 13.0697 1231 87.883 987.612 497.245
1656 0 98.1651 12.2141 1199 90.1835 987.988 497.183
1657 0 100.15 11.8322 1185 92.038 987.676 496.067
1658 0 101.203 12.4799 1263 91.6405 987.445 493.454
1659 0 104.154 12.3183 1283 91.8823 987.509 494.389
1660 0 107.211 11.9297 1279 93.6435 987.486 493.338
1661 0 110.202 12.1232 1336 94.2081 987.443 492.165
1662 0 115.249 12.6335 1456 93.2026 987.742 488.458
1663 0 120.181 13.2633 1594 92.3187 987.317 488.098
1664 1 62.192 10.8053 672 87.814 987.562 515.978
1665 0 65.1671 11.3861 742 87.783 988.032 515.348
1666 0 66.1664 12.0454 797 88.857 987.945 514.066
1667 0 69.1052 12.3724 855 88.0749 987.481 512.317
1668 0 72.0886 11.902 858 89.1387 988.174 511.166
1669 0 75.1565 12.6935 954 88.7662 987.728 509.495
1670 0 77.1697 12.7382 983 89.3469 987.646 508.794
1671 0 81.2514 12.9229 1050 88.9933 986.72 507.655
1672 0 82.0926 12.7052 1043 90.4986 986.997 505.971
1673 0 83.1433 12.6408 1051 92.4101 986.242 505.986
1674 0 86.251 12.8926 1112 92.7428 985.945 504.094
1675 0 88.1515 13.4201 1183 92.3998 986.125 500.879
1676 0 91.2975 13.6367 1245 91.7904 987.689 500.714
1677 0 95.201 13.4032 1276 93.7132 987.121 501.367
1678 0 97.1668 13.8731 1348 93.207 988.021 500.219
1679 0 97.1633 13.5751 1319 95.8772 987.948 499.19
1680 0 102.3 13.3724 1368 96.424 987.695 497.705
1681 0 103.189 12.9568 1337 98.4787 988.044 496.039
1682 0 106.173 13.3933 1422 98.0675 988.07 494.217
1683 0 111.219 13.7117 1525 97.7036 987.758 492.775
1684 0 114.16 14.576 1664 96.1833 987.804 490.382
1685 0 118.192 14.1718 1675 97.8537 987.799 487.807
1686 0 122.232 14.6525 1791 94.6672 987.56 487.532
1687 1 67.2059 12.4096 834 94.4784 986.618 514.969
1688 0 69.1501 12.5958 871 93.9713 987.039 513.828
1689 0 70.0762 13.2713 930 93.4806 988.024 513.511
1690 0 72.0906 13.0808 943 93.9533 987.828 513
1691 0 75.1885 13.1004 985 94.1228 988.528 510.734
1692 0 78.0734 13.5385 1057 93.299 988.576 509.126
1693 0 80.0985 13.9328 1116 92.9937 988.332 507.764
1694 0 84.1236 13.4445 1131 94.7268 988.798 506.907
1695 0 84.0899 13.212 1111 96.5518 988.461 505.626
1696 0 87.1571 13.2978 1159 96.5306 988.908 503.475
1697 0 90.0975 13.4854 1215 96.6823 988.232 501.641
1698 0 92.0878 13.3242 1227 97.5721 988.056 500.989
1699 0 95.0756 13.5681 1290 97.5023 987.543 500.205
1700 0 97.0906 13.2145 1283 98.6087 987.956 499.28
1701 0 98.0905 13.1307 1288 99.3727 987.464 496.996
1702 0 102.167 13.429 1372 98.6538 986.977 496.724
1703 0 106.069 13.8683 1471 97.7356 987.464 494.672
1704 0 107.062 13.4502 1440 99.375 987.889 492.099
1705 0 111.104 13.5999 1511 99.0384 987.364 490.917
1706 0 115.171 13.4496 1549 99.0226 988.167 485.305
1707 0 118.158 13.2112 1561 100.124 988.275 482.291
1708 0 123.134 13.6924 1686 95.4359 988.893 483.567
1709 1 67.1075 11.8616 796 94.6809 989.157 509.741
1710 0 71.0959 12.6168 897 92.6388 988.422 510.308
1711 0 74.0873 12.6202 935 92.4438 988.244 508.653
1712 0 76.0916 12.6689 964 93.0488 987.599 507.054
1713 0 80.1587 13.3984 1074 91.5857 987.835 503.29
1714 0 82.181 13.0931 1076 92.9572 987.618 502.544
1715 0 84.1641 13.4856 1135 92.4317 988.692 501.448
1716 0 87.1845 13.2936 1159 93.3555 988.008 499.733
1717 0 89.1249 13.2959 1185 93.5907 988.511 499.989
1718 0 91.103 13.8634 1263 93.3143 988.671 497.203
1719 0 93.1001 13.6412 1270 94.2213 988.54 496.326
1720 0 97.1492 13.505 1312 94.5991 988.88 495.232
1721 0 97.1204 13.6017 1321 96.5867 989.79 493.399
1722 0 101.179 13.0659 1322 97.3056 988.282 492.379
1723 0 104.171 13.689 1426 96.2384 988.078 489.669
1724 0 107.168 13.6701 1465 97.6812 987.972 489.246
1725 0 110.106 13.5324 1490 98.5396 988.147 487.787
1726 0 113.105 14.04 1588 97.4465 988.108 486.377
1727 0 118.252 13.7418 1625 97.6677 988.062 483.698
1728 0 123.205 14.0985 1737 96.8043 988.257 481.085
1729 1 67.0924 11.1488 748 99.1952 988.299 507.558
1730 0 70.1255 11.5935 813 95.433 987.922 508.605
1731 0 69.1282 10.6903 739 91.8106 988.409 504.666
1732 0 75.0891 12.3054 924 86.8193 988.351 509.035
1733 0 78.1131 12.1107 946 87.5729 987.651 507.998
1734 0 81.0915 12.6277 1024 88.0801 987.107 506.179
1735 0 82.0749 12.3058 1010 89.9772 988.323 505.267
1736 0 83.1083 12.0566 1002 92.5738 987.822 504.008
1737 0 89.0453 12.7912 1139 92.8929 987.801 503.071
1738 0 91.0974 12.6678 1154 94.0338 987.759 501.504
1739 0 92.1597 12.6628 1167 93.9426 987.996 499.642
1740 0 95.1091 13.1743 1253 92.2442 988.172 498.745
1741 0 98.1374 12.9207 1268 93.3849 987.958 497.042
1742 0 101.103 13.0263 1317 91.5338 988.112 496.916
1743 0 103.114 11.9673 1234 93.3047 988.165 493.033
1744 0 107.168 12.4477 1334 90.9595 988.364 491.384
1745 1 63.1797 10.7946 682 83.761 988.375 515.474
1746 0 63.1462 10.927 690 83.1667 987.848 515.101
1747 0 65.0561 11.052 719 83.2962 986.762 512.78
1748 0 68.0699 11.9436 813 87.1894 986.92 511.312
1749 0 67.0594 10.3789 696 80.9282 987.762 512.624
1750 0 70.0706 11.2173 786 79.9109 988.084 509.763
1751 0 71.0514 10.8372 770 81.126 988.152 509.899
1752 0 74.0194 10.9971 814 81.7592 987.627 508.198
1753 0 78.0594 11.2735 880 82.1159 987.612 506.535
1754 0 79.027 11.5277 911 83.8474 987.72 505.551
1755 0 81.0346 11.02 893 85.1825 988.627 504.695
1756 0 85.0447 11.1 944 85.3983 988.392 503.521
1757 0 88.0464 11.051 973 86.8294 988.218 501.056
1758 0 89.0376 11.3997 1015 87.7429 988.573 499.55
1759 0 93.052 11.2195 1044 87.658 988.743 496.984
1760 0 98.0484 11.2801 1106 86.8517 988.749 497.078
1761 0 99.0715 11.3958 1129 88.4464 987.747 494.423
1762 0 101.027 11.5711 1169 90.7673 988.242 491.803
1763 0 103.081 11.2339 1158 91.5302 987.314 489.588
1764 0 108.1 11.1748 1208 91.1912 987.849 487.41
1765 1 62.0669 8.90974 553 82.3978 988.101 512.805
1766 0 65.0538 9.68429 630 79.4556 988.829 510.736
1767 0 67.035 9.42791 632 83.7089 988.104 509.472
1768 0 69.068 9.71506 671 79.5782 988.715 509.031
1769 0 71.0522 9.62672 684 80.057 988.867 507.281
1770 0 71.0445 8.78322 624 81.883 988.32 505.909
1771 0 75.0827 9.93571 746 80.3646 988.062 504.189
1772 0 75.0832 9.46949 711 82.5513 987.475 502.827
1773 0 81.0956 11.2213 910 79.867 987.73 501.789
1774 0 84.0564 10.6952 899 82.1913 987.47 500.029
1775 0 86.0798 9.78162 842 84.5344 987.602 499.357
1776 0 91.1913 10.5164 959 83.8478 986.555 496.716
1777 0 93.1884 10.849 1011 83.3848 986.858 496.437
1778 0 94.2402 11.0356 1040 85.0356 987.87 492.763
1779 0 96.1792 10.8236 1041 86.3785 987.454 490.011
1780 0 100.238 11.2832 1131 86.8011 988.08 488.799
1781 0 103.158 10.3433 1067 89.5173 988.486 487.777
1782 0 106.264 11.1233 1182 88.5313 988.273 485.673
1783 0 108.209 11.0527 1196 90.0911 988.206 484.128
1784 1 63.1399 9.28098 586 88.3515 988.555 507.097
1785 0 65.0917 10.0781 656 86.8567 988.216 506.197
1786 0 66.127 9.72371 643 87.8554 987.908 506.126
1787 0 69.1226 10.6333 735 91.7333 987.884 506.023
1788 0 71.0476 9.75402 693 84.8773 987.82 502.384
1789 0 74.0663 10.8686 805 85.9925 987.884 506.446
1790 0 79.053 11.3342 896 84.5603 987.777 505.355
1791 0 79.0984 11.1254 880 86.5477 987.97 502.48
1792 0 80.0832 11.076 887 88.416 987.596 502.095
1793 0 85.0689 12.4487 1059 87.085 987.021 502.042
1794 0 89.0784 12.7977 1140 93.6956 987.407 500.186
1795 0 90.071 12.4013 1117 95.5058 987.95 499.59
1796 0 93.0843 12.2792 1143 96.1898 987.236 497.079
1797 0 95.0832 12.1367 1154 97.2738 988.016 495.554
1798 0 100.057 12.9427 1295 94.9961 987.353 494.964
1799 0 100.122 12.1352 1215 97.4346 986.487 491.088
1800 0 103.185 12.2789 1267 96.221 987.391 494.004
1801 0 107.084 12.3081 1318 93.2724 988.103 482.45
1802 0 110.139 12.1574 1339 94.3637 987.919 487.404
1803 0 114.146 12.6592 1445 93.3239 988.138 485.45
1804 0 116.169 12.5077 1453 94.3207 988.333 485.532
1805 1 63.1675 10.3376 653 87.8806 987.718 513.184
1806 0 64.0686 9.39618 602 90.2841 987.6 512.761
1807 0 68.2288 10.3182 704 93.6648 987.102 510.244
1808 0 70.0693 11.3174 793 95.2421 987.189 511.194
1809 0 72.0733 11.9045 858 89.1212 988.371 511.713
1810 0 74.0587 11.5179 853 90.1336 988.536 510.553
1811 0 75.0727 11.6554 875 90.5326 988.466 507.841
1812 0 79.0965 11.7451 929 90.0097 988.699 506.994
1813 0 79.0775 11.533 912 89.8092 988.66 506.979
1814 0 80.0774 11.0019 881 92.882 988.881 505.116
1815 0 83.0375 11.4286 949 90.9389 988.675 504.906
1816 0 88.0407 11.9377 1051 90.451 988.354 503.091
1817 0 90.0268 12.363 1113 91.0773 988.422 502.149
1818 0 90.0432 12.1275 1092 92.6996 987.578 498.996
1819 0 93.1332 11.6285 1083 92.7608 987.904 499.114
1820 0 95.0702 11.4126 1085 92.5484 987.047 494.181
1821 0 98.0679 11.6246 1140 91.6605 987.004 492.846
1822 0 96.2304 11.036 1062 90.6215 987.23 485.153
1823 0 102.153 11.7373 1199 91.0976 987.259 487.862
1824 0 103.169 11.4957 1186 91.0995 987.475 484.431
1825 0 108.158 11.6034 1255 91.7315 987.395 483.191
1826 1 60.0896 8.88674 534 88.221 988.464 507.772
1827 0 68.1194 11.1128 757 90.2497 988.38 513.531
1828 0 68.0891 11.3234 771 91.3904 988.518 511.253
1829 0 67.1374 10.7094 719 87.2712 988.478 513.281
1830 0 70.0346 10.5519 739 90.4953 989.279 510.735
1831 0 74.0291 10.8606 804 90.6779 988.148 508.478
1832 0 73.0406 11.432 835 91.8383 987.928 508.396
1833 0 76.0492 11.1244 846 92.4102 988.391 508.721
1834 0 79.0212 11.4906 908 92.4075 987.931 504.746
1835 0 81.0641 11.2134 909 93.5038 988.229 504.318
1836 0 82.0684 11.3808 934 98.2388 988.726 501.058
1837 0 86.091 11.4646 987 98.1469 988.557 501.556
1838 0 88.0276 11.3828 1002 100.116 989.032 498.632
1839 0 91.1273 11.3358 1033 100.491 988.579 500.594
1840 0 92.1292 11.2559 1037 102.114 988.493 497.678
1841 0 96.0788 11.4073 1096 100.799 987.498 498.347
1842 0 98.084 11.0823 1087 97.7718 987.801 496.353
1843 0 101.095 11.3359 1146 97.4223 988.109 494.121
1844 0 104.14 11.7054 1219 97.2715 988.205 491.071
1845 0 107.069 11.684 1251 99.5204 988.068 492.383
1846 0 110.064 12.1657 1339 99.1509 988.323 489.722
1847 0 113.07 11.6299 1315 100.365 987.941 489.516
1848 0 116.055 12.6492 1468 98.8965 988.237 486.567
1849 0 117.126 11.8505 1388 101.473 987.894 484.625
1850 0 121.118 12.2442 1483 99.3028 988.212 482.349
1851 1 70.0572 10.6484 746 96.8177 987.114 505.555
1852 0 70.058 10.5341 738 95.3238 987.518 499.989
1853 0 72.0494 10.8814 784 94.8941 988.238 499.389
1854 0 74.1028 11.2816 836 93.0801 988.438 498.547
1855 0 78.0859 11.1032 867 90.5294 988.656 497.151
1856 0 78.0748 10.4387 815 93.6049 989.455 495.265
1857 0 79.0727 11.306 894 91.8546 988.681 492.779
1858 0 84.1221 10.8533 913 92.2114 988.157 492.009
1859 0 90.1311 11.5942 1045 89.9732 988.082 493.688
1860 0 91.0734 11.0351 1005 91.2945 988.628 491.045
1861 0 93.0819 11.0763 1031 92.45 988.774 490.258
1862 0 97.0889 11.7109 1137 90.8813 988.112 489.702
1863 0 97.2 11.3477 1103 92.3209 988.505 487.945
1864 0 101.094 11.2865 1141 92.1981 988.443 486.367
1865 0 105.077 11.6485 1224 91.1658 988.281 486.58
1866 0 106.156 11.4831 1219 91.5783 989.276 483.415
1867 0 108.148 11.8727 1284 90.3466 989.669 481.716
1868 0 110.109 11.2615 1240 91.3879 989.275 480.107
1869 0 118.136 11.7831 1392 89.0711 989.17 481.239
1870 0 122.154 12.2714 1499 87.5604 988.616 479.028
1871 0 125.185 12.3098 1541 88.0337 988.809 475.973
1872 0 129.167 12.2942 1588 89.5756 988.881 475.406
1873 0 135.201 13.0028 1758 89.5774 988.426 475.733
1874 0 139.167 13.1138 1825 88.4877 988.638 472.298
1875 1 71.1037 11.209 797 84.3965 988.149 504.957
1876 0 73.0947 11.4646 838 83.8747 988.052 504.268
1877 0 75.1242 12.0201 903 87.1573 987.403 504.336
1878 0 77.0741 11.5733 892 80.3184 987.839 504.917
1879 0 79.1034 11.327 896 82.0402 987.801 503.233
1880 0 80.048 11.0684 886 83.3736 988.13 500.909
1881 0 83.0777 11.9527 993 81.0514 987.661 498.743
1882 0 84.0291 10.782 906 83.6843 988.355 497.987
1883 0 90.055 13.0698 1177 78.2243 988.319 491.585
1884 0 90.1034 11.9307 1075 81.7572 988.26 494.514
1885 0 93.0509 11.3164 1053 82.4986 987.342 494.218
1886 0 95.1151 11.2495 1070 83.0252 988.792 490.95
1887 0 99.0976 11.4433 1134 82.6173 988.406 491.317
1888 0 102.092 11.9892 1224 85.558 988.904 489.923
1889 0 103.127 11.8203 1219 81.9221 988.286 489.67
1890 0 107.08 11.5895 1241 83.5576 988.139 486.554
1891 0 111.093 11.2519 1250 86.0136 987.85 482.985
1892 0 117.095 11.9304 1397 84.9034 987.681 482.558
1893 0 122.112 11.6287 1420 85.4423 986.875 481.358
1894 0 127.114 12.3511 1570 83.7535 988.052 479.278
1895 0 131.112 11.9898 1572 85.2118 987.739 477.547
1896 1 54.0146 11.0711 598 78.5736 987.299 517.157
1897 0 56.028 11.2087 628 79.7404 987.276 516.951
1898 0 56.012 11.5511 647 83.2504 989.048 517.165
1899 0 58.055 11.4374 664 83.7636 989.19 517.235
1900 0 59.0186 11.4201 674 85.8887 988.831 516.132
1901 0 61.0266 11.4213 697 87.3759 989.334 515.624
1902 0 62.0463 11.8138 733 88.0559 989.584 516.21
1903 0 65.0244 12.4876 812 88.0197 989.624 513.546
1904 0 66.0821 12.772 844 88.2962 989.499 513.985
1905 0 69.0776 12.5077 864 90.0799 989.128 513.279
1906 0 70.0629 13.6306 955 88.599 988.705 510.976
1907 0 70.0841 12.9273 906 92.1369 988.741 511.097
1908 0 74.0897 13.4567 997 91.1464 988.664 510.489
1909 0 74.0746 12.6359 936 86.1517 988.703 510.855
1910 0 76.0937 12.5503 955 87.7068 987.733 509.195
1911 0 78.054 12.6451 987 88.0162 986.964 508.456
1912 0 82.0829 12.9625 1064 88.0075 987.492 506.592
1913 0 83.0954 12.7805 1062 89.7222 987.709 505.317
1914 0 86.1333 13.3978 1154 89.0598 988.094 504.841
1915 0 87.1164 12.2939 1071 93.0233 987.642 502.965
1916 1 51.1312 11.4412 585 94.8513 989.33 520.118
1917 0 52.0307 11.0896 577 93.9203 988.858 518.588
1918 0 52.0645 10.8903 567 91.4638 987.954 512.605
1919 0 51.028 10.7588 549 93.7505 988.501 510.437
1920 0 54.0216 11.0511 597 92.4154 988.903 511.204
1921 0 54.0713 10.8005 584 88.9041 987.582 512.156
1922 0 56.0199 11.4959 644 89.0435 987.804 511.929
1923 0 57.068 11.1796 638 88.2257 986.671 509.906
1924 0 61.0561 11.3502 693 83.3665 986.631 510.332
1925 0 63.0638 11.8293 746 82.5858 986.752 509.67
1926 0 60.044 11.9745 719 84.4631 987.54 507.78
1927 0 63.0367 11.1681 704 85.8878 987.134 507.697
1928 0 65.0424 12.0076 781 85.0474 987.484 506.204
1929 0 66.0383 11.9476 789 86.4487 987.734 505.143
1930 0 69.031 12.3712 854 86.486 987.295 506.142
1931 0 68.0628 12.6942 864 88.7569 987.48 502.764
1932 0 73.0452 12.3074 899 92.0734 987.818 503.653
1933 0 73.0226 13.0371 952 91.0137 987.855 502.871
1934 0 78.0386 12.8526 1003 93.3838 987.67 503.414
1935 0 79.0446 12.9294 1022 90.5186 987.054 500.238
1936 0 83.045 13.2579 1101 89.5976 987.377 497.259
1937 0 84.0956 12.6166 1061 89.8087 986.773 496.576
1938 0 85.0732 12.9653 1103 89.4841 986.733 495.061
1939 0 88.0642 12.6953 1118 89.4615 986.849 494.27
1940 0 89.1078 12.8047 1141 88.7011 986.4 492.184
1941 0 93.0388 12.9516 1205 87.1295 986.689 491.206
1942 0 98.0678 13.3479 1309 85.0772 986.25 488.915
1943 1 55.0181 10.1966 561 84.0036 986.467 512.029
1944 0 55.0243 9.57759 527 83.5863 987.391 510.435
1945 0 57.0209 10.5575 602 81.794 987.354 509.771
1946 0 58.0412 11.0439 641 80.6318 986.956 508.449
1947 0 67.032 11.86 795 82.4553 986.86 512.867
1948 0 69.078 12.4207 858 82.2611 986.233 510.875
1949 0 69.0354 12.2546 846 82.6312 986.157 510.578
1950 0 71.1136 11.8965 846 83.4858 986.076 508.213
1951 0 74.0354 11.9808 887 82.9324 985.435 506.911
1952 0 77.1279 12.1876 940 81.6596 986.063 506.865
1953 0 78.0183 11.5101 898 82.6002 986.345 503.95
1954 0 81.0508 12.6341 1024 79.9111 985.947 503.345
1955 0 82.0667 11.9659 982 80.8004 986.228 501.719
1956 0 85.0532 11.8867 1011 80.9268 986.17 500.495
1957 0 90.1111 12.1295 1093 81.4026 986.534 498.633
1958 0 92.1054 12.7028 1170 81.4248 986.796 496.577
1959 0 93.1107 12.7053 1183 81.2874 987.003 497.314
1960 0 96.133 12.025 1156 82.0822 986.479 495.005
1961 0 97.0681 12.0534 1170 82.1316 987.374 493.367
1962 0 104.119 12.3512 1286 79.4168 986.289 491.949
1963 0 105.091 12.2466 1287 80.7078 986.073 488.758
1964 0 108.072 12.0197 1299 81.0762 986.66 488.076
1965 0 113.108 12.183 1378 81.4819 986.611 485.226
1966 1 63.0462 9.45338 596 80.0419 986.497 512.572
1967 0 67.0351 10.7257 719 80.0668 986.401 511.675
1968 0 70.0511 11.0491 774 78.3514 986.689 510.596
1969 0 71.0196 10.4901 745 75.9826 986.384 510.387
1970 0 71.0317 10.981 780 76.3397 986.368 509.93
1971 0 76.0417 11.3753 865 76.8624 985.526 507.088
1972 0 77.038 11.2931 870 78.308 986.215 505.198
1973 0 80.0726 11.627 931 78.8528 985.464 503.111
1974 0 83.0719 11.7007 972 82.7768 985.603 502.096
1975 0 87.0885 12.6308 1100 84.0073 985.929 502.242
1976 0 89.0805 12.3596 1101 84.9146 986.195 501.243
1977 0 93.0948 12.6645 1179 85.0602 986.178 498.343
1978 0 94.0824 12.606 1186 84.9604 986.644 497.218
1979 0 101.085 13.7013 1385 81.5105 987.089 497.51
1980 0 102.095 13.3797 1366 83.8814 986.066 496.05
1981 0 104.122 13.4938 1405 85.6043 986.285 495.201
1982 0 107.104 13.3422 1429 86.2246 986.81 493.294
1983 0 109.061 12.6443 1379 88.7404 986.712 491.69
1984 0 114.093 13.4188 1531 86.8086 985.903 490.719
1985 0 117.035 12.9705 1518 87.8841 986.246 487.664
1986 1 64.0867 10.4234 668 86.3772 986.296 514.425
1987 0 70.1485 11.3046 793 86.2585 985.324 515.903
1988 0 71.0962 12.4339 884 87.1538 985.605 513.26
1989 0 71.0841 12.8017 910 86.7912 984.809 513.814
1990 0 73.0747 12.5214 915 89.2929 985.438 513.025
1991 0 76.1211 12.756 971 89.9835 986.364 511.247
1992 0 79.0403 13.006 1028 90.6605 986.028 508.848
1993 0 81.074 12.8648 1043 91.6903 986.296 509.338
1994 0 83.084 12.8063 1064 92.8882 986.677 506.164
1995 0 86.1526 12.8029 1103 93.7026 986.54 505.829
1996 0 89.0954 13.132 1170 93.5137 986.138 503.715
1997 0 91.1722 13.3264 1215 94.2428 986.871 504.235
1998 0 94.104 13.4744 1268 94.3131 985.698 502.445
1999 0 97.1628 12.6695 1231 102.566 985.289 499.23
2000 0 99.0996 12.3109 1220 101.546 985.458 497.771
2001 0 101.096 12.4931 1263 99.8488 985.972 496.361
2002 0 104.085 12.7972 1332 99.8378 986.116 495.07
2003 0 105.156 12.4577 1310 96.6931 986.189 490.725
2004 0 109.086 12.4214 1355 97.0133 986.072 491.243
2005 0 111.083 12.7473 1416 101.051 985.964 491.162
2006 0 116.094 12.5847 1461 101.861 986.044 489.61
2007 0 120.074 12.2258 1468 103.608 986.368 485.922
2008 0 124.121 12.6087 1565 102.374 985.765 482.583
2009 1 68.0987 10.896 742 88.7385 984.48 513.632
2010 0 70.0752 10.9882 770 88.6805 985.177 513.279
2011 0 72.046 11.3955 821 88.2887 984.342 513.737
2012 0 73.0974 11.642 851 89.2374 986.021 512.474
2013 0 76.0524 11.308 860 89.9221 986.301 510.13
2014 0 80.1125 12.083 968 88.4112 986.535 508.305
2015 0 82.0757 11.7331 963 88.8598 986.554 507.29
2016 0 83.0753 11.9169 990 89.9515 986.709 505.501
2017 0 87.0835 11.4373 996 90.3193 986.733 504.916
2018 0 89.0583 11.6777 1040 90.1337 986.527 503.838
2019 0 92.1302 11.7551 1083 94.0988 985.557 500.166
2020 0 94.0915 11.9458 1124 92.4297 986.097 499.186
2021 0 95.1126 11.9332 1135 92.5189 985.552 498.348
2022 0 99.1061 12.0477 1194 92.8023 986.216 496.297
2023 0 101.093 11.989 1212 93.0272 985.821 494.705
2024 0 103.14 12.1292 1251 92.6187 986.156 494.53
2025 0 107.192 12.3889 1328 92.5708 986.221 492.276
2026 0 109.072 12.0837 1318 93.8733 986.545 489.174
2027 0 114.184 12.3222 1407 93.2537 986.385 489.316
2028 0 117.205 12.4995 1465 92.5399 986.444 487.93
2029 0 121.225 12.4892 1514 92.8712 985.382 486.225
2030 0 124.132 12.3256 1530 94.0235 985.182 483.199
2031 0 127.302 12.9142 1644 93.6448 985.741 479.971
2032 0 130.205 12.6032 1641 95.5192 985.429 478.901
2033 0 136.18 12.4247 1692 95.8481 986.098 476.888
2034 0 140.247 12.7989 1795 94.756 986.285 475.922
2035 0 143.235 12.3294 1766 96.385 986.16 471.952
2036 0 148.187 12.3425 1829 96.398 986.282 469.182
2037 0 152.279 12.4771 1900 96.849 986.32 465.848
2038 0 156.213 12.0668 1885 98.3348 985.81 462.529
2039 0 160.27 11.9611 1917 100.304 985.841 461.577
2040 0 164.313 12.2693 2016 99.808 985.624 457.511
2041 0 170.209 12.8489 2187 98.8166 985.102 453.465
2042 0 173.193 12.2465 2121 100.78 985.594 450.612
2043 0 174.266 12.4121 2163 101.919 985.447 444.999
2044 0 177.203 12.2628 2173 102.274 986.127 442.714
2045 0 183.247 12.4422 2280 102.007 986.146 438.097
2046 0 186.2 12.3577 2301 102.066 986.466 436.819
2047 0 193.175 12.279 2372 102.014 986.075 431.736
2048 0 195.281 12.5768 2456 101.931 986.01 426.241
2049 0 206.281 12.6914 2618 100.576 986.176 426.021
2050 0 211.2 12.178 2572 103.094 986.332 419.759
2051 1 39.0217 8.3287 325 80.4615 986.031 514.36
2052 0 48.0896 9.75263 469 82.4371 985.74 519.563
2053 0 46.0552 8.75037 403 79.8859 986.263 522.062
2054 0 49.041 9.1352 448 79.1853 986.712 520.859
2055 0 52.0375 9.47393 493 78.4381 986 519.531
2056 0 53.0455 9.63324 511 79.272 986.534 518.937
2057 0 54.0371 10.3447 559 78.6136 986.784 518.297
2058 0 58.0385 10.6826 620 78.4436 986.894 516.279
2059 0 55.1028 10.7617 593 80.4132 986.261 514.801
2060 0 61.0713 10.0866 616 80.6997 986.312 513.268
2061 0 65.0965 10.9069 710 78.3408 986.275 513.331
2062 0 66.2222 10.7819 714 78.9244 985.954 513.412
2063 0 68.0944 11.2344 765 78.6967 985.927 512.335
2064 0 70.0527 11.5056 806 78.6216 985.971 511.073
2065 0 71.0786 10.7346 763 81.2687 986.03 509.456
2066 0 69.0668 11.4527 791 78.3135 985.549 509.216
2067 0 75.0447 11.26 845 79.9479 985.594 509.303
2068 0 77.0714 11.6256 896 79.1004 985.781 507.683
2069 0 76.0687 10.7008 814 81.1425 985.988 508.676
2070 0 79.1036 10.4167 824 81.8726 985.658 507.863
2071 0 82.0674 10.5767 868 81.2984 986.279 506.7
2072 0 84.1368 11.2792 949 81.4247 986.241 504.414
2073 0 85.1091 10.8097 920 83.0424 986.247 503.147
2074 0 88.0463 10.449 920 84.7587 986.611 500.354
2075 0 90.054 10.9823 989 83.1132 986.256 501.716
2076 0 94.0498 11.4514 1077 83.7744 986.046 496.003
2077 0 97.0804 11.5368 1120 84.9393 986.398 493.928
2078 0 100.033 11.6361 1164 85.2337 985.819 491.936
2079 0 104.037 11.3998 1186 88.9629 986.01 488.361
2080 1 55.0303 8.9587 493 82.57 985.493 517.099
2081 0 56.0282 9.29889 521 84.4952 985.372 514.889
2082 0 58.0721 10.0909 586 82.227 985.654 514.401
2083 0 59.069 9.97139 589 81.893 985.572 514.265
2084 0 59.1116 9.84578 582 82.5292 985.759 515.507
2085 0 61.1459 10.663 652 81.0552 985.643 512.998
2086 0 62.1013 10.4829 651 81.9539 985.633 512.283
2087 0 64.0466 10.5236 674 82.0134 985.745 513.89
2088 0 67.0907 10.4933 704 81.9844 986.327 512.017
2089 0 70.1029 11.2406 788 80.085 985.716 511.379
2090 0 74.104 11.6998 867 79.2595 985.412 508.347
2091 0 74.2236 12.0986 898 79.2004 986.438 507.734
2092 0 76.0944 11.9063 906 80.5243 986.458 507.989
2093 0 77.1099 12.0996 933 81.5488 986.158 506.195
2094 0 81.1787 12.4047 1007 80.9156 985.981 504.585
2095 0 82.0693 12.2701 1007 82.8232 985.581 504.741
2096 0 85.182 11.9978 1022 84.0753 985.379 500.138
2097 0 85.147 12.0615 1027 84.4654 985.18 498.91
2098 0 90.164 12.6658 1142 82.993 985.595 499.548
2099 0 90.1086 11.9522 1077 85.4578 985.898 496.528
2100 0 94.0873 12.6159 1187 84.1719 986.188 494.146
2101 0 98.1887 12.6899 1246 83.7239 986.281 492.898
2102 0 100.23 11.763 1179 85.9898 986.566 492.68
2103 0 101.138 11.9144 1205 87.0871 986.432 491.076
2104 0 102.157 12.0599 1232 87.3969 986.841 489.794
2105 0 107.143 11.9094 1276 87.3495 986.941 489.986
2106 0 111.196 12.3206 1370 86.989 986.661 488.152
2107 0 114.127 12.0655 1377 87.6964 986.909 487.361
2108 0 119.152 12.505 1490 87.198 986.532 481.72
2109 0 122.143 12.5017 1527 87.1794 986.456 481.016
2110 0 126.163 12.3253 1555 88.2289 986.727 477.752
2111 0 129.153 12.4581 1609 88.0087 986.825 477.855
2112 0 133.209 12.4992 1665 89.0054 986.927 474.514
2113 0 136.193 12.4897 1701 90.0817 987.069 472.567
2114 0 140.301 12.1738 1708 92.5369 987.34 469.088
2115 0 146.205 13.0639 1910 91.2953 987.011 467.095
2116 0 151.245 12.9459 1958 92.1834 987.12 466.639
2117 0 155.174 12.7019 1971 94.0685 987.104 465.271
2118 0 161.25 13.2341 2134 93.8533 987.246 461.683
2119 0 166.213 13.4887 2242 94.2252 987.01 457.276
2120 0 169.259 12.7438 2157 97.2666 987.16 455.624
2121 0 175.272 13.4191 2352 96.7083 986.16 451.073
2122 0 180.235 12.9608 2336 98.2872 986.551 443.586
2123 0 185.29 13.4276 2488 98.426 985.918 445.357
2124 0 189.273 13.0869 2477 99.7981 986.104 444.451
2125 0 193.195 13.3233 2574 99.7782 986.43 440.907
2126 0 200.263 13.4274 2689 99.8431 986.089 440.415
2127 0 208.194 13.4634 2803 99.5109 986.446 438.684
2128 0 212.268 13.5866 2884 99.9189 986.106 432.957
2129 0 218.194 13.7767 3006 100.171 986.037 430.526
2130 0 223.266 13.6877 3056 101.402 986.881 429.737
2131 0 229.224 14.0169 3213 102.002 986.396 427.173
2132 0 235.136 13.9749 3286 104.246 986.974 424.471
2133 0 242.159 14.3583 3477 104.369 986.562 419.171
2134 0 247.171 13.2944 3286 108.378 986.971 419.497
2135 0 258.12 14.4777 3737 104.777 987.03 416.733
2136 0 264.19 14.1943 3750 107.915 986.652 408.566
2137 0 273.273 14.4946 3961 108.93 986.703 407.073
2138 0 280.154 14.667 4109 109.989 986.054 402.123
2139 0 289.198 15.2629 4414 109.505 986.522 396.583
2140 0 301.249 14.8714 4480 110.826 986.068 394.962
2141 1 219.139 12.0472 2640 115.604 987.21 436.216
2142 0 226.151 12.757 2885 114.47 986.574 431.771
2143 0 235.237 13.4502 3164 113.712 986.68 427.626
2144 0 241.139 13.5648 3271 115.234 986.194 421.886
2145 0 248.16 13.725 3406 116.2 986.876 418.93
2146 0 254.117 13.6748 3475 115.409 986.13 413.281
2147 0 263.188 13.7012 3606 115.342 986.122 410.778
2148 0 268.242 13.8979 3728 116.416 985.849 406.077
2149 0 277.193 14.1598 3925 115.7 986.187 403.6
2150 1 221.171 11.7873 2607 119.863 985.303 431.903
2151 0 230.174 12.2646 2823 117.002 985.312 427.93
2152 0 237.201 12.6812 3008 116.2 985.936 425.353
2153 0 246.262 13.3313 3283 114.416 986.877 420.612
2154 0 253.263 13.6775 3464 114.947 986.807 412.434
2155 0 260.32 13.6563 3555 115.32 987.596 409.923
2156 0 269.273 13.6516 3676 116.481 987.124 404.706
2157 0 277.235 13.9124 3857 117.066 987.027 399.719
2158 0 285.217 13.7685 3927 117.185 987.165 395.241
2159 0 292.161 13.6329 3983 117.829 986.535 390.381
2160 0 301.302 13.5611 4086 118.904 986.267 383.209
2161 0 309.242 15.2631 4720 112.941 986.038 373.243
2162 0 320.35 15.6485 5013 112.537 986.555 369.98
2163 0 328.244 14.7238 4833 115.596 986.724 363.719
2164 0 335.278 14.7758 4954 116.073 987.092 357.438
2165 0 347.255 15.85 5504 111.433 986.954 348.54
2166 0 355.207 15.3516 5453 113.562 987.836 341.22
2167 0 365.215 14.6188 5339 115.925 988.189 335.535
2168 0 371.341 11.0195 4092 125.46 988.104 346.054
2169 0 374.175 9.49822 3554 124.452 987.915 364.515
2170 1 41.1154 7.97755 328 82.3537 987.765 522.735
2171 0 41.0133 9.09462 373 78.9786 987.204 521.702
2172 0 43.046 8.7813 378 78.6296 987.979 520.796
2173 0 41.0556 9.01218 370 76.8162 987.638 523.027
2174 0 41.0241 8.9216 366 78.7186 988.221 524.582
2175 0 42.0364 8.80189 370 79.8486 987.162 523.397
2176 0 41.0187 8.36204 343 82.1866 987.851 523.63
2177 0 42.0233 8.73324 367 83.4687 986.836 523.335
2178 0 41.0889 8.37208 344 85.7122 987.954 524.25
2179 0 43.0253 10.3427 445 83.0045 987.845 523.551
2180 0 44.0321 9.47036 417 86.0048 987.477 523.432
2181 0 53.1158 12.4633 662 70.1707 987.261 518.122
2182 0 49.0763 11.3904 559 77.3989 987.204 519.143
2183 0 45.1484 11.2739 509 85.6523 988.519 523.332
2184 0 48.0842 13.4972 649 76.3328 989.142 520.202
2185 1 0 0 0 -nan -nan -nan
2186 1 48.1358 11.8831 572 85.7587 990.386 519.939
2187 0 48.0816 12.3956 596 82.6426 989.906 522.695
2188 0 51.0444 14.791 755 76.5378 989.914 520.785
2189 0 49.0442 12.8455 630 82.5476 989.136 524.46
2190 0 50.0958 11.9771 600 83.4767 989.035 525.062
2191 0 50.0632 12.4043 621 83.6586 988.702 524.282
2192 0 52.0537 13.1403 684 80.0366 988.803 523.582
2193 0 50.053 12.267 614 81.8844 988.928 524.591
2194 0 50.129 12.3481 619 83.7625 988.953 523.564
2195 0 51.0615 12.7297 650 82.5538 988.802 523.145
2196 0 53.0356 13.1798 699 79.8884 989.638 524.296
2197 0 52.0283 12.8968 671 79.8122 989.723 523.906
2198 0 51.0322 12.5607 641 80.6381 989.562 525.3
2199 0 50.0583 11.8062 591 78.7073 988.36 524.491
2200 0 50.0404 11.5507 578 78.7734 988.542 524.069
2201 0 50.0386 11.3512 568 79.0581 988.014 525.018
2202 0 50.0296 11.813 591 77.5854 987.981 524.838
2203 0 51.0381 11.658 595 76.9815 987.971 525.992
2204 0 51.0294 10.8761 555 78.1171 987.607 527.211
2205 0 51.0697 11.9053 608 76.0724 987.237 526.043
2206 0 54.0318 12.4741 674 72.1009 987.481 524.536
2207 0 53.0676 12.192 647 72.8114 986.904 523.867
2208 0 53.0537 12.591 668 70.1242 986.686 524.831
2209 0 53.048 12.2531 650 70.1569 987.383 524.589
2210 0 52.0412 12.9513 674 69.1395 987.445 524.639
2211 0 53.0998 12.5613 667 71.8336 988.318 524.888
2212 0 51.0733 12.394 633 72.5276 988.596 525.25
2213 0 49.0949 11.0195 541 74.329 989.161 527.732
2214 0 49.0833 10.8387 532 74.062 988.397 527.177
2215 0 49.0321 10.8093 530 74.1981 989.372 526.37
2216 0 52.0445 11.6054 604 72.8808 988.318 525.738
2217 0 50.0537 10.5287 527 75.1594 988.296 525.92
2218 0 49.0332 11.2577 552 74.1576 988.286 524.509
2219 0 50.0328 12.2919 615 70.9496 988.317 524.086
2220 0 50.1018 10.4787 525 72.2762 988.162 526.145
2221 0 49.0582 10.6404 522 71.4521 988.153 526.469
2222 0 51.0602 10.5757 540 69.4 987.789 526.118
