time division length width area intensity CMx CMy
0 0 45.0094 13.5749 611 104.241 698.524 514.84
1 0 47.0138 13.847 651 100.705 697.998 515.126
2 0 49.0592 13.7385 674 97.3769 697.203 516.828
3 0 48.0215 13.494 648 97.6991 697.46 517.139
4 0 49.0799 13.3048 653 96.9632 697.345 517.436
5 0 51.0359 13.7158 700 93.6186 697.306 517.354
6 0 50.0256 13.7729 689 94.8505 697.845 516.99
7 0 52.0411 13.9313 725 93.3531 697.443 517.681
8 0 53.0292 14.2374 755 95.996 697.938 515.144
9 0 56.0167 14.1208 791 95.4159 697.673 514.378
10 0 58.0537 14.0559 816 94.9841 697.721 514.493
11 0 58.0565 13.8486 804 95.9627 696.689 513.208
12 0 58.0565 13.883 806 164.934 696.692 513.135
13 0 61.0546 14.3478 876 95.2683 697.152 512.832
14 0 63.0321 13.6756 862 97.8596 697.252 511.753
15 0 66.0377 14.1283 933 95.6742 696.404 511.095
16 0 66.0423 14.3393 947 95.8574 696.551 508.899
17 0 67.0416 13.9317 934 97.1777 696.433 508.586
18 0 69.09 14.5607 1006 95.3091 696.367 508.132
19 0 72.0364 14.2428 1026 95.7329 696.787 507.227
20 0 72.0361 13.6043 980 97.7224 696.859 507.249
21 0 77.0348 14.0845 1085 96.3235 696.547 505.882
22 0 77.0862 14.127 1089 97.4316 696.491 504.562
23 0 82.0225 13.923 1142 95.9431 696.609 503.567
24 0 82.016 14.0338 1151 97.2494 696.37 502.181
25 0 84.0767 14.0943 1185 97.4869 696.968 502.028
26 0 87.0586 14.8291 1291 95.7366 695.789 501.348
27 0 88.0678 13.9779 1231 97.5784 695.907 500.699
28 0 91.0519 13.6186 1240 97.8258 695.641 499.687
29 0 95.0478 13.8036 1312 97.1784 696.281 498.064
30 0 99.0467 14.1549 1402 97.2047 695.994 495.728
31 1 50.0184 12.2955 615 100.78 695.863 518.65
32 0 53.0204 12.4103 658 100.38 696.292 517.801
33 0 54.0136 12.682 685 100.885 695.712 515.953
34 0 56.026 13.5473 759 99.3505 695.53 515.287
35 0 59.013 13.4886 796 99.0754 695.42 514.726
36 0 59.0254 13.7568 812 100.51 695.315 514.052
37 0 60.0438 13.64 819 101.441 695.225 512.622
38 0 63.0268 13.7402 866 101.605 694.912 510.067
39 0 64.0322 12.9466 829 104.312 695.752 510.472
40 0 68.0414 13.5506 922 102.655 695.37 509.361
41 0 70.0335 13.4364 941 102.963 695.538 508.756
42 0 73.0221 13.2836 970 104.474 695.228 507.629
43 0 73.0372 13.3631 976 105.876 695.402 506.714
44 0 75.0336 13.4873 1012 106.008 695.187 505.844
45 0 78.0186 13.6634 1066 106.107 694.728 504.388
46 0 80.0381 13.1437 1052 109.074 695.043 503.155
47 0 82.0558 13.7589 1129 107.667 694.716 501.691
48 0 86.0303 14.2624 1227 106.016 694.552 499.196
49 0 89.0169 13.9412 1241 107.671 694.589 498.799
50 0 90.0508 14.3475 1292 108.072 694.731 497.865
51 0 93.0224 13.9644 1299 108.921 695.363 496.488
52 0 95.0444 13.7094 1303 109.825 695.18 496.355
53 0 99.0611 14.1933 1406 108.197 695.809 494.523
54 0 102.077 13.6074 1389 109.723 695.589 492.91
55 0 105.078 13.9325 1464 109.421 696.053 490.023
56 1 164.101 13.6623 2242 108.785 696.244 466.899
57 1 114.058 14.2559 1626 107.423 695.507 485.993
58 1 61.0397 12.4345 759 107.921 696.2 513.982
59 0 64.064 12.8934 826 107.765 695.656 513.189
60 0 66.0321 13.1451 868 106.868 695.457 513.149
61 0 67.0226 13.0105 872 106.913 695.657 510.822
62 0 70.0798 12.9138 905 104.019 695.297 510.318
63 0 71.0519 12.4275 883 105.335 696.233 509.546
64 0 72.0901 12.8034 923 105.082 695.968 506.894
65 0 77.0956 13.4898 1040 102.639 696.388 507.387
66 0 79.033 13.2097 1044 102.635 696.134 508.243
67 0 80.0245 13.196 1056 104.183 695.71 505.609
68 0 85.0176 13.3737 1137 101.412 696.297 504.091
69 0 86.0371 13.006 1119 103.303 695.965 502.591
70 0 90.027 14.1624 1275 101.136 695.471 501.803
71 0 92.0622 13.8168 1272 102.606 695.748 500.891
72 0 95.0386 13.3419 1268 103.258 695.915 499.513
73 0 98.0375 13.5662 1330 101.447 695.89 497.138
74 0 100.072 12.8908 1290 102.6 696.473 494.922
75 0 105.034 13.31 1398 100.355 696.388 493.975
76 1 57.0246 11.2583 642 95.5093 696.852 517.625
77 0 60.0192 11.8462 711 93.097 696.612 516.073
78 0 62.0601 12.1012 751 91.036 696.481 515.529
79 0 63.0232 12.1225 764 91.0982 696.999 514.863
80 0 64.0262 11.917 763 92.017 696.531 513.636
81 0 68.037 12.552 854 90.6991 696.432 511.59
82 0 70.0594 12.5037 876 90.8174 697.502 509.885
83 0 71.0228 12.7987 909 90.8163 697.312 508.397
84 0 76.0537 12.8199 975 90.4041 697.297 506.893
85 0 77.0492 12.5764 969 91.5263 696.703 505.564
86 0 80.0271 12.6082 1009 91.3974 697.513 505.177
87 0 82.058 12.7958 1050 90.4048 697.129 503.31
88 0 85.0345 12.6302 1074 90.5633 697.399 501.977
89 0 88.0321 12.3364 1086 90.9263 697.11 499.882
90 0 90.0371 12.0173 1082 91.1423 697.019 500.274
91 0 95.0615 12.6865 1206 92.9842 697.283 498.136
92 1 47.0277 10.9722 516 87.7965 696.409 520.55
93 0 48.0423 10.7614 517 86.6267 696.267 520.627
94 0 50.1079 11.3954 571 84.4536 696.024 519.531
95 0 50.0441 11.4899 575 85.1183 695.541 519.64
96 0 52.0214 11.4376 595 85.1008 695.839 517.99
97 0 54.0237 11.1618 603 85.5771 696.027 516.856
98 0 54.0142 11.6821 631 85.2441 696.062 516.837
99 0 58.0449 11.1465 647 86.3045 695.606 515.321
100 0 60.0166 11.0303 662 87.0317 695.369 513.983
101 0 61.0257 11.8475 723 85.592 695.344 514.127
102 0 63.0184 11.5839 730 86.9973 696.056 511.637
103 0 68.0484 12.447 847 85.1464 695.796 510.117
104 0 70.1004 12.7246 892 86.0796 695.404 508.971
105 0 73.0611 12.4416 909 87.6073 695.594 508.778
106 0 76.0876 13.0902 996 88.3795 695.967 506.49
107 0 78.0922 13.3432 1042 89.5931 695.816 505.007
108 0 81.0932 12.8124 1039 94.2339 695.756 503.537
109 0 83.0571 13.2439 1100 93.3427 695.313 503.687
110 0 86.1303 12.7133 1095 95.3078 696.313 501.471
111 0 87.0815 12.4711 1086 99.7311 696.469 500.023
112 1 46.029 11.1669 514 102.082 696.691 520.163
113 0 49.1001 11.6293 571 93.2382 696.312 519.967
114 0 50.0442 12.0094 601 89.3361 695.664 519.572
115 0 52.0367 12.2606 638 89.0627 695.31 519.953
116 0 51.0219 11.8773 606 91.8119 695.551 520.073
117 0 54.0125 11.5159 622 92.5402 695.814 519.304
118 0 53.0169 11.4869 609 92.867 695.911 519.312
119 0 57.0284 11.4855 655 92.0489 695.582 517.226
120 0 56.0416 11.3844 638 93.3793 695.716 517.862
121 0 59.042 11.6358 687 92.2518 696.303 516.927
122 0 61.0204 11.9468 729 91.0508 695.428 516.578
123 0 62.0342 11.8644 736 91.8111 695.681 514.31
124 0 64.0679 12.0965 775 91.9174 695.917 513.752
125 0 68.0542 11.9464 813 91.9816 695.396 511.343
126 0 69.0636 11.9165 823 92.096 695.989 511.053
127 0 71.0598 11.7225 833 92.9424 695.636 510.433
128 0 73.0446 12.02 878 92.7369 695.486 508.79
129 0 75.1065 11.8898 893 92.6506 695.648 508.512
130 0 79.0378 12.1967 964 92.0695 696.017 506.256
131 0 81.1501 11.8792 964 93.1359 695.964 505.953
132 0 83.0452 12.2825 1020 93.2196 695.747 505.168
133 1 45.05 11.7647 530 95.8396 695.724 520.715
134 0 47.0378 11.9691 563 95.341 695.272 521.487
135 0 49.0472 12.5186 614 93.7769 695.691 519.992
136 0 45.0492 10.4774 472 88.6674 696.275 522.203
137 0 47.0401 11.841 557 85.4111 695.941 521.756
138 0 46.008 11.1937 515 87.8777 696.307 521.412
139 0 49.0107 11.7934 578 85.5709 696.132 519.356
140 0 50.0334 11.1126 556 85.7374 696.216 520.721
141 0 53.03 11.1635 592 84.027 696.623 520.465
142 0 55.036 10.9565 603 84.0083 695.022 520.42
143 0 57.0714 11.2841 644 83.045 695.825 518.031
144 0 58.0359 10.6314 617 83.2593 695.687 516.95
145 0 61.0173 11.5377 704 81.7543 696.335 516.605
146 0 62.0745 10.3746 644 83.4146 695.991 515.621
147 0 66.0604 10.9143 721 81.2552 695.682 514.104
148 0 67.0271 11.3984 764 81.1976 696.313 511.562
149 0 68.0336 9.90688 674 82.5415 695.335 512.875
150 0 72.0314 11.2867 813 81.2374 694.672 509.606
151 0 75.0326 11.7416 881 80.9489 694.77 508.24
152 0 77.0322 10.9435 843 82.8304 695.166 506.791
153 0 79.0704 10.9649 867 84.0669 694.979 504.494
154 0 82.0247 11.5575 948 82.5063 695.383 503.97
155 1 41.0155 9.92308 407 81.5872 694.968 523.334
156 0 43.0144 10.2059 439 81.4738 694.747 522.925
157 0 44.0194 10.5181 463 81.689 695.158 521.147
158 0 46.0123 11.3448 522 84.2682 695.431 520.077
159 0 44.0665 10.0076 441 80.9887 695.742 520.862
160 0 47.0376 10.7786 507 78.9408 695.014 519.925
161 0 48.0181 10.7876 518 79.0232 694.479 519.085
162 0 49.0208 10.6893 524 79.5611 694.559 518.466
163 0 53.0149 10.8837 577 81.078 694.6 516.619
164 0 54.0213 11.2733 609 83.2299 695.049 513.846
165 0 54.0412 10.8251 585 85.9692 694.997 513.552
166 0 58.0582 11.9535 694 83.6571 694.976 511.509
167 0 59.0924 11.9474 706 83.602 695.813 510.499
168 0 61.174 11.5245 705 85.2355 695.776 509.801
169 0 62.0857 11.9996 745 85.0725 695.324 509.321
170 0 66.1106 11.8892 786 85.4415 695.307 508.987
171 0 68.0993 12.0706 822 85.8528 694.749 507.06
172 0 69.1196 11.2414 777 88.9575 695.432 507.152
173 0 72.1324 12.2552 884 85.1052 695.842 504.371
174 0 74.143 12.5029 927 79.617 695.59 503.28
175 0 75.0941 11.6387 874 89.3707 695.341 504.635
176 0 80.1273 12.2305 980 88.6714 694.719 503.169
177 0 81.0477 11.5611 937 91.5155 693.987 500.93
178 0 86.2028 12.1922 1051 89.0695 694.659 501.237
179 1 44.0285 10.8566 478 85.1862 695.094 521.08
180 0 46.0216 11.1687 514 87.2665 695.045 520.436
181 0 47.0268 11.3552 534 88.2397 695.225 519.788
182 0 50.0153 11.9763 599 85.8147 695.329 518.746
183 0 50.0258 11.7339 587 85.8279 695.135 518.348
184 0 50.0179 10.9961 550 87.1255 695.338 517.902
185 0 53.0406 11.6138 616 85.5471 695.273 516.946
186 0 55.0188 11.905 655 84.5374 695.2 515.569
187 0 57.032 12.116 691 85.6035 694.372 514.381
188 0 59.0622 12.2583 724 88.1492 694.401 512.356
189 0 62.0334 12.3965 769 87.4694 694.966 510.58
190 0 62.0693 11.5999 720 90.3333 694.842 509.639
191 0 64.0318 12.0877 774 89.5375 695.475 508.043
192 0 67.022 12.1453 814 88.0135 695.56 507.638
193 0 69.0336 11.3423 783 88.9017 695.147 506.928
194 0 70.0706 12.1021 848 87.6686 695.869 504.2
195 0 71.0111 11.5193 818 89.4927 695.224 503.271
196 0 76.0318 11.9818 911 88.0538 694.615 503.361
197 0 77.0743 11.9365 920 87.5435 694.539 502.99
198 0 80.0376 11.7945 944 88.179 694.595 500.451
199 0 87.0948 14.4096 1255 80.31 694.25 497.547
200 0 87.1018 14.3166 1247 82.7201 694.59 497.415
201 0 89.0894 12.7176 1133 87.3707 694.541 496.5
202 0 91.0592 12.7609 1162 111.227 694.314 495.969
203 0 95.074 12.9057 1227 109.825 694.292 494.867
204 0 99.0337 12.3998 1228 109.789 693.811 493.256
205 0 102.069 12.325 1258 110.3 693.404 491.401
206 0 104.046 12.8982 1342 110.583 693.238 488.876
207 0 108.062 12.7612 1379 109.619 693.062 488.31
208 1 59.0243 10.4533 617 106.065 693.391 513.677
209 0 61.0621 11.3982 696 104.8 694.122 511.289
210 0 64.0856 11.6563 747 104.161 694.59 510.149
211 0 63.0781 11.779 743 93.7672 694.499 511.475
212 0 66.069 11.3518 750 96.46 693.815 510.356
213 0 68.052 11.8292 805 95.1876 693.542 509.247
214 0 72.092 11.6102 837 95.8614 692.842 507.573
215 0 73.0567 11.5937 847 96.2928 693.27 507.281
216 0 75.0399 11.847 889 96.8189 693.184 504.377
217 0 78.0774 12.0009 937 96.1686 693.795 502.922
218 0 80.0426 11.3939 912 97.8618 693.414 502.434
219 0 82.1212 11.3978 936 99.0524 693.845 500.268
220 0 84.0893 12.1537 1022 99.4286 693.997 498.516
221 0 89.0634 12.1936 1086 101.116 693.506 495.46
222 0 92.0595 11.6446 1072 102.652 694.364 494.964
223 0 94.0826 11.7237 1103 103.243 693.589 493.305
224 0 97.0797 12.1859 1183 101.363 693.254 492.744
225 0 101.054 12.0628 1219 102.621 693.326 490.042
226 0 104.092 11.778 1226 103.467 693.639 488.13
227 0 106.048 12.1361 1287 102.678 693.776 485.789
228 0 110.057 12.4117 1366 101.978 693.947 485.197
229 0 113.044 11.9599 1352 103.157 694.246 483.956
230 1 59.0722 9.07364 536 93.4757 694.649 514.972
231 0 60.0503 9.67523 581 92.5955 693.868 511.745
232 0 62.03 10.8496 673 90.795 693.372 510.923
233 0 64.037 11.2279 719 89.872 693.378 511.737
234 0 66.0802 10.578 699 100.338 692.491 508.751
235 0 69.0495 11.0935 766 98.0052 692.484 507.866
236 0 70.0985 11.0416 774 98.0426 692.656 505.833
237 0 74.0361 11.5214 853 95.2778 693.836 505.836
238 0 76.1087 11.2602 857 95.8343 693.607 504.268
239 0 77.0392 10.9035 840 95.6179 693.771 504.223
240 0 79.0491 11.4992 909 94.1727 693.495 502.903
241 0 80.0373 10.8949 872 96.8154 693.755 502.536
242 0 85.0208 11.0796 942 95.3843 693.856 500.962
243 0 88.0436 11.3012 995 95.4161 693.399 499.314
244 0 89.021 10.6604 949 98.7376 693.565 497.118
245 0 92.0755 11.4254 1052 97.1226 693.627 496.617
246 0 95.0291 12.0279 1143 95.4899 693.091 495.591
247 0 97.0416 11.0674 1074 97.541 692.802 495.896
248 0 101.059 11.3399 1146 97.1763 693.545 491.961
249 0 105.085 11.7809 1238 96.273 693.023 491.301
250 1 53.035 10.2951 546 88.1557 693.603 517.192
251 0 55.0226 10.5229 579 88.2159 693.252 515.297
252 0 56.0947 10.0009 561 87.5508 694.588 516.761
253 0 59.0274 10.9949 649 85.755 694.345 514.143
254 0 61.0919 10.9016 666 85.8889 694.527 512.953
255 0 62.0422 11.5566 717 85.675 695.063 511.24
256 0 63.0363 10.9619 691 88.2229 694.404 511.433
257 0 66.0471 11.3404 749 88.3632 693.849 508.947
258 0 67.0455 11.3952 764 89.6152 693.094 510.021
259 0 70.0227 10.9679 768 90.8268 693.296 507.935
260 0 72.0538 11.7967 850 90.5988 693.371 507.126
261 0 72.1433 11.2554 812 94.2869 693.259 504.98
262 0 75.0445 11.4465 859 93.7066 693.813 505.349
263 0 79.0289 11.4768 907 94.9768 693.766 503.223
264 0 79.0576 11.5612 914 97.0624 693.861 500.94
265 0 81.0532 11.1532 904 97.5431 694.21 499.938
266 0 83.0622 11.7502 976 96.4744 694.416 497.665
267 0 87.1352 11.2698 982 96.4796 694.001 496.205
268 0 89.1328 11.0397 984 97.1423 693.184 495.499
269 0 91.1155 10.8873 992 97.4325 693.115 493.608
270 0 95.1117 11.3446 1079 95.6589 692.136 492.322
271 0 94.1409 10.1656 957 99.0846 692.457 489.576
272 0 100.124 11.6456 1166 94.6518 692.476 490.002
273 0 103.122 11.4137 1177 94.5709 693.034 488.07
274 0 107.151 12.4684 1336 91.8211 692.787 486.879
275 0 109.141 11.6913 1276 93.8025 693.33 485.99
276 1 58.0716 10.4354 606 90.396 694.274 514.444
277 0 59.0515 10.4316 616 92.375 693.945 511.964
278 0 62.056 11.0706 687 92.9039 693.434 509.977
279 0 62.0362 11.2354 697 90.4935 693.616 506.472
280 0 63.0299 10.7885 680 91.9603 692.538 506.421
281 0 63.0768 10.0037 631 88.0079 692.613 508.967
282 0 65.0781 10.618 691 87.081 693.381 508.103
283 0 66.0447 10.1144 668 88.6856 693.744 509.412
284 0 70.0401 10.8652 761 87.9212 693.074 506.076
285 0 73.0396 11.8292 864 85.2951 692.946 503.022
286 0 72.0938 9.73731 702 90.8234 693.255 503.903
287 0 78.0408 10.3279 806 89.0124 693.321 502.475
288 0 80.0443 10.8815 871 89.0494 693.45 501.334
289 0 81.0892 10.4823 850 90.3506 692.939 500.684
290 0 85.0705 11.4728 976 88.7715 692.354 496.985
291 0 86.0326 11.0307 949 89.9716 693.241 496.611
292 0 90.0784 10.7351 967 89.0238 692.2 495.584
293 0 91.1006 10.9549 998 86.7034 692.396 493.623
294 1 48.1046 10.0406 483 84.9979 692.781 516.474
295 0 50.035 10.2328 512 84.2129 692.838 515.051
296 0 52.0302 10.7438 559 82.9141 692.866 514.955
297 0 51.0508 11.5179 588 80.4473 692.958 513.607
298 0 54.0459 11.2497 608 79.597 692.804 513.423
299 0 55.013 11.4518 630 79.7714 692.56 514.646
300 0 58.0478 11.4905 667 79.2369 692.303 513.858
301 0 59.0534 12.1077 715 79.242 691.642 512.501
302 0 61.0178 11.4229 697 79.9799 692.759 511.948
303 0 63.0665 11.9398 753 80.2417 692.839 512.183
304 0 64.0686 11.3316 726 81.7658 693.112 511.664
305 0 65.0464 11.5149 749 82.51 693.025 510.382
306 0 67.0302 11.8752 796 82.8342 693.318 510.187
307 0 68.0622 11.2397 765 85.051 693.634 508.45
308 0 72.0429 12.3676 891 82.8945 694.195 507.101
309 0 74.0639 11.8276 876 84.8436 693.024 507.9
310 0 76.0426 12.4272 945 84.8032 692.813 506.443
311 0 78.0275 12.3162 961 86.6889 693.527 506.132
312 0 81.0651 12.3234 999 87.3133 692.869 505.294
313 0 81.0341 12.2418 992 88.8145 693.866 504.146
314 0 84.0178 13.1282 1103 86.7652 693.269 503.19
315 0 87.0483 12.7975 1114 89.0413 693.867 500.935
316 0 89.0356 12.7028 1131 89.9505 693.625 500.248
317 0 91.053 12.9046 1175 91.5966 692.957 498.363
318 0 92.0194 12.8234 1180 93.5924 692.699 497.32
319 0 97.0457 13.5709 1317 89.7623 692.15 496.776
320 0 98.0371 13.1991 1294 91.0981 692.262 496.747
321 0 102.046 13.1215 1339 91.7438 692.107 494.981
322 0 104.105 12.9101 1344 93.2299 692.29 492.306
323 0 108.071 13.2598 1433 92.9539 692.398 492.835
324 0 112.044 13.2359 1483 92.1011 692.154 490.631
325 0 114.155 13.0087 1485 93.7623 692.516 488.911
326 1 60.0748 10.4869 630 92.254 692.275 516.579
327 0 64.0886 11.2969 724 93.6409 692.189 515.733
328 0 66.0775 11.6379 769 94.71 691.675 515.216
329 0 66.0617 10.6113 701 86.0342 691.696 514.996
330 0 67.0642 11.1237 746 85.7212 690.629 514.87
331 0 65.0629 10.6051 690 132.981 689.639 514.07
332 0 71.0383 11.1771 794 87.9244 690.928 510.897
333 0 72.0822 11.3482 818 87.2469 691.21 510.584
334 0 75.0332 11.3283 850 88.1118 691.034 509.034
335 0 76.0329 11.403 867 89.5306 691.348 507.263
336 0 80.0309 11.9704 958 88.3027 690.592 507.219
337 0 83.0474 11.9209 990 89.5152 690.663 505.49
338 0 85.0805 12.2942 1046 91.6539 690.115 503.04
339 0 89.0568 12.2057 1087 91.8436 690.26 502.231
340 0 91.0963 12.3276 1123 92.0196 690.514 501.387
341 1 48.0374 10.5959 509 88.3379 690.723 523.475
342 0 49.0168 10.833 531 88.7288 690.467 522.819
343 0 50.0142 10.9769 549 88.8215 690.455 521.949
344 0 52.0208 11.0725 576 91.3038 690.359 521.401
345 0 54.0222 11.5878 626 90.3482 689.82 520.399
346 0 57.0408 11.8687 677 88.2939 688.592 520.068
347 0 58.039 11.8885 690 88.4623 688.535 521.7
348 0 59.0209 12.1821 719 89.3644 689.377 518.789
349 0 59.0248 12.0288 710 91.1437 688.397 519.663
350 0 62.0618 12.1814 756 90.6389 689.369 517.845
351 0 63.0352 11.9774 755 91.898 690.148 515.854
352 0 66.0555 12.217 807 90.8129 689.69 515.892
353 0 68.0437 12.5361 853 91.3658 689.849 514.453
354 0 68.0228 12.878 876 92.6895 689.328 512.704
355 0 71.014 12.7862 908 93.6057 688.653 511.748
356 0 73.062 12.9068 943 93.4867 688.824 510.888
357 0 76.0176 12.6418 961 93.5473 689.709 511.095
358 0 78.0326 12.1488 948 96.2764 689.839 509.592
359 0 80.0698 12.639 1012 102.343 689.735 507.552
360 0 82.0934 13.1801 1082 100.653 690.626 505.563
361 0 88.0523 15.0252 1323 93.1164 690.496 502.298
362 0 88.0625 13.956 1229 95.581 690.701 502.145
363 0 88.0529 12.9013 1136 99.3081 690.524 503.916
364 0 90.1023 12.6079 1136 100.18 690.665 501.5
365 0 92.0897 12.4335 1145 100.102 691.023 501.224
366 1 48.0111 10.7892 518 97.6776 690.448 524.255
367 0 49.016 10.9352 536 96.7873 691.205 523.424
368 0 50.0169 12.0159 601 93.9085 691.552 522.877
369 0 50.0387 11.8908 595 94.7008 690.655 522.872
370 0 51.0374 12.0304 614 94.4072 691.054 520.884
371 0 55.0776 12.5278 690 93.1783 690.787 519.754
372 0 51.057 11.2228 573 90.4555 690.665 520.796
373 0 54.0431 11.8979 643 88.0715 691.033 521.263
374 0 56.0184 11.4248 640 88.3781 691.027 518.427
375 0 58.049 11.5937 673 89.4264 690.539 518.108
376 0 59.051 12.0404 711 89.9958 690.617 515.586
377 0 61.0234 11.553 705 91.2567 690.458 515.548
378 0 63.0741 11.7957 744 90.7285 691.288 514.395
379 0 63.0785 12.1119 764 90.3037 691.462 513.572
380 0 67.0357 12.0235 806 91.0261 691.502 511.989
381 0 69.0336 12.3128 850 90.5282 691.358 511.604
382 0 71.1134 12.0793 859 92.0035 691.538 510.219
383 0 72.0763 12.4729 899 93.129 691.545 509.978
384 0 75.0384 12.6868 952 93.6324 690.876 508.344
385 0 80.0435 14.5546 1165 90.6996 690.733 503.573
386 0 81.0376 13.4259 1088 95.75 690.915 502.483
387 0 83.0726 12.9405 1075 95.7991 691.277 504.004
388 0 83.0399 12.6807 1053 96.3609 691.47 503.701
389 0 87.0501 12.6019 1097 95.8332 691.535 501.362
390 0 91.0877 12.9326 1178 95.0255 691.694 500.653
391 0 90.0951 11.9984 1081 97.0777 692.201 498.851
392 0 95.1021 12.7968 1217 94.7058 692.395 495.63
393 0 100.092 12.6183 1263 94.7276 691.649 495.375
394 0 103.083 12.941 1334 93.9978 691.786 491.816
395 0 105.081 12.714 1336 94.979 692.204 490.002
396 0 108.072 12.6305 1365 94.3385 692.253 488.007
397 0 114.143 13.194 1506 91.9668 691.853 485.958
398 0 118.109 12.9796 1533 92.2674 691.773 483.814
399 0 121.082 12.314 1491 94.2482 691.867 480.901
400 0 127.064 13.0249 1655 92.4834 691.88 478.712
401 1 65.0426 12.1766 792 91.1023 692.283 507.523
402 0 67.0089 12.0432 807 92.3147 692.602 506.63
403 0 69.0271 11.8214 816 93.2279 692.233 504.729
404 0 69.1593 11.1626 772 92.1852 691.868 508.447
405 0 74.0739 11.4345 847 91.2031 692.823 508.022
406 0 78.0751 11.7451 917 90.7121 691.802 505.361
407 0 79.0727 11.4325 904 92.1294 691.76 505.05
408 0 81.086 11.642 944 93.6441 691.514 502.569
409 0 83.0783 11.8683 986 94.7322 691.424 501.236
410 0 86.0377 11.7739 1013 95.3208 692.344 500.682
411 0 91.0642 12.4308 1132 94.0583 692.182 498.693
412 0 93.1123 12.1788 1134 94.2019 691.936 493.518
413 0 96.066 12.3873 1190 95.2731 691.398 492.361
414 0 99.1188 12.4497 1234 94.6621 691.316 490.666
415 0 103.081 12.3689 1275 95.1616 690.962 488.762
416 0 108.065 13.3253 1440 93.8076 691.367 487.352
417 0 113.094 13.1307 1485 94.0694 691.89 486.057
418 0 115.147 13.1223 1511 93.9305 691.809 480.263
419 0 120.068 12.6928 1524 94.9429 692.465 478.683
420 1 64.1102 11.3087 725 94.1972 692.183 510.164
421 0 66.091 12.2256 808 95.8106 691.6 511.913
422 0 69.0701 12.1905 842 86.8112 691.664 511.381
423 0 70.0391 12.2646 859 90.2084 691.641 510.471
424 0 73.0633 12.4823 912 93.7807 691.875 509.177
425 0 75.0535 12.6576 950 92.8758 691.419 508.134
426 0 79.0547 12.738 1007 96.143 691.982 505.675
427 0 81.0247 12.6751 1027 97.0166 691.428 503.998
428 0 84.1446 12.7281 1071 97.0756 691.837 501.82
429 0 86.0243 12.7638 1098 96.0956 691.575 501.352
430 0 89.0255 12.547 1117 96.1916 691.64 500.053
431 0 92.0509 12.5365 1154 96.6906 691.744 498.611
432 0 91.0482 12.2023 1111 99.3744 690.946 496.536
433 0 96.0938 12.7792 1228 95.7655 690.895 495.314
434 0 97.1564 12.4027 1205 96.6324 690.865 491.842
435 0 103.064 13.5062 1392 92.541 690.853 489.325
436 0 104.103 11.9785 1247 97.4451 691.622 490.023
437 0 106.053 12.4183 1317 96.4837 692.462 487.146
438 0 112.056 12.1636 1363 96.6698 692.34 487.986
439 0 115.037 12.8742 1481 95.6442 691.89 484.716
440 0 117.087 11.8459 1387 99.3316 692.378 482.64
441 0 123.065 12.1156 1491 97.7096 691.951 481.673
442 0 125.057 11.9066 1489 99.8207 692.049 479.267
443 0 129.033 12.1674 1570 98.6382 691.269 476.682
444 0 135.087 12.355 1669 97.5045 690.922 476.374
445 0 139.038 12.8742 1790 97.5609 690.931 473.237
446 0 143.067 12.6514 1810 99.3779 691.374 471.329
447 0 149.119 12.8287 1913 98.7318 691.546 468.561
448 0 153.156 12.8627 1970 99.5807 691.139 465.95
449 0 159.15 12.9689 2064 98.9874 692.261 463.112
450 1 74.1569 10.262 761 99.7214 690.76 505.531
451 0 77.1124 10.4004 802 99.6833 690.161 504.193
452 0 80.146 11.1796 896 99.7254 690.534 502.705
453 0 81.0724 11.2492 912 103.147 691.465 498.84
454 0 82.112 10.8754 893 99.4434 691.182 495.736
455 0 86.0957 11.9634 1030 101.269 691.508 495.17
456 0 88.195 12.0302 1061 100.836 692.199 494.996
457 0 92.1463 12.2631 1130 98.3274 692.273 493.814
458 0 93.142 12.3682 1152 100.096 692.229 492.049
459 0 95.1269 11.984 1140 101.147 691.779 491.461
460 0 99.2091 12.0049 1191 99.5877 691.124 487.582
461 0 99.1933 12.1581 1206 100.347 691.274 483.502
462 0 103.208 11.9371 1232 99.0568 692.2 481.145
463 0 107.267 12.4456 1335 97.8442 691.724 480.016
464 0 112.247 12.2854 1379 97.8231 691.961 478.891
465 0 117.157 12.7265 1491 96.4346 692.262 478.88
466 0 122.178 12.8337 1568 95.5644 692.415 479.278
467 0 123.208 12.3044 1516 99.434 692.511 478.28
468 0 129.181 12.2232 1579 93.7587 691.968 476.559
469 0 132.138 12.048 1592 93.1658 691.347 474.145
470 0 138.167 12.5211 1730 92.2861 691.231 472.361
471 0 142.104 12.4627 1771 91.6358 691.842 471.569
472 0 147.119 12.3574 1818 93.0044 691.911 467.796
473 0 150.19 12.391 1861 94.5046 691.96 464.717
474 0 156.167 13.6072 2125 93.6038 692.27 462.775
475 0 157.189 12.9398 2034 96.7193 692.39 460.382
476 0 162.092 12.6719 2054 97.4041 692.305 459.017
477 0 168.109 13.2057 2220 95.655 692.064 457.499
478 0 173.156 12.7804 2213 96.3751 691.132 453.702
479 0 180.213 13.7449 2477 93.264 691.104 446.14
480 0 183.157 14.3647 2631 85.3406 690.978 442.854
481 0 192.209 13.1576 2529 92.5979 691.514 444.925
482 0 197.192 13.4742 2657 92.2089 691.622 443.132
483 0 203.151 12.5129 2542 91.3788 691.043 436.235
484 1 142.144 10.0039 1422 88.3502 691.711 460.447
485 0 144.109 10.1728 1466 86.5784 691.422 455.092
486 0 150.174 10.9673 1647 85.5792 691.162 454.451
487 0 158.067 11.9823 1894 88.8685 691.226 459.739
488 0 156.102 11.1338 1738 90.1087 690.011 451.035
489 0 160.119 11.098 1777 87.7288 690.42 448.376
490 0 172.156 11.4547 1972 83.4199 689.994 445.541
491 0 177.133 11.7257 2077 83.6808 690.026 442.532
492 0 185.126 11.873 2198 82.9422 690.118 441.43
493 0 188.094 11.0317 2075 85.9586 689.843 437.25
494 0 196.128 11.6301 2281 84.5235 690.923 434.576
495 0 202.137 11.6109 2347 85.4947 691.693 432.548
496 0 209.134 11.4281 2390 87.4833 691.167 428.863
497 1 222.192 12.1201 2693 86.6535 690.763 431.124
498 0 225.122 11.7714 2650 87.5611 690.963 426.741
499 1 174.143 10.8934 1897 84.3458 690.193 456.531
500 0 179.15 11.4653 2054 83.2483 690.097 454.598
501 0 183.147 12.0177 2201 88.9359 690.474 447.901
502 0 190.201 12.5078 2379 87.5746 690.671 444.004
503 0 195.164 12.3332 2407 83.2243 690.221 441.215
504 0 200.192 12.1084 2424 85.4773 690.396 436.475
505 0 205.191 11.9693 2456 85.4006 690.939 431.433
506 0 214.185 12.5919 2697 82.9841 690.821 429.595
507 0 221.281 12.4096 2746 83.4472 690.921 422.259
508 0 229.196 12.8318 2941 83.0524 690.986 419.979
509 0 235.143 11.8353 2783 87.207 689.818 413.479
510 1 174.191 11.0338 1922 88.0328 689.889 453.857
511 0 182.153 11.7319 2137 85.9612 689.676 451.723
512 0 188.233 12.033 2265 80.6225 690.116 452.594
513 0 191.207 12.0602 2306 84.3391 690.705 452.961
514 0 197.076 11.8279 2331 84.4496 690.426 448.233
515 0 205.181 12.4378 2552 84.7128 690.205 445.391
516 0 211.152 12.1334 2562 86.3774 689.634 441.092
517 0 217.108 12.1967 2648 87.128 689.926 439.885
518 0 221.114 11.7632 2601 87.7955 689.747 437.562
519 0 228.198 12.0597 2752 87.7983 688.818 430.441
520 0 235.126 12.5677 2955 86.6254 688.235 424.408
521 0 241.146 12.4199 2995 86.631 689.097 424.02
522 0 248.153 12.1377 3012 86.1889 688.98 419.038
523 0 255.316 12.3259 3147 86.1957 689.411 413.284
524 0 261.176 11.5248 3010 89.5116 690.06 406.407
525 1 74.0395 10.0892 747 72 690.464 506.23
526 0 75.0859 9.92196 745 69.2 690.187 505.962
527 0 78.018 10.4848 818 65.5244 689.782 506.177
528 0 80.0715 10.8403 868 68.1578 689.177 507.556
529 0 81.0572 9.91892 804 70.9428 689.388 506.944
530 0 86.1182 10.9268 941 69.0149 689.53 504.454
531 0 88.0603 10.8448 955 70.0377 689.306 505.915
532 0 89.1005 10.6397 948 72.8449 689.412 501.415
533 0 94.0929 10.2027 960 73.3188 689.735 500.747
534 0 97.1243 11.0065 1069 72.6108 690.129 498.43
535 0 100.116 10.7476 1076 74.2658 689.671 496.743
536 0 102.215 10.5855 1082 82.0786 689.544 495.548
537 1 54.0627 8.93407 483 73.4265 689.675 520.242
538 0 56.1051 10.0347 563 70.5435 689.43 520.515
539 0 57.1651 9.97112 570 69.4895 689.581 519.447
540 0 59.1998 9.81422 581 69.7057 689.744 518.608
541 0 61.1202 10.1603 621 68.467 690.093 516.491
542 0 59.0317 9.52032 562 88.4893 690.509 453.55
543 0 65.1206 9.92005 646 79.3607 689.246 514.78
544 0 66.117 9.74031 644 69.7453 689.863 515.146
545 0 69.2156 11.1969 775 68.48 689.809 512.785
546 0 69.1612 9.80318 678 74.2094 689.406 511.156
547 0 71.1672 9.63927 686 76.6006 689.277 509.819
548 0 76.1786 11.1449 849 74.3333 689.108 509.137
549 0 77.1673 11.1057 857 74.79 689.231 508.378
550 0 79.2184 11.0328 874 75.46 689.185 509.216
551 0 82.1953 11.4118 938 75.436 688.906 507.517
552 0 84.2017 11.6506 981 74.5668 690.033 506.255
553 0 84.1865 11.4983 968 75.1519 690.369 505.643
554 0 87.1176 11.3639 990 76.0152 690.523 504.754
555 0 89.1183 11.0864 988 76.7126 690.08 503.914
556 0 93.1697 10.9048 1016 77.4646 689.28 502.186
557 0 96.1532 11.1593 1073 76.7978 689.41 501.232
558 0 98.1669 11.511 1130 76.3319 688.627 499.474
559 0 99.0882 11.3535 1125 76.8427 688.841 499.479
560 0 102.137 11.2594 1150 77.9244 688.579 497.281
561 0 107.226 11.3592 1218 77.3933 688.91 495.808
562 0 109.222 10.7854 1178 80.2377 688.77 492.626
563 1 61.3277 9.53892 585 75.4632 689.186 517.699
564 0 63.2665 10.3846 657 74.1507 689.362 517.091
565 0 64.1035 10.8574 696 73.0402 689.514 517.642
566 0 66.1698 10.9415 724 74.7693 689.11 516.279
567 0 69.0985 11.2303 776 74.768 688.673 514.844
568 0 72.1369 11.4227 824 74.7136 688.385 512.854
569 0 74.104 11.5513 856 76.3446 689.068 512.418
570 0 75.0964 11.2922 848 78.0566 688.894 512.249
571 0 78.0883 11.4998 898 79.4655 689.42 510.131
572 0 79.1089 10.9596 867 81.4475 689.473 510.528
573 0 83.0536 11.1374 925 83.6768 689.009 509.418
574 0 84.1003 11.6646 981 82.9552 689.701 506.875
575 0 88.0568 11.4699 1010 84.2842 688.94 506.343
576 1 45.0542 9.14453 412 81.0728 688.871 528.777
577 0 48.0349 8.97265 431 82.8051 688.592 528.039
578 0 50.0265 10.0547 503 81.2922 689.475 527.624
579 0 51.0368 9.87522 504 81.9643 689.427 525.964
580 0 51.0267 10.0732 514 82.5934 689.58 525.21
581 0 54.0245 10.3286 558 80.3996 690.324 524.287
582 0 54.0177 9.58944 518 82.1776 690.041 523.189
583 0 57.036 10.0463 573 80.9075 689.18 521.635
584 0 59.0733 10.5801 625 82.128 688.87 520.067
585 0 62.0248 11.6889 725 82.1669 688.818 517.818
586 0 66.053 12.0207 794 78.6776 688.666 517.514
587 0 68.0374 11.9199 811 78.7287 688.772 516.348
588 0 68.0556 11.8286 805 80.1019 688.599 516.645
589 0 72.0466 11.8396 853 79.5123 688.451 515.089
590 0 74.0438 11.6283 861 80.885 689.118 513.94
591 0 77.0656 12.3142 949 80.4447 689.569 513.376
592 0 77.0435 12.2658 945 81.8688 689.193 512.68
593 0 82.052 12.9186 1060 79.8519 689.067 510.763
594 0 84.0458 12.9215 1086 80.8784 688.076 510.08
595 0 87.0511 12.5673 1094 82.5777 688.464 508.832
596 0 88.0519 12.1292 1068 86.2781 688.957 507.833
597 0 93.0797 12.9029 1201 84.7011 688.916 506.327
598 0 95.1289 12.4778 1187 86.7169 689.27 503.597
599 0 97.0767 12.3717 1201 88.4846 689.19 502.961
600 1 51.0498 11.0676 565 90.4991 688.455 525.205
601 0 53.0288 11.3712 603 90.4013 688.304 524.826
602 0 54.0532 12.2657 663 90.5219 688.095 524.4
603 0 54.029 11.8825 642 92.0966 688.805 523.776
604 0 56.01 12.8191 718 90.4095 687.538 523.483
605 0 57.035 11.9926 684 90.2807 688.23 522.727
606 0 58.0233 12.3399 716 91.257 687.691 522.575
607 0 60.0655 12.4364 747 90.7015 687.932 520.489
608 0 60.0423 12.1581 730 92.0233 688.144 520.4
609 0 63.0655 12.5584 792 90.6023 688.404 519.809
610 0 66.0802 12.6362 835 89.6707 687.569 518.99
611 0 66.0482 12.824 847 90.6269 687.483 518.562
612 0 70.034 12.551 879 89.9579 687.491 517.418
613 0 71.0596 12.7639 907 91.473 687.55 515.92
614 0 74.0596 13.0841 969 91.6378 687.729 515.09
615 0 76.0553 12.8196 975 94.8995 687.513 513.191
616 0 78.0938 12.3057 961 95.7836 687.798 512.236
617 0 79.0408 12.7023 1004 98.6384 687.675 510.481
618 0 82.0981 12.753 1047 102.313 687.829 509.466
619 0 86.1474 12.9894 1119 99.664 687.869 506.399
620 0 89.0836 12.4378 1108 100.591 688.369 505.894
621 0 90.0952 11.9762 1079 101.525 687.873 503.019
622 0 93.117 11.4909 1070 98.4009 687.787 502.145
623 0 97.0837 11.5055 1117 94.7332 687.886 500.638
624 1 52.0737 11.5797 603 90.4279 688.302 522.242
625 0 52.066 11.7735 613 85.2594 688.1 522.024
626 0 52.091 11.7295 611 88.8756 688.201 520.586
627 0 56.0996 12.2639 688 95.8924 688.224 520.578
628 0 56.213 12.2214 687 96.3217 688.338 519.626
629 0 59.1028 12.1145 716 95.4427 688.656 519.497
630 0 62.1065 12.8167 796 92.2224 688.897 517.938
631 0 62.1435 12.7608 793 93.3796 688.681 516.276
632 0 62.2081 12.3778 770 92.5026 689.274 516.078
633 0 63.1131 12.5331 791 92.4222 688.824 515.023
634 0 65.1108 12.9011 840 91.6857 688.358 514.231
635 0 68.1538 12.3984 845 90.8024 689.211 513.847
636 0 68.0714 12.9276 880 90.1386 689.084 512.274
637 0 69.0688 12.2197 844 91.4976 688.967 512.765
638 0 71.1407 11.6248 827 92.9964 689.979 511.652
639 0 73.0986 11.7512 859 93.61 689.155 510.483
640 0 76.1202 12.2569 933 92.1672 688.638 509.333
641 0 79.0346 12.3237 974 93.3522 689.04 508.514
642 0 80.0791 12.0506 965 95.0964 688.916 507.837
643 0 82.0893 11.792 968 95.3926 689.245 506.315
644 0 84.0868 11.833 995 95.6482 689.727 503.446
645 0 89.1339 13.2048 1177 91.5327 689.788 500.627
646 0 93.1038 12.7707 1189 93.3936 689.846 498.532
647 0 100.23 13.9878 1402 90.7183 689.894 496.899
648 0 99.0653 11.9315 1182 91.3553 690.36 499.71
649 0 104.045 12.9271 1345 89.0483 689.995 497.998
650 0 105.095 12.5506 1319 90.8908 689.464 495.132
651 0 109.087 12.5313 1367 91.5296 689.142 493.04
652 0 112.069 12.9206 1448 90.8011 689.028 491.362
653 0 116.106 12.902 1498 90.4513 690.033 489.511
654 0 119.056 12.7167 1514 90.9822 690.321 487.764
655 1 62.0361 12.3315 765 92.9163 690.014 515.905
656 0 62.0349 12.364 767 93.7432 690.597 514.807
657 0 67.0584 12.8843 864 90.9641 690.124 513.841
658 0 68.1079 12.583 857 92.077 690.875 513.097
659 0 69.097 13.4159 927 89.6634 690.772 511.362
660 0 72.1164 13.3395 962 89.7328 690.963 511.182
661 0 72.0456 13.1583 948 90.9061 690.603 510.212
662 0 75.1351 12.9234 971 91.5458 689.384 508.421
663 0 79.1107 13.1335 1039 90.4803 689.863 508.51
664 0 78.0918 12.6774 990 89.1525 689.421 507.703
665 0 82.0678 12.7456 1046 87.7132 689.773 506.039
666 0 83.1335 13.2077 1098 86.7568 690.64 505.587
667 0 87.0805 12.8272 1117 87.436 690.692 504.522
668 0 90.0776 13.2774 1196 85.6789 690.688 503.445
669 0 92.0674 13.4793 1241 85.7816 690.556 501.093
670 0 95.0918 13.671 1300 86.1992 690.523 497.905
671 0 98.0886 13.2941 1304 86.4164 690.264 497.353
672 0 102.068 13.6477 1393 85.9296 690.479 496.789
673 0 104.106 13.5919 1415 86.9781 689.62 492.928
674 0 106.063 13.3977 1421 88.582 689.818 492.975
675 0 110.113 13.6315 1501 88.028 690.161 490.671
676 0 113.069 13.4165 1517 89.5847 690.303 489.163
677 0 116.097 13.4887 1566 90.0511 690.504 486.619
678 0 123.118 14.7663 1818 86.2635 690.667 481.42
679 0 125.126 13.5224 1692 89.802 690.787 484.529
680 0 130.159 13.6448 1776 90.8812 690.931 480.273
681 0 131.102 13.1577 1725 93.1426 689.914 477.749
682 0 137.101 13.3479 1830 93.2191 688.866 476.187
683 0 141.175 13.0972 1849 93.8545 689.555 474.168
684 0 146.213 13.3231 1948 92.4805 690.812 473.399
685 0 153.294 13.2099 2025 91.839 691.156 468.699
686 0 156.173 12.9023 2015 94.4993 691.524 463.41
687 0 163.141 13.5649 2213 93.2644 691.676 459.912
688 0 166.144 12.3989 2060 97.3782 691.242 456.812
689 0 173.116 13.2686 2297 95.3692 691.449 455.969
690 0 177.183 12.7496 2259 98.2041 691.335 452.696
691 0 184.103 13.172 2425 96.9971 690.995 449.266
692 0 191.126 13.771 2632 96.8207 690.005 446.987
693 0 195.112 13.2437 2584 99.4822 690.156 444.374
694 0 201.17 13.6203 2740 99.0916 690.579 441.209
695 0 206.221 13.0588 2693 100.264 689.688 438.967
696 0 213.233 13.7643 2935 98.6048 689.873 437.341
697 0 220.258 13.3752 2946 99.8785 690.141 434.816
698 0 229.278 14.5849 3344 97.4856 689.792 432.448
699 1 174.131 11.4511 1994 104.427 690.566 459.58
700 0 182.181 12.4546 2269 102.465 690.485 457.543
701 0 187.17 13.3942 2507 102.181 690.335 453.858
702 0 191.225 12.4827 2387 106.437 690.172 451.292
703 0 198.217 12.1987 2418 107.951 690.101 447.744
704 0 204.321 12.3286 2519 109.196 689.738 447.364
705 0 209.207 12.643 2645 110.441 689.97 444.08
706 0 218.26 12.7325 2779 110.237 690.098 438.352
707 0 225.224 12.6674 2853 111.614 690.364 436.42
708 0 234.213 12.954 3034 111.521 689.658 430.916
709 0 241.203 12.8523 3100 113.685 689.341 425.947
710 0 248.218 13.0732 3245 114.26 688.913 423.732
711 1 61.1331 11.2051 685 105.213 687.409 519.282
712 0 62.0827 11.8229 734 104.466 688.207 518.125
713 0 64.1588 12.2976 789 101.643 689.302 518.749
714 0 66.1426 12.0346 796 102.696 689.599 518.314
715 0 68.1096 11.966 815 102.809 689.517 516.996
716 0 67.0367 11.4415 767 96.7666 689.643 516.572
717 0 69.0791 12.1455 839 97.3433 689.702 516.762
718 0 71.062 11.9473 849 99.0942 689.792 517.734
719 0 72.0666 11.1147 801 101.106 689.08 517.519
720 0 75.0762 10.9222 820 101.21 688.307 515.483
721 0 77.0519 10.6162 818 103.116 688.854 511.323
722 0 81.0848 10.9885 891 100.818 688.809 511.494
723 0 83.0344 11.2604 935 100.619 688.859 509.467
724 0 85.0726 10.9201 929 101.897 688.428 509.225
725 0 89.0527 10.8251 964 101.559 689.078 508.002
726 1 49.0251 10.464 513 111.142 689.023 524.815
727 0 54.0295 11.4752 620 104.55 688.544 524.329
728 0 55.0995 11.5972 639 103.028 688.099 523.67
729 0 55.0795 11.9464 658 101.66 687.255 521.878
730 0 58.1234 11.7337 682 104.526 688.079 522.328
731 0 57.0964 11.4368 653 107.789 688.718 522.19
732 0 61.068 11.3644 694 106.481 688.709 521.65
733 0 62.1072 12.1242 753 102.704 688.71 521.26
734 0 62.0822 12.2257 759 101.321 689.004 519.05
735 0 64.1013 12.449 798 97.8058 689.239 518.551
736 0 64.072 12.6108 808 98.1213 689.281 517.557
737 0 67.0378 12.217 819 99.8205 689.41 516.134
738 0 69.1179 11.6178 803 101.653 689.07 514.791
739 0 72.1048 13.2169 953 95.9706 688.611 515.84
740 0 75.1156 13.4593 1011 94.905 688.867 513.053
741 0 75.1139 12.9803 975 97.7282 688.476 511.057
742 0 76.0845 12.3678 941 99.2625 688.498 510.694
743 0 79.1435 12.7869 1012 97.4032 688.862 508.458
744 0 82.049 13.0166 1068 95.691 688.863 507.7
745 0 83.1081 13.2478 1101 95.5295 688.486 506.806
746 0 83.0614 12.5088 1039 98.4976 689.465 505.743
747 0 86.0376 11.7391 1010 100.287 689.347 507.504
748 0 87.0638 11.8534 1032 101.996 688.692 504.099
749 1 47.0334 11.3962 536 105.041 687.623 523.25
750 0 48.0867 11.4585 551 105.044 687.499 521.223
751 0 50.0665 12.4834 625 101.518 688.75 521.736
752 0 50.0544 12.7861 640 103.608 688.741 519.836
753 0 54.087 13.0161 704 100.608 688.818 519.041
754 0 55.0472 13.2977 732 99.0123 688.94 517.982
755 0 55.0696 13.6191 750 98.4587 689.268 518.009
756 0 57.042 13.1657 751 99.6711 689.477 517.384
757 0 56.032 12.5286 702 103.362 689.395 516.949
758 0 60.065 13.2357 795 101.521 688.836 516.429
759 0 60.0482 13.1061 787 103.445 688.832 514.598
760 0 60.0483 12.773 767 105.922 688.885 515.004
761 0 62.0349 12.4768 774 106.213 688.871 512.939
762 0 63.0733 13.1276 828 105.798 689.111 509.9
763 0 67.0924 12.9374 868 105.361 689.474 510.071
764 0 69.1168 13.1951 912 105.216 689.819 508.509
765 0 69.0378 12.848 887 107.793 690.37 508.742
766 0 73.0774 13.342 975 104.999 689.891 506.962
767 0 74.0459 13.2891 984 106.687 690 505.243
768 0 76.0284 13.0741 994 108.397 689.582 504.073
769 0 79.0804 13.872 1097 106.512 689.483 502.833
770 0 81.06 13.2865 1077 107.827 689.874 501.287
771 0 84.0618 13.3949 1126 106.222 689.73 501.572
772 0 84.0812 13.2372 1113 107.096 690.445 501.921
773 0 86.1036 13.3676 1151 107.101 690.543 500.109
774 0 88.0472 13.0157 1146 108.099 690.582 498.124
775 0 91.0527 13.0474 1188 107.863 690.366 496.857
776 0 93.1033 12.7922 1191 107.242 689.323 493.529
777 0 95.0891 12.9142 1228 107.022 689.532 491.707
778 1 53.0219 11.7876 625 106.475 689.09 512.706
779 0 55.0773 12.546 691 102.841 688.994 513.961
780 0 56.0533 12.8271 719 103.587 688.876 512.78
781 0 59.0276 12.0283 710 101.246 689.801 513.504
782 0 60.0426 12.2913 738 101.245 689.996 513.187
783 0 61.0431 12.5649 767 100.576 690.013 510.733
784 0 62.0301 12.2682 761 100.784 690.033 511.283
785 0 64.0927 12.045 772 102.041 689.483 507.553
786 0 65.0798 12.3541 804 100.708 689.856 506.52
787 0 68.0714 12.1343 826 101.19 689.446 505.835
788 0 72.0434 12.4925 900 98.7256 689.74 503.008
789 0 75.0594 12.4568 935 99.2342 689.513 502.204
790 0 76.0278 12.4165 944 100.499 690.31 500.67
791 0 78.0736 11.9374 932 102.068 690.859 500.15
792 0 81.0462 11.8328 959 101.944 690.564 498.469
793 0 85.0278 12.4312 1057 99.7994 691.007 495.911
794 0 86.0439 12.0985 1041 99.9635 691.335 496.478
795 0 89.0814 12.337 1099 99.5942 691.092 493.823
796 0 90.0542 12.1815 1097 101.871 691.921 488.491
797 1 50.0299 9.63424 482 99.4627 691.118 514.45
798 0 54.0742 11.6692 631 99.2441 691.052 517.372
799 0 56.0307 11.6186 651 96.4762 691.226 515.923
800 0 59.0273 10.8086 638 97.9498 691.403 515.821
801 0 59.0171 10.624 627 92.9888 691.737 515.702
802 0 63.0755 11.0344 696 92.3376 691.927 515.142
803 0 65.0347 11.1786 727 92.5942 691.473 515.074
804 0 68.0877 11.4999 783 92.8621 692.087 514.581
805 0 70.0428 11.5501 809 95.1051 690.963 511.286
806 0 73.0456 11.4175 834 95.8525 691.182 510.896
807 0 73.0386 11.5008 840 98.819 690.936 510.193
808 0 78.0191 11.7023 913 98.8587 690.63 508.992
809 0 80.06 11.966 958 98.81 690.06 507.594
810 0 84.079 11.9293 1003 98.9113 690.349 506.049
811 0 84.0388 11.6375 978 98.8701 690.06 504.9
812 1 42.0138 9.28268 390 91.0154 689.418 528.382
813 0 45.0469 10.034 452 89.3053 689.945 527.708
814 0 46.0058 10.7378 494 93.6781 690.524 525.836
815 0 48.0233 11.3278 544 94.4779 690.072 526.285
816 0 49.0299 11.2788 553 91.5606 689.993 526.311
817 0 52.0135 10.8049 562 103.101 689.758 525.08
818 0 53.0381 10.8413 575 103.816 689.529 523.351
819 0 53.088 10.7557 571 104.995 688.539 522.637
820 0 54.0196 10.4962 567 104.767 688.499 521.353
821 0 56.0289 10.6374 596 103.195 688.552 521.193
822 0 58.0309 10.7529 624 102.319 688.388 519.421
823 0 58.0553 10.5589 613 102.86 688.506 519.55
824 0 61.0482 10.8111 660 101.526 688.727 518.594
825 0 62.0377 10.7032 664 102.654 688.753 517.712
826 0 64.0449 10.8674 696 101.747 689.517 518.486
827 0 64.045 10.68 684 93.0234 689.689 518.287
828 0 65.0498 10.4074 677 94.6322 689.492 516.569
829 0 67.0383 10.6506 714 93.1653 689.564 515.994
830 0 71.0899 12.3365 877 90.8119 689.477 513.424
831 0 75.0254 11.5694 868 93.8468 688.859 513.168
832 0 76.0469 11.4535 871 96.8978 688.722 512.016
833 0 78.0388 11.1739 872 99.219 688.298 510.898
834 0 80.0503 11.1805 895 97.0648 688.351 509.8
835 0 85.0456 12.0288 1023 93.0323 688.953 511.493
836 0 86.0568 11.8759 1022 92.8033 688.577 509.433
837 0 88.0644 11.8777 1046 93.5755 688.677 506.761
838 0 91.0667 11.6837 1064 92.5818 688.328 506.554
839 0 93.0504 12.0687 1123 92.9038 688.793 504.437
840 0 97.0732 12.2176 1186 91.7681 688.951 503.142
841 1 54.0338 11.0671 598 86.7575 688.885 526.246
842 0 55.0221 11.1228 612 87.786 688.864 524.935
843 0 57.0167 11.6983 667 88.8051 688.006 522.636
844 0 58.0144 10.9456 635 86.5984 687.809 522.704
845 0 59.0176 10.8442 640 87.3219 687.962 521.17
846 0 62.0772 11.5179 715 86.1622 687.785 519.248
847 0 63.031 10.947 690 88.3464 687.903 517.112
848 0 67.0413 11.1573 748 87.7594 687.944 515.344
849 0 69.0558 11.8021 815 87.5902 688.585 512.774
850 0 70.103 11.6543 817 88.4676 688.931 513.75
851 0 73.0129 11.7514 858 88.9988 688.858 511.528
852 0 75.0767 11.5482 867 90.0323 689.085 510.246
853 0 78.0542 11.4151 891 91.1717 687.597 509.411
854 0 81.0975 11.591 940 91.5926 688.216 508.546
855 1 45.0607 10.963 494 92.8502 688.024 526.389
856 0 46.0246 11.0376 508 94.2933 688.482 525.947
857 0 47.04 11.0332 519 96.0597 688.516 524.162
858 0 48.0342 11.3044 543 97.604 688.61 525.029
859 0 50.1558 11.6437 584 98.238 688.486 524.325
860 0 53.0344 12.3505 655 96.7145 689.234 523.831
861 0 54.075 12.5936 681 95.765 688.809 521.841
862 0 56.0992 12.5135 702 96.5712 688.597 521.161
863 0 58.079 12.6896 737 109.113 687.669 520.438
864 0 60.026 12.8111 769 108.73 687.615 519.202
865 0 61.0904 12.3587 755 112.513 688.33 518.797
866 0 63.0558 12.8458 810 111.135 688.552 518.204
867 0 65.0537 12.6818 825 111.361 688.916 517.452
868 0 65.0608 13.0493 849 111.404 688.575 516.332
869 0 68.0651 13.1198 893 109.966 688.672 515.289
870 0 68.0445 13.1972 898 109.177 688.007 514.697
871 0 71.0747 12.508 889 110.182 688.65 511.768
872 0 76.0666 13.4356 1022 106.462 688.06 513.022
873 0 76.0411 13.2823 1010 108.422 688.88 512.411
874 0 79.0425 13.2081 1044 108.014 688.682 511.528
875 0 81.0583 13.0893 1061 107.672 688.54 511.404
876 0 84.0591 12.8957 1084 106.684 687.742 510.124
877 1 44.0323 10.356 456 106.346 688.276 528.987
878 0 46.0315 11.2314 517 103.586 688.793 528.462
879 0 47.0257 11.6532 548 104.469 688.608 527.422
880 0 48.0177 12.0372 578 106.452 688.659 525.218
881 0 51.0223 12.6219 644 108.849 688.651 525.562
882 0 53.0304 13.0491 692 104.684 688.864 525.08
883 0 54.0237 12.513 676 113.2 688.374 524.166
884 0 54.0488 12.4887 675 115.16 688.378 523.687
885 0 56.0378 12.5451 703 114.687 688.351 521.344
886 0 58.0351 12.9577 752 112.577 688.004 520.472
887 0 58.0389 13.267 770 112.492 687.849 517.93
888 0 60.0261 12.8111 769 112.672 688.157 519.394
889 0 62.0197 12.7701 792 112.962 688.341 517.362
890 0 64.0438 13.6001 871 110.211 688.153 515.617
891 0 65.1136 12.9773 845 110.978 687.994 517.24
892 0 67.0181 12.7577 855 110.525 688.345 516.139
893 0 68.0658 13.6045 926 109.279 687.896 514.498
894 0 70.0234 13.3527 935 107.978 687.102 514.298
895 0 73.045 14.0872 1029 103.458 687.795 511.631
896 0 74.0877 14.0104 1038 103.392 687.997 510.266
897 0 75.0485 13.8311 1038 106.824 688.749 510.07
898 0 80.0589 13.8273 1107 104.926 688.102 508.745
899 0 81.0113 13.8129 1119 104.942 688.079 506.806
900 0 82.1281 14.1121 1159 104.609 688.009 506.689
901 0 87.0285 13.6967 1192 104.712 689.302 505.027
902 0 90.035 14.1723 1276 102.078 689.596 503.494
903 0 90.1003 13.7624 1240 104.625 689.54 502.471
904 0 91.0519 13.6076 1239 106.573 689.496 501.94
905 0 95.0639 14.0537 1336 103.915 689.12 498.403
906 0 101.113 15.4084 1558 96.8825 688.841 494.543
907 0 103.061 14.8359 1529 100.213 689.561 494.169
908 0 104.101 13.8711 1444 102.774 689.607 494.252
909 0 108.135 14.0565 1520 103.664 689.904 491.922
910 1 57.0449 12.6567 722 103.514 689.913 519.055
911 0 59.0347 13.0093 768 102.72 689.273 518.095
912 0 62.0542 13.5527 841 103.737 689.423 516.47
913 0 65.0636 13.3101 866 107.316 689.185 514.037
914 0 67.0812 13.9682 937 106.058 688.608 513.192
915 0 69.0485 13.7005 946 104.735 689.046 514.074
916 0 71.0845 13.3362 948 105.538 689.604 512.72
917 0 74.0482 13.7613 1019 104.415 689.092 510.608
918 0 77.0579 13.9895 1078 104.306 690.145 509.883
919 0 79.0201 13.5282 1069 103.332 689.471 509.129
920 0 82.0394 13.6886 1123 99.5218 689.378 509.34
921 0 88.0539 16.2968 1435 96.5498 688.413 505.374
922 0 90.0629 15.2227 1371 101.127 687.902 503.888
923 0 91.0334 14.2146 1294 104.838 688.834 505.014
924 0 93.0632 13.8616 1290 106.264 688.21 503.258
925 1 50.0362 12.5909 630 111.392 688.16 524.154
926 0 50.0297 13.7718 689 108.824 688.344 524.293
927 0 52.0325 13.703 713 108.99 688.149 523.635
928 0 54.0116 13.8304 747 107.652 688.987 522.739
929 0 56.036 13.5092 757 107.68 688.494 522.252
930 0 57.0469 14.2164 811 105.149 687.319 522.009
931 0 59.0596 14.0028 827 106.189 686.803 521.509
932 0 61.0318 14.2221 868 107.205 687.23 519.752
933 0 63.1176 13.9105 878 107.179 687.58 520.771
934 0 64.0764 13.6556 875 109.808 687.47 518.819
935 0 67.0653 14.389 965 106.608 687.758 518.932
936 0 70.0289 14.4797 1014 106.208 687.869 516.511
937 0 72.0762 14.124 1018 108.174 688.028 515.593
938 0 76.0638 14.948 1137 104.588 687.985 515.421
939 0 76.0457 14.6096 1111 108.042 687.109 514.687
940 0 78.109 14.723 1150 107.773 686.942 513.458
941 0 82.1222 15.1482 1244 106.454 687.022 511.806
942 0 84.0297 15.1018 1269 107.217 687.211 510.983
943 0 87.056 14.8525 1293 107.613 687.507 509.696
944 0 89.053 14.8563 1323 109.552 687.474 508.418
945 0 92.0275 15.2563 1404 109.037 687.519 507.476
946 0 94.0746 14.6905 1382 111.313 687.347 506.273
947 0 97.0874 15.2543 1481 109.804 687.242 504.447
948 0 100.051 14.6426 1465 112.437 687.122 501.823
949 0 105.052 15.2781 1605 110.251 686.406 498.228
950 0 109.087 15.0797 1645 109.455 687.167 496.921
951 0 114.052 15.1948 1733 118.296 686.551 497.894
952 1 59.0847 13.9969 827 128.566 687.831 522.247
953 0 62.0459 14.4248 895 126.232 687.477 521.143
954 0 62.0452 14.6828 911 128.382 688.409 518.611
955 0 67.038 15.2749 1024 116.179 687.948 516.811
956 0 68.0442 14.8286 1009 115.539 687.745 515.394
957 0 71.0713 15.2664 1085 114.362 688.442 514.747
958 0 73.0619 15.7401 1150 113.703 688.224 512.249
959 0 74.0507 15.6514 1159 115.174 688.129 510.734
960 0 78.072 15.3576 1199 116.155 687.083 509.692
961 0 80.0965 15.1567 1214 118.418 687.961 508.398
962 0 80.0965 15.2566 1222 179.959 688.953 508.411
963 0 86.0504 16.5252 1422 115.817 688.157 506.069
964 0 87.0779 15.3541 1337 117.894 688.316 504.765
965 0 90.0966 15.6499 1410 117.209 688.644 503.239
966 0 92.0883 15.42 1420 118.29 688.593 499.892
967 0 97.0793 15.6573 1520 114.616 688.971 500.22
968 0 99.0637 15.6465 1550 115.268 687.989 498.237
969 0 106.112 17.7549 1884 103.961 687.878 491.697
970 0 111.081 17.7167 1968 103.129 687.918 489.257
971 0 112.071 16.3825 1836 107.456 688.143 488.933
972 0 115.086 15.432 1776 109.837 687.993 488.267
973 0 118.111 15.3838 1817 108.953 688.006 486.106
974 0 122.077 15.2854 1866 110.166 688.47 484.003
975 0 126.109 15.5183 1957 109.116 688.586 483.851
976 0 131.123 15.3825 2017 110.615 688.882 480.975
977 0 136.121 15.5964 2123 110.266 689.242 478.616
978 0 140.069 15.4352 2162 112.255 688.593 476.71
979 0 143.132 15.6289 2237 120.619 689.695 474.907
980 0 149.09 15.6214 2329 122.137 689.96 471.771
981 1 79.0489 13.7636 1088 125.858 690.028 507.767
982 0 83.0633 14.4588 1201 114.525 689.21 505.831
983 0 85.0921 14.6312 1245 113.847 689.582 505.007
984 0 87.0297 14.248 1240 115.955 689.051 504.572
985 0 89.0566 14.4627 1288 116.514 689.236 501.747
986 0 91.1156 14.52 1323 117.571 689.227 501.381
987 0 95.1569 14.2817 1359 118.188 688.829 499.075
988 0 101.105 16.1713 1635 110.583 688.429 494.577
989 0 102.244 14.5925 1492 117.939 688.617 494.844
990 0 108.178 15.4282 1669 115.138 689.195 490.472
991 0 109.206 14.6238 1597 119.262 688.637 489.952
992 0 114.14 14.5436 1660 120.584 688.013 488.829
993 0 117.156 14.374 1684 121.47 689.394 487.254
994 0 119.101 14.4835 1725 122.372 689.371 486.109
995 0 125.126 14.4174 1804 122.628 689.345 482.78
996 0 128.054 14.244 1824 123.701 689.406 480.507
997 0 133.143 14.3756 1914 124.23 688.381 477.223
998 0 138.113 14.4592 1997 124.771 688.808 475.419
999 0 142.187 14.4458 2054 125.861 688.877 473.528
1000 0 148.236 14.7198 2182 125.478 689.263 470.694
1001 0 152.202 14.4611 2201 127.118 689.044 466.613
1002 0 157.166 14.2843 2245 128.309 689.596 464.599
1003 1 68.1674 12.6013 859 125.653 690.023 508.284
1004 0 71.1637 13.5181 962 124.976 690.292 505.721
1005 0 74.1255 13.5716 1006 124.301 690.814 505.756
1006 0 75.154 14.0378 1055 123.585 690.63 503.762
1007 0 79.1848 13.8789 1099 123.287 690.483 502.878
1008 0 81.1088 13.9936 1135 123.633 690.571 501.126
1009 0 83.2317 13.8289 1151 124.903 689.636 499.491
1010 0 86.2223 14.1611 1221 123.194 689.651 498.436
1011 0 90.2452 13.7071 1237 124.246 689.747 495.987
1012 0 95.3666 14.5124 1384 119.906 690.192 493.958
1013 0 96.2658 14.4392 1390 121.076 689.819 492.296
1014 0 99.1508 14.1905 1407 122.255 689.418 490.882
1015 0 103.336 13.8384 1430 122.343 689.88 488.673
1016 0 104.177 14.5042 1511 121.707 690.26 488.199
1017 0 107.14 14.1403 1515 121.924 690.576 487.97
1018 0 111.331 14.0212 1561 123.098 690.725 485.728
1019 0 116.209 15.1451 1760 119.607 690.673 481.786
1020 0 117.242 13.8773 1627 125.605 689.615 481.071
1021 0 121.189 14.4485 1751 124.099 690.014 480.062
1022 0 125.151 13.9911 1751 125.872 690.28 478.604
1023 0 124.195 14.2277 1767 127.976 690.801 475.814
1024 0 130.197 13.6639 1779 129.263 690.52 473.445
1025 0 135.123 14.1649 1914 126.391 690.448 472.07
1026 0 138.195 14.5519 2011 125.765 690.207 468.104
1027 0 141.16 14.1542 1998 126.054 690.553 465.534
1028 0 147.131 14.0351 2065 126.411 690.181 464.799
1029 0 150.285 14.3594 2158 125.664 690.246 460.825
1030 0 158.158 14.846 2348 121.846 690.175 457.134
1031 0 163.263 14.2347 2324 123.386 690.7 454.872
1032 0 167.38 14.255 2386 123.51 690.394 450.62
1033 1 85.0827 11.2831 960 120.178 690.39 493.944
1034 0 87.1631 12.2185 1065 118.504 690.013 492.722
1035 0 90.0958 12.7531 1149 116.751 690.099 489.923
1036 0 94.1284 12.9292 1217 115.952 690.142 487.539
1037 0 93.0661 12.4213 1156 118.917 689.228 485.905
1038 0 97.1228 12.6747 1231 118.022 690.136 483.054
1039 0 101.156 12.9306 1308 117.5 689.717 481.112
1040 0 103.188 12.9376 1335 118.082 689.745 477.946
1041 0 104.126 12.8211 1335 119.026 690.346 475.602
1042 0 111.16 13.1612 1463 115.67 690.241 476.241
1043 0 111.1 13.1233 1458 117.558 689.903 472.967
1044 0 117.123 13.1229 1537 116.703 689.609 470.952
1045 0 123.223 12.7736 1574 116.51 688.928 467.414
1046 0 126.109 12.5447 1582 116.643 688.949 465.484
1047 0 130.126 13.0104 1693 115.646 689.726 464.03
1048 0 131.089 13.5404 1775 114.943 690.201 462.066
1049 0 140.205 12.7099 1782 115.996 689.858 456.331
1050 0 145.186 13.3277 1935 113.728 689.713 453.706
1051 1 67.1535 8.48802 570 107.644 690.265 494.061
1052 0 71.1676 9.66732 688 104.35 690.619 495.507
1053 0 75.0645 9.81823 737 103.646 690.201 494.374
1054 0 76.1249 8.84074 673 111.29 690.397 493.676
1055 0 83.1785 9.26922 771 109.077 690.045 494.346
1056 0 88.2466 10.3687 915 105.95 690.402 496.927
1057 0 92.3306 10.4191 962 106.464 690.859 494.812
1058 1 34.1257 7.03283 240 82.1208 691.333 532.004
1059 0 36.0791 7.67758 277 81.9458 690.798 531.65
1060 0 39.0481 7.52917 294 83.9456 690.422 530.116
1061 0 39.0635 7.9358 310 80.5194 690.139 527.61
1062 0 41.133 8.89797 366 84.8907 689.902 530.38
1063 0 42.0862 8.48258 357 87.1625 689.695 530.77
1064 0 44.1476 9.26437 409 84.5183 689.611 529.379
1065 0 44.1117 8.59182 379 87.7335 689.277 529.538
1066 0 43.0761 8.24123 355 89.6563 689.468 528.761
1067 0 47.1441 8.73916 412 87.7087 689.648 527.738
1068 0 46.1641 8.51312 393 89.2341 689.466 528.005
1069 0 50.1843 8.56842 430 89.7349 689.314 526.516
1070 0 49.2241 8.95902 441 91.1179 689.1 526.356
1071 0 49.3105 9.51115 469 90.435 688.731 528.597
1072 0 50.3109 10.1568 511 91.1057 688.816 528.252
1073 0 51.2915 9.2803 476 94.0924 688.088 527.412
1074 0 51.2455 9.34716 479 91.6514 688.724 526.931
1075 0 51.2295 8.6864 445 92.1393 687.939 528.144
1076 0 50.1787 9.50602 477 91.7463 688.834 526.432
1077 0 52.2016 9.21427 481 92.2744 687.441 527.43
1078 0 52.2534 9.31997 487 92.9322 687.791 525.77
1079 0 54.3146 9.42657 512 89.9922 687.967 527.123
1080 0 55.2098 9.45485 522 89.7874 688.347 526.973
1081 0 53.2496 9.63387 513 88.2125 688.823 527.179
1082 0 53.1989 9.22952 491 87.7597 689.387 526.497
1083 0 51.3441 9.23183 474 89.0506 689.542 527.92
1084 1 36.2803 6.72541 244 98.4385 688.664 536.922
1085 0 36.235 7.50656 272 96.5772 688.599 536.052
1086 0 35.1482 8.70599 306 95.1307 688.562 534.239
1087 0 36.3832 7.36605 268 95.1306 688.653 535.907
