time division length width area intensity CMx CMy
0 0 59.0445 12.6684 748 86.6578 1030.06 499.952
1 0 59.0311 11.9937 708 88.346 1030.96 497.394
2 0 62.0237 11.9309 740 88.2743 1031.02 497.536
3 0 64.0407 12.4608 798 86.683 1030.51 496.896
4 0 66.0214 12.0718 797 86.9711 1030.82 495.013
5 0 66.0274 12.0102 793 132.968 1031.81 495.02
6 0 71.0856 12.5623 893 85.6876 1030.49 492.838
7 0 73.0864 12.6426 924 85.526 1030.55 493.263
8 0 76.0753 12.4219 945 85.7111 1030.56 492.422
9 1 40.0593 11.4331 458 86.3057 1029.61 507.598
10 0 40.0593 11.4081 457 143.02 1027.61 507.584
11 0 43.0251 11.9233 513 85.3762 1029.93 507.175
12 0 42.0269 12.7537 536 83.9869 1030.69 507.388
13 0 44.0415 12.7607 562 84.1797 1030.42 506.938
14 0 44.0343 12.0361 530 83.1981 1030.29 508.806
15 0 46.0281 12.2968 566 83.1555 1030.55 507.189
16 0 47.0443 12.839 604 83.4056 1030.13 506.997
17 0 49.094 12.2418 601 85.005 1029.83 506.626
18 0 52.0273 12.5511 653 83.7856 1029.85 505.404
19 0 53.0582 13.3438 708 82.9506 1029.13 504.722
20 0 54.0345 12.9547 700 85.6614 1029.19 504.55
21 0 58.0755 13.0864 760 85.9921 1029.49 504.425
22 0 60.0568 13.1875 792 86.3359 1029.87 503.407
23 0 61.0505 13.841 845 86.6828 1029.2 502.078
24 0 63.0482 13.2914 838 89.1981 1029.91 499.879
25 0 66.0341 13.5688 896 89.1339 1029.11 499.195
26 0 67.1076 13.9627 937 89.6105 1029.31 499.848
27 0 70.054 14.0035 981 90.3272 1029.05 496.129
28 0 73.0752 13.8214 1010 90.2109 1028.51 494.902
29 0 73.0596 14.1939 1037 89.9846 1028.98 494.645
30 0 75.081 13.5187 1015 90.5005 1028.14 493.579
31 0 79.0796 13.8089 1092 87.6264 1028.33 492.093
32 0 82.0753 13.9628 1146 85.767 1027.59 489.672
33 0 83.021 13.2497 1100 88.5391 1028.79 487.286
34 0 86.0584 13.3165 1146 87.9791 1027.74 486.258
35 1 45.0593 11.4072 514 86.2607 1028.7 506.702
36 0 47.0193 11.91 560 86.4821 1028.28 505.638
37 0 49.0126 12.1397 595 91.4992 1028.39 506.56
38 0 48.0312 11.9089 572 84.1766 1027.37 508.615
39 0 49.1047 11.8726 583 84.4202 1028.17 507.813
40 0 53.0674 11.7398 623 82.1332 1027.43 505.84
41 0 53.0306 11.4651 608 81.3355 1027.75 506.112
42 0 53.0306 11.5217 611 136.779 1026.74 505.967
43 0 59.0709 11.8332 699 79.5994 1027.58 503.136
44 0 61.0398 12.2871 750 78.0907 1028.3 503.032
45 0 62.0585 11.8598 736 78.625 1028.2 502.285
46 0 64.0781 12.6564 811 80.0764 1028.54 498.761
47 0 66.0336 11.7364 775 81.24 1027.63 498.361
48 0 70.038 12.2362 857 80.4807 1027.88 496.917
49 0 71.0299 12.4736 886 82.0666 1027.45 494.558
50 0 74.0515 12.5183 927 85.9644 1028.32 492.576
51 0 77.1219 12.3182 950 87.5168 1027.38 490.068
52 0 82.1258 12.2373 1005 87.3363 1027.2 489.992
53 0 84.0582 12.5508 1055 86.7062 1027.13 489.108
54 0 86.0294 12.1819 1048 87.8559 1027.7 485.629
55 0 89.1271 12.1175 1080 87.6056 1028.34 485.035
56 0 91.1644 11.7809 1074 88.5242 1028.97 484.435
57 0 95.1035 12.5863 1197 87.0852 1028.61 483.82
58 0 94.1141 12.5061 1177 92.373 1028.24 484.138
59 0 101.144 12.3685 1251 88.0368 1027.68 479.161
60 0 104.205 11.8228 1232 89.7638 1028.74 478.465
61 1 54.1204 10.7723 583 89.0086 1029.26 501.458
62 0 55.0852 11.4913 633 85.8468 1028.16 498.61
63 0 56.0513 11.65 653 84.8162 1027.06 498.847
64 0 58.0842 11.6555 677 85.7917 1028.05 496.555
65 0 59.1069 11.6568 689 86.0218 1028.34 494.338
66 0 59.1069 11.5722 684 132.282 1029.34 494.285
67 0 63.0547 12.0213 758 86.4182 1028.1 493.525
68 0 67.0514 12.647 848 83.9493 1028.41 493.034
69 0 70.0635 13.4735 944 80.6727 1029.47 494.607
70 0 71.0494 13.1036 931 83.0011 1029.64 494.16
71 0 73.0319 12.9395 945 85.1936 1029.66 493.169
72 0 75.049 12.5651 943 86.6766 1029.19 491.918
73 0 75.0252 12.3558 927 88.2718 1028.96 490.77
74 0 78.0396 12.2758 958 89.3319 1029.71 487.841
75 0 83.0305 13.2963 1104 87.2373 1029.85 487.424
76 0 84.0719 13.2506 1114 87.7639 1029.06 485.033
77 0 87.1703 13.032 1136 88.8301 1029.57 483.255
78 0 89.1024 12.9514 1154 89.9454 1029.72 481.114
79 0 92.1274 13.2534 1221 88.484 1030.14 480.027
80 0 94.2081 12.4618 1174 90.1116 1029.87 477.828
81 0 99.1315 13.1845 1307 87.6373 1030.4 476.884
82 1 50.1469 9.93083 498 85.4016 1029.33 500.237
83 0 54.0939 11.2582 609 82.7635 1029.99 501.488
84 0 56.0428 11.2057 628 84.4538 1030.59 498.893
85 0 56.0195 11.6566 653 78.3032 1029.12 504.997
86 0 60.0156 12.0469 723 76.2006 1029.08 505.076
87 0 59.0547 11.4978 679 78.6878 1029.1 503.197
88 0 61.0299 11.863 724 76.6602 1029.68 502.87
89 0 62.042 11.4116 708 76.9802 1029.93 501.623
90 0 67.0148 12.3704 829 75.1713 1029.94 499.795
91 0 69.0621 12.5974 870 75.2092 1029.35 498.907
92 0 71.0527 12.1881 866 75.642 1030.29 497.603
93 0 73.0804 11.9731 875 75.88 1030.02 496.654
94 0 76.0414 12.0066 913 75.575 1029.86 494.058
95 0 77.0484 11.7459 905 76.3381 1029.11 491.744
96 0 81.0417 12.438 1008 74.5099 1028.69 492.062
97 0 84.0401 12.0538 1013 75.3426 1028.19 491.198
98 0 86.0369 11.5648 995 77.206 1028.93 488.8
99 0 89.1338 12.0156 1071 76.4192 1029.38 487.213
100 0 92.0992 12.3128 1134 77.3413 1028.39 485.692
101 1 50.0132 10.8371 542 78.5369 1029.96 507.144
102 0 50.014 11.0169 551 78.7495 1029.1 506.586
103 0 51.0581 11.3792 581 80.5869 1030.02 505.454
104 0 52.0161 11.9578 622 82.4968 1030.02 504.68
105 0 54.0461 11.9898 648 84.1806 1030.14 504.253
106 0 54.0461 12.0823 653 142.87 1031.14 504.144
107 0 55.0131 11.8517 652 74.9739 1028.74 505.192
108 0 55.0224 10.9955 605 76.395 1028.26 503.613
109 0 57.0402 10.3962 593 77.4266 1028.88 503.594
110 0 59.0424 10.5348 622 77.5514 1029.37 503.013
111 0 59.0451 10.2464 605 77.3355 1029.46 502.041
112 0 62.034 11.5743 718 75.7577 1029.5 501.468
113 0 64.0179 11.528 738 75.8225 1029.9 501.046
114 0 66.0149 11.452 756 75.754 1029.37 499.646
115 0 68.02 11.379 774 77.1189 1028.73 497.876
116 0 72.1036 11.6499 840 75.8702 1028.79 497.923
117 0 73.043 11.3084 826 77.5024 1028.04 495.587
118 0 77.0791 11.326 873 77.3608 1028.8 494.826
119 0 79.0596 11.6494 921 77.6363 1028.18 492.699
120 0 80.0421 11.2691 902 79.5033 1029.14 493.568
121 0 84.0547 11.9208 1002 79.1307 1028.98 490.722
122 0 86.0239 11.3457 976 80.0779 1029.07 490.656
123 0 90.0673 11.9577 1077 79.4178 1029.1 488.032
124 1 44.0076 10.8618 478 81.5607 1029.64 508.762
125 0 45.018 11.662 525 81.3371 1029.32 508.343
126 0 47.048 12.2003 574 81.0331 1029.45 507.003
127 0 47.0145 11.8687 558 81.9229 1029.77 506.072
128 0 47.0454 10.9681 516 75.2926 1028.4 507.742
129 0 48.0262 10.9315 525 75.0381 1028.41 508.2
130 0 48.0859 11.0219 530 75.5038 1029.17 506.517
131 0 51.0242 11.4456 584 74.125 1029.09 506.729
132 0 51.0221 10.8972 556 75.3561 1029.35 506.322
133 0 55.0292 11.6665 642 73.3629 1028.79 504.824
134 0 56.084 11.2153 629 74.3084 1029.06 505.121
135 0 57.0375 11.659 665 74.0105 1028.92 503.002
136 0 57.0617 11.1108 634 75.2602 1029.23 502.573
137 0 60.0532 11.5065 691 75.4153 1028.93 501.48
138 0 62.0314 11.8972 738 75.0163 1029.07 501.604
139 0 64.0661 11.8784 761 74.7109 1028.84 501.689
140 0 64.0456 11.6167 744 76.2849 1028.94 500.734
141 0 69.0253 11.8218 816 75.1495 1028.89 498.875
142 0 69.0761 12.1895 842 75.1948 1029.47 497.028
143 0 73.0401 12.322 900 74.3244 1028.41 495.228
144 0 75.0868 11.8796 892 74.0774 1028.03 494.057
145 0 77.0747 11.9235 919 73.4995 1027.85 494.054
146 0 79.0429 11.829 935 73.1818 1028.37 493.759
147 0 83.0782 12.0609 1002 73.3912 1028.15 490.66
148 0 85.0334 12.5715 1069 73.4874 1028.35 489.229
149 0 87.0461 12.0281 1047 74.3811 1028.72 489.133
150 0 92.0717 13.2831 1223 78.4088 1027.99 485.025
151 0 95.05 12.383 1177 80.1699 1027.87 483.991
152 1 50.0836 10.3427 518 79.3282 1027.97 507.691
153 0 51.0105 11.233 573 80.4799 1028.24 506.551
154 0 50.0269 11.0541 553 81.2568 1028.03 504.629
155 0 53.0264 11.9186 632 72.1835 1026.78 505.84
156 0 54.0158 11.9039 643 72.269 1027.55 505.762
157 0 56.0538 11.8279 663 72.8582 1027.01 504.956
158 0 57.0368 12.0448 687 73.5633 1027.86 504.642
159 0 59.0202 11.8265 698 74.914 1028.02 502.842
160 0 62.0584 12.3593 767 73.8175 1028.49 502.228
161 0 64.0704 12.3926 794 74.5013 1027.68 499.9
162 0 64.061 11.77 754 77.2374 1027.35 499.731
163 0 67.062 12.317 826 76.7748 1027.65 499.322
164 0 70.0693 12.7017 890 76.8674 1027.62 496.947
165 0 72.0218 12.4407 896 78.2958 1027.51 494.337
166 0 75.021 12.9697 973 79.8284 1027.78 492.896
167 0 77.0441 13.6026 1048 80.3378 1027.87 491.15
168 0 77.0154 12.8416 989 83.1314 1028.43 489.747
169 0 81.1138 13.3393 1082 81.8309 1028.29 489.069
170 0 83.0846 13.0951 1088 83.0809 1028.59 487.083
171 0 87.0881 13.5954 1184 81.902 1028.21 485.78
172 0 90.0627 13.4906 1215 82.0387 1027.43 483.309
173 0 93.0821 13.1282 1222 81.4304 1027.2 480.318
174 0 95.1205 13.8246 1315 81.9346 1027.36 480.129
175 0 96.092 12.7066 1221 80.6732 1027.31 476.806
176 0 103.132 13.4391 1386 81.5815 1028.37 478.023
177 1 53.0352 10.8607 576 81.3403 1028.72 505.073
178 0 56.0322 11.7968 661 79.3147 1028.34 502.533
179 0 57.0355 11.6945 667 80.4798 1028.12 501.942
180 0 59.0332 12.7386 752 73.0878 1027.12 503.37
181 0 60.0788 12.1008 727 74.1747 1027.07 503.26
182 0 60.0468 12.1572 730 74.2137 1026.55 500.618
183 0 64.0853 12.5146 802 73.3317 1027.6 500.204
184 0 67.0785 12.627 847 73.405 1028.38 499.738
185 0 66.0517 12.0815 798 75.6065 1028.42 498.07
186 0 69.0444 12.2964 849 76.0989 1028.76 497.148
187 0 72.0345 12.7717 920 75.4261 1028.68 495.025
188 0 73.0353 12.5282 915 78.5213 1028.71 494.059
189 0 76.0417 12.0066 913 86.8927 1028.14 491.267
190 0 78.1213 12.6854 991 85.4571 1027.7 488.76
191 0 82.0478 12.9193 1060 84.9764 1027.57 488.251
192 0 83.0608 12.7136 1056 85.6316 1027.19 487.36
193 0 86.1017 12.8337 1105 85.0887 1028.01 484.861
194 0 89.038 12.826 1142 85.2583 1027.8 484.828
195 0 91.0369 12.6213 1149 86.6554 1028.31 482.538
196 0 95.036 12.0375 1144 87.2168 1027.96 482.291
197 0 95.117 12.6266 1201 86.7535 1028.02 480.235
198 0 99.0771 12.4247 1231 86.5922 1028.01 477.912
199 0 100.103 12.3972 1241 87.5665 1027.2 476.208
200 0 104.111 12.5923 1311 87.3699 1026.95 475.748
201 0 107.08 13.0743 1400 86.47 1027.36 473.569
202 0 107.088 13.0361 1396 120.198 1028.38 473.774
203 0 114.127 12.7665 1457 107.996 1027.91 470.272
204 0 118.129 12.2239 1444 106.229 1027.6 468.251
205 0 121.13 11.921 1444 108.999 1027.03 466.791
206 0 127.096 12.3686 1572 107.995 1027.68 465.677
207 1 64.0564 10.4283 668 100.81 1026.52 497.738
208 0 67.1849 11.3121 760 99.5605 1025.88 495.63
209 0 70.0374 11.5081 806 99.0658 1026.06 493.676
210 0 70.024 11.339 794 93.7557 1026.49 494.455
211 0 74.068 10.6119 786 94.8435 1026.5 492.153
212 0 77.0607 11.9516 921 93.5353 1026.62 492.664
213 0 78.0309 12.1619 949 93.431 1027.25 491.349
214 0 82.0699 11.8679 974 92.5 1027.13 488.761
215 0 86.0804 12.2676 1056 91.3314 1027.13 488.349
216 0 87.1333 12.4751 1087 92.2861 1026.87 485.639
217 0 90.085 12.0775 1088 93.1939 1026.51 484.947
218 0 92.1274 12.6455 1165 95.4781 1026.5 481.601
219 0 94.0687 12.0019 1129 94.8299 1026.33 481.987
220 0 97.0627 12.5074 1214 94.2916 1026.7 480.955
221 0 100.153 11.7819 1180 95.5653 1026.93 477.862
222 0 103.184 11.9011 1228 94.0342 1026.72 476.071
223 0 105.136 11.9655 1258 94.2162 1027.21 474.007
224 0 109.139 11.435 1248 95.0537 1026.55 472.131
225 0 115.107 12.0758 1390 93.7669 1026.26 469.148
226 0 116.115 11.9106 1383 94.9422 1025.63 467.012
227 0 121.277 12.2859 1490 94.3235 1026.15 464.44
228 0 125.223 12.4898 1564 94.4047 1025.74 464.5
229 0 131.17 12.2284 1604 95.1334 1026.46 463.618
230 0 136.307 13.0001 1772 93.4503 1026.31 460.853
231 0 139.181 12.358 1720 96.6831 1026.24 457.94
232 0 144.229 12.4871 1801 96.884 1027.12 455.907
233 0 149.154 12.8458 1916 96.1331 1026.44 454.714
234 0 153.242 12.8947 1976 97.1948 1026.42 451.975
235 0 157.265 12.1451 1910 101.08 1026.67 448.979
236 0 164.205 12.929 2123 100.015 1025.99 447.696
237 0 171.234 13.3443 2285 99.6061 1026.43 445.268
238 0 175.199 13.4475 2356 100.199 1025.56 442.195
239 0 181.233 13.6675 2477 99.7489 1026.27 441.612
240 0 185.175 13.2037 2445 102.132 1026.37 437.238
241 0 191.206 13.6554 2611 101.928 1026.87 435.625
242 0 197.181 13.4293 2648 103.81 1026.44 429.362
243 0 205.153 13.4973 2769 103.449 1025.83 425.722
244 0 211.211 13.2711 2803 105.191 1025.86 421.484
245 0 218.219 13.2802 2898 107.161 1026.09 416.833
246 0 225.271 13.3883 3016 108.315 1026.19 413.511
247 0 232.321 14.0022 3253 106.836 1025.88 412.625
248 0 239.307 13.6561 3268 109.236 1026.27 404.864
249 1 179.296 11.785 2113 108.191 1026.17 441.018
250 0 184.212 12.2088 2249 107.774 1025.96 438.8
251 0 191.329 12.4811 2388 108.034 1025.46 433.287
252 0 198.259 12.5644 2491 108.237 1026.26 432.759
253 0 206.27 12.6049 2600 109.236 1026.66 426.982
254 0 214.217 13.3276 2855 105.167 1027.34 423.105
255 0 222.288 12.8887 2865 106.549 1026.23 417.799
256 0 230.264 13.1241 3022 106.077 1026.69 414.36
257 1 167.131 11.5 1922 103.22 1026.98 449.589
258 0 171.18 11.9523 2046 99.8382 1026.74 442.325
259 0 174.162 11.6788 2034 98.9602 1026.57 435.911
260 0 180.199 12.7803 2303 96.7894 1026.4 434.204
261 0 184.096 11.9612 2202 103.926 1025.81 437.586
262 0 191.152 12.0846 2310 102.95 1025.23 435.244
263 0 197.228 13.0458 2573 99.67 1025.82 424.75
264 0 201.278 11.4916 2313 105.81 1025.38 426.786
265 0 207.278 11.9357 2474 104.454 1025.26 423.639
266 0 214.322 12.1966 2614 105.183 1026.2 421.503
267 0 220.342 11.9995 2644 106.002 1025.61 419.377
268 0 226.22 12.1254 2743 107.607 1026.07 415.911
269 0 233.424 12.488 2915 105.719 1025.8 411.264
270 0 243.378 12.6018 3067 104.671 1025.76 407.441
271 0 252.248 12.3688 3120 105.163 1025.46 404.229
272 0 259.314 12.3981 3215 105.708 1024.79 400.53
273 0 264.323 12.1102 3201 107.744 1025.12 396.502
274 0 273.337 12.1681 3326 109.085 1025.44 391.794
275 0 284.333 13.3857 3806 107.016 1025.46 383.727
276 0 288.386 12.4902 3602 108.881 1025.93 383.898
277 0 298.398 12.232 3650 109.875 1026.13 376.202
278 0 306.374 15.22 4663 101.309 1025.89 367.528
279 0 316.37 15.3175 4846 101.656 1026.58 365.558
280 0 326.398 15.7078 5127 101.759 1025.99 361.8
281 0 336.492 16.2054 5453 100.871 1025.7 355.091
282 0 345.515 15.3568 5306 104.564 1025.35 347.46
283 1 151.277 11.2178 1697 91.3465 1026.68 460.82
284 0 154.231 11.6384 1795 91.6563 1025.31 457.046
285 0 157.171 11.8152 1857 93.1707 1024.91 454.587
286 0 161.22 11.9774 1931 92.9006 1025.22 452.452
287 0 168.303 12.4478 2095 92.2167 1025.1 450.736
288 0 172.372 12.6123 2174 92.3615 1025.53 449.255
289 1 94.0883 10.8303 1019 98.1001 1026.33 484.524
290 0 97.1011 10.4427 1014 98.7633 1027.2 484.229
291 1 54.0929 10.8702 588 97.9609 1026.91 504.293
292 0 57.1481 11.0065 629 98.9682 1027.52 503.99
293 0 59.186 11.844 701 96.6348 1027.03 502.86
294 0 59.0603 11.8184 698 94.5888 1026.61 501.709
295 0 64.0563 11.4899 736 86.6739 1025.25 499.849
296 0 65.0185 11.6582 758 87.5079 1024.79 497.666
297 0 65.0157 11.6433 757 87.7516 1026.51 499.081
298 0 65.0182 11.0277 717 91.3319 1026.31 499.872
299 0 69.0407 11.7032 808 88.8849 1026.72 497.917
300 0 70.0641 11.5751 811 90.9519 1026.45 496.535
301 0 72.0509 11.6445 839 89.9762 1026.83 495.861
302 0 73.08 12.3426 902 88.9967 1026.43 495.622
303 0 76.0742 12.0803 919 89.2089 1027.08 496.222
304 0 76.0575 11.5176 876 91.0662 1025.75 495.435
305 0 77.0664 12.0286 927 91.2147 1026.36 493.684
306 0 80.0507 12.5171 1002 89.2874 1026.43 493.63
307 0 81.0582 12.4725 1011 90.178 1027.33 492.899
308 0 84.0338 11.9714 1006 91.4404 1027.56 492.366
309 0 87.0339 12.3745 1077 90.3723 1027.27 491.309
310 0 88.0413 12.426 1094 89.6143 1027.22 490.75
311 0 92.0945 11.5968 1068 96.3708 1026.56 487.754
312 0 93.053 11.5203 1072 98.1147 1026.24 485.824
313 0 96.0867 11.1774 1074 99.1816 1025.77 483.636
314 0 99.1022 11.2712 1117 99.9642 1025.74 481.818
315 0 101.096 10.8709 1099 99.3294 1025.9 479.962
316 1 51.0251 9.32874 476 86.6618 1026.63 507.763
317 0 50.044 9.95124 498 87.6707 1026.64 504.386
318 0 50.079 9.60482 481 92.3617 1025.84 503.486
319 0 50.0184 10.4561 523 96.5124 1026.71 501.067
320 0 51.032 10.5228 537 96.6406 1026.25 501.564
321 0 53.0239 11.4665 608 93.375 1025.97 501.026
322 0 56.0314 10.5655 592 93.6318 1025.48 501.046
323 0 58.0563 10.9204 634 86.1956 1024.45 505.331
324 0 59.0596 11.0058 650 85.7815 1024.48 505.985
325 0 61.0628 11.4308 698 85.8797 1025.32 504.024
326 0 61.0308 10.9453 668 86.9775 1025.72 502.91
327 0 64.0544 11.2717 722 86.9848 1025.15 501.942
328 0 68.0582 11.8281 805 84.482 1025.52 502.16
329 0 70.036 11.8225 828 85.1558 1025.3 500.562
330 0 71.0494 11.8791 844 86.1505 1025.18 499.718
331 0 72.0691 11.6971 843 86.363 1024.6 497.9
332 0 76.0737 11.686 889 85.766 1024.34 495.7
333 0 76.0279 11.772 895 87.0257 1024.12 495.18
334 0 80.0686 11.9897 960 88.0354 1024.06 492.43
335 0 84.0551 12.2539 1030 92.4884 1024.6 491.094
336 0 86.0656 12.1768 1048 92.6145 1024.29 490.172
337 0 89.0731 12.1361 1081 91.3728 1023.95 487.812
338 0 91.1234 12.0057 1094 92.6938 1024.31 485.569
339 0 94.1695 11.4793 1081 94.9426 1023.32 480.97
340 1 47.1291 10.0787 475 86.8737 1023.34 506.408
341 0 49.0231 10.2605 503 86.9284 1023.25 508.817
342 0 52.0205 10.6497 554 86.3466 1022.89 507.753
343 0 52.0324 10.801 562 91.7135 1023.04 505.384
344 0 53.0272 11.0132 584 90.5428 1023.07 503.652
345 0 58.0236 10.8232 628 89.4554 1023.22 504.659
346 0 62.0289 11.0916 688 86.6235 1022.88 503.081
347 0 63.0235 10.7896 680 87.3412 1023.15 501.912
348 0 63.0462 11.5312 727 86.6905 1022.02 501.389
349 0 67.0882 11.6712 783 86.3231 1022.21 499.617
350 0 69.0329 11.0092 760 86.8776 1022.08 499.788
351 0 69.0514 11.4842 793 86.9054 1022.79 497.907
352 0 74.0847 11.7163 868 86.0207 1023.1 496.851
353 0 73.0391 11.7882 861 87.2404 1022.64 495.462
354 0 77.023 11.5809 892 87.0258 1023.56 495.239
355 0 81.0303 12.1683 986 85.7789 1022.66 494.653
356 0 85.0206 12.891 1096 84.6168 1023.03 492.721
357 0 86.0857 11.9764 1031 87.4142 1024.17 492.68
358 0 89.0648 12.3281 1098 87.826 1023.45 490.709
359 0 93.0388 12.3604 1150 87.5756 1023.02 489.934
360 0 94.0281 12.1878 1146 88.5201 1022.85 488.026
361 0 99.0468 12.3174 1220 88.9008 1023.61 485.456
362 0 101.062 12.0124 1214 89.0379 1023.68 484.372
363 0 104.116 12.5725 1309 88.7097 1023.96 482.481
364 1 54.0552 10.4338 564 83.2801 1023.32 507.672
365 0 58.0315 11.1491 647 84.6893 1024 506.468
366 0 61.0287 11.5683 706 85.9023 1024.53 505.309
367 0 62.042 11.5406 716 82.574 1024.55 504.542
368 0 62.0133 11.0621 686 83.9534 1024 504.251
369 0 65.0229 11.6267 756 83.1336 1024.33 503.098
370 0 68.0749 12.4422 847 82.6942 1023.73 499.999
371 0 70.0389 11.6935 819 86.7021 1022.94 497.582
372 0 70.0314 11.5091 806 89.9603 1024.12 496.509
373 0 73.0547 11.7994 862 89.203 1024.4 496.787
374 0 76.1045 10.8009 822 91.0888 1024.22 495.423
375 0 78.0992 11.8311 924 90.553 1024.98 493.322
376 0 82.1221 11.5681 950 91.2642 1024.8 491.498
377 0 83.1439 11.9311 992 91.2097 1025.15 490.579
378 0 83.1439 12.0273 1000 138.705 1027.16 490.486
379 0 89.139 11.9925 1069 91.4406 1024.26 487.51
380 0 94.1687 12.9873 1223 89.852 1023.98 485.283
381 0 95.1483 12.3281 1173 92.2609 1024.48 483.704
382 1 51.0602 10.4974 536 82.0802 1024.21 508.905
383 0 50.0549 10.3287 517 88.2573 1025.34 507.246
384 0 54.033 11.1043 600 85.96 1024.98 506.043
385 0 55.1058 10.5615 582 81.2251 1024.88 507.418
386 0 56.0364 10.6003 594 81.3249 1025.3 506.944
387 0 56.0338 11.5645 648 80.8904 1025.03 504.313
388 0 59.0602 11.1073 656 81.9024 1025.13 503.332
389 0 61.0894 11.5241 704 81.2656 1024.64 502.469
390 0 63.0656 11.052 697 82.7719 1025.09 501.686
391 0 65.0442 11.5306 750 82.5933 1025.43 499.652
392 0 66.0102 11.574 764 87.5956 1025.57 497.857
393 0 68.1237 10.5837 721 88.3398 1025.86 498.153
394 0 71.0606 11.1032 789 86.4208 1025.32 496.323
395 0 74.0516 11.3975 844 84.7441 1025.62 495.829
396 0 74.0467 10.831 802 85.9813 1025.61 493.236
397 0 77.0474 10.9413 843 85.7319 1025.56 493.101
398 0 79.0874 11.4051 902 86.694 1025.67 491.133
399 0 82.0242 10.8505 890 88.5966 1024.94 490.231
400 0 84.0302 11.4602 963 87.8235 1025.49 488.127
401 0 87.0403 10.7651 937 89.1782 1024.23 486.665
402 1 47.0311 9.50434 447 84.2237 1024.77 507.655
403 0 49.0238 9.91355 486 84.4979 1025.95 506.185
404 0 51.0186 10.1728 519 84.6243 1026.37 508.351
405 0 50.0303 11.1333 557 86.0772 1025.52 507.18
406 0 53.0696 10.816 574 85.9669 1026 505.657
407 0 53.0405 11.3498 602 88.2857 1025.15 504.703
408 0 55.0737 11.5845 638 87.2821 1024.56 503.77
409 0 55.0404 11.4643 631 87.9112 1024.93 503.72
410 0 55.0482 10.1911 561 80.9127 1025.26 505.039
411 0 55.0421 9.99235 550 81.2273 1026.18 505.585
412 0 57.0494 10.2543 585 82.3538 1026.25 502.332
413 0 58.0288 11.2013 650 80.8123 1025.76 501.906
414 0 59.0773 10.3255 610 82.6197 1025.8 502.866
415 0 61.0402 10.1409 619 83.0501 1025.91 500.165
416 0 63.0182 10.854 684 81.4751 1025.48 500.193
417 0 65.0546 10.3144 671 83.0238 1025.29 497.159
418 0 67.0396 10.725 719 83.5188 1024.92 497.452
419 0 69.0478 10.8041 746 85.0737 1025.83 497.181
420 0 72.0546 10.7557 775 87.1239 1026.11 494.521
421 0 73.047 11.0614 808 88.3626 1026.05 494.557
422 0 76.0397 11.0337 839 89.3552 1025.33 492.24
423 0 80.0346 11.4325 915 88.9049 1025.44 492.054
424 0 82.0357 11.6657 957 89.72 1025.54 490.875
425 0 84.0845 11.1673 939 92.1651 1025.69 490.027
426 0 87.0683 11.3589 989 92.0718 1024.76 488.303
427 0 88.085 11.3413 999 93.2182 1025 486.847
428 1 48.0127 10.5389 506 95.8735 1025.1 507.259
429 0 48.0159 10.5382 506 97.2233 1022.54 506.047
430 0 50.1151 11.2541 564 94.8085 1024.98 503.828
431 0 49.0158 10.7924 529 93.9206 1024.29 503.093
432 0 49.0481 9.90864 486 89.8477 1024.23 508.58
433 0 51.0409 11.1871 571 88.0753 1024.69 508.445
434 0 55.034 11.0296 607 88.4201 1024.8 506.97
435 0 53.0189 11.2036 594 89.5236 1024.54 507.212
436 0 55.0258 11.6309 640 87.7359 1023.8 505.867
437 0 59.0614 11.869 701 85.8545 1024.09 504.214
438 0 59.1207 10.8084 639 90.6354 1023.35 503.562
439 0 63.0372 11.5646 729 87.3278 1023.75 503.112
440 0 62.0634 12.1489 754 88.5889 1023.67 502.131
441 0 66.0394 11.8111 780 89.0308 1024.55 500.956
442 0 67.0424 11.5897 777 90.7066 1024.62 499.498
443 0 68.1124 11.3489 773 90.2225 1024.29 498.203
444 0 71.0224 11.7287 833 89.5186 1024.73 497.936
445 0 72.0383 11.2579 811 90.1159 1023.93 497.425
446 0 75.0482 11.8857 892 89.4249 1024.46 494.726
447 0 75.0482 11.979 899 125.119 1025.48 494.578
448 0 79.0883 11.8602 938 91.3028 1024.95 492.267
449 0 80.0353 12.1696 974 92.0216 1024.59 491.886
450 0 83.0459 11.608 964 94.0602 1025.22 491.203
451 0 86.0116 11.4985 989 92.907 1024.78 488.25
452 0 89.0875 11.6627 1039 92.7555 1024.9 487.385
453 0 94.0711 11.5019 1082 90.6932 1025.21 485.499
454 0 97.0582 12.2813 1192 89.156 1024.68 483.875
455 0 98.0828 10.6747 1047 91.6208 1024.29 482.905
456 0 100.065 11.1927 1120 91.3759 1024.9 480.124
457 1 57.0343 11.0986 633 87.3096 1025.07 505.648
458 0 59.0219 11.7414 693 85.6277 1024.96 505.286
459 0 61.0466 11.6796 713 81.6255 1025.4 503.954
460 0 60.0602 10.5561 634 85.1908 1025.58 503.196
461 0 61.1082 11.1605 682 84.3446 1026.19 501.252
462 0 63.0641 10.9571 691 84.6715 1025.49 500.606
463 0 66.0471 10.2957 680 84.9074 1025.7 499.551
464 0 69.0417 10.8051 746 83.5429 1025.04 497.236
465 0 70.0494 11.3634 796 84.0239 1025.19 496.418
466 0 72.076 10.3086 743 80.4845 1025.21 492.668
467 0 74.0463 10.5745 783 86.1928 1025.11 495.898
468 0 75.0662 10.2176 767 88.8175 1026.11 494.571
469 0 78.0636 10.991 858 87.0897 1026.01 492.871
470 0 81.0724 10.1638 824 86.4126 1025.5 492.047
471 0 83.0988 10.5537 877 85.6716 1025.07 488.853
472 0 88.0432 11.3353 998 82.2184 1024.49 487.395
473 0 88.1 9.98865 880 85.4364 1024.67 487.327
474 0 91.085 10.1993 929 86.7395 1025.35 483.639
475 0 95.1115 10.6717 1015 87.4966 1024.93 482.64
476 0 100.069 10.8026 1081 84.9722 1025.18 480.195
477 1 57.0513 9.5528 545 83.2899 1025.1 498.523
478 0 60.0355 10.2606 616 82.2662 1025 499.422
479 0 64.0424 10.6023 679 81.947 1025.04 499.869
480 0 66.0603 11.1716 738 80.5176 1024.68 499.801
481 0 66.0589 11.0962 733 81.4297 1025.16 498.428
482 0 69.0806 11.9426 825 79.8982 1024.04 497.73
483 0 71.1269 11.7115 833 80.8619 1023.52 495.951
484 0 74.1197 11.5489 856 81.7734 1023.93 494.548
485 0 75.0666 11.6297 873 82.1363 1024.03 493.659
486 0 78.0631 11.5676 903 83.1107 1024.18 492.473
487 0 81.0851 12.1477 985 81.2193 1024.69 491.075
488 0 81.0929 11.9616 970 83.6897 1024.23 490.35
489 0 86.0591 11.9801 1031 83.6295 1024.09 488.995
490 0 88.1082 12.1328 1069 85.2432 1024.42 486.888
491 0 91.0868 12.0215 1095 86.0575 1024.92 485.89
492 0 95.0902 12.7353 1211 83.8159 1024.04 484.615
493 0 97.0858 12.7104 1234 85.0592 1024.07 483.879
494 0 99.0447 12.0451 1193 87.4082 1023.41 483.707
495 0 100.085 12.4894 1250 87.5328 1023.73 482.036
496 0 105.063 13.0493 1371 87.8694 1023.79 480.443
497 0 108.159 12.8329 1388 93.9899 1024.29 478.776
498 0 113.099 12.9621 1466 93.6392 1023.81 476.875
499 0 115.134 12.8893 1484 94.8989 1024.59 475.205
500 0 118.063 12.8067 1512 93.9418 1023.79 474.341
501 0 122.111 12.3822 1512 95.9458 1024.57 472.3
502 0 126.186 12.2993 1552 98.9098 1023.18 466.053
503 0 129.182 12.2927 1588 98.9704 1023.39 468.196
504 0 133.275 12.7181 1695 97.1487 1022.97 464.975
505 0 137.262 12.356 1696 98.1274 1023.24 461.516
506 0 142.328 12.6469 1800 95.5517 1023.47 459.967
507 0 146.302 12.9048 1888 96.3925 1023.74 456.991
508 0 151.367 12.5126 1894 96.9182 1023.74 455.509
509 0 155.269 12.5846 1954 97.7973 1023.48 451.917
510 0 159.435 12.6948 2024 98.0198 1022.66 450.153
511 0 164.247 12.8039 2103 97.6391 1023.09 449.022
512 0 167.306 12.7611 2135 98.5096 1022.76 446.421
513 0 174.347 12.4866 2177 98.9499 1022.5 442.236
514 1 98.2727 11.6105 1141 90.2235 1022.81 484.47
515 0 98.3065 12.105 1190 92.5689 1022.68 481.462
516 0 101.129 11.7276 1186 95.2015 1023.55 483.794
517 0 105.084 11.3053 1188 88.0892 1023.34 484.069
518 0 108.068 12.0758 1305 88.2621 1023.48 480.883
519 0 113.171 10.9833 1243 89.543 1023.52 480.341
520 0 116.11 11.6183 1349 89.848 1023.91 476.818
521 0 119.157 10.9688 1307 91.2142 1022.94 471.638
522 0 125.206 11.581 1450 88.5703 1023.27 471.652
523 0 127.361 11.4242 1455 89.4192 1022.57 468.137
524 0 132.271 11.3404 1500 90.442 1022.8 465.457
525 0 136.209 11.6879 1592 90.571 1023.23 462.111
526 0 140.286 11.5764 1624 90.8695 1022.91 462.075
527 0 143.382 11.5217 1652 92.204 1023.98 458.398
528 0 150.27 11.5725 1739 91.9902 1022.72 456.923
529 1 69.2488 10.715 742 87.3477 1022.4 497.677
530 0 70.3397 10.691 752 90.8803 1022.11 497.89
531 0 71.1831 11.2386 800 91.1225 1022.65 495.692
532 0 75.2166 11.2209 844 90.4111 1022.78 494.539
533 0 76.1796 11.2629 858 90.352 1023.2 495.564
534 0 78.1679 11.7312 917 88.8975 1022.75 496.237
535 0 82.1124 11.5086 945 87.7524 1023.29 495.584
536 0 81.2446 11.6438 946 93.8414 1023.86 493.374
537 0 85.1768 11.7755 1003 115.063 1023.51 493.055
538 0 86.0982 10.1744 876 81.1838 1023.35 495.759
539 0 89.1694 10.1716 907 78.7685 1022.36 492.31
540 0 90.0972 9.93372 895 80.6302 1022.5 492.181
541 0 95.1256 9.78706 931 79.6004 1022.41 490.697
542 0 100.208 10.7576 1078 82.1623 1022.94 488.094
543 0 101.235 9.22607 934 83.5899 1023.08 488.804
544 1 56.162 10.5231 591 82.7902 1022.15 507.501
545 0 55.1018 10.8345 597 79.258 1023.06 508.92
546 0 57.0726 10.7758 615 78.878 1022.82 508.606
547 0 56.0614 9.38257 526 81.8004 1022.63 509.568
548 0 57.0555 9.90264 565 81.5947 1022.93 508.657
549 0 59.077 9.76692 577 81.2288 1022.05 506.317
550 0 61.0714 9.41521 575 81.6087 1021.85 505.664
551 0 66.0714 10.6249 702 78.7849 1021.76 505.221
552 0 67.0542 10.7525 721 80.9861 1020.86 503.426
553 0 67.038 10.6059 711 80.1041 1021.86 502.84
554 0 69.0168 10.722 740 80.1257 1022.36 503.115
555 0 73.0619 10.7032 782 78.9284 1022.8 503.359
556 0 75.0598 11.0312 828 78.6558 1022.44 500.913
557 0 75.0489 9.94019 746 80.7748 1022.81 500.204
558 0 78.0527 10.1598 793 80.2825 1022.53 498.622
559 0 81.0476 11.1663 905 80.5193 1022.62 496.097
560 0 83.0565 10.6915 888 82.3626 1022.05 494.112
561 0 84.0499 9.85129 828 84.1268 1022.74 495.843
562 0 88.0618 10.1633 895 84.1307 1022.24 491.372
563 0 93.0667 11.3252 1054 81.6385 1021.36 491.873
564 0 96.0922 11.3953 1095 82.3233 1022.4 489.28
565 1 54.0305 10.272 555 80.0306 1021.57 512.171
566 0 53.0516 10.3484 549 80.1639 1022.8 510.191
567 0 57.0402 11.2728 643 77.3997 1022.18 509.972
568 0 58.0361 11.1999 650 77.9369 1022.08 508.063
569 0 59.0466 11.5841 684 80.5629 1020.87 506.727
570 0 60.0432 12.008 721 76.6019 1021.23 507.337
571 0 62.0347 11.687 725 77.4124 1020.69 505.832
572 0 64.0183 11.6685 747 78.3829 1020.8 504.628
573 0 67.0553 11.9901 804 76.1244 1021.69 504.325
574 0 68.0515 12.1526 827 76.3035 1021.31 502.788
575 0 71.027 12.3756 879 79.0205 1021.97 501.825
576 0 72.0359 12.6326 910 78.1978 1021.58 500.371
577 0 73.0502 12.8268 937 80.8367 1021.3 500.703
578 0 75.0614 12.4831 937 82.1281 1020.89 499.053
579 0 79.0258 12.6288 998 81.3507 1020.96 498.448
580 0 80.0287 13.1828 1055 80.6199 1020.65 496.248
581 0 82.1 12.7771 1049 81.1964 1020.75 496.884
582 0 85.0414 13.0289 1108 80.7608 1021.42 495.513
583 0 87.1046 12.7548 1111 86.4662 1021.55 492.95
584 0 87.1046 12.7089 1107 135.774 1021.56 493.024
585 0 94.0843 12.5632 1182 87.7064 1021.37 489.439
586 0 97.0532 13.2195 1283 85.8387 1020.92 489.026
587 0 100.091 13.4178 1343 85.6873 1020.81 487.524
588 0 105.161 12.7994 1346 90.3536 1021.4 485.692
589 0 105.242 12.0009 1263 93.4782 1021.4 483.629
590 0 109.151 12.0018 1310 93.4489 1021.42 483.021
591 1 54.0443 10.8244 585 90.1983 1021.06 507.75
592 0 57.0415 11.3076 645 88.8698 1022.23 507.758
593 0 59.0848 11.6612 689 87.5965 1022.56 508.179
594 0 60.0419 11.9916 720 88.5347 1021.98 508.108
595 0 63.0204 12.5039 788 88.1383 1021.29 506.388
596 0 65.0546 12.697 826 88.5726 1021.15 504.881
597 0 67.0365 12.8736 863 88.5249 1020.9 505.246
598 0 69.0639 12.1482 839 91.0107 1020.09 502.447
599 0 73.0589 12.4557 910 90.5154 1020.88 501.381
600 0 74.0552 12.8823 954 89.9895 1021.25 499.571
601 0 77.137 12.588 971 91.0474 1020.9 498.255
602 0 81.097 13.1941 1070 88.1981 1021.34 498.195
603 0 81.0844 12.5425 1017 91.4169 1020.9 496.894
604 0 85.07 13.389 1139 89.6857 1020.28 495.89
605 0 84.0551 12.5751 1057 94.1495 1019.93 494.329
606 0 88.1102 13.1426 1158 92.5181 1021.05 493.663
607 0 91.1044 13.0839 1192 92.2525 1020.26 491.871
608 0 93.1209 12.9831 1209 94.0339 1020.55 490.654
609 0 94.1304 13.152 1238 95.0832 1020.35 489.156
610 0 98.1208 13.7484 1349 93.0519 1021.36 489.91
611 0 101.112 13.1043 1325 94.2808 1021.37 488.58
612 0 105.109 13.348 1403 93.8033 1021.17 486.102
613 0 106.133 13.1627 1397 95.1296 1021.38 485.875
614 0 109.224 13.2022 1442 94.8675 1020.35 484.617
615 0 111.233 13.6381 1517 92.4443 1021.03 481.176
616 0 117.234 13.0509 1530 90.9131 1020.49 479.995
617 0 120.184 13.0217 1565 84.0799 1021.78 479.468
618 0 123.127 13.0759 1610 87.8273 1021.38 476.853
619 0 127.175 12.9743 1650 87.1527 1021.44 474.002
620 0 132.219 13.3415 1764 85.4087 1022.01 471.108
621 0 136.277 12.7608 1739 85.7407 1021.84 467.283
622 0 140.205 12.7028 1781 84.6884 1022.26 463.476
623 1 78.1662 11.1301 870 82.1816 1021.38 498.261
624 0 79.1394 10.968 868 82.1809 1019.54 496.955
625 0 81.1884 11.6642 947 81.793 1020.4 494.272
626 0 84.1305 12.1834 1025 80.9444 1020.87 493.645
627 0 88.1643 13.1459 1159 80.4685 1021.42 492.841
628 0 92.2903 13.6851 1263 79.076 1021.91 490.852
629 0 89.189 11.8737 1059 84.5033 1022.04 491.169
630 0 94.2487 12.1169 1142 83.1524 1022.22 488.803
631 0 96.2614 12.5907 1212 82.6733 1021.49 489.608
632 0 98.3244 11.9502 1175 85.9081 1021.52 483.721
633 0 102.402 12.2556 1255 84.6637 1021.89 483.086
634 0 105.209 12.765 1343 83.4944 1022.39 481.478
635 0 108.255 12.9787 1405 81.6356 1022.07 478.908
636 0 109.222 11.8933 1299 82.8229 1022.05 475.814
637 0 113.317 12.796 1450 80.6579 1022.45 477.032
638 0 118.18 11.7109 1384 81.3288 1022.24 475.783
639 0 121.114 11.4933 1392 74.0115 1022.46 474.19
640 1 66.049 10.25 677 66.4062 1023.26 502.142
641 0 67.0887 10.3296 693 65.1486 1022.46 502.431
642 0 70.0081 10.0274 702 64.2934 1023.66 499.466
643 0 70.1296 9.73911 683 64.306 1022.62 499.277
644 0 74.0854 10.3259 765 64.5791 1022.95 496.095
645 0 76.0586 10.0712 766 65.0313 1023.43 495.717
646 0 77.066 10.6792 823 65.4848 1023.3 494.293
647 0 81.1291 10.5881 859 66.4738 1023.05 491.168
648 0 84.12 10.6039 892 68.083 1023.58 490.188
649 0 86.0773 11.7453 1011 67.5074 1023.87 491.328
650 0 89.1004 11.4478 1020 68.698 1023.81 488.644
651 0 91.0469 10.4452 951 71.2029 1023.85 485.598
652 0 94.1294 11.0699 1042 71.1056 1023.11 485.116
653 0 96.1922 11.529 1109 70.908 1023.62 482.79
654 0 100.066 11.5024 1151 72.4049 1023.1 482.953
655 0 103.158 10.2658 1059 75.1086 1022.76 479.621
656 0 103.041 9.81161 1011 74.8684 1022.64 480.188
657 1 55.0459 8.97432 494 67.7166 1023.53 501.15
658 0 57.1261 9.38274 536 71.4627 1023.3 505.104
659 0 60.0374 9.71062 583 70.5043 1023.22 505.213
660 0 61.0969 10.2624 627 66.3684 1024.1 500.273
661 0 63.0261 11.5508 728 68.8558 1024.55 504.093
662 0 64.0527 11.5218 738 70.3266 1024.48 501.889
663 0 65.0416 11.9001 774 72.8786 1023.33 500.937
664 0 68.103 12.114 825 72.2933 1023.35 498.43
665 0 68.0199 11.9818 815 74.6086 1022.81 497.172
666 0 73.0866 11.2469 822 75.3017 1022.74 496.112
667 0 73.0266 12.8035 935 73.4781 1021.84 497.308
668 0 77.0457 12.9404 997 73.995 1022.49 495.642
669 0 78.0428 12.9801 1013 74.7532 1022.3 494.382
670 0 82.0414 13.8223 1134 74.5212 1023.83 493.061
671 0 83.0357 12.9824 1078 76.8089 1023.81 492.457
672 0 85.0243 12.8669 1094 78.1133 1023.68 492.438
673 0 88.038 13.585 1196 77.5928 1023.79 489.429
674 0 91.0757 13.6919 1247 78.4354 1023.23 489.12
675 0 92.052 13.3946 1233 80.1557 1023.28 487.443
676 0 98.0952 13.9762 1371 80.868 1022.86 485.907
677 0 100.108 13.6652 1368 83.3158 1023.27 483.624
678 0 103.083 13.7656 1419 86.6772 1023.11 482.677
679 0 105.068 14.4478 1518 86.9664 1023.95 480.513
680 0 109.094 14.5288 1585 88.2505 1023.38 479.292
681 0 110.081 14.0624 1548 90.2125 1023.98 477.371
682 0 113.084 14.1222 1597 91.025 1023.83 475.435
683 0 116.094 13.5149 1569 93.3633 1023.83 473.531
684 0 118.14 12.9254 1527 93.9247 1023.42 474.99
685 0 123.161 13.1211 1616 92.7642 1023.08 470.464
686 0 125.169 12.8786 1612 95.6867 1023.22 471.424
687 0 133.151 13.1955 1757 95.0034 1023.73 467.345
688 1 74.0378 11.8453 877 87.6602 1023.2 499.265
689 0 77.0711 12.1965 940 85.6692 1023.55 497.664
690 0 80.084 12.0498 965 82.8052 1024.23 497.94
691 0 82.0406 12.7254 1044 81.3103 1024.96 499.263
692 0 84.1124 11.7937 992 83.8488 1024.7 497.078
693 0 86.0749 12.4543 1072 83.2938 1024.58 496.92
694 0 90.1316 12.4041 1118 83.356 1023.74 494.784
695 0 92.0718 12.4251 1144 84.4825 1024.35 492.857
696 0 95.0867 12.1363 1154 85.11 1023.9 492.079
697 0 99.074 12.2938 1218 84.468 1023.58 491.545
698 0 101.128 11.9848 1212 86.2475 1023.2 489.417
699 0 103.093 12.1638 1254 85.8357 1023.13 489.049
700 0 108.167 12.1664 1316 85.7447 1023.76 486.077
701 0 110.1 11.5622 1273 86.165 1023.17 485.046
702 0 116.13 12.1329 1409 85.0845 1023.57 483.783
703 0 119.247 11.9165 1421 85.8839 1023.23 480.59
704 0 122.106 11.7603 1436 86.7472 1023.52 478.261
705 0 127.184 12.187 1550 86.411 1023.5 478.163
706 0 129.11 11.8581 1531 88.5349 1023.06 475.044
707 0 132.09 11.6133 1534 95.7953 1023.03 472.387
708 0 139.111 11.6885 1626 89.195 1023.55 469.878
709 0 143.121 12.0877 1730 88.1827 1023.5 468.444
710 0 147.169 11.1368 1639 89.5088 1023.73 468.272
711 0 152.194 12.0373 1832 88.3641 1023.87 464.833
712 0 155.148 11.576 1796 88.6019 1023.14 460.599
713 0 160.11 12.0105 1923 86.4181 1023.43 462.591
714 0 167.162 12.437 2079 88.1938 1023.46 458.969
715 0 171.182 11.6893 2001 91.2919 1022.52 454.05
716 1 91.0821 11.5171 1049 83.1363 1023.02 495.616
717 0 93.1749 12.0741 1125 84.3653 1022.02 488.801
718 0 95.1276 12.0154 1143 88.3088 1022.74 490.262
719 0 98.179 12.3957 1217 88.1956 1023.36 492.067
720 0 102.114 12.7701 1304 88.3949 1023.11 489.329
721 0 105.149 12.9245 1359 92.0213 1022.15 486.949
722 0 106.075 12.3403 1309 94.1031 1023.46 487.503
723 0 108.138 12.4564 1347 94.5375 1021.65 485.534
724 0 111.192 12.0872 1344 96.7738 1022.06 484.075
725 0 116.191 12.9098 1500 94.6673 1021.16 481.527
726 0 119.187 13.6424 1626 93.9791 1021.45 480.008
727 0 121.188 12.4847 1513 98.0145 1021.79 477.182
728 0 124.237 12.3071 1529 97.8339 1021.65 475.5
729 0 125.359 11.5269 1445 99.099 1022.34 466.922
730 0 128.204 11.9809 1536 97.2116 1021.92 463.294
731 0 134.198 12.2133 1639 97.0275 1022.67 462.029
732 0 137.216 11.9593 1641 96.1962 1021.82 459.615
733 0 141.247 11.7949 1666 95.2767 1022.03 458.486
734 0 142.231 11.7203 1667 95.1782 1021.86 451.327
735 0 151.204 11.4614 1733 95.1396 1021.93 450.279
736 1 84.233 8.34589 703 92.1181 1022.26 486.013
737 0 93.1884 11.1817 1042 86.3148 1022.71 487.914
738 0 97.1378 11.6638 1133 87.263 1023.19 488.367
739 0 99.2034 11.7839 1169 88.3952 1022.89 486.624
740 0 103.302 12.6619 1308 86.6934 1022.46 483.888
741 0 106.17 11.8113 1254 86.2392 1021.74 486.271
742 0 109.229 11.5903 1266 86.6682 1021.21 482.137
743 0 113.282 11.9524 1354 86.644 1022.01 481.789
744 0 114.134 10.9783 1253 87.5044 1021.63 479.136
745 0 118.154 11.8151 1396 85.217 1021.79 477.639
746 0 123.144 11.247 1385 82.2397 1021.98 474.21
747 0 126.082 11.7543 1482 82.865 1022.27 471.666
748 0 129.117 11.6561 1505 84.0831 1022.63 469.31
749 0 134.106 11.7743 1579 83.867 1022.73 469.04
750 1 73.0383 10.4877 766 75.3394 1023.31 500.476
751 0 76.0445 10.6517 810 76.2185 1022.26 499.801
752 0 79.1264 11.7028 926 76.1048 1022.58 498.394
753 0 82.0492 11.4565 940 77.7649 1022.3 496.533
754 0 85.0298 11.7018 995 77.3869 1022.12 494.743
755 0 88.0503 12.5383 1104 77.5661 1023.09 493.088
756 0 90.0714 11.8017 1063 78.4318 1022.67 490.841
757 0 92.0651 11.5462 1063 80.3368 1023.79 490.295
758 0 97.1389 11.849 1151 79.709 1023.61 488.308
759 0 99.08 11.3343 1123 86.4176 1024.08 484.73
760 0 103.152 11.6333 1200 86.245 1023.3 483.663
761 0 105.19 11.5506 1215 87.1621 1023.1 481.207
762 0 108.126 11.8195 1278 88.4538 1022.68 479.308
763 0 113.26 11.84 1341 88.9948 1022.17 478.398
764 0 115.223 11.4474 1319 90.0364 1022.83 478.144
765 0 115.218 11.4652 1321 134.457 1023.83 478.033
766 1 65.0985 10.7376 699 84.8154 1023.41 503.642
767 0 67.0616 10.975 736 82.0299 1023.26 501.827
768 0 70.1831 12.0542 846 84.9267 1023.69 498.742
769 0 74.1156 11.671 865 91.3908 1023.57 498.86
770 0 76.1317 11.5195 877 90.9749 1022.82 496.424
771 0 77.2144 10.9824 848 87.1486 1023.19 494.624
772 0 80.1119 11.8584 950 86.8316 1022.64 494.708
773 0 83.1235 11.1641 928 89.1649 1022.41 495.189
774 0 85.1987 11.1035 946 90.4302 1023.19 493.728
775 0 89.2807 12.0631 1077 89.1486 1023.39 489.57
776 0 91.2863 11.5899 1058 91.5198 1023.68 487.027
777 0 93.1803 11.5368 1075 92.1758 1023.05 485.314
778 0 93.1803 11.526 1074 142.693 1023.04 485.2
779 0 101.224 11.5585 1170 92.3744 1023.22 483.168
780 0 104.305 12.1279 1265 93.2174 1023.39 482.515
781 0 108.312 12.03 1303 93.33 1021.83 480.592
782 0 111.169 11.7569 1307 95.3634 1022.06 479.314
783 1 57.0184 10.9789 626 86.4712 1022.69 507.762
784 0 59.078 10.8501 641 86.5335 1022.64 505.34
785 0 60.0661 11.171 671 86.0358 1023.39 505.273
786 0 63.0797 11.1922 706 85.5595 1023.46 503.496
787 0 65.1134 11.4416 745 86.3718 1024.48 502.795
788 0 67.0539 12.05 808 85.6374 1023.99 501.871
789 0 69.0083 11.361 784 88.3278 1024.07 501.717
790 0 71.0533 11.7377 834 88.9736 1023.86 500.283
791 0 74.1258 12.843 952 88.0084 1024.43 499.03
792 0 76.1326 12.071 919 89.7486 1024.05 496.31
793 0 77.0911 12.1804 939 90.4782 1024.69 494.944
794 0 80.1113 11.9584 958 91.4676 1024.82 494.478
795 0 83.1091 12.8626 1069 89.8541 1025.47 493.589
796 0 84.0539 11.8971 1000 93.282 1024.88 491.601
797 0 87.0733 12.5067 1089 92.5804 1025.23 492.701
798 0 91.0663 12.716 1158 92.519 1025.32 491.467
799 0 91.1282 12.8391 1170 93.9359 1025.09 489.774
800 0 96.0956 12.8934 1239 93.8014 1024.29 489.718
801 0 96.0475 12.2127 1173 97.0708 1023.92 487.797
802 0 100.077 13.04 1305 95.9073 1023.73 487.117
803 0 103.091 12.6199 1301 98.1937 1023.16 485.774
804 0 105.297 13.2198 1392 98.4512 1023.17 481.922
805 0 108.282 13.077 1416 99.5078 1023.64 481.133
806 0 111.183 12.9426 1439 100.522 1023.74 478.167
807 0 115.197 12.4916 1439 103.18 1023.64 476.309
808 0 119.235 13.2344 1578 102.688 1023.01 476.265
809 0 124.151 13.6044 1689 102.034 1023.43 474.059
810 1 66.2285 10.4185 690 97.9928 1022.77 505.001
811 0 70.126 11.3225 794 97.6499 1022.69 502.753
812 0 73.1128 11.8447 866 95.2621 1023.32 503.665
813 0 75.027 11.7824 884 96.4299 1023.23 503.008
814 0 78.0151 12.0361 939 96.8669 1023.84 501.391
815 0 81.0763 12.7041 1030 95.6932 1023.7 501.285
816 0 83.0608 11.9551 993 98.1349 1023.94 500.5
817 0 88.0696 12.6718 1116 95.8584 1024.15 498.916
818 0 90.1078 12.6404 1139 97.5909 1023.56 496.185
819 0 92.1183 12.5274 1154 99.3761 1023.83 494.627
820 0 96.1788 12.5703 1209 98.7213 1023.41 493.235
821 0 98.0405 12.1174 1188 101.06 1023.14 491.018
822 0 101.111 12.5407 1268 99.4558 1022.94 488.009
823 0 106.148 12.6993 1348 98.0764 1022.6 486.768
824 0 108.108 12.2932 1329 98.9955 1022.35 485.872
825 0 111.17 12.2335 1360 98.5802 1022.9 483.736
826 0 111.172 12.1433 1350 149.836 1023.89 483.677
827 1 59.0572 10.8369 640 90.4516 1022.62 512.547
828 0 61.0321 10.7976 659 88.5341 1022.04 510.135
829 0 63.0818 11.1284 702 86.1311 1022.85 509.412
830 0 64.1331 12.3493 792 86.6149 1023.04 508.24
831 0 66.1419 12.7756 845 92.2757 1022.15 506.393
832 0 68.0283 12.6418 860 91.3942 1022.2 506.915
833 0 72.1952 13.0203 940 90.084 1021.64 505.506
834 0 72.1886 12.4535 899 94.3382 1022.38 505.735
835 0 74.0718 11.9479 885 95.9593 1021.67 504.162
836 0 77.1591 12.5196 966 95.0652 1022.34 502.017
837 0 80.1179 12.5565 1006 95.0746 1021.34 500.609
838 0 82.1026 12.1555 998 96.5862 1021.13 498.287
839 0 85.1954 12.7824 1089 95.9394 1020.62 496.835
840 0 87.1821 12.8008 1116 96.9704 1021.02 495.19
841 0 90.1453 12.5686 1133 98.7458 1021.27 491.914
842 0 95.2898 13.0759 1246 97.118 1021.61 490.227
843 0 96.2195 12.9911 1250 98.7648 1021.54 486.071
844 0 101.297 13.2185 1339 95.9843 1021.97 487.06
845 0 102.201 12.8374 1312 98.4466 1022.34 484.951
846 0 106.247 12.8851 1369 97.1278 1021.36 483.535
847 0 111.165 13.6643 1519 94.7084 1021.84 481.097
848 0 114.153 13.8674 1583 93.8686 1021.03 478.428
849 0 116.126 13.4337 1560 95.1622 1022.14 476.083
850 0 120.149 13.4998 1622 94.037 1021.62 473.717
851 0 122.119 13.1838 1610 94.3149 1022.15 473.337
852 0 125.226 13.28 1663 93.2952 1022.17 471.663
853 0 129.238 12.7827 1652 94.0527 1021.87 468.698
854 0 132.196 12.4966 1652 93.4201 1021.47 469.343
855 0 135.134 11.8179 1597 92.8028 1021.76 466.087
856 0 140.194 11.748 1647 91.0492 1020.96 459.088
857 0 147.183 12.7393 1875 90.7019 1021.1 457.779
858 0 150.261 12.3319 1853 95.0459 1020.95 458.626
859 0 155.261 12.5982 1956 94.0854 1021.13 455.643
860 0 161.214 12.4741 2011 93.6126 1021.71 451.511
861 0 165.19 12.6219 2085 92.812 1021.25 446.247
862 0 169.194 11.8739 2009 94.5067 1021.98 445.979
863 0 173.32 11.822 2049 94.6096 1021.75 441.714
864 0 179.173 11.8544 2124 94.9308 1021.75 438.875
865 0 186.149 12.0925 2251 95.7797 1021.13 440.091
866 0 191.161 12.241 2340 96.7329 1021.79 434.274
867 0 198.187 12.2006 2418 96.2891 1021.04 434.3
868 0 202.208 12.2844 2484 96.6248 1020.87 429.187
869 0 210.17 12.6326 2655 95.7458 1021.51 427.956
870 0 217.261 12.5241 2721 96.6288 1021.11 424.712
871 0 224.263 12.4898 2801 97.4573 1021.03 421.447
872 1 179.2 11.7578 2107 97.027 1021.37 441.399
873 0 185.207 12.6291 2339 94.6528 1021.61 437.707
874 0 189.286 12.1034 2291 98.3771 1022.16 435.365
875 0 195.25 12.3841 2418 98.6108 1022.27 437.25
876 0 201.216 11.9573 2406 100.665 1022.24 432.658
877 0 208.377 11.9783 2496 102.082 1021.21 424.305
878 0 215.387 12.0481 2595 100.893 1021.2 421.549
879 0 222.36 12.174 2707 100.565 1021.28 419.675
880 0 229.439 12.5262 2874 100.917 1021.25 416.835
881 0 239.584 12.8807 3086 101.016 1021.64 409.543
882 0 245.627 12.1282 2979 102.742 1021.81 405.296
883 0 250.417 11.6925 2928 103.668 1022.12 400.623
884 1 59.2248 10.5192 623 85.1653 1023.35 505.623
885 0 63.2632 11.6339 736 84.8981 1021.84 502.985
886 0 63.0906 11.6341 734 85.248 1023.29 502.646
887 0 64.1145 11.2611 722 87.5526 1022.11 502.335
888 0 65.1164 10.7961 703 89.7312 1020.14 501.236
889 0 69.0784 11.4218 789 88.5425 1020.8 500.108
890 0 71.1563 11.3412 807 88.6865 1021.21 500.57
891 0 71.1563 11.2991 804 139.478 1021.24 500.546
892 0 73.1072 11.0933 811 90.4846 1020.73 498.961
893 0 74.067 11.1251 824 90.5218 1021.54 497.176
894 0 76.1109 10.9446 833 90.9712 1021.22 496.437
895 0 79.1934 11.2509 891 90.3614 1021.03 493.671
896 0 83.1171 11.4056 948 88.4146 1020.54 492.96
897 0 85.0925 11.0938 944 88.8972 1021.46 492.618
898 0 87.091 10.8737 947 90.0961 1020.98 490.075
899 0 90.1974 11.2753 1017 88.4336 1021.48 487.787
900 0 92.0998 11.0098 1014 90.0533 1021.06 485.65
901 0 96.1223 11.7038 1125 89.3218 1021.64 483.527
902 1 50.1219 10.1552 509 89.9136 1022.98 502.375
903 0 51.0945 10.2164 522 92.0479 1022.35 499.849
904 0 51.0455 10.5396 538 89.3197 1024.09 492.178
905 0 57.049 9.46555 540 77.6815 1023.73 495.528
906 0 60.1065 10.1819 612 75.8987 1023.06 496.5
907 0 61.2082 10.0477 615 76.1675 1023.07 498.044
908 0 64.1391 11.1632 716 74.9008 1023.29 497.648
909 0 67.0825 10.6287 713 75.5498 1023.83 498.102
910 0 66.1323 11.1594 738 76.6274 1023.95 497.869
911 0 68.1084 11.6432 793 76.1274 1024.11 496.967
912 0 72.063 12.1005 872 75.6984 1022.94 495.929
913 0 72.0511 11.7694 848 79.3101 1023.81 493.15
914 0 76.1427 11.3602 865 79.963 1023.38 493.222
915 0 78.1028 11.5233 900 80.1744 1023.23 491.472
916 0 79.0536 11.0937 877 82.5929 1022.48 490.501
917 0 82.1776 12.0836 993 83.6234 1022.31 488.816
918 0 85.1444 11.4159 972 85.3374 1022.84 488.542
919 0 87.0728 12.1048 1054 84.6442 1022.25 484.988
920 0 89.1274 11.7809 1050 86.839 1022.4 483.6
921 0 90.1336 12.3372 1112 86.8822 1022.56 483.182
922 0 96.1149 12.329 1185 86.3755 1023.23 483.206
923 0 100.126 12.4044 1242 87.3736 1021.84 480.73
924 0 103.173 12.6971 1310 85.7641 1022.24 481.109
925 0 106.108 12.6851 1346 87.6174 1021.15 478.637
926 0 109.088 12.3386 1346 87.9339 1021.16 478.207
927 1 58.1415 10.3884 604 83.9272 1022.16 504.985
928 0 61.0464 12.1219 740 86.1324 1021.51 507.674
929 0 62.152 12.389 770 87.3273 1021.77 506.069
930 0 66.164 12.469 825 85.8242 1021.26 504.644
931 0 63.0834 12.2061 770 90.5818 1021.35 506.383
932 0 66.0885 12.4681 824 89.8871 1020.82 506.074
933 0 67.1268 12.2008 819 91.2698 1020.35 505.168
934 0 70.0765 12.1296 850 89.7847 1020.13 503.882
935 0 73.1271 12.4578 911 88.6356 1020.61 503.915
936 0 75.0839 11.9466 897 90.3757 1020.13 501.241
937 0 77.0992 11.9586 922 91.423 1020.35 499.896
938 0 79.1503 12.0783 956 90.8672 1020.04 500.045
939 0 80.1548 12.3012 986 91.5416 1020.47 498.698
940 0 85.1897 12.4428 1060 90.4566 1020.73 497.618
941 0 86.1063 13.0885 1127 89.7693 1020.33 495.003
942 0 89.0944 13.2332 1179 89.6421 1020.27 494.421
943 0 89.049 12.465 1110 92.5622 1019.07 491.949
944 0 94.1915 13.016 1226 92.3059 1019.41 487.58
945 0 95.1378 12.7184 1210 94.0752 1019.76 484.728
946 0 98.308 12.9186 1270 94.4591 1019.51 480.55
947 0 100.204 12.9735 1300 94.2631 1020.06 476.927
948 0 102.068 12.9129 1318 94.4833 1020.07 475.96
949 0 105.181 12.9872 1366 92.9092 1020.66 473.455
950 0 110.088 13.3801 1473 97.1813 1020.24 471.21
951 0 112.216 13.1443 1475 99.7553 1021.17 470.249
952 0 115.119 13.0908 1507 102.149 1020.86 467.791
953 0 118.155 13.3214 1574 103.863 1019.6 465.071
954 0 125.201 13.7139 1717 101.158 1020.3 464.398
955 0 128.134 13.1659 1687 94.8145 1019.53 459.921
956 1 67.092 10.7315 720 92.7028 1020.4 491.464
957 0 71.052 11.3016 803 90.8456 1021.05 491.047
958 0 76.2294 11.7671 897 91.6187 1021.59 491.208
959 0 77.2158 12.1089 935 91.1326 1020.55 488.878
960 0 79.0655 12.4833 987 89.0172 1021.21 495.344
961 0 83.1108 12.2367 1017 89.1396 1020.21 493.259
962 0 84.0998 12.5208 1053 89.3818 1020.9 490.282
963 0 88.1263 12.5275 1104 89.2409 1020.58 490.097
964 0 87.1071 11.7327 1022 91.1301 1021.49 488.267
965 0 92.09 12.4661 1148 89.8659 1021.35 487.18
966 0 95.117 12.2586 1166 90.277 1021.45 482.369
967 0 96.2268 12.0237 1157 91.7001 1020.99 478.807
968 0 102.172 12.5671 1284 89.683 1022.51 481.204
969 0 102.175 12.5569 1283 154.65 1024.51 481.057
970 0 111.245 12.9264 1438 88.5974 1021.5 475.768
971 0 114.2 12.881 1471 89.6193 1022.08 470.838
972 0 118.151 11.9677 1414 87.4873 1022.49 475.758
973 0 124.252 12.6517 1572 87.2894 1021.63 472.975
974 0 126.114 11.7434 1481 87.6124 1020.98 471.581
975 0 130.102 11.3296 1474 84.5332 1021.26 469.037
976 1 76.1704 11.0542 842 75.8028 1022.24 498.717
977 0 77.0541 10.564 814 73.1781 1022.15 498.023
978 0 73.0865 9.00303 658 72.2477 1022.05 491.052
979 0 79.1271 8.61904 682 82.3152 1023.04 489.066
980 0 80.115 8.86226 710 83.3408 1023.71 489.155
981 0 85.0689 10.7325 913 86.5991 1021.97 495.055
982 0 89.096 10.7861 961 77.7628 1022.35 494.642
983 0 90.0963 10.9105 983 78.8464 1021.69 491.64
984 0 95.1486 11.0249 1049 79.6015 1022.25 489.663
985 0 98.0933 11.5808 1136 78.7254 1022.65 487.668
986 0 99.0883 12.0398 1193 79.7234 1021.76 485.426
987 0 100.117 11.0072 1102 81.726 1023.21 485.603
988 0 106.074 11.6994 1241 79.4174 1022.94 483.661
989 0 108.091 11.8234 1278 80.3646 1022.68 482.203
990 0 112.08 11.688 1310 81.8191 1022.43 479.64
991 0 114.07 12.3609 1410 81.6645 1021.93 477.54
992 0 120.108 12.2806 1475 91.4624 1021.7 475.742
993 0 121.103 12.6999 1538 93.0579 1022.2 473.873
994 0 125.181 12.6297 1581 93.4067 1021.97 471.931
995 0 130.067 11.5633 1504 86.7939 1022.52 472.8
996 0 135.158 12.1562 1643 89.5289 1023.35 469.878
997 1 75.0257 10.6364 798 85.3208 1023.06 499.167
998 0 77.0962 11.2976 871 83.1297 1023.43 497.828
999 0 81.069 11.7924 956 82.4216 1023.52 497.382
1000 0 82.1565 12.3423 1014 91.1992 1022.45 495.303
1001 0 86.165 12.3136 1061 91.3073 1021.34 493.977
1002 0 89.172 12.9301 1153 90.2411 1021.61 491.525
1003 0 91.1346 12.2895 1120 91.1571 1022.07 491.418
1004 0 94.1277 12.6636 1192 91.4052 1022.71 488.933
1005 0 95.2097 12.1311 1155 93.6346 1024.16 487.463
1006 0 98.2284 12.5829 1236 91.7872 1023.44 487.354
1007 0 102.143 12.8643 1314 91.2915 1024.17 483.779
1008 0 102.164 11.8926 1215 92.1753 1023.84 479.561
1009 0 100.077 11.2713 1128 90.9131 1024.59 471.42
1010 0 99.0545 10.9233 1082 92.7135 1023.1 469.697
1011 0 102.081 11.0696 1130 91.9788 1022.86 468.969
1012 0 105.063 11.0981 1166 92.1158 1021.68 466.642
1013 1 119.153 12.7819 1523 91.6592 1022.76 476.208
1014 0 118.159 11.5099 1360 95.0772 1022.53 477.426
1015 0 117.131 10.0059 1172 87.3166 1022.48 477.897
1016 0 127.077 10.6707 1356 85.042 1024.25 470.284
1017 0 131.086 11.1301 1459 84.2694 1023.11 471.493
1018 0 135.07 11.8309 1598 81.5138 1024.28 469.797
1019 0 139.065 10.6641 1483 83.3695 1024.48 467.152
1020 1 77.0479 9.88996 762 80.4226 1025.02 496.926
1021 0 82.0286 10.2769 843 79.3452 1024.85 496.926
1022 0 85.0632 10.5333 896 80.1629 1025.01 494.583
1023 0 87.0632 11.2677 981 80.7421 1025.33 494.895
1024 0 88.1586 10.379 915 83.106 1024.96 491.158
1025 0 92.1014 11.7588 1083 81.2872 1024 490.838
1026 0 95.065 11.2449 1069 84.2498 1024.32 487.893
1027 0 100.072 11.2519 1126 82.6963 1024.12 486.93
1028 0 102.083 12.0294 1228 81.6694 1023.84 485.935
1029 0 103.08 11.1661 1151 83.1225 1023.71 483.447
1030 0 108.096 11.7025 1265 82.7565 1023.9 480.36
1031 0 111.072 11.7041 1300 84.0231 1025.41 478.586
1032 0 115.072 11.7231 1349 84.1801 1024.71 476.371
1033 0 119.158 11.5729 1379 85.1044 1024.14 475.586
1034 0 120.075 11.2597 1352 87.3247 1024.68 471.917
1035 0 125.076 11.433 1430 85.7126 1023.53 470.702
1036 0 129.108 12.4082 1602 84.6692 1024.4 470.937
1037 0 131.136 11.3851 1493 86.8413 1024.32 468.524
1038 0 134.075 11.7621 1577 87.0165 1023.1 466.15
1039 0 140.072 12.4578 1745 85.4401 1023.36 463.837
1040 0 143.101 12.0335 1722 93.4216 1023.31 460.496
1041 0 150.123 12.8495 1929 90.9368 1023.62 462.945
1042 0 156.165 13.1848 2059 89.9558 1023.6 458.303
1043 0 161.109 12.7243 2050 91.3663 1023.33 453.22
1044 0 165.169 12.8293 2119 86.5701 1023.84 455.229
1045 1 88.082 11.0919 977 82.8291 1023.5 494.241
1046 0 90.0462 11.1387 1003 84.671 1022.57 492.518
1047 0 93.036 11.3289 1054 85.833 1021.33 490.521
1048 0 94.0405 11.2824 1061 87.6852 1022.1 486.965
1049 0 96.0372 11.1415 1070 88.8477 1022.2 483.243
1050 0 97.0834 11.1038 1078 90.4916 1023.4 481.768
1051 0 98.1782 10.7254 1053 88.5005 1022.62 474.931
1052 0 101.193 10.0797 1020 89.5422 1023.29 472.523
1053 0 106.134 10.3831 1102 89.6134 1023.65 470.368
1054 0 110.071 11.3926 1254 91.0136 1023.54 470.84
1055 0 115.08 11.6267 1338 91.9275 1023.41 470.229
1056 0 118.132 11.2162 1325 92.8989 1023.7 468.306
1057 0 121.109 11.0314 1336 85.4573 1023.94 466.771
1058 0 125.148 11.2187 1404 89.8803 1022.82 470.201
1059 1 68.087 9.09131 619 87.1115 1022.89 497.065
1060 0 72.1108 9.9569 718 86.695 1022.24 495.366
1061 0 76.0762 11.9091 906 90.2141 1023.47 501.883
1062 0 78.0779 11.9112 930 87.043 1024.23 501.806
1063 0 76.0335 10.9689 834 90.946 1023.66 501.236
1064 0 80.1224 12.119 971 89.4665 1024.05 499.468
1065 0 80.06 11.4539 917 91.88 1023.92 499.875
1066 0 85.1422 11.8977 1013 90.8796 1023.73 498.056
1067 0 88.0904 11.7152 1032 92.1114 1023.56 494.745
1068 0 87.0872 11.4598 998 95.2866 1023.27 493.327
1069 0 90.1252 12.1054 1091 93.7388 1023.28 492.984
1070 0 94.1047 12.0292 1132 93.9938 1023.05 490.835
1071 0 96.17 12.0412 1158 95.0872 1023.31 491.869
1072 0 99.185 12.1289 1203 95.8554 1023.26 490.953
1073 0 102.295 12.5715 1286 95.1952 1023.69 486.732
1074 0 107.103 12.8194 1373 93.5026 1023.33 485.012
1075 0 110.232 12.6007 1389 95.2556 1023.5 483.795
1076 0 113.133 12.5074 1415 94.3541 1024.12 482.073
1077 1 65.1139 10.0746 656 91.0427 1025.72 504.317
1078 0 64.0357 10.0413 643 90.2535 1024.15 501.526
1079 0 68.036 10.4357 710 87.2099 1024.25 499.632
1080 0 68.1154 11.0694 754 88.6167 1022.39 507.475
1081 0 69.1797 11.9833 829 87.5585 1022.91 507.247
1082 0 71.1108 11.8126 840 88.2119 1022.52 504.63
1083 0 73.1396 11.9498 874 87.9394 1022.34 504.907
1084 0 75.19 11.7569 884 88.69 1022.14 504.951
1085 0 76.2126 12.3733 943 89.6946 1022.99 502.441
1086 0 79.0972 12.7817 1011 88.3482 1023.34 501.452
1087 0 81.1462 12.8164 1040 89.7096 1023.82 499.264
1088 0 82.2165 12.4063 1020 92.1471 1023.22 499.126
1089 0 86.1466 13.1868 1136 101.785 1022.89 496.747
1090 0 89.1735 13.0532 1164 103.28 1022.35 495.153
1091 0 90.1995 13.0821 1180 104.293 1022.56 494.352
1092 0 92.2792 13.1449 1213 104.815 1023.33 491.462
1093 0 94.1488 12.9051 1215 107.346 1023.53 485.188
1094 0 98.1935 13.7993 1355 103.827 1023.73 484.21
1095 0 98.2183 12.9507 1272 107.512 1023.77 482.045
1096 0 101.252 12.9578 1312 107.209 1022.76 481.236
1097 0 108.173 13.6818 1480 103.649 1023.18 480.119
1098 0 110.25 13.669 1507 103.691 1022.76 478.997
1099 0 113.249 13.8986 1574 102.199 1024.25 479.103
1100 0 117.308 13.9802 1640 101.559 1024.18 477.938
1101 0 118.177 13.4629 1591 103.87 1023.21 474.791
1102 0 119.296 13.194 1574 104.727 1024.13 475.103
1103 0 124.209 14.0328 1743 102.752 1023.13 470.705
1104 0 129.201 14.0865 1820 102.57 1023.72 471.606
1105 0 134.209 13.8068 1853 105.493 1023.61 472.556
1106 0 138.252 13.8805 1919 106.299 1023.49 470.065
1107 0 142.246 13.7086 1950 102.265 1024.06 467.543
1108 0 145.29 13.1736 1914 101.083 1023.19 462.482
1109 0 149.146 13.4164 2001 101.035 1023.67 461.726
1110 1 83.1346 10.3206 858 95.6946 1023.03 496.051
1111 0 87.1973 12.1105 1056 98.1506 1023.57 496.9
1112 0 91.0858 12.2961 1120 95.8804 1023.51 495.41
1113 0 93.1293 11.9511 1113 98.2866 1023.53 493.441
1114 0 93.1396 12.0142 1119 152.73 1023.53 493.421
1115 0 100.076 13.0201 1303 97.7759 1024.27 491.463
1116 0 101.111 12.6001 1274 101.859 1023.48 489.379
1117 0 104.073 12.6642 1318 102.429 1023.69 488.361
1118 0 106.228 12.0307 1278 103.908 1023.03 484.605
1119 0 111.238 12.244 1362 102.99 1022.54 481.04
1120 0 114.188 12.2255 1396 103.268 1023.28 480.664
1121 0 118.2 12.3012 1454 102.613 1023.47 479.517
1122 1 66.1142 10.8751 719 96.5216 1023.54 507.766
1123 0 66.178 11.1971 741 97.1376 1023.03 508.028
1124 0 70.1573 10.2769 721 99.7878 1023.85 507.327
1125 0 71.1466 11.0054 783 99.2656 1022.62 506.232
1126 0 72.1209 11.4253 824 101.834 1023.69 504.701
1127 0 76.1639 12.0923 921 102.088 1022.92 502.182
1128 0 77.1353 12.6142 973 99.8273 1022.72 500.996
1129 0 80.1779 12.7841 1025 102.524 1021.83 500.124
1130 0 81.2108 13.2002 1072 104.48 1021.97 498.079
1131 0 83.2399 12.506 1041 109.257 1021.63 495.439
1132 0 86.3034 12.6299 1090 110.649 1022.7 494.084
1133 0 89.2721 12.8708 1149 110.948 1021.92 491.949
1134 0 88.1661 11.6031 1023 116.545 1022.18 489.493
1135 0 89.1561 11.9902 1069 116.193 1021.84 487.335
1136 0 92.2036 12.0494 1111 116.657 1022.67 488.009
1137 0 95.1753 11.8623 1129 118.275 1021.86 486.549
1138 0 97.2982 11.8296 1151 116.763 1022.43 486.046
1139 0 96.2433 11.9385 1149 122.326 1021.6 474.249
1140 0 100.199 12.0659 1209 120.892 1021.78 473.764
1141 0 104.168 12.0094 1251 119.735 1021.46 475.092
1142 0 105.245 12.5706 1323 118.633 1020.59 471.621
1143 0 112.201 12.1746 1366 117.057 1021.25 473.297
1144 0 113.142 11.8082 1336 118.35 1021.78 468.984
1145 0 118.166 12.1016 1430 116.673 1022.08 472.078
1146 1 64.0679 9.8177 629 114.48 1022.44 499.431
1147 0 67.0843 11.2545 755 108.887 1022.07 499.295
1148 0 72.1362 11.4367 825 110.669 1021.04 501.139
1149 0 73.1233 10.79 789 96.4829 1021.22 502.58
1150 0 77.2093 11.2292 867 94.8512 1020.88 503.096
1151 0 79.2142 11.2859 894 95.4541 1020.63 501.562
1152 0 79.2128 11.2987 895 96.143 1020.37 500.113
1153 0 82.2077 11.4223 939 96.5144 1020.14 500.703
1154 0 83.2517 10.9067 908 98.7819 1020.24 498.295
1155 0 86.1886 11.7765 1015 98.1222 1019.92 496.284
1156 0 87.2006 11.3761 992 100.009 1020.95 494.511
1157 0 91.2689 11.1758 1020 100.549 1020.71 493.318
1158 0 93.1907 11.793 1099 100.251 1020.86 492.217
1159 0 94.135 11.5366 1086 102.157 1021.16 490.671
1160 0 98.2347 11.7576 1155 102.933 1021.14 490.7
1161 0 100.236 12.1314 1216 102.507 1021.54 489.276
1162 0 105.219 13.1726 1386 100.841 1021.13 484.547
1163 0 103.296 11.9559 1235 106.52 1021.06 485.762
1164 0 107.144 12.1518 1302 106.132 1020.71 484.598
1165 0 113.17 12.521 1417 104.978 1021.38 479.912
1166 0 116.216 13.0705 1519 105.228 1020.93 478.542
1167 0 115.185 11.5988 1336 108.783 1021.12 479.786
1168 0 121.209 12.4249 1506 106.405 1020.81 477.064
1169 0 125.254 12.1354 1520 104.525 1021.14 474.602
1170 0 127.234 12.0093 1528 106.207 1021.31 473.846
1171 0 133.182 12.314 1640 103.85 1021.71 472.022
1172 0 136.323 11.3187 1543 105.048 1021.46 465.525
1173 1 79.0756 9.49724 751 99.213 1021.78 498.925
1174 0 81.1169 10.8855 883 96.0396 1021.89 496.933
1175 0 85.1032 10.8927 927 89.7972 1021.79 499.853
1176 0 87.0346 10.8692 946 89.7283 1021.34 498.557
1177 0 91.0627 11.267 1026 89.0146 1020.7 497.441
1178 0 93.0734 11.2062 1043 90.9128 1020.95 495.678
1179 0 96.0504 12.1186 1164 88.4407 1021.88 494.511
1180 0 99.0657 11.1643 1106 90.641 1020.98 493.49
1181 0 103.047 12.0625 1243 89.1545 1022.44 492.091
1182 0 105.123 11.9384 1255 99.2884 1021.95 487.582
1183 0 108.097 11.3971 1232 99.4773 1021.15 485.034
1184 0 114.076 11.9044 1358 95.4882 1021.77 485.072
1185 0 115.123 11.8656 1366 96.5674 1020.72 480.395
1186 0 120.091 11.5663 1389 97.023 1020.87 479.936
1187 0 123.092 11.073 1363 97.022 1019.89 476.105
1188 0 128.091 11.2108 1436 96.0989 1020.55 474.012
1189 0 132.12 11.7696 1555 93.8675 1019.79 471.545
1190 0 137.208 11.3623 1559 95.3554 1021.2 470.223
1191 1 76.1782 10.4361 795 86.4981 1022.16 501.833
1192 0 78.0724 10.977 857 86.4516 1021.43 499.519
1193 0 79.1692 10.4965 831 85.5584 1021.69 499.051
1194 0 81.1081 10.3442 839 87.0608 1021.13 497.364
1195 0 87.066 10.8538 945 93.5683 1021.37 496.443
1196 0 91.0565 11.2128 1021 92.3761 1021.39 494.639
1197 0 92.0762 11.0778 1020 94.2294 1022.12 492.36
1198 0 94.0605 11.6521 1096 95.3932 1021.34 490.913
1199 0 98.1093 10.9877 1078 96.9082 1021.33 489.882
1200 0 99.1218 11.612 1151 98.344 1022.13 489.531
1201 0 101.145 11.3896 1152 100.589 1022.37 487.736
1202 0 105.235 12.1917 1283 100.14 1022.25 483.631
1203 0 108.354 11.9793 1298 101.26 1021.13 485.306
1204 0 110.305 12.5924 1389 101.551 1021.72 482.787
1205 0 114.228 12.8339 1466 102.013 1021.84 481.808
1206 0 116.089 11.9132 1383 97.3536 1021.82 484.693
1207 1 63.131 9.69412 612 100.791 1022.06 509.167
1208 0 65.109 10.2904 670 99.7612 1021.66 507.719
1209 0 65.1958 10.6295 693 99.3651 1021.6 507.836
1210 0 67.2334 11.0362 742 96.6011 1021.14 506.736
1211 0 70.202 11.5097 808 96.8478 1021.75 504
1212 0 71.1165 11.5585 822 98.6533 1022.49 503.938
1213 0 73.0518 12.0736 882 98.9116 1023.58 502.475
1214 0 74.0654 11.9894 888 99.6329 1022.54 501.836
1215 0 78.059 12.2215 954 99.9864 1022.21 501.705
1216 0 78.0645 12.8355 1002 98.8583 1021.68 500.704
1217 0 83.0727 12.4108 1031 99.1969 1022 498.686
1218 0 85.0936 13.0797 1113 98.2309 1021.95 498.502
1219 0 85.0938 11.74 999 102.511 1022.18 495.453
1220 0 90.0619 12.98 1169 97.9923 1022.98 497.009
1221 0 89.0805 11.4166 1017 103.86 1023.72 495.794
1222 0 91.065 11.2227 1022 104.77 1022.31 494.361
1223 0 93.0688 11.5613 1076 105.22 1022.33 492.26
1224 0 95.0428 11.8052 1122 104.433 1022.82 491.339
1225 0 93.059 11.0468 1028 107.468 1022.47 490.905
1226 0 97.071 10.8477 1053 108.356 1022.97 486.67
1227 0 101.068 11.141 1126 107.313 1022.13 486.424
1228 0 105.092 11.2759 1185 107.315 1022.34 483.154
1229 0 106.141 11.5225 1223 105.953 1021.91 477.565
1230 0 105.119 10.9685 1153 109.998 1022.68 474.197
1231 0 110.11 11.3432 1249 110.001 1022.2 473.126
1232 0 110.144 11.3124 1246 109.67 1022.7 471.045
1233 0 115.151 11.715 1349 108.89 1023.09 470.251
1234 0 116.211 11.2468 1307 110.626 1022.55 467.52
1235 0 122.078 11.6073 1417 109.66 1021.49 466.598
1236 0 126.083 11.2228 1415 109.982 1021.76 465.044
1237 0 127.065 11.317 1438 111.507 1022.12 460.797
1238 0 131.114 11.4862 1506 110.908 1021.32 455.959
1239 0 136.094 11.3672 1547 110.844 1022.59 454.379
1240 1 79.0457 9.84241 778 108.821 1022.41 482.599
1241 0 82.057 10.5049 862 107.246 1022.24 481.798
1242 0 85.0642 11.3209 963 106.053 1021.25 487.134
1243 0 93.0456 12.1016 1126 107.424 1022.68 489.908
1244 0 97.0632 12.2704 1191 104.655 1021.43 487.601
1245 0 100.066 12.0121 1202 108.426 1022.13 487.752
1246 0 104.101 11.7002 1218 109.286 1020.77 485.702
1247 0 107.125 11.8367 1268 109.065 1020.94 482.546
1248 0 108.069 11.5389 1247 114.95 1020.19 480.699
1249 0 111.096 11.0805 1231 112.544 1021.5 477.527
1250 0 116.121 11.6 1347 110.303 1021.4 477.754
1251 0 120.069 12.3762 1486 108.106 1022.01 476.523
1252 0 122.101 11.6788 1426 110.18 1022.54 474.647
1253 0 124.127 11.738 1457 110.218 1022.74 473.423
1254 0 131.153 12.5121 1641 105.57 1023.04 471.884
1255 1 70.02 9.71152 680 101.146 1022.56 503.24
1256 0 72.0295 10.7872 777 90.0708 1020.85 500.947
1257 0 73.0304 10.7216 783 90.3589 1021.75 502.637
1258 0 76.0413 11.2965 859 87.7148 1021.83 499.978
1259 0 79.0395 10.8174 855 88.8924 1021.16 497.481
1260 0 82.0294 11.3496 931 87.8389 1021.97 497.145
1261 0 84.0385 11.6137 976 86.9068 1021.61 496.071
1262 0 87.071 11.6342 1013 86.7177 1022.16 494.72
1263 0 88.0471 11.1986 986 87.5122 1021.77 493.147
1264 0 92.0534 11.9604 1101 86.3533 1022.01 492.11
1265 0 95.1229 11.7953 1122 86.5463 1021.23 492.436
1266 0 96.0553 9.79644 941 84.8735 1021.49 494.107
1267 0 97.1426 10.6338 1033 90.5682 1021.11 492.484
1268 0 100.071 11.0921 1110 90.1703 1021.3 490.522
1269 0 104.062 11.0703 1152 89.9314 1021 491.068
1270 0 105.054 10.6041 1114 91.7325 1021.78 488.009
1271 0 108.051 11.1522 1205 91.7884 1021.63 486.393
1272 0 113.08 10.665 1206 92.2139 1021.65 484.667
1273 0 115.05 10.8735 1251 91.4021 1022.86 484.937
1274 0 118.086 11.1529 1317 92.4389 1022.35 480.261
1275 0 121.152 10.59 1283 93.6836 1022.38 477.719
1276 0 125.147 10.7474 1345 93.8855 1021.8 475.789
1277 0 128.179 10.9144 1399 92.9335 1022.21 473.354
1278 0 131.233 11.7349 1540 92.474 1021.36 472.483
1279 0 137.256 11.5551 1586 92.6759 1022.23 469.061
1280 0 140.158 11.3514 1591 92.8649 1022.04 468.118
1281 0 144.175 11.6317 1677 92.7281 1022.36 463.006
1282 0 149.176 11.6037 1731 92.7995 1022.99 459.854
1283 0 153.169 11.5102 1763 94.4118 1023.07 456.86
1284 0 153.181 11.5027 1762 135.511 1023.08 456.921
1285 0 163.322 11.7436 1918 98.5824 1022.97 452.938
1286 0 168.277 12.2714 2065 98.1874 1023.43 449.942
1287 1 101.07 10.4284 1054 91.999 1023.4 487.246
1288 0 104.107 11.4401 1191 90.131 1024 484.023
1289 0 105.072 10.6974 1124 88.7651 1023.99 484.625
1290 0 109.133 10.9866 1199 89.226 1023.56 482.897
1291 0 112.146 11.173 1253 90.0543 1023.73 482.05
1292 0 116.135 10.9958 1277 90.3837 1022.69 477.675
1293 0 117.171 10.9328 1281 92.1265 1023.52 476.144
1294 0 124.099 11.2974 1402 93.2268 1022.41 474.801
1295 0 127.204 11.1789 1422 94.0499 1022.57 470.834
1296 0 130.193 10.7763 1403 94.5446 1021.93 469.648
1297 0 136.172 10.9127 1486 92.2806 1022.89 464.153
1298 0 141.189 10.8082 1526 92.382 1022.21 465.062
1299 1 76.1236 10.0889 768 113.578 1022.32 498.311
1300 0 80.2204 11.1069 891 85.587 1022.39 494.783
1301 0 82.0669 10.3696 851 85.9906 1021.99 494.439
1302 0 86.0847 10.5129 905 86.074 1022.34 491.11
1303 0 89.1735 11.0907 989 85.0991 1021.5 491.775
1304 0 91.1653 11.5066 1049 85.1344 1021.62 491.565
1305 0 94.1039 11.6255 1094 86.2413 1021.45 490.016
1306 0 94.1134 10.838 1020 89.9118 1022.12 490.542
1307 0 99.119 11.9049 1180 87.7449 1022.39 488.246
1308 0 102.094 11.5482 1179 90.1272 1022.31 487.307
1309 0 106.092 11.6974 1241 91.278 1022.95 487.109
1310 0 109.115 12.1982 1331 90.8242 1022.7 485.641
1311 0 111.098 13.0425 1449 98.5204 1022.7 481.434
1312 0 115.159 13.1731 1517 98.6592 1021.87 480.184
1313 0 116.151 12.5612 1459 100.704 1021.87 479.52
1314 0 121.163 12.9825 1573 98.7572 1021.78 479.389
1315 0 124.097 12.2485 1520 93.3553 1021.56 479.572
1316 0 127.09 12.4636 1584 95.8333 1021.48 475.777
1317 0 130.099 12.7903 1664 99.0691 1022.27 472.219
1318 0 134.182 12.7289 1708 99.4941 1021.12 471.597
1319 0 140.127 13.0382 1827 97.6251 1021.28 468.968
1320 0 143.16 13.1881 1888 97.4841 1021.17 466.524
1321 0 149.177 13.0315 1944 96.3395 1022.09 464.732
1322 0 154.212 12.7162 1961 97.7068 1021.19 462.454
1323 0 160.134 13.3888 2144 97.3442 1021.13 460.231
1324 0 163.115 12.9173 2107 97.3982 1022.47 454.816
1325 1 90.1111 11.0752 998 85.6262 1022.38 494.683
1326 0 92.1107 11.3993 1050 87.6352 1021.16 495.45
1327 0 97.1818 11.7409 1141 86.1209 1022.81 493.089
1328 0 100.171 12.3988 1242 84.0137 1021.42 490.97
1329 0 102.14 12.199 1246 86.2488 1020.3 489.556
1330 0 105.101 12.2358 1286 86.9324 1020.75 487.057
1331 0 108.128 11.8378 1280 88.0586 1020.58 486.655
1332 0 111.107 12.4835 1387 94.6301 1021.33 483.168
1333 0 115.054 12.3507 1421 94.9331 1021.65 483.919
1334 0 118.093 12.0583 1424 95.1861 1022.21 481.863
1335 0 120.139 11.5616 1389 95.4305 1021.29 480.939
1336 0 123.112 12.0216 1480 94.7824 1022 477.793
1337 0 126.17 11.5321 1455 96.2928 1021.57 476.584
1338 0 128.155 11.8529 1519 94.8835 1021.52 474.332
1339 0 132.129 11.6704 1542 96.3502 1020.67 472.008
1340 0 132.12 11.6637 1541 145.745 1019.67 472.193
1341 0 140.187 11.2493 1577 96.0824 1020.77 469.444
1342 0 147.182 12.2366 1801 95.1499 1020.37 467.712
1343 0 150.2 12.2703 1843 95.0255 1020.11 466.602
1344 0 155.256 12.0962 1878 97.3621 1020.64 462.17
1345 0 158.209 12.2559 1939 97.8711 1021.15 460.944
1346 0 163.22 12.3514 2016 97.2852 1020.68 457.407
1347 0 169.27 12.6543 2142 98.6153 1021.44 455.74
1348 0 174.289 13.0301 2271 98.5288 1021.35 454.589
1349 0 177.264 12.9242 2291 101.521 1021.24 450.352
1350 0 181.298 12.598 2284 104.458 1020.31 447.944
1351 0 189.253 13.1993 2498 103.74 1020.8 444.65
1352 0 186.19 12.5409 2335 106.269 1020.3 443.958
1353 0 197.198 13.8997 2741 103.888 1019.98 439.953
1354 0 203.182 13.0031 2642 105.681 1020.23 437.833
1355 0 207.223 13.5024 2798 105.639 1020.28 434.852
1356 0 212.223 13.3868 2841 107.216 1020.06 430.799
1357 0 218.179 13.3331 2909 109.337 1019.61 428.588
1358 0 226.191 13.5947 3075 108.722 1021.02 421.573
1359 0 234.235 14.1781 3321 105.397 1020.61 420.712
1360 0 239.225 13.527 3236 109.239 1020.59 414.937
1361 0 247.215 13.7127 3390 109.279 1019.87 410.385
1362 0 254.222 13.3623 3397 110.508 1020.71 408.193
1363 1 195.249 11.4827 2242 111.496 1020.48 437.39
1364 0 201.24 12.4329 2502 111.332 1020.47 435.555
1365 0 207.353 12.4184 2575 108.866 1021.21 432.387
1366 0 214.3 12.0859 2590 109.071 1020.54 426.556
1367 0 220.355 12.135 2674 109.598 1020.81 424.442
1368 0 228.367 11.7793 2690 111.245 1020.22 418.441
1369 0 234.349 12.4174 2910 110.931 1020.1 417.629
1370 0 242.371 12.3942 3004 111.907 1019.93 412.796
1371 0 250.46 12.9642 3247 111.057 1020.68 408.344
1372 0 257.351 12.5976 3242 114.589 1020.23 403.182
1373 0 262.388 12.1347 3184 116.936 1020.79 400.893
1374 0 270.337 12.2144 3302 118.796 1020.49 398.495
1375 0 281.302 12.7905 3598 116.864 1020.63 395.268
1376 0 289.408 12.4012 3589 118.556 1019.9 385.125
1377 1 221.248 10.4136 2304 103.732 1020.09 427.074
1378 0 224.167 10.8044 2422 110.522 1020.9 426.882
1379 0 226.21 11.8164 2673 105.382 1020.89 424.015
1380 0 227.28 11.8312 2689 109.825 1020.4 424.581
1381 0 230.225 12.2185 2813 116.399 1020.4 425.165
1382 0 232.239 11.3461 2635 119.939 1019.65 417.756
1383 0 238.251 11.278 2687 118.994 1019.29 415.372
1384 0 247.219 11.4999 2843 117.892 1019.25 411.782
1385 0 256.323 11.7586 3014 113.78 1019.69 407.213
1386 0 264.229 12.0539 3185 111.007 1019.83 400.963
1387 0 274.309 11.8188 3242 107.992 1019.45 396.665
1388 0 280.28 12.2663 3438 106.643 1019.72 394.155
1389 0 287.271 12.758 3665 104.905 1018.48 388.046
1390 0 295.354 12.4359 3673 106.468 1018.48 381.478
1391 0 301.362 12.0918 3644 109.901 1018.54 378.099
1392 0 310.285 12.1533 3771 110.638 1019.83 373.989
1393 0 318.378 12.6799 4037 110.585 1018.76 370.922
1394 0 330.419 15.1898 5019 103.781 1019.43 365.919
1395 0 337.367 14.542 4906 108.131 1019.54 360.915
1396 0 346.405 14.8958 5160 108.725 1019.62 356.741
1397 0 355.469 15.1434 5383 110.217 1019.87 348.447
1398 0 364.395 14.7148 5362 114.805 1019.48 345.337
1399 1 74.0722 9.24773 685 96.4204 1020.44 502.212
1400 0 75.1234 9.5576 718 97.7563 1019.37 502.181
1401 0 78.1479 11.0432 863 97.2781 1019.62 502.502
1402 0 75.0302 9.07634 681 93.1821 1021.07 501.966
1403 0 78.0241 9.07412 708 91.8912 1020.55 502.493
1404 0 76.116 9.9979 761 93.5151 1020.92 500.623
1405 0 77.0816 9.35373 721 94.785 1021.03 502.666
1406 0 88.0402 10.6201 935 88.0289 1021.52 497.277
1407 0 89.1308 10.8717 969 89.1094 1019.69 494.915
1408 0 95.3006 13.1374 1252 83.5751 1019.63 486.198
1409 0 92.1693 10.1986 940 94.5553 1019.31 489.105
1410 0 94.1079 9.6485 908 95.2742 1019.58 495.704
1411 0 94.1384 8.89117 837 94.2485 1019.71 481.031
1412 0 99.151 10.4285 1034 90.9874 1020.05 482.597
1413 0 102.144 11.2977 1154 94.2877 1019.49 480.375
1414 0 107.163 11.2632 1207 93.4714 1018.98 479.933
1415 1 60.1358 9.39541 565 89.2248 1019.95 503.389
1416 0 64.1267 9.80871 629 88.3084 1019.13 503.978
1417 0 63.1108 10.03 633 92.7852 1019.87 503.137
1418 0 67.1126 10.46 702 90.0712 1019.04 504.258
1419 0 68.0762 10.2679 699 93.5036 1018.91 503.827
1420 0 68.0524 10.536 717 93.9317 1019.4 502.398
1421 0 69.0816 10.3211 713 93.3562 1019.95 503.522
1422 0 70.0418 10.4652 733 92.9836 1019.86 501.427
1423 0 74.0559 11.5994 859 81.8999 1019.96 500.071
1424 0 75.0746 11.4286 858 83.4417 1020.69 500.901
1425 0 75.122 10.8224 813 86.3124 1019.72 498.881
1426 0 78.062 11.4653 895 84.2838 1020.08 496.731
1427 0 80.11 11.9336 956 83.0628 1019.84 497.504
1428 0 82.0973 11.7422 964 83.1546 1020.82 495.286
1429 0 83.105 12.1653 1011 82.5242 1020.21 494.59
1430 0 85.079 11.9654 1018 83.7191 1020.88 492.941
1431 0 84.1129 11.0447 929 86.6168 1020.75 491.911
1432 0 90.1051 12.0193 1083 82.1385 1021.01 490.699
1433 0 92.0962 11.3468 1045 84.0871 1020.77 487.539
1434 0 94.0654 11.3963 1072 85.6558 1020.17 487.443
1435 0 98.147 12.0941 1187 83.08 1019.69 485.28
1436 0 100.132 12.7831 1280 82.6328 1020.11 484.395
1437 0 101.154 12.0708 1221 84.611 1020.24 481.894
1438 0 104.2 11.8618 1236 85.0307 1019.96 482.071
1439 0 107.131 12.1627 1303 84.7659 1020.29 479.151
1440 0 110.277 12.2509 1351 86.1865 1020.62 476.016
1441 0 109.129 12.1416 1325 95.0438 1020.66 471.235
1442 0 115.248 12.6684 1460 93.8548 1021.28 473.608
1443 0 120.306 13.1082 1577 94.1674 1021.05 474.157
1444 0 123.177 12.6647 1560 94.909 1020.31 471.573
1445 0 127.115 13.4524 1710 91.5614 1020.48 471.885
1446 1 58.1224 9.61763 559 82.1485 1021.02 509.56
1447 0 60.085 9.23692 555 77.1568 1021.14 506.294
1448 0 64.0863 9.81488 629 75.9491 1020.52 504.817
1449 0 65.1108 11.1195 724 73.4282 1021.1 506.644
1450 0 66.0989 10.8323 716 73.2486 1021.6 507.106
1451 0 68.1034 11.4091 777 71.8945 1021.14 506.788
1452 0 69.0277 11.5751 799 72.1727 1022.37 504.149
1453 0 73.1314 11.4725 839 71.6257 1022.02 504.024
1454 0 73.0445 11.1713 816 73.3052 1022.12 503.272
1455 0 77.1984 11.3992 880 72.9466 1021.74 501.802
1456 0 78.1276 11.1228 869 73.8608 1021.66 501.327
1457 0 80.1433 11.417 915 73.6219 1021.06 500.063
1458 0 83.0668 10.7143 890 74.2854 1021.29 499.583
1459 0 83.0685 10.6057 881 75.3746 1020.75 496.135
1460 0 87.1178 11.4443 997 73.7884 1021.97 495.871
1461 0 90.0942 11.1217 1002 75.5319 1021.57 494.034
1462 0 93.0993 11.3535 1057 75.158 1021.79 492.899
1463 0 96.0999 11.769 1131 74.6348 1021.59 490.798
1464 0 98.0873 11.6427 1142 74.9413 1021.76 489.54
1465 0 103.091 11.6402 1200 85.1117 1022.05 486.835
1466 1 57.1968 10.5426 603 77.6252 1021.3 509.995
1467 0 57.0867 10.4753 598 78.8545 1020.93 509.756
1468 0 62.2426 11.0375 687 75.5575 1021.39 508.91
1469 0 61.0633 10.9395 668 73.4596 1020.93 508.585
1470 0 65.0403 11.4852 747 69.9143 1020.91 508.046
1471 0 66.1738 11.6511 771 70.7769 1020.09 507.064
1472 0 66.1738 11.6058 768 122.816 1019.1 506.983
1473 0 69.1544 11.7708 814 71.9595 1020.84 506.023
1474 0 71.1015 11.7016 832 72.3522 1021.93 503.3
1475 0 72.1138 11.9811 864 72.2292 1020.88 501.961
1476 0 73.0759 11.1117 812 74.3818 1021.41 502.217
1477 0 76.0804 12.053 917 73.2236 1021.24 501.417
1478 0 77.0562 11.5889 893 75.383 1021.09 497.273
1479 0 79.1392 12.497 989 74.4115 1021.12 498.327
1480 0 80.1145 11.9204 955 76.4513 1021.31 496.531
1481 0 81.0884 11.3826 923 78.2795 1020.81 494.469
1482 0 85.0465 12.017 1022 77.6742 1020.62 494.761
1483 0 86.0614 11.9566 1029 77.0797 1020.65 494.654
1484 0 88.1221 11.3365 999 79.2242 1020.43 492.201
1485 0 90.0788 11.7897 1062 79.0198 1019.52 491.056
1486 0 92.036 12.0496 1109 78.5825 1022.06 488.66
1487 0 93.0609 10.9283 1017 81.2684 1021.42 488.294
1488 0 97.0728 11.1463 1082 80.5832 1021.4 487.863
1489 0 100.048 11.5345 1154 80.3995 1022.18 483.724
1490 0 103.108 11.0563 1140 81.3482 1021.86 482.525
1491 0 107.069 10.7781 1154 82.7166 1021.99 478.782
1492 0 110.117 11.5422 1271 81.3131 1021.74 478.181
1493 0 115.084 11.9304 1373 81.4428 1022.38 473.721
1494 0 116.059 12.037 1397 82.7595 1020.97 472.773
1495 0 120.156 12.2258 1469 82.5752 1021.33 472.311
1496 0 123.157 12.3826 1525 81.72 1022.13 471.695
1497 0 129.194 12.8102 1655 80.4725 1021.32 471.298
1498 0 132.279 13.411 1774 79.4216 1020.22 469.168
1499 0 136.294 12.561 1712 81.4165 1020.34 466.486
1500 0 137.327 12.5976 1730 81.7642 1020.7 463.174
1501 0 140.309 10.9544 1537 84.9883 1021.45 458.683
1502 1 79.1824 7.8174 619 76.0824 1021.91 489.462
1503 0 85.1451 10.2179 870 73.1988 1020.78 491.899
1504 0 90.113 11.6853 1053 72.7104 1021.63 490.991
1505 0 90.1351 11.5715 1043 75.0297 1020.47 488.304
1506 0 92.0987 11.466 1056 76.624 1020.57 486.869
1507 0 96.1237 11.4228 1098 77.8097 1020.23 486.525
1508 0 96.127 11.308 1087 79.0662 1020.74 485.943
1509 0 101.102 10.9988 1112 80.286 1021.65 485.326
1510 0 102.132 11.2697 1151 80.6898 1021.78 481.689
1511 0 104.093 10.9709 1142 81.7548 1021.38 478.378
1512 0 109.183 12.2272 1335 78.4532 1021.35 477.954
1513 0 112.1 12.0428 1350 79.2067 1021.18 477.696
1514 0 115.112 11.9883 1380 79.2072 1020.91 477.153
1515 0 117.105 11.827 1385 80.6715 1021.37 473.952
1516 0 120.1 11.3572 1364 81.7727 1020.88 473.276
1517 0 124.113 11.7634 1460 81.9219 1021.42 469.992
1518 1 13.0011 6.07639 79 63.1139 1019.73 528.38
1519 0 12.001 4.33298 52 63.4808 1018.92 528.269
1520 0 12.0095 6.07852 73 63.8904 1018.9 527.425
1521 0 11.0005 4.54525 50 64.24 1018.26 527.9
1522 0 12.0004 4.5832 55 65.1636 1017.8 527.109
1523 1 149.25 12.402 1851 88.2777 1021.2 457.077
1524 0 154.206 12.7686 1969 89.6094 1020.18 454.944
1525 0 158.263 13.0037 2058 90.2153 1020.84 450.528
1526 0 162.302 13.4626 2185 90.5638 1021.37 450.011
1527 0 167.224 13.0783 2187 94.7266 1020.99 446.083
1528 0 170.262 13.7024 2333 96.2079 1021.56 444.738
1529 0 176.28 13.4899 2378 96.4142 1021.57 441.17
1530 0 181.22 13.9333 2525 96.3675 1021.93 441.281
1531 0 181.22 13.972 2532 165.647 1021.92 441.344
1532 0 190.333 13.4291 2556 100.214 1022.39 435.813
1533 0 193.093 13.6048 2627 100.46 1021.68 429.549
1534 0 197.204 13.874 2736 99.883 1021.28 425.027
1535 0 202.111 13.6756 2764 102.268 1020.14 424.341
1536 0 208.168 13.9503 2904 100.757 1020.75 417.116
1537 0 212.187 13.9547 2961 101.553 1020.49 415.706
1538 1 46.0595 7.44688 343 76.3586 1021.64 503.37
1539 0 53.0391 10.596 562 78.4893 1022.19 507.673
1540 0 54.0269 10.3652 560 74.5482 1022.85 510.596
1541 0 55.0171 10.0696 554 75.8899 1023.14 509.56
1542 0 55.0171 10.0878 555 112.025 1024.15 509.573
1543 0 58.0341 10.7868 626 76.4345 1023.43 507.816
1544 0 58.0611 9.09386 528 73.5152 1022.17 506.958
1545 0 62.0581 9.9423 617 72.3695 1021.97 504.974
1546 0 64.135 10.0101 642 72.7882 1021.51 504.894
1547 0 65.0941 9.81655 639 74.1424 1021.74 505.116
1548 0 67.0686 9.84066 660 75.1167 1021.38 505.15
1549 0 70.1302 10.9083 765 72.7542 1021.37 501.43
1550 0 71.0706 9.8775 702 75.1738 1020.84 501.504
1551 0 72.1035 9.69439 699 76.8026 1021.4 499.285
1552 0 73.1162 10.8731 795 75.2252 1021.21 499.455
1553 0 76.1524 10.7547 819 76.265 1021.5 497.645
1554 0 78.2317 10.4689 819 90.9341 1021.83 495.697
1555 0 80.1193 9.43593 756 89.836 1020.37 495.589
1556 0 83.1164 10.4672 870 87.992 1020.96 494.453
1557 0 85.0346 10.09 858 87.634 1020.71 492.337
1558 0 87.0668 10.624 925 86.6681 1021.04 491.8
1559 0 88.1415 9.92722 875 88.7817 1021.07 490.325
1560 0 91.125 10.7215 977 85.3982 1021.66 489.508
1561 0 94.1975 10.8071 1018 84.388 1020.79 487.999
1562 0 96.1996 10.2703 988 84.2854 1021.57 485.469
1563 0 97.1114 9.13384 887 87.5299 1020.59 484.006
1564 0 101.145 10.48 1060 81.8689 1020.84 486.69
1565 0 103.103 10.4265 1075 81.0902 1021.52 483.669
1566 0 104.052 9.94696 1035 82.4058 1021.37 482.344
1567 0 107.258 10.1438 1088 82.0312 1021.61 478.334
1568 0 113.101 9.25717 1047 83.425 1021.66 475.234
1569 0 116.159 10.0638 1169 81.6647 1021.69 475.18
1570 0 118.161 10.5703 1249 81.2346 1020.78 473.879
1571 0 122.131 10.1694 1242 82.0548 1020.95 472.023
1572 0 126.185 10.2469 1293 82.0789 1020.79 470.727
1573 0 129.211 11.2529 1454 80.6369 1020.7 466.585
1574 0 132.389 10.7562 1424 81.9895 1020.29 466.385
1575 0 135.235 11.7869 1594 80.2233 1020.81 465.92
1576 0 139.243 12.7044 1769 79.4602 1021.17 467.601
1577 0 143.338 12.5717 1802 80.2236 1021.2 463.346
1578 0 148.211 13.1029 1942 79.8682 1021.4 460.746
1579 0 150.196 12.3239 1851 82.9055 1021.06 458.116
1580 0 154.272 12.5752 1940 83.5567 1021.54 455.166
1581 0 160.233 12.5255 2007 84.0498 1020.75 451.571
1582 0 164.348 13.2219 2173 83.6369 1020.9 450.312
1583 0 168.22 12.5372 2109 85.349 1020.2 445.262
1584 0 172.214 12.4438 2143 87.3971 1020.13 447.735
1585 0 175.327 12.7077 2228 87.4964 1020.67 445.788
1586 0 181.334 12.943 2347 87.9293 1020.97 443.541
1587 0 186.39 13.2249 2465 89.2304 1020.78 441.395
1588 0 192.424 13.2208 2544 90.0362 1020.5 439.822
1589 0 198.377 13.4945 2677 89.6563 1021.33 436.613
1590 0 201.325 13.2224 2662 92.7359 1021.21 431.143
1591 0 208.42 13.3192 2776 93.3386 1020.83 428.887
1592 0 214.274 13.3334 2857 93.1148 1019.99 426.18
1593 0 218.26 13.5847 2965 93.8543 1020.17 422.561
1594 0 226.365 14.0393 3178 93.2936 1020.26 421.859
1595 0 231.369 13.4115 3103 95.6774 1020.48 416.557
1596 0 237.293 13.4812 3199 96.3179 1020.11 414.241
1597 0 244.348 13.6158 3327 96.3237 1019.96 408.038
1598 0 252.397 13.4787 3402 97.4785 1020.27 407.637
1599 0 261.491 13.9661 3652 96.9592 1020.41 402.914
1600 0 266.352 13.5272 3603 98.6808 1021.04 396.766
1601 0 275.307 13.7519 3786 98.6696 1020.56 393.529
1602 0 283.346 14.5899 4134 96.7252 1020.96 388.328
1603 0 288.292 13.7916 3976 98.6584 1020.21 381.215
1604 0 293.152 14.194 4161 99.7243 1019.85 377.771
1605 0 301.227 13.8567 4174 102.011 1019.54 373.089
1606 0 310.199 14.1006 4374 100.859 1020.34 369.22
1607 0 318.337 15.0281 4784 97.0844 1020.25 361.233
1608 0 327.425 14.9714 4902 97.1079 1020.87 359.107
1609 0 337.4 14.9466 5043 98.9385 1020.08 352.638
1610 0 345.393 15.3449 5300 99.7968 1020.57 348.557
1611 0 355.526 15.7035 5583 99.0061 1020.4 339.089
1612 0 366.577 15.6256 5728 101.262 1019.75 333.004
1613 0 376.607 15.6423 5891 99.2203 1019.48 328.253
1614 0 384.537 15.5304 5972 101.466 1019.61 319.757
1615 0 395.529 16.0342 6342 100.034 1019.51 315.368
1618 0 70.1632 9.79146 687 78.8879 1021.53 499.263
1619 0 72.2473 9.68894 700 81.1114 1021.77 488.584
1620 0 72.1177 9.30424 671 83.1133 1021.95 495.218
1621 0 71.1658 8.68395 618 72.699 1021.4 499.905
1622 0 75.1731 8.58019 645 73.1442 1020.86 493.467
1623 0 75.1731 8.51368 640 105.786 1017.82 493.344
1624 0 81.0984 8.52051 691 73.0637 1020.57 491.237
1625 0 83.0546 8.95796 744 73.0108 1020.36 492.323
1626 0 84.0955 8.89465 748 74.4345 1021.17 488.559
1627 0 88.0575 9.16446 807 74.9542 1022.32 487.691
1628 0 96.075 13.2501 1273 64.674 1022.42 480.602
1629 0 96.0734 12.1261 1165 71.5013 1021.51 484.174
1630 0 97.1751 11.3198 1100 75.06 1021.53 483.648
1631 0 99.1667 11.2034 1111 76.3825 1020.76 486.81
1632 0 103.158 11.9623 1234 74.7172 1021.14 485.592
1633 0 104.225 11.1489 1162 76.8752 1020.81 485.33
1634 0 107.1 11.6994 1253 77.3089 1020.79 483.014
1635 0 108.165 12.1296 1312 77.8354 1021.26 480.732
1636 0 111.232 12.0739 1343 79.2852 1020.89 479.86
1637 0 115.183 12.6234 1454 88.9856 1021.7 476.978
1638 0 118.165 12.9649 1532 88.3016 1020.53 475.119
1639 0 121.221 12.5061 1516 89.3575 1021.11 473.42
1640 0 123.249 12.8277 1581 90.0696 1020.8 471.793
1641 0 125.29 12.6426 1584 91.3302 1019.73 467.739
1642 0 128.247 12.9984 1667 87.4607 1020 469.124
1643 0 132.32 12.5302 1658 87.4162 1019.88 466.619
1644 0 133.31 11.9196 1589 89.8238 1020.11 465.478
1645 0 137.299 12.6075 1731 89.5812 1019.98 462.094
1646 0 142.248 13.3289 1896 88.3064 1020.73 461.65
1647 0 143.294 12.9942 1862 90.3711 1020.56 460.681
1648 0 147.259 12.9432 1906 91.3903 1021.14 459.923
1649 0 151.273 13.2608 2006 91.7453 1020.49 458.569
1650 0 153.234 13.4304 2058 93.1963 1020.99 456.649
1651 0 156.23 13.2433 2069 95.4601 1020.73 453.914
1652 0 161.205 13.4735 2172 95.5755 1020.35 453.911
1653 0 163.125 13.5172 2205 97.2399 1020.07 448.137
1654 0 168.22 13.6667 2299 97.3754 1020.66 444.989
1655 0 171.169 13.9686 2391 97.0995 1020.03 441.707
1656 0 176.271 14.092 2484 96.3808 1020.52 442.448
1657 0 179.161 13.993 2507 97.9992 1020.31 440.956
1658 0 183.141 14.0711 2577 99.402 1019.99 436.14
1659 0 190.15 14.457 2749 97.869 1021.32 436.472
1660 0 192.229 14.4099 2770 99.1397 1020.79 434.609
1661 0 198.264 14.7379 2922 98.2971 1021.4 432.666
1662 0 201.288 13.9204 2802 102.206 1020.62 424.832
1663 0 207.31 14.5193 3010 100.479 1020.8 425.713
1664 0 212.283 14.3676 3050 101.273 1019.78 421.117
1665 0 216.299 13.6524 2953 103.429 1020.31 416.629
1666 0 222.252 14.6455 3255 100.85 1020.08 414.953
1667 0 229.334 14.6293 3355 100.204 1020.19 414.133
1668 0 233.282 14.4717 3376 101.071 1020.36 407.635
1669 0 242.257 14.3938 3487 100.444 1020.58 402.551
1670 0 247.319 14.1639 3503 101.32 1020.15 398.492
1671 0 256.312 14.5214 3722 100.842 1019.83 392.22
1672 1 186.237 10.3255 1923 98.8362 1020.45 437.08
1673 0 188.228 11.0982 2089 98.9871 1020.53 430.295
1674 0 194.336 11.3309 2202 98.3165 1020.46 428.131
1675 0 201.193 11.6753 2349 96.6066 1020.41 424.714
1676 0 207.214 11.5388 2391 96.7528 1020.08 419.82
1677 0 212.215 11.9737 2541 97.5844 1019.61 416.338
1678 0 218.195 11.9572 2609 97.212 1019.21 411.318
1679 0 226.205 11.8653 2684 98.4028 1019.32 408.019
1680 0 233.331 12.6687 2956 97.5785 1019.62 402.037
1681 0 240.162 12.2834 2950 98.741 1019.35 400.666
1682 0 248.23 12.5045 3104 99.0693 1020.57 395.829
1683 0 256.292 11.8849 3046 99.154 1019.79 394.327
1684 1 180.222 11.8299 2132 87.2974 1020.46 434.667
1685 0 181.2 10.9878 1991 90.778 1020.72 429.863
1686 0 191.17 11.9998 2294 88.8047 1020.43 427.843
1687 0 197.15 11.7626 2319 86.4804 1020.47 427.388
1688 0 202.174 11.2527 2275 88.9991 1019.57 424.513
1689 0 211.228 11.6036 2451 87.7862 1019.5 422.318
1690 0 219.324 12.4792 2737 85.6719 1019.33 416.434
1691 0 221.241 11.5666 2559 86.2251 1020.36 410.986
1692 0 221.23 10.7897 2387 87.8224 1020.07 398.998
1693 0 226.26 10.9166 2470 88.3761 1020.66 398.349
1694 1 11.0035 2.272 25 60.4 1021.36 527.84
1695 0 12.032 2.9089 35 63.1714 1021.77 527.029
1696 0 14.0139 3.85331 54 62.1852 1020.43 527.056
1697 0 14.0052 3.07029 43 63.7907 1021.47 526.721
1698 1 34.0837 4.63564 158 65.1266 1020.44 515.867
1699 1 274.391 10.0696 2763 94.384 1020.55 375.62
1700 1 295.406 17.5927 5197 74.4803 1020.79 358.9
1701 0 301.31 16.873 5084 77.3942 1021.29 354.432
1702 0 307.428 16.5632 5092 80.1555 1021.09 354.647
1703 0 306.446 13.1801 4039 90.8024 1020.18 363.82
1704 0 315.543 12.9745 4094 92.3217 1020.75 356.887
1705 0 325.622 14.3172 4662 89.5766 1021.23 356.133
1706 1 39.0316 7.48112 292 60.7192 1021.99 516.952
1707 1 27.0188 5.36663 145 64.1586 1022.28 525.007
1708 0 37.03 7.8855 292 63.0788 1022.24 518.671
1709 0 39.074 8.4711 331 64.577 1022.35 517.707
1710 0 40.0634 8.06221 323 69.161 1022.88 517.025
1711 0 33.0037 6.30232 208 70.5962 1021.29 522
1712 0 35.0083 7.54108 264 71.928 1021.83 520.159
1713 0 36.0346 7.63154 275 73.1491 1021.06 520.68
1714 0 36.0366 7.74212 279 75.0681 1022.11 520.642
1715 0 38.048 9.04122 344 79.1076 1019.97 488.11
1716 0 41.0613 8.9135 366 78.0902 1020.2 505.473
1717 0 38.0618 9.22184 351 79.1652 1018.71 514.023
1718 0 37.0663 7.8508 291 82.1306 1021.82 520.1
1719 0 37.067 7.60784 282 83.9362 1020.68 520.011
1720 0 45.0986 12.8607 580 65.4431 1020.14 516.602
1721 0 45.0911 13.1068 591 67.2944 1019.76 514.103
1722 0 45.0544 14.0053 631 72.1284 1023.93 515.119
1723 0 45.0771 12.7781 576 76.1684 1023.63 515.849
1724 0 45.0731 13.7111 618 74.0712 1023.48 515.809
1725 0 46.0189 14.3419 660 79.2788 1022.5 515.905
1726 0 46.0299 13.1654 606 82.9835 1022.7 516.003
1727 0 45.0228 13.1489 592 84.0541 1022.71 515.258
