time division length width area intensity CMx CMy
0 0 39.0387 14.6009 570 74.7596 728.928 509.661
1 0 40.0268 14.8401 594 58.899 729.911 508.421
2 0 41.0199 14.5539 597 69.6817 730.194 509.608
3 0 40.0464 14.9077 597 59.3585 729.126 509.265
4 0 40.0556 14.7545 591 70.9069 729.426 510.071
5 0 40.0556 14.8044 593 166.386 729.427 510.081
6 0 42.0615 15.4773 651 55.4147 729.957 509.971
7 0 42.1127 14.39 606 57.5974 730.028 511.05
8 0 41.0437 13.644 560 60.1214 729.854 510.882
9 0 41.0364 14.5237 596 59.9195 728.829 511.386
10 0 41.0364 14.5724 598 161.865 728.829 511.286
11 0 42.0636 15.0249 632 58.6709 728.989 511.794
12 0 42.0192 14.4934 609 60.6223 729.585 513.184
13 0 41.0205 14.2855 586 62.1143 729.515 512.519
14 0 43.0107 14.4848 623 61.3756 729.173 511.559
15 0 41.0356 13.7685 565 63.4796 729.508 512.159
16 0 44.0133 14.95 658 59.7477 729.219 512.606
17 0 43.0413 15.4038 663 59.4932 728.884 512.038
18 0 45.0312 14.7453 664 58.7651 728.97 512.066
19 0 43.0323 13.8268 595 61.0101 728.229 512.491
20 0 44.0354 13.7844 607 60.8122 728.318 512.072
21 0 45.0501 15.4273 695 57.8719 728.542 513.055
22 0 46.028 14.4477 665 68.4602 729.365 510.317
23 0 47.0579 15.2153 716 65.6886 728.003 509.418
24 0 47.0593 14.6836 691 66.9986 728.522 509.178
25 0 48.0761 14.9346 718 66.1852 727.765 509.188
26 0 49.0329 15.0715 739 65.3329 728.295 510.666
27 0 49.0826 15.1378 743 64.4697 727.697 509.616
28 0 50.0269 14.7121 736 64.4688 727.336 509.037
29 0 50.0963 15.57 780 59.9538 728.124 507.69
30 0 51.1258 14.3958 736 64.091 726.902 509.784
31 0 53.1243 15.6049 829 60.4005 727.101 508.651
32 0 53.1369 15.8459 842 60.0107 726.59 508.531
33 0 52.0526 14.9272 777 62.5174 727.461 507.135
34 0 54.0556 15.0031 811 61.3379 726.697 508.298
35 0 55.1374 14.8175 817 61.7699 727.315 507.596
36 0 56.0735 15.2835 857 60.3921 726.826 507.117
37 0 55.0809 15.8857 875 58.1691 726.84 506.574
38 0 57.0594 15.5102 885 57.5175 726.36 505.806
39 0 57.0788 14.8742 849 57.5889 727.047 505.179
40 0 57.0936 15.1506 865 57.7121 726.257 505.141
41 0 59.0486 15.7667 931 54.1665 726.64 505.929
42 0 59.0486 15.8175 934 152.768 726.63 505.956
43 0 61.1005 15.9901 977 53.4575 726.823 503.425
44 0 62.1036 15.8284 983 53.6521 727.236 503.083
45 0 62.0721 14.6281 908 53.3888 727.141 502.785
46 0 63.1038 14.8961 940 52.9096 727.531 503.056
47 0 63.0779 14.9022 940 53.7202 726.543 500.55
48 0 68.0252 15.2296 1036 52.528 727.119 501.018
49 0 67.0743 14.7747 991 54.7558 726.483 499.71
50 0 69.0698 16.23 1121 52.5049 727.441 498.495
51 0 70.1098 14.7911 1037 54.9788 726.444 497.373
52 0 71.0234 15.2626 1084 53.6144 726.565 497.663
53 0 73.0861 15.557 1137 53.0106 726.531 497.324
54 0 77.0517 16.0022 1233 46.3796 727.165 492.337
55 0 77.0798 15.0493 1160 47.9664 727.549 493.104
56 0 77.0606 15.2867 1178 47.9211 728.439 492.503
57 0 79.054 15.268 1207 50.053 727.948 492.168
58 0 82.0691 16.5592 1359 53.1957 727.268 492.237
59 0 83.017 14.6235 1214 51.3616 726.862 490.118
60 0 85.1336 15.3171 1304 50.9877 727.88 488.699
61 0 88.0681 15.7037 1383 54.1649 727.889 488.573
62 0 89.1288 15.0456 1341 55.7427 727.222 487.417
63 0 93.0701 15.5259 1445 55.0208 726.183 487.284
64 0 94.102 15.2919 1439 56.5851 727.165 486.689
65 0 96.1703 14.9214 1435 57.5888 727.365 485.109
66 0 99.1066 15.3875 1525 57.2243 727.386 484.146
67 0 101.099 15.0743 1524 59.1634 727.159 482.134
68 0 105.095 15.2148 1599 58.9512 727.644 480.318
69 0 107.047 15.4137 1650 58.5085 728.36 479.684
70 0 109.129 15.028 1640 61.1774 728.452 478.365
71 0 113.107 15.1272 1711 61.0216 728.463 477.647
72 0 117.095 16.192 1896 59.7611 727.899 475.156
73 0 118.145 14.5245 1716 61.6096 727.61 470.564
74 0 122.11 14.8391 1812 61.2417 728.583 470.152
75 0 126.104 14.8132 1868 60.614 728.493 467.846
76 0 130.16 14.8817 1937 61.2287 727.945 466.652
77 0 133.145 14.7508 1964 61.9888 728.222 463.997
78 0 136.173 14.8635 2024 61.9274 728.53 460.111
79 0 140.15 14.8483 2081 62.1547 729.388 459.322
80 0 143.209 14.196 2033 63.1702 728.961 453.85
81 0 149.169 14.8288 2212 61.8775 729.48 455.816
82 0 152.072 14.8022 2251 62.0689 728.454 451.279
83 0 155.126 14.0337 2177 64.7988 728.892 446.956
84 0 161.109 15.1698 2444 63.304 728.555 444.951
85 0 164.249 14.3075 2350 65.3502 728.246 444.264
86 0 168.151 14.3383 2411 65.735 728.244 439.159
87 0 174.155 14.2746 2486 66.4167 727.989 436.173
88 0 179.28 14.6586 2628 65.3664 728.497 434.14
89 0 180.204 14.1673 2553 67.2107 728.69 429.712
90 0 187.233 14.4633 2708 67.4483 728.644 427.022
91 0 191.249 14.6406 2800 67.5782 728.015 425.756
92 0 196.191 14.3839 2822 68.797 728.946 424.226
93 0 200.257 14.3166 2867 69.6861 728.693 419.493
94 0 208.21 14.3317 2984 69.5841 728.368 415.453
95 0 213.269 14.1089 3009 70.786 727.657 410.65
96 0 221.284 14.7684 3268 69.7485 727.288 412.535
97 1 54.0446 9.88073 534 63.3315 727.545 500.315
98 0 58.0178 11.2552 653 66.977 728.187 503.315
99 0 59.0802 11.2051 662 65.4003 727.825 503.494
100 0 60.0256 10.9287 656 62.8003 726.718 502.709
101 0 60.0372 11.2097 673 62.8351 728.102 502.84
102 0 62.0196 10.6579 661 62.9213 727.286 502.79
103 0 64.0645 10.7704 690 63.0696 728.329 500.516
104 0 66.0966 10.3485 684 64.0512 727.909 500.313
105 0 69.0398 11.0516 763 62.1612 728.83 499.177
106 0 69.0398 11.0661 764 125.065 729.819 499.143
107 0 70.0385 10.5799 741 63.9001 727.605 498.561
108 0 76.1254 11.7438 894 60.9832 727.056 496.474
109 0 79.055 12.194 964 59.2697 727.986 491.693
110 1 39.0451 9.83478 384 63.8099 728.482 513.677
111 0 39.0263 9.63453 376 63.3989 728.479 512.63
112 0 41.0927 10.8535 446 61.4843 729.262 512.345
113 0 42.0485 10.036 422 63.0118 729.664 511.223
114 0 43.0124 10.2296 440 65.5909 728.645 509.198
115 0 44.0189 10.291 453 65.0154 728.929 511.55
116 0 46.01 10.4108 479 63.9854 728.633 511.013
117 0 50.052 11.1284 557 77.404 727.05 459.905
118 0 49.1117 10.9546 538 64.2398 728.454 509.541
119 0 48.037 10.5336 506 66.4743 727.808 508.263
120 0 50.0586 10.2879 515 66.9884 728.569 508.014
121 0 48.0864 10.7307 516 68.9225 729.062 508.068
122 0 50.0644 11.5451 578 69.1246 729.099 508.782
123 0 51.1169 10.9944 562 70.605 729.144 507.383
124 0 52.056 11.7374 611 71.0393 727.52 508.537
125 0 52.0396 10.7803 561 74.1604 727.242 507.911
126 0 55.0647 10.8418 597 73.5461 727.065 507.784
127 0 56.0591 11.4522 642 73.5576 727.559 506.453
128 0 57.0584 11.9877 684 74.0175 727.04 505.249
129 0 58.0787 11.7083 680 75.7824 726.785 505.734
130 0 60.0576 11.8053 709 75.9605 727.403 504.786
131 0 61.0419 11.7788 719 76.5146 727.382 504.292
132 0 62.0718 11.8089 733 75.7462 727.703 503.804
133 0 62.0309 11.6232 721 77.1401 727.426 503.366
134 0 65.0394 11.9773 779 76.5648 727.543 502.829
135 0 68.0671 12.3408 840 75.9583 727.461 500.946
136 0 69.023 12.2713 847 75.869 727.907 500.758
137 0 72.0496 12.2554 883 76.6727 727.653 498.439
138 0 75.0417 12.593 945 76.0963 727.789 499.201
139 0 76.0956 12.8523 978 77.4683 727.391 497.271
140 0 79.1156 12.3111 974 81.3347 727.362 497.242
141 0 80.088 13.0606 1046 81.8241 727.472 494.772
142 0 83.0581 13.3641 1110 79.0991 728.619 494.978
143 0 86.0466 13.1092 1128 81.258 727.59 492.674
144 0 88.0326 13.62 1199 81.8207 727.211 491.36
145 0 92.0559 13.242 1219 86.8745 726.774 488.626
146 0 95.072 13.7685 1309 86.2597 727.43 488.415
147 0 95.1611 13.0831 1245 88.7872 727.402 487.504
148 0 99.0322 14.0863 1395 87.2366 727.594 485.819
149 0 102.124 13.8949 1419 87.6307 727.883 484.677
150 0 103.056 13.4975 1391 89.6463 727.441 483.862
151 0 107.099 13.8003 1478 88.9269 727.49 482.197
152 0 109.109 13.876 1514 89.5449 727.108 480.587
153 0 113.144 14.5125 1642 87.9147 727.269 479.652
154 0 114.082 13.9285 1589 90.3335 726.912 476.814
155 0 119.091 14.7955 1762 87.8751 726.228 474.662
156 0 122.142 14.0165 1712 89.8639 727.017 473.334
157 0 125.112 13.7557 1721 90.8646 726.526 472.229
158 0 130.087 14.6056 1900 88.1732 727.413 471.024
159 0 132.115 14.9188 1971 88.8031 727.542 468.289
160 0 135.132 14.8669 2009 89.5734 728.009 466.331
161 0 139.081 14.7252 2048 90.6382 727.212 465.889
162 0 143.11 14.4365 2066 92.6384 726.695 462.329
163 0 148.095 15.3955 2280 90.4276 726.972 459.809
164 0 152.134 14.875 2263 92.6593 727.038 457.123
165 0 157.069 14.1466 2222 93.5378 726.776 453.458
166 1 85.0856 11.7411 999 92.6757 727.47 494.219
167 0 89.0556 11.2514 1002 94.3902 727.488 494.091
168 0 91.0716 12.4957 1138 92.6705 727.953 490.098
169 0 91.0755 11.8034 1075 85.627 727.582 491.387
170 0 92.0724 11.4584 1055 87.0057 727.897 490.607
171 0 97.0829 11.691 1135 85.0159 727.552 488.226
172 0 100.104 11.548 1156 85.0294 726.682 486.632
173 0 101.08 11.0705 1119 85.6166 726.214 486.897
174 0 106.086 11.3587 1205 85.0963 726.431 484.705
175 0 108.083 11.3154 1223 84.8561 726.596 482.124
176 0 112.088 11.6069 1301 82.6933 727.275 481.616
177 0 114.163 12.123 1384 82.6163 727.185 477.835
178 0 117.133 11.8668 1390 82.6655 727.266 476.619
179 0 120.118 11.6885 1404 83.6296 727.268 475.157
180 0 126.103 12.1647 1534 81.3866 726.454 474.381
181 0 129.084 12.8289 1656 82.529 726.41 472.292
182 0 134.127 12.5105 1678 85.2777 725.744 468.206
183 0 136.117 12.2028 1661 83.6671 726.95 467.688
184 0 142.108 13.0675 1857 83.8934 727.604 463.961
185 0 146.12 12.7498 1863 83.2469 727.486 461.736
186 0 149.167 12.0134 1792 85.6261 727.658 459.121
187 0 155.137 11.9056 1847 84.6167 727.682 456.35
188 0 158.124 12.4649 1971 84.3521 727.735 454.084
189 1 80.0503 10.5684 846 81.5934 727.944 495.908
190 0 82.0587 10.724 880 85.4852 727.011 492.233
191 0 87.0852 11.9423 1040 85.9356 726.936 490.055
192 0 92.0801 13.2928 1224 83.2712 726.629 487.725
193 0 92.0963 12.7149 1171 85.6413 727.358 485.335
194 0 97.0923 12.5963 1223 87.2249 727.233 483.633
195 0 99.1804 12.9663 1286 86.8406 727.659 481.245
196 0 102.092 12.8413 1311 86.7162 727.272 480.336
197 0 107.144 12.9172 1384 85.6734 727.325 478.194
198 0 110.159 12.6 1388 85.8638 727.125 475.058
199 0 111.121 12.5989 1400 86.6693 726.356 473.646
200 0 115.219 12.9058 1487 85.5427 726.106 471.992
201 0 119.339 13.072 1560 85.5308 726.059 468.26
202 0 119.339 13.005 1552 148.943 725.07 468.19
203 0 125.211 13.2417 1658 108.707 726.636 464.7
204 0 131.317 13.5245 1776 105.87 726.207 463.681
205 0 132.238 13.7328 1816 105.876 725.65 462.203
206 0 136.352 13.4651 1836 105.647 726.371 460.135
207 0 139.33 13.3424 1859 105.401 724.97 458.633
208 0 144.25 13.2964 1918 104.121 725.012 456.861
209 0 147.169 13.7121 2018 101.938 724.571 455.356
210 0 149.186 13.1916 1968 103.067 725.333 451.61
211 0 155.201 13.3376 2070 101.673 725.365 450.392
212 0 160.149 13.2939 2129 102.939 725.468 447.521
213 0 165.222 13.043 2155 103.337 726.087 446.692
214 0 169.138 12.9953 2198 103.55 725.934 443.652
215 0 175.122 13.0595 2287 104.608 725.902 439.711
216 0 181.186 12.9094 2339 106.244 725.683 436.326
217 0 188.139 12.9851 2443 105.906 725.108 434.441
218 1 111.118 12.4553 1384 105.751 725.175 468.753
219 0 117.08 13.5889 1591 102.852 725.011 466.372
220 0 118.069 12.7129 1501 106.237 725.376 464.027
221 0 121.075 12.3808 1499 108.75 725.536 459.899
222 0 126.203 13.2881 1677 105.897 725.528 459.47
223 0 128.159 12.8513 1647 107.863 725.971 452.427
224 0 132.104 13.179 1741 108.003 725.438 450.646
225 0 138.116 13.1339 1814 108.534 725.15 449.657
226 0 140.174 13.3905 1877 107.87 724.585 446.14
227 0 145.143 13.0354 1892 109.305 725.348 443.133
228 0 153.452 13.0399 2001 109.34 724.868 443.232
229 0 155.215 13.1301 2038 110.124 725.51 438.399
230 0 162.327 12.8506 2086 109.489 725.364 436.906
231 0 166.248 12.6799 2108 111.185 725.325 433.811
232 0 169.16 13.1 2216 110.661 726.202 428.972
233 1 93.1381 10.0711 938 106.316 725.563 471.351
234 0 99.1433 11.4077 1131 103.093 725.685 469.053
235 0 103.095 11.8046 1217 102.449 725.721 468.065
236 0 111.093 12.305 1367 104.125 725.073 477.156
237 0 116.13 13.0285 1513 102.829 725.523 474.667
238 0 118.176 12.8198 1515 103.283 724.66 472.949
239 0 121.147 12.4807 1512 103.208 725.208 472.255
240 0 126.107 12.6401 1594 103.8 725.28 469.384
241 0 131.142 13.5425 1776 101.619 725.925 467.674
242 0 136.135 13.0752 1780 103.302 725.608 465.426
243 0 140.127 13.3023 1864 103.827 725.214 463.041
244 0 143.132 13.6518 1954 105.204 725.262 459.362
245 0 150.197 13.8351 2078 104.551 725.534 458.218
246 0 155.328 13.861 2153 104.382 725.832 456.419
247 0 159.22 13.5599 2159 105.726 725.265 451.226
248 1 91.1279 10.82 986 97.5497 725.822 489.585
249 0 93.1064 11.7285 1092 98.1273 725.367 485.49
250 0 97.2192 12.0449 1171 95.6772 725.409 483.069
251 0 101.206 12.1633 1231 95.2648 724.97 482.851
252 0 102.115 11.8493 1210 95.2463 725.592 481.897
253 0 107.17 12.233 1311 93.2716 726.134 480.035
254 0 109.188 12.7211 1389 91.8373 726.751 476.646
255 0 113.229 12.7794 1447 91.0546 725.709 474.586
256 0 117.178 12.2719 1438 91.9555 726.162 473.606
257 0 119.152 12.4295 1481 92.6178 726.305 471.19
258 0 121.133 11.9951 1453 93.318 726.012 471.093
259 0 125.164 12.136 1519 93.476 726.012 467.196
260 0 131.256 12.4642 1636 92.8753 725.787 464.653
261 0 132.188 11.2718 1490 99.4255 725.724 458.577
262 0 134.201 10.6556 1430 101.83 725.034 451.864
263 0 137.135 11.2735 1546 100.367 725.493 450.847
264 0 144.266 10.9589 1581 102.044 725.091 449.028
265 0 149.254 11.5843 1729 100.418 724.858 445.685
266 0 157.282 12.7669 2008 93.7077 725.904 449.358
267 0 160.295 12.3148 1974 97.0051 725.368 448.298
268 0 166.357 12.1486 2021 99.5572 725.542 444.808
269 0 173.362 12.3326 2138 100.799 725.293 443.295
270 0 178.355 12.548 2238 100.536 725.447 440.268
271 1 96.2467 10.4419 1005 89.2696 725.354 483.259
272 0 96.2039 10.7272 1032 92.9031 724.705 479.966
273 0 99.2322 11.0448 1096 91.4772 725.111 480.116
274 0 105.189 11.1704 1175 90.6732 725.403 477.037
275 0 106.25 11.3976 1211 90.4674 725.344 476.519
276 0 111.369 11.61 1293 90.6334 725.52 473.05
277 0 113.341 11.9991 1360 90.7522 725.723 472.087
278 0 117.32 11.3366 1330 93.3564 725.44 469.732
279 0 119.278 11.5025 1372 89.9395 726.179 468.311
280 0 123.384 11.9951 1480 91.1946 725.664 466.345
281 0 128.225 11.706 1501 89.6909 725.464 464.344
282 0 129.22 11.5539 1493 91.9196 725.239 460.226
283 0 135.217 11.8107 1597 93.3763 725.716 460.612
284 0 141.306 12.0023 1696 93.3614 724.942 456.629
285 0 145.213 11.5417 1676 93.9552 724.618 455.348
286 0 151.28 11.6737 1766 93.7316 724.873 452.363
287 1 82.1475 10.2255 840 85.6262 725.332 487.752
288 0 82.1004 10.5968 870 85.8701 724.322 487.337
289 0 86.0984 11.0687 953 85.6663 724.749 484.386
290 0 85.1223 10.4555 890 87.2921 724.971 485.396
291 0 87.2634 10.5772 923 87.2817 724.213 485.064
292 0 90.0726 10.7358 967 86.7001 724.859 483.428
293 0 94.1852 11.2544 1060 84.4076 724.643 479.808
294 0 95.2231 10.5857 1008 85.2341 724.082 478.29
295 0 97.1274 10.3575 1006 87.1839 723.318 476.054
296 0 101.176 10.6448 1077 85.3083 723.371 474.516
297 0 106.093 11.735 1245 82.5092 724.74 471.974
298 0 108.116 11.0992 1200 90.43 725.211 468.358
299 0 111.069 10.516 1168 92.6327 724.833 467.854
300 0 116.158 11.1314 1293 90.9258 724.722 467.723
301 0 120.081 11.2923 1356 91.7773 726.242 466.499
302 0 124.07 11.0099 1366 92.4663 725.674 465.312
303 0 131.103 11.0142 1444 90.8497 725.222 465.729
304 0 133.08 10.6477 1417 91.7198 724.062 463.08
305 0 139.119 10.6671 1484 88.7237 724.59 462.314
306 1 58.0969 9.62186 559 85.3721 724.195 500.533
307 0 62.0365 10.3165 640 87.0547 724.492 498.873
308 0 63.1181 10.6467 672 85.5387 725.018 497.415
309 0 66.2115 10.4816 694 81.9741 724.813 498.862
310 0 68.1669 10.5917 722 85.608 725.112 497.777
311 0 68.1726 10.048 685 87.3971 724.788 498.495
312 0 71.1497 10.8223 770 86.3416 724.329 498.552
313 0 71.1977 11.0818 789 85.3346 723.835 497.104
314 0 75.133 11.5795 870 85.9736 723.718 495.901
315 0 75.1207 10.7826 810 86.1827 724.168 495.193
316 0 74.0873 10.0422 744 76.2164 724.82 496.228
317 0 77.0899 9.09328 701 77.7632 724.896 496.171
318 0 77.0552 9.17524 707 78.57 724.283 494.782
319 0 83.069 9.65462 802 78.1085 724.919 494.272
320 0 86.1 10.3717 893 77.71 724.652 494.146
321 0 88.1137 10.6907 942 77.5287 724.347 492.841
322 0 90.065 10.3925 936 79.1389 723.982 490.871
323 0 92.0971 9.73972 897 81.379 722.829 490.206
324 0 95.0838 10.7695 1024 80.7568 722.951 488.879
325 1 51.0367 7.93546 405 74.3753 723.383 509.889
326 0 54.0664 9.09992 492 73.2012 723.868 507.665
327 0 58.0259 10.4609 607 83.1021 722.995 510.227
328 0 59.0855 11.1195 657 83.3638 723.425 508.924
329 0 60.0169 10.9303 656 77.8918 723.977 508.767
330 0 60.0532 10.9569 658 78.6763 724.205 508.532
331 0 61.055 10.597 647 80.2133 723.901 507.312
332 0 65.0468 11.6224 756 77.3042 723.513 505.704
333 0 65.0695 11.2956 735 79.0925 723.226 504.174
334 0 66.1037 11.0886 733 79.7381 723.16 503.684
335 0 68.0665 11.2537 766 80.3786 723.634 503.676
336 0 70.0281 11.3526 795 81.3145 723.269 501.897
337 0 70.1049 11.1119 779 80.9397 722.46 500.574
338 0 75.0987 11.0788 832 93.9603 723.5 498.343
339 0 77.1406 10.8892 840 94.7762 723.012 495.883
340 0 79.1147 11.4517 906 92.9702 723.132 495.529
341 0 80.2219 10.9696 880 94.8955 722.8 494.909
342 0 82.1518 10.8214 889 95.8605 722.12 493.856
343 0 82.1118 11.2286 922 94.6649 722.304 493.372
344 0 86.13 11.3085 974 93.0103 722.323 492.461
345 0 88.1176 10.9967 969 94.7585 722.506 491.52
346 0 92.141 11.7646 1084 91.8266 722.128 490.254
347 0 94.1186 10.9968 1035 93.3807 722.352 488.413
348 0 97.1297 11.9325 1159 91.1398 721.159 487.218
349 0 99.0941 11.2721 1117 91.1003 721.472 487.366
350 0 103.094 11.9212 1229 87.7022 721.383 486.662
351 0 106.173 12.1782 1293 86.3991 721.732 483.854
352 0 109.067 12.7353 1389 85.63 722.052 481.822
353 0 109.1 11.7323 1280 86.7797 721.697 479.721
354 0 114.124 12.7406 1454 82.412 722.518 477.69
355 0 116.183 11.6282 1351 83.6617 722.027 475.605
356 0 120.229 11.8358 1423 83.506 722.29 471.408
357 1 61.0714 9.15322 559 72.5134 723.34 506.454
358 0 65.1453 9.85489 642 70.6682 721.956 505.614
359 0 67.0862 10.1958 684 70.3933 721.95 504.105
360 0 67.0636 10.3335 693 70.7258 722.558 503.322
361 0 67.0754 10.0037 671 71.7616 723.292 502.393
362 0 70.0391 9.8088 687 69.917 723.406 502.799
363 0 73.1046 9.94465 727 69.7359 723.587 501.646
364 0 74.0835 9.90774 734 70.8447 722.974 499.534
365 0 77.1073 9.96014 768 70.5703 723.689 497.741
366 0 83.0756 11.0983 922 69.1009 723.93 497.022
367 0 83.0742 10.7374 892 70.2926 724.105 494.377
368 0 86.0767 10.2815 885 71.8079 723.442 494.272
369 0 89.187 11.4479 1021 70.8296 723.559 492.794
370 0 91.1322 11.1047 1012 73.4298 722.989 490.16
371 0 93.086 11.0006 1024 77.6201 722.245 489.378
372 0 96.1672 10.2426 985 78.8305 723.434 487.256
373 0 98.1438 11.1163 1091 78.5362 723.52 485.311
374 0 101.217 10.5714 1070 79.871 723.293 483.294
375 0 104.194 10.7396 1119 79.8186 723.744 482.071
376 0 106.231 11.3526 1206 79.7653 723.436 480.671
377 0 110.247 10.4221 1149 81.6858 723.735 478.944
378 0 110.223 10.4244 1149 127.24 723.736 479.176
379 0 117.487 12.0439 1415 81.9505 722.745 472.232
380 0 119.271 11.6961 1395 83.9097 722.471 469.187
381 0 123.332 11.4812 1416 85.2966 722.947 467.268
382 0 128.282 11.4358 1467 85.6046 722.764 465.633
383 0 131.356 11.7163 1539 86.3431 723.354 463.978
384 0 134.38 11.8693 1595 87.7812 723.618 461.582
385 0 140.294 11.9534 1677 86.6977 723.4 460.054
386 0 145.331 11.7938 1714 87.78 723.841 458.787
387 0 151.346 12.2765 1858 86.4612 723.378 457.436
388 0 155.291 12.2415 1901 87.8501 723.469 452.112
389 0 161.279 12.0785 1948 88.192 723.076 450.402
390 0 164.29 12.4353 2043 89.5414 723.549 448.409
391 0 170.261 12.4926 2127 90.0343 723.922 446.178
392 0 177.345 12.4052 2200 91.9041 724.136 443.351
393 0 181.38 12.8073 2323 92.1911 724.191 439.767
394 0 188.502 13.0662 2463 92.4698 723.687 434.364
395 0 194.431 12.1071 2354 96.9915 723.966 431.944
396 0 202.243 12.8459 2598 97.6474 723.84 428.081
397 0 208.383 12.2707 2557 99.1169 724.001 424.835
398 0 214.334 12.4852 2676 100.344 724.001 422.543
399 0 217.289 12.6698 2753 101.863 723.207 413.831
400 0 226.328 13.2993 3010 99.7133 723.717 412.206
401 1 53.0475 8.70918 462 80.2641 721.652 501.032
402 0 54.0309 9.5501 516 84.0659 722.169 501.721
403 0 57.0865 10.4929 599 83.3322 723.499 501.504
404 0 58.0393 9.59694 557 84.3914 723.93 504.907
405 0 60.0561 9.82414 590 84.5492 722.954 502.256
406 0 64.0606 9.63151 617 84.4457 723.739 501.987
407 0 65.0884 10.1861 663 83.6667 723.986 499.863
408 0 66.0942 10.2732 679 83.4256 723.493 500.404
409 0 69.141 9.99408 691 84.7019 723.588 498.897
410 0 74.203 9.23143 685 85.765 723.247 496.91
411 0 75.1918 9.42922 709 83.6798 724.276 497.896
412 0 73.1408 9.43387 690 84.0507 724.462 497.652
413 0 75.113 10.2246 768 82.7357 724.03 495.802
414 0 78.0954 10.3847 811 82.5512 724.076 494.307
415 0 78.1207 10.2406 800 83.0325 724.14 494.212
416 0 79.1183 10.6676 844 81.4194 723.844 493.127
417 0 82.1344 11.0185 905 80.0652 723.713 490.969
418 0 83.0845 10.6157 882 80.1395 723.475 491.192
419 0 85.1092 10.6569 907 80.1985 724.523 488.234
420 0 86.1644 9.95771 858 81.3403 724.985 486.436
421 0 86.1374 10.2395 882 80.9637 724.76 484.344
422 0 87.0466 8.28292 721 70.3079 723.524 490.48
423 0 101.153 12.1203 1226 60.1338 723.63 478.136
424 0 104.195 11.8144 1231 59.7961 723.926 474.491
425 0 104.099 11.662 1214 61.061 723.96 475.164
426 0 104.23 15.6001 1626 54.4207 723.006 481.841
427 0 106.221 16.0326 1703 54.3564 723.537 481.468
428 0 107.141 14.6255 1567 57.0932 723.049 479.463
429 0 112.266 15.2585 1713 54.5476 722.123 479.089
430 0 114.165 15.4426 1763 54.3466 723.724 476.85
431 0 118.182 16.61 1963 52.3281 723.925 475.609
432 0 121.203 16.0805 1949 53.7937 723.549 474.349
433 0 122.187 14.8379 1813 56.8489 724.028 472.617
434 0 126.149 14.9506 1886 58.5127 723.882 469.978
435 0 129.139 15.5646 2010 57.7965 723.651 470.969
436 0 132.231 16.1989 2142 56.2624 723.016 468.781
437 0 136.211 16.3643 2229 55.6644 723.348 468.588
438 0 136.231 15.3343 2089 58.1436 722.547 462.202
439 0 140.15 15.198 2130 57.539 722.919 460.103
440 0 144.095 14.6085 2105 59.7126 722.716 457.725
441 0 148.13 15.0341 2227 58.6587 724.06 454.706
442 0 151.142 14.7213 2225 59.0265 723.844 448.298
443 0 156.247 15.2067 2376 57.3872 723.555 447.335
444 0 161.116 14.8712 2396 58.5801 723.827 443.736
445 0 164.184 14.6299 2402 59.2494 723.009 442.025
446 0 167.094 14.3871 2404 60.1631 723.636 431.744
447 0 164.094 14.3698 2358 156.705 723.636 430.641
448 0 180.176 15.274 2752 59.4666 724.162 422.781
449 0 184.215 14.4939 2670 61.6011 723.8 421.505
450 0 191.181 15.7966 3020 60.4142 724.508 417.943
451 0 196.171 15.3489 3011 60.7688 723.884 414.313
452 0 202.29 15.6903 3174 61.1084 723.911 410.49
453 0 208.275 15.0042 3125 62.129 724.158 405.129
454 0 217.26 15.8152 3436 61.3367 723.657 403.752
455 0 222.267 15.1889 3376 62.1185 723.326 404.008
456 0 228.179 14.7428 3364 63.53 723.912 396.239
457 0 235.253 15.0944 3551 63.9341 724.124 400.112
458 0 245.292 15.398 3777 63.1734 724.001 395.831
459 0 255.264 16.0109 4087 63.5968 724.28 391.921
460 1 200.142 12.0615 2414 69.5037 723.849 420.748
461 0 205.199 12.4708 2559 70.7417 724.507 417.066
462 0 213.136 12.7665 2721 71.8008 723.947 415.276
463 0 223.185 13.7823 3076 70.8573 724.047 414.998
464 0 231.187 13.0414 3015 72.7745 723.394 410.175
465 0 237.265 12.918 3065 73.9237 723.525 404.372
466 0 241.268 12.368 2984 74.7761 723.864 391.755
467 0 252.23 12.9643 3270 74.7554 723.519 390.883
468 1 57.0361 7.31116 417 58.4508 725.811 494.779
469 0 64.0843 10.377 665 57.206 725.266 501.789
470 0 61.0877 9.2981 568 57.25 724.757 502.653
471 0 61.0854 7.44859 455 59.7341 724.413 503.763
472 0 63.0623 9.24482 583 59.0137 723.923 498.852
473 0 65.0693 9.95862 648 58.3704 724.074 498.676
474 0 67.1216 8.44736 567 59.2434 724.67 497.778
475 0 69.1133 9.36144 647 58.6924 724.356 497.445
476 0 71.0771 8.61036 612 60.2958 724.876 495.443
477 0 72.0866 8.18461 590 60.7203 724.72 497.017
478 0 72.1006 6.8238 492 60.8374 724.766 500.616
479 0 71.0579 7.34612 522 61.0536 724.661 499.722
480 0 71.1022 4.76778 339 61.7198 724.277 505.018
481 0 71.0669 4.46059 317 60.9558 724.492 510.391
482 0 72.0287 4.53986 327 62.3792 723.193 510.208
483 1 50.0144 8.11766 406 63.2192 722.921 506.197
484 0 53.0188 9.31744 494 63.413 723.257 506.006
485 0 48.0133 7.74786 372 64.7903 722.909 510.32
486 0 48.0156 7.68501 369 67.8997 723.073 508.019
487 0 51.067 8.38115 428 66.7991 722.654 504.748
488 0 52.0235 8.64994 450 68.2 723.522 505.578
489 0 54.0134 8.12761 439 70.8542 722.886 506.911
490 0 56.0211 8.8538 496 72.377 723.266 504.109
491 0 57.0598 8.35966 477 74.0734 723.82 504.799
492 0 60.0177 8.83073 530 74.1038 723.032 504.075
493 0 65.1571 10.1601 662 72.2991 723.443 504.47
494 0 67.0658 11.2427 754 73 722.854 502.301
495 0 67.078 10.4803 703 76.3414 723.203 502.569
496 0 69.1161 10.8658 751 76.0959 723.134 502.955
497 0 70.0382 10.9369 766 77.9517 723.409 501.538
498 0 72.0394 11.0495 796 79.8467 722.77 500.536
499 0 76.0458 11.8876 904 80.2633 723.46 498.574
500 0 77.0982 11.8939 917 82.2781 722.348 497.123
501 0 78.0706 12.2453 956 83.751 722.995 497.37
502 0 81.1672 11.5071 934 87.4358 721.913 497.07
503 0 83.0842 11.9277 991 87.8819 721.903 496.011
504 0 86.101 12.3808 1066 87.378 722.167 494.399
505 0 87.0671 12.2664 1068 90.515 722.193 492.515
506 0 90.0982 12.4309 1120 89.6179 722.5 490.913
507 0 92.0901 12.3249 1135 91.7797 722.769 487.996
508 0 95.0891 12.5146 1190 91.6403 722.839 487.506
509 1 52.0363 10.5888 551 91.2142 722.149 508.601
510 0 53.0217 10.2599 544 90.8327 721.024 506.568
511 0 55.0401 11.0828 610 86.2312 721.528 506.097
512 0 58.0352 11.717 680 91.2412 721.507 507.141
513 0 54.0139 10.2011 551 88.7441 722.535 509.886
514 0 55.0405 10.2288 563 89.5009 722.584 509.604
515 0 58.0443 11.0605 642 88.3941 722.715 507.36
516 0 60.0427 11.0921 666 88.551 723.111 507.056
517 0 61.049 10.9093 666 89.3859 722.881 507.865
518 0 62.0542 11.7317 728 88.6772 722.924 506.488
519 0 63.0297 11.3439 715 90.1958 722.93 505.434
520 0 68.053 12.2111 831 86.012 723.349 505.584
521 0 69.0591 12.3373 852 85.777 722.476 504.677
522 0 70.026 12.0098 841 86.4507 722.778 502.565
523 0 73.0396 12.2536 895 84.552 722.337 502.112
524 0 75.0756 12.7072 954 82.7652 722.658 500.585
525 0 75.0261 12.409 931 83.6745 722.907 499.6
526 0 78.0722 12.2579 957 82.3678 722.115 500.739
527 0 79.0781 12.2158 966 84.1843 723.685 498.233
528 0 81.0726 12.9267 1048 82.4103 722.448 498.259
529 0 84.0909 12.7124 1069 82.1487 722.172 496.935
530 0 85.0609 12.2618 1043 84.2013 721.835 495.646
531 0 89.078 12.3151 1097 81.7657 721.82 493.573
532 0 91.1158 12.5006 1139 81.2862 721.928 493.055
533 0 93.0298 11.9962 1116 82.224 722.111 492.259
534 0 97.1084 11.4614 1113 93.4681 721.315 490.421
535 0 101.054 12.2608 1239 91.0492 721.744 487.758
536 0 101.157 12.1692 1231 96.5987 722.798 485.842
537 0 101.088 10.7431 1086 105.901 722.177 488.553
538 0 102.124 10.1837 1040 89.2567 722.644 489.367
539 0 101.034 6.81949 689 88.0232 721.972 496.732
540 1 223.311 12.8699 2874 95.682 721.616 423.031
541 0 230.256 12.6424 2911 94.0127 721.487 420.862
542 1 61.0229 10.4223 636 74.6101 722.509 509.115
543 0 64.0899 11.0782 710 73.5789 722.249 507.652
544 0 66.038 11.0694 731 73.2777 721.443 505.404
545 0 69.0379 11.414 788 73.2932 722.746 504.78
546 0 72.0591 10.644 767 74.0613 722.497 503.289
547 0 72.0539 10.6309 766 75.8212 722.206 502.8
548 0 77.0498 11.1876 862 73.9211 722.643 500.422
549 0 80.0213 11.222 898 84.2105 722.951 498.028
550 0 81.0363 11.1555 904 85.0774 722.744 498.373
551 0 82.0644 11.3569 932 85.4346 722.362 496.279
552 0 86.0775 11.5593 995 85.39 721.428 494.28
553 0 87.0384 11.7994 1027 84.4168 722.139 493.183
554 0 89.0848 11.5171 1026 87.1004 722.113 491.927
555 0 93.1047 12.3087 1146 84.6274 722.419 492.247
556 0 93.1493 11.5084 1072 87.7285 722.063 491.28
557 0 96.1101 11.1643 1073 82.7866 722.706 489.687
558 0 100.099 11.7484 1176 81.2313 722.353 490.247
559 0 103.126 12.3733 1276 81.9796 722.081 488.309
560 0 104.16 12.2312 1274 83.4694 722.085 488.577
561 0 106.131 12.1548 1290 85.4178 721.933 487.634
562 0 110.121 11.7507 1294 87.6244 722.194 484.683
563 0 115.099 12.65 1456 90.5769 721.228 481.63
564 0 116.07 12.5097 1452 90.938 722.292 481.704
565 0 120.106 12.389 1488 91.7749 721.575 480.678
566 0 125.15 12.4331 1556 91.982 722.21 478.096
567 0 127.175 13.273 1688 93.0272 721.455 474.944
568 0 131.085 12.5949 1651 95.8359 721.479 474.886
569 0 136.089 12.8592 1750 96.1337 720.543 472.649
570 0 139.125 12.8158 1783 98.2445 720.56 468.308
571 0 145.137 13.0084 1888 98.9931 720.111 467.587
572 0 149.179 13.0917 1953 98.9457 720.289 465.478
573 0 152.199 13.6203 2073 99.8389 721.07 463.283
574 0 156.14 13.2061 2062 102.004 720.531 462.57
575 0 159.245 13.1684 2097 103.559 721.927 458.443
576 0 165.197 13.8199 2283 102.449 721.158 457.436
577 0 170.235 13.4579 2291 106.495 721.263 453.196
578 0 172.139 13.0592 2248 109.106 721.2 449.762
579 0 179.14 13.4866 2416 109.029 721.288 447.68
580 0 182.211 13.1825 2402 111.935 720.86 444.404
581 0 189.213 13.4346 2542 110.429 720.878 441.631
582 1 135.165 12.2517 1656 112.085 721.407 467.179
583 0 142.298 12.6706 1803 109.77 721.655 463.262
584 0 141.299 12.47 1762 170.85 721.681 462.402
585 0 152.227 13.6901 2084 112.229 721.366 455.149
586 0 154.314 13.4207 2071 114.824 720.683 453.731
587 0 158.198 13.2239 2092 116.305 720.684 452.337
588 0 164.259 13.3813 2198 118.706 720.652 449.054
589 0 171.209 13.5624 2322 118.513 720.89 446.231
590 0 175.203 13.607 2384 119.111 720.69 437.292
591 0 178.165 13.5661 2417 121.274 721.203 432.762
592 0 183.099 13.6265 2495 121.87 721.672 429.598
593 0 191.119 13.6459 2608 121.979 721.749 427.36
594 0 196.124 13.828 2712 122.715 721.647 424.376
595 0 203.165 13.6834 2780 123.733 721.479 420.959
596 0 205.218 13.8682 2846 125.454 721.33 415.261
597 0 214.258 13.6564 2926 126.976 721.069 417.167
598 0 219.304 14.008 3072 127.89 720.07 417.83
599 0 227.24 13.4659 3060 130.647 720.823 416.739
600 1 58.0987 9.70762 564 107.979 721.633 504.103
601 0 62.1066 10.4337 648 105.623 720.886 503.591
602 0 63.0658 10.6872 674 105.392 721.223 502.576
603 0 68.0752 11.4726 781 102.213 721.058 504.695
604 0 67.0363 11.1134 745 96.4631 719.526 505.784
605 0 68.051 10.595 721 95.4424 719.272 506.116
606 0 73.0615 10.6349 777 94.3526 720.346 504.663
607 0 73.0624 10.2378 748 94.3182 719.833 503.41
608 0 76.102 10.302 784 95.676 720.159 501.048
609 0 80.0519 10.5307 843 95.2112 719.897 499.734
610 0 81.0161 10.6152 860 95.7233 720.78 497.846
611 0 82.0789 10.7701 884 95.4717 720.88 499.007
612 0 87.028 10.8586 945 95.1143 720.419 497.563
613 0 88.1069 10.6008 934 108.828 720.478 495.374
614 0 93.1352 10.2324 953 108.875 719.462 493.447
615 1 49.0178 8.83353 433 103.222 720.39 513.764
616 0 53.0225 9.90146 525 100.518 719.634 514.055
617 0 52.0526 9.45198 492 103.756 719.768 513.626
618 0 53.02 9.61901 510 102.267 719.827 512.039
619 0 55.0414 9.93798 547 97.7642 719.867 510.592
620 0 56.0267 10.2987 577 98.2322 720.83 510.567
621 0 56.0305 10.2087 572 97.4528 720.773 508.65
622 0 59.0391 10.0442 593 95.7167 721.125 507.231
623 0 63.0694 9.92557 626 104.955 720.439 504.837
624 0 64.0599 10.3341 662 105.316 718.492 502.912
625 0 64.0634 10.2867 659 105.398 719.513 502.108
626 0 66.1118 10.7394 710 105.463 719.486 502.158
627 0 68.1168 10.9224 744 104.968 719.913 499.766
628 0 67.0456 10.4854 703 104.639 721.603 499.334
629 0 71.0462 10.9225 776 104.17 721.695 499.592
630 0 73.0475 11.1434 814 102.429 721.77 498.926
631 0 74.0516 11.2759 835 103.551 721.024 497.304
632 0 77.0683 11.2627 868 102.713 720.997 496.203
633 0 78.0817 11.0653 864 102.765 721.374 494.788
634 0 80.068 12.0148 962 101.823 721.199 493.067
635 0 82.117 11.3253 930 103.513 721.132 493.068
636 0 82.0786 10.3803 852 93.9354 721.35 493.196
637 0 86.1022 10.6966 921 92.6884 721.694 492.611
638 0 87.0924 11.0113 959 93.0553 721.714 491.611
639 0 91.0287 10.2056 929 95.3757 721.874 489.147
640 0 95.0745 12.3061 1170 91.0538 721.977 490.006
641 0 98.0477 11.9228 1169 92.6236 722.009 489.702
642 0 101.095 12.4931 1263 92.7142 722.789 487.12
643 0 105.075 12.8861 1354 93.3538 721.578 486.662
644 0 105.071 12.5915 1323 99.2721 722.113 482.937
645 1 53.0242 10.4858 556 94.4011 722.201 512.459
646 0 56.0441 10.5274 590 92.8644 722.122 511.139
647 0 56.0441 10.4382 585 94.7521 722.314 509.689
648 0 58.0314 10.7873 626 92.5463 722.772 509.214
649 0 61.0074 11.556 705 90.9035 722.955 508.806
650 0 59.0244 11.1141 656 94.2485 722.829 505.817
651 0 62.0316 11.8327 734 92.2384 722.522 505.452
652 0 64.0322 12.1033 775 92.8142 721.547 504.053
653 0 63.0442 10.7702 679 97.2445 722.153 505.641
654 0 65.0343 11.886 773 95.7477 721.596 505.326
655 0 68.0855 11.8527 807 96.2615 721.632 503.96
656 0 69.0482 12.2233 844 95.8211 720.925 503.015
657 0 71.0681 12.1714 865 95.7815 721.691 500.304
658 0 73.0453 12.5539 917 95.096 721.662 500.517
659 0 76.0528 12.2152 929 95.1959 721.558 499.851
660 0 78.0513 12.5302 978 95.8333 722.154 498.079
661 0 79.0877 12.6821 1003 95.4287 722.688 498.058
662 0 82.0412 13.0057 1067 95.4986 722.549 496.575
663 0 85.0706 12.9657 1103 95.6809 721.842 494.06
664 0 87.0937 12.8482 1119 95.9017 722.559 492.97
665 0 89.0993 12.9855 1157 95.6482 721.503 491.794
666 0 89.0596 12.4636 1110 97.5108 721.237 490.453
667 0 93.0427 12.6716 1179 96.3647 721.092 489.26
668 0 96.055 12.3887 1190 96.9143 721.85 488.058
669 0 99.0703 12.0924 1198 97.3556 721.578 487.479
670 0 101.115 11.7193 1185 99.7738 722.271 485.83
671 1 55.1001 10.0726 555 99.1766 722.58 507.773
672 0 58.1515 11.1605 649 95.4592 722.447 507.707
673 0 57.1062 11.5749 661 96.3691 722.41 505.313
674 0 61.0641 11.9383 729 95.5665 722.011 503.86
675 0 59.0583 10.8198 639 87.5477 723.156 506.44
676 0 61.0728 10.6267 649 88.8783 722.667 506.193
677 0 62.0391 10.9447 679 90.4654 722.976 503.128
678 0 65.0346 10.9941 715 89.8476 722.849 503.434
679 0 65.0501 10.638 692 91.4783 723.392 503.753
680 0 69.0457 11.3982 787 92.3914 722.785 499.925
681 0 72.036 11.5637 833 92.0264 723.281 499.852
682 0 73.0674 11.3868 832 94.7584 723.194 499.846
683 0 73.085 11.6166 849 97.1779 723.099 497.715
684 0 76.0698 11.6735 888 98.2849 723.143 497.966
685 0 77.0368 11.0856 854 100.989 722.727 498.02
686 0 80.0854 11.7749 943 102.016 722.786 496.373
687 0 81.0373 11.9328 967 103.927 723.477 495.206
688 0 85.0425 12.3115 1047 103.723 722.82 493.992
689 0 87.0359 12.3857 1078 103.804 723.494 493.577
690 0 89.1662 13.0206 1161 104.497 723.383 491.787
691 0 92.0808 12.8583 1184 106.547 724.097 491.607
692 0 97.0601 13.4865 1309 109.319 723.951 488.821
693 0 97.0875 13.2458 1286 110.839 723.664 488.846
694 0 103.049 13.2073 1361 109.414 722.823 487.492
695 0 105.057 13.1642 1383 109.393 723.505 483.929
696 0 108.043 13.2447 1431 109.722 723.082 483.663
697 0 111.044 13.283 1475 111.121 723.02 481.336
698 1 60.0447 10.9752 659 105.961 722.873 510.317
699 0 63.0189 11.5997 731 106.216 722.752 509.692
700 0 64.0272 11.8543 759 107.103 723.258 508.068
701 0 64.0261 11.714 750 110.535 722.561 506.497
702 0 67.0353 12.0086 805 110.755 722.863 506.517
703 0 67.0748 12.0313 807 113.164 722.372 505.519
704 0 67.0394 10.9637 735 105.412 722.611 508.295
705 0 67.049 10.8876 730 109.279 722.63 505.903
706 0 71.0432 11.486 816 108.327 722.292 506.24
707 0 72.0532 11.4221 823 117.235 722.198 504.033
708 0 75.0594 11.0313 828 110.918 722.743 502.803
709 0 76.0724 11.0553 841 112.728 722.693 502.426
710 0 79.0462 11.4237 903 111.651 722.934 502.254
711 0 80.0658 11.3656 910 113.602 722.767 501.327
712 0 82.0445 11.8107 969 111.706 722.169 498.626
713 0 83.0226 10.997 913 113.594 722.521 499.836
714 0 87.1552 11.3705 991 112.352 722.516 498.172
715 0 89.0513 12.1391 1081 111.963 721.678 495.93
716 0 93.0758 12.5489 1168 111.878 721.551 496.016
717 0 95.0575 12.1505 1155 114.01 721.413 493.363
718 0 97.1238 12.0259 1168 115.575 722.247 493.239
719 0 101.147 11.9925 1213 118.064 722.633 490.242
720 1 55.0856 10.2931 567 118.686 722.515 514.111
721 0 55.0929 10.7999 595 120.573 721.469 513.23
722 0 57.0931 11.5951 662 118.681 722.598 511.538
723 0 56.0138 9.78331 548 105.628 721.436 513.051
724 0 57.0393 9.88792 564 105.45 721.706 512.085
725 0 62.0783 10.6801 663 103.176 720.819 511.532
726 0 63.065 10.6557 672 105.449 721.113 509.763
727 0 65.0653 10.8199 704 104.222 721.399 509.52
728 0 67.0721 11.1522 748 104.503 721.338 506.951
729 0 71.0181 11.1239 790 104.699 721.93 503.9
730 0 73.0283 10.626 776 105.106 721.466 503.903
731 0 75.0316 11.3419 851 103.747 722.237 503.628
732 0 76.0281 11.43 869 104.077 721.344 502.442
733 0 81.0501 11.0426 895 103.73 721.423 500.788
734 0 84.038 10.757 904 104.314 721.271 496.95
735 1 40.01 9.74756 390 102.315 721.426 520.005
736 0 41.0106 8.99768 369 103.87 721.775 519.225
737 0 44.043 10.1946 449 98 721.791 517.889
738 0 46.0552 10.7914 497 93.332 722.054 518.829
739 0 47.0447 10.7132 504 94.1647 721.861 518.375
740 0 48.0783 11.5021 553 91.4919 721.416 516.074
741 0 49.0468 10.9487 537 93.8101 720.795 514.819
742 0 51.067 10.8681 555 93 720.245 513.429
743 0 51.1013 11.3696 581 106.344 721.091 512.134
744 0 54.0449 10.8058 584 105.839 720.678 509.764
745 0 54.0623 11.4498 619 104.543 720.829 509.023
746 0 57.0768 12.124 692 102.152 720.987 508.27
747 0 58.0838 12.0688 701 104.856 721.151 508.631
748 0 60.0802 11.8175 710 106.03 721.476 508.294
749 0 62.0414 12.4111 770 104.565 721.629 507.275
750 0 63.095 12.2355 772 106.108 722.373 504.992
751 0 66.0381 12.4474 822 105.984 721.378 504.65
752 0 66.0858 12.5443 829 108.045 721.503 503.251
753 0 70.0645 13.0308 913 105.508 721.436 502.731
754 0 70.0791 12.4573 873 105.647 721.11 500.243
755 0 72.1114 12.4807 900 110.003 722.04 500.291
756 0 75.0518 13.1376 986 105.909 721.671 499.636
757 0 77.0959 13.0487 1006 107.315 722.727 499.76
758 0 78.1035 13.2132 1032 107.489 722.72 498.162
759 0 80.0731 12.9632 1038 109.585 723.356 495.294
760 0 84.0628 13.2877 1117 108.745 722.76 495.338
761 0 84.0559 12.801 1076 111.289 722.428 492.997
762 0 86.0995 12.2765 1057 114.339 722.065 491.61
763 0 88.094 12.3277 1086 114.422 721.667 490.965
764 0 91.1045 12.7875 1165 113.28 722.266 490.104
765 0 91.1024 12.7878 1165 126.128 723.277 490.145
766 0 98.0305 12.3635 1212 115.668 722.765 486.295
767 1 50.0782 11.1226 557 108.799 722.233 513.402
768 0 51.0406 10.4035 531 114.168 722.55 510.674
769 0 52.0559 11.9871 624 116.266 722.737 510.63
770 0 55.11 10.8692 599 107.554 722.13 511.038
771 0 57.0485 11.3062 645 106.15 722.293 509.305
772 0 57.0425 11.4476 653 107.943 721.778 507.606
773 0 60.0421 11.4586 688 107.661 721.602 508.65
774 0 62.0151 11.723 727 108.15 722.111 506.249
775 0 61.0496 10.9255 667 112.352 722.33 504.055
776 0 65.0236 11.0114 716 112.543 722.582 500.628
777 0 67.0328 11.6212 779 111.849 722.018 501.321
778 0 67.0313 11.696 784 107.171 720.996 501.23
779 0 72.0262 11.6763 841 116.265 721.967 498.482
780 0 75.032 11.5551 867 116.393 722.366 497.556
781 0 77.1444 11.7572 907 116.206 720.763 496.719
782 0 79.0738 12.2164 966 114.707 720.784 496.766
783 0 84.0714 12.9057 1085 109.142 721.338 495.537
784 0 86.0564 12.9566 1115 108.008 721.201 494.085
785 0 87.0602 12.6234 1099 109.095 721.914 491.531
786 0 90.0532 12.848 1157 107.314 721.689 492.075
787 0 92.0979 12.5844 1159 108.223 722.909 490.108
788 0 96.0539 12.5242 1203 107.084 722.352 489.447
789 0 99.1123 11.7846 1168 110.13 722.843 487.156
790 0 103.113 12.016 1239 109.124 722.495 486.395
791 1 53.0689 11.3249 601 106.874 722.794 510.859
792 0 56.0456 11.3836 638 111.644 722.122 510.143
793 0 55.0669 10.9503 603 105.29 722.736 506.509
794 0 59.1091 12.5361 741 110.667 723.081 508.085
795 0 60.0875 12.1323 729 99.9561 723.638 508.1
796 0 59.0498 11.431 675 103.086 723.358 508.145
797 0 62.0485 12.2163 758 101.517 723.648 508.314
798 0 65.0905 12.0909 787 101.914 723.71 507.754
799 0 67.043 11.873 796 103.108 723.662 507.26
800 0 68.1049 11.6879 796 105.03 722.81 507.691
801 0 69.0645 12.2349 845 105.889 722.618 505.478
802 0 72.0832 12.0694 870 106.601 722.367 505.634
803 0 73.0939 12.3129 900 107.347 721.732 505.117
804 0 74.0623 12.2194 905 109.576 722.537 504.266
805 0 77.0633 12.3146 949 109.183 722.974 502.953
806 0 78.0707 12.3094 961 110.607 723.054 501.912
807 0 81.1019 12.2932 997 110.934 722.961 501.75
808 0 82.1109 12.9216 1061 112.198 722.394 500.567
809 0 84.1217 12.6483 1064 114.626 722.722 497.884
810 0 87.1767 12.8819 1123 115.108 722.086 498.279
811 0 92.0955 13.5946 1252 117.215 722.027 495.03
812 0 92.1335 12.8943 1188 120.535 722.269 493.765
813 0 96.1 12.9553 1245 121.448 721.753 491.355
814 0 102.139 13.0998 1338 121.056 722.139 489.487
815 1 52.0296 10.4364 543 117.646 721.961 514.19
816 0 57.0424 10.9568 625 115.298 722.33 514.221
817 0 57.0836 12.6131 720 112.375 722.503 513.632
818 0 58.0701 12.0716 701 111.3 721.822 512.106
819 0 61.0469 12.0072 733 111.086 722.246 511.194
820 0 62.0988 12.3513 767 110.542 721.751 511.035
821 0 66.1437 12.7147 841 109.707 721.446 509.193
822 0 65.0471 11.7915 767 114.739 721.416 507.979
823 0 68.0361 12.5669 855 112.232 720.909 507.188
824 0 71.0455 12.5976 895 111.745 720.835 505.677
825 0 74.0418 12.4659 923 110.528 721.212 506.144
826 0 77.0558 13.1204 1011 108.637 721.073 505.429
827 0 80.0225 12.6839 1015 111.059 721.025 504.117
828 0 81.0726 12.8033 1038 113.928 720.985 501.387
829 0 85.0534 13.1329 1117 111.244 721.149 501.316
830 1 47.0512 11.0305 519 113.035 721.058 520.856
831 0 49.0425 11.2555 552 110.152 721.071 519.679
832 0 50.0397 11.2711 564 109.757 721.121 518.95
833 0 50.0377 12.0309 602 108.769 720.513 518.174
834 0 53.0726 11.8517 629 109.397 721.421 517.647
835 0 51.0366 12.011 613 108.631 720.741 519.458
836 0 52.0462 11.778 613 110.799 721.522 518.502
837 0 53.0303 11.9554 634 110.743 720.565 516.732
838 0 57.0311 11.9058 679 109.747 720.42 514.635
839 0 57.1056 11.9078 680 110.865 719.838 513.421
840 0 61.0861 12.7361 778 107.378 720.274 511.68
841 0 64.063 12.7531 817 106.537 720.288 510.83
842 0 65.07 12.8016 833 106.725 720.517 509.941
843 0 67.0174 12.6087 845 107.144 720.496 508.411
844 0 67.0764 12.2994 825 106.248 720.896 508.444
845 0 71.0603 11.6662 829 107.001 720.87 508.27
846 0 72.0885 11.9575 862 106.224 719.956 505.097
847 0 76.0829 12.6047 959 104.081 720.523 502.122
848 0 80.0577 13.4153 1074 100.887 719.859 498.53
849 0 81.0747 12.433 1008 103.069 721.011 495.087
850 0 83.0979 11.9137 990 102.809 720.632 494.309
851 0 85.1183 12.5707 1070 100.765 721.263 490.613
852 0 87.095 11.9869 1044 101.011 721.469 491.407
853 0 90.108 12.1077 1091 104.324 720.994 488.258
854 0 91.1859 12.6445 1153 104.261 720.594 487.397
855 0 96.1488 12.8655 1237 103.177 720.639 485.019
856 0 97.1566 12.8247 1246 101.842 719.953 483.652
857 0 98.2299 12.542 1232 102.7 720.161 482.666
858 0 102.272 12.6721 1296 102.574 719.973 481.828
859 0 105.156 12.5147 1316 101.465 720.256 480.034
860 0 108.143 12.6129 1364 100.721 720.758 477.861
861 0 111.132 13.2725 1475 99.1186 720.47 474.591
862 0 116.151 13.1037 1522 99.4402 721.26 472.4
863 0 118.142 12.8405 1517 100.953 721.094 469.063
864 0 122.116 13.1023 1600 100.092 720.946 469.699
865 0 127.156 13.4166 1706 101.475 720.292 466.18
866 0 131.152 13.3357 1749 102.92 720.916 464.042
867 0 134.132 13.0394 1749 103.866 720.189 464.009
868 0 138.22 12.7478 1762 104.3 719.996 460.835
869 0 142.145 13.0431 1854 103.699 720.84 460.777
870 0 149.091 13.2201 1971 104.075 720.694 455.166
871 0 154.118 13.5221 2084 105.204 720.56 453.285
872 0 158.101 12.9664 2050 106.279 721.025 452.503
873 0 163.148 13.4172 2189 103.977 721.246 449.007
874 0 167.244 13.8121 2310 104.395 721.608 445.927
875 0 172.09 13.5046 2324 105.43 721.686 444.027
876 0 176.198 13.9616 2460 105.017 721.554 443.724
877 0 181.195 13.5269 2451 107.033 720.583 440.369
878 0 187.273 13.8942 2602 106.083 720.601 438.323
879 0 192.183 13.8566 2663 106.011 720.683 436.929
880 0 199.263 13.6954 2729 105.851 720.544 431.748
881 1 153.287 11.9057 1825 106.128 721.239 458.238
882 0 157.253 12.2605 1928 106.03 721.479 452.073
883 0 164.2 12.5152 2055 105.946 721.762 449.236
884 0 168.224 12.6676 2131 106.052 722.094 444.706
885 0 173.232 13.0172 2255 105.126 720.653 441.365
886 0 181.183 13.3511 2419 103.768 721.965 442.262
887 0 187.169 13.9392 2609 103.323 720.648 438.149
888 0 192.172 13.1913 2535 105.968 720.131 434.468
889 0 197.151 13.3248 2627 107.934 720.665 431.389
890 0 205.31 13.5502 2782 107.787 721.061 428.51
891 0 205.282 13.3329 2737 140.655 722.073 429.269
892 1 220.292 13.7908 3038 107.414 720.392 423.809
893 0 225.32 13.2212 2979 109.515 721.336 420.665
894 0 234.214 14.1452 3313 107.034 720.738 418.621
895 0 241.224 14.1238 3407 107.494 720.572 413.018
896 0 250.204 14.4163 3607 106.513 720.042 412.179
897 0 256.266 13.9659 3579 108.649 720.798 406.852
898 0 262.22 14.0645 3688 108.952 720.262 404.755
899 0 271.277 14.7156 3992 106.863 720.234 400.648
900 0 278.205 14.7481 4103 108.088 720.234 389.584
901 0 286.222 14.1953 4063 111.058 720.734 385.266
902 0 293.267 14.5124 4256 111.82 721.845 381.927
903 1 333.276 8.83653 2945 120.35 721.302 402.587
904 0 332.262 8.38495 2786 122.957 722.388 400.214
905 0 334.258 21.633 7231 90.9983 722.079 344.203
906 0 338.333 18.2542 6176 102.954 721.364 345.389
907 0 343.316 14.7852 5076 117.03 721.074 353.774
908 0 353.277 15.5317 5487 115.008 721.233 346.386
909 0 364.402 15.5844 5679 115.554 721.787 339.466
910 0 367.376 10.2756 3775 126.734 722.096 367.941
911 0 367.454 8.94263 3286 125.664 722.155 381.326
912 0 367.265 6.92959 2545 124.122 721.193 408.583
913 0 357.538 12.326 4407 125.24 721.731 358.835
914 0 369.504 13.0878 4836 124.671 721.431 356.646
915 0 363.312 9.15743 3327 128.995 721.381 378.015
916 0 369.427 10.0534 3714 129.946 720.604 377.709
917 0 370.43 11.0412 4090 127.627 720.425 371.126
918 0 367.449 9.82722 3611 130.922 720.947 375.241
919 0 369.457 11.498 4248 128.115 720.746 362.854
920 0 369.422 10.9712 4053 131.889 720.893 363.134
921 0 55.0954 9.92823 547 95.6837 721.378 511.541
922 0 55.0355 11.1019 611 97.6825 721.375 510.82
923 0 57.0348 11.4667 654 98.2706 720.173 510.362
924 0 55.0295 9.55851 526 93.0494 721.8 512.684
925 0 57.0463 9.92177 566 94.1148 720.762 511.504
926 0 58.0456 8.94125 519 94.6975 720.963 511.825
927 0 60.0278 10.0287 602 93.5266 721.779 510.664
928 0 62.0382 9.22013 572 93.6906 721.121 510.853
929 0 64.0364 8.83873 566 93.295 721.751 511.124
930 0 65.0624 9.2834 604 93.5447 721.526 510.01
931 0 67.0385 9.75559 654 93.4266 721.515 506.78
932 0 73.0577 10.17 743 92.0229 720.875 505.4
933 0 73.0603 9.4032 687 95.2212 720.374 504.904
934 0 76.0874 9.71251 739 94.4506 720.246 504.976
935 0 80.0744 10.1031 809 94.848 720.643 504.295
936 0 83.057 10.872 903 93.4064 719.994 503.833
937 0 87.0774 12.5406 1092 90.1172 720.131 499.207
938 0 89.0611 11.5539 1029 93.3742 719.911 500.719
939 0 91.1245 12.1811 1110 92.1009 720.332 499.896
940 0 92.0732 12.3597 1138 92.4095 720.304 498.68
941 0 94.0975 12.402 1167 92.3608 719.973 497.397
942 0 98.1258 12.0356 1181 93.8103 720.009 497.22
943 0 100.061 11.573 1158 96.3299 718.631 495.53
944 0 103.118 12.122 1250 94.656 718.982 493.286
945 0 106.122 12.3348 1309 93.7441 719.212 492.103
946 0 108.127 12.1801 1317 92.9787 718.719 490.371
947 0 110.087 11.9814 1319 93.8878 719.478 488.533
948 0 110.062 11.9297 1313 96.3542 719.435 487.27
949 0 116.102 12.756 1481 95.9804 719.934 482.843
950 0 118.06 11.4688 1354 98.3191 719.266 482.027
951 0 121.091 11.8754 1438 97.0389 720.469 483.074
952 0 125.156 12.5204 1567 104.716 720.131 477.257
953 0 131.248 13.2116 1734 103.102 718.917 475.702
954 0 134.144 12.7326 1708 104.782 719.475 473.88
955 0 137.15 13.3722 1834 93.4411 718.871 472.453
956 0 142.2 12.841 1826 95.1364 719.421 467.43
957 0 144.152 12.6117 1818 97.115 720.146 464.875
958 0 149.28 13.3574 1994 95.1775 720.685 462.902
959 0 153.286 13.0671 2003 95.9156 719.626 460.748
960 0 159.21 13.9689 2224 94.058 720.759 459.983
961 0 161.191 12.7303 2052 99.287 719.767 456.818
962 1 75.0938 10.5601 793 84.0845 720.439 505.728
963 0 78.0921 12.37 966 81.4969 719.967 505.995
964 0 81.0367 11.5133 933 83.8821 721.178 501.768
965 0 84.1246 11.8752 999 88.1812 720.84 501.287
966 0 87.1527 12.0363 1049 89.2011 720.899 500.463
967 0 89.1161 11.4233 1018 90.1837 720.366 498.338
968 0 91.0936 13.3379 1215 83.3202 722.145 496.243
969 0 91.0936 12.811 1167 132.067 724.123 497.007
970 0 95.0556 12.3191 1171 86.9898 720.284 493.044
971 0 98.1147 12.1796 1195 86.9966 720.828 492.806
972 0 98.1167 11.5984 1138 88.3383 721.247 491.155
973 0 104.066 12.665 1318 85.0288 720.297 488.993
974 0 105.141 12.3168 1295 85.9652 719.612 489.399
975 0 108.179 12.0078 1299 86.4119 719.614 488.346
976 0 112.123 12.2187 1370 86.2029 720.269 485.479
977 0 113.092 11.7161 1325 87.0724 720.896 484.094
978 0 118.137 12.2231 1444 86.5506 720.972 481.086
979 0 121.151 10.9698 1329 97.8089 721.992 481.424
980 1 51.0344 11.9723 611 99.5614 722.645 517.051
981 0 51.0517 11.5961 592 100.272 721.073 514.677
982 0 51.0237 10.5049 536 84.1175 722.427 516.453
983 0 53.0352 10.8041 573 83.5166 721.815 515.843
984 0 53.0143 11.3366 601 84.3478 722.334 515.131
985 0 55.0374 11.2287 618 83.6068 722.62 513.218
986 0 57.0538 11.1649 637 83.5416 721.623 512.141
987 0 59.0423 11.6019 685 81.9124 722.936 511.463
988 0 61.0261 11.323 691 81.5601 722.648 511.137
989 0 61.0422 11.5658 706 82.6884 722.252 509.996
990 0 63.0947 11.8076 745 82.6174 722.075 509.196
991 0 65.0477 10.7613 700 84.7714 721.564 508.193
992 0 68.0978 11.645 793 83.8701 721.425 506.392
993 0 71.0284 11.6151 825 83.2909 721.955 505.88
994 0 73.0494 11.677 853 84.4091 721.55 503.39
995 0 75.0502 11.1792 839 85.4505 721.996 503.054
996 0 78.0306 12.0978 944 83.821 722.875 499.826
997 0 80.0333 11.7201 938 85.5064 722.681 499.981
998 0 84.0275 11.9366 1003 85.1665 722.754 500.093
999 0 87.117 11.8347 1031 86.0165 722.672 496.97
1000 1 46.0465 11.0975 511 88.1976 722.458 516.663
1001 0 47.022 11.5265 542 90.2232 721.282 515.799
1002 0 52.0323 11.5121 599 92.3606 721.733 514.304
1003 0 51.0227 12.171 621 95.8776 721.802 513.704
1004 0 52.0241 12.5711 654 98.8761 721.598 513.321
1005 0 53.0514 12.5539 666 99.7282 723.095 512.713
1006 0 54.0847 12.7763 691 99.3835 722.126 511.965
1007 0 59.0372 14.2622 842 93.8824 723.217 511.974
1008 0 59.041 14.0411 829 97.7503 722.667 511.109
1009 0 58.0373 13.095 760 91.0526 723.466 512.163
1010 0 59.0782 13.2198 781 92.9091 722.709 511.128
1011 0 59.0203 13.2836 784 94.5702 722.25 509.522
1012 0 65.0207 14.1955 923 102.932 721.19 505.353
1013 0 68.0429 14.579 992 102.28 721.51 504.839
1014 0 69.0412 15.049 1039 103.649 721.282 504.394
1015 0 68.0099 14.8802 1012 106.873 721.371 504.385
1016 0 72.0468 15.2262 1097 106.107 722.965 503.026
1017 0 73.026 14.3374 1047 111.39 721.951 502.89
1018 0 76.0678 14.9209 1135 108.744 723.426 501.572
1019 0 77.0372 15.3173 1180 110.075 723.536 500.593
1020 0 79.0357 15.3601 1214 110.305 723.611 499.584
1021 0 82.0625 15.5248 1274 111.514 723.482 497.342
1022 0 84.0398 16.2185 1363 110.144 723.758 495.917
1023 0 86.0669 15.8017 1360 111.38 723.907 495.438
1024 0 89.072 15.8187 1409 110.902 723.591 493.527
1025 0 91.0245 15.776 1436 112.002 722.594 492.094
1026 0 96.0553 16.2302 1559 110.511 723.006 489.434
1027 0 99.0546 16.2335 1608 108.961 722.813 489.815
1028 0 104.177 15.9728 1664 109.939 722.489 486.069
1029 0 105.084 15.9111 1672 108.168 722.54 485.705
1030 1 51.031 14.0307 716 118.165 722.561 512.166
1031 0 51.0198 14.7394 752 117.767 724.146 512.056
1032 0 54.0161 14.4772 782 119.202 723.372 509.721
1033 0 55.0552 15.1848 836 117.12 722.949 509.446
1034 0 58.0181 15.3745 892 115.283 723.489 508.36
1035 0 58.0762 15.2214 884 116.847 722.465 508.889
1036 0 62.0405 16.4409 1020 111.999 723.196 507.862
1037 0 63.0411 15.9261 1004 114.332 723.023 507.333
1038 0 64.1158 15.7215 1008 117.385 721.803 506.399
1039 0 67.0385 16.1251 1081 115.895 722.178 505.732
1040 0 68.0412 15.5641 1059 119.745 722.106 505.41
1041 0 69.0465 17.032 1176 117.997 722.379 504.805
1042 0 70.114 15.9883 1121 122.844 722.319 504.442
1043 0 73.0524 15.8106 1155 124.743 722.295 503.113
1044 0 74.0567 16.3928 1214 123.793 723.067 503.591
1045 0 75.1259 16.6254 1249 126.475 722.449 501.686
1046 0 77.1101 16.3403 1260 128.545 722.546 500.991
1047 0 80.1124 16.8388 1349 128.024 721.836 499.007
1048 0 83.0962 16.174 1344 130.862 722.039 498.355
1049 0 84.1405 16.8765 1420 129.632 722.645 496.586
1050 0 87.0812 16.8808 1470 129.005 723.271 496.695
1051 0 89.0866 16.7365 1491 131.272 722.058 493.555
1052 0 94.0907 17.2599 1624 127.768 722.911 493.234
1053 0 95.0506 16.8963 1606 130.097 723.426 491.003
1054 0 99.0924 16.9236 1677 135.687 723.288 490.425
1055 1 50.0346 14.3501 718 151.582 723.181 514.287
1056 0 51.151 15.1121 773 152.92 723.541 514.933
1057 0 53.053 15.3808 816 138.51 723.896 515.436
1058 0 52.0535 15.657 815 182.802 724.896 515.471
1059 0 56.1155 15.8423 889 153.836 722.655 513.753
1060 0 55.1382 15.7241 867 159.348 722.238 512.424
1061 0 58.1328 16.0495 933 158.368 722.02 513.372
1062 0 59.0974 15.8721 938 162.488 722.706 512.658
1063 0 59.0856 15.5875 921 166.37 722.035 512.187
1064 0 62.0753 15.9967 993 165.025 722.612 511.635
1065 0 62.0802 15.8988 987 168.973 722.6 510.027
1066 0 63.0695 16.0775 1014 170.652 722.35 509.23
1067 0 65.0534 15.9254 1036 172.686 722.208 508.262
1068 0 66.0632 16.4539 1087 171.819 722.058 508.222
1069 0 69.1951 16.2439 1124 172.383 722.103 506.919
1070 0 69.0991 16.6428 1150 173.601 721.824 505.213
1071 0 73.1118 16.085 1176 174.41 722.209 505.457
1072 0 75.0375 16.4051 1231 174.924 722.352 504.192
1073 0 76.1116 16.7254 1273 172.724 722.743 502.978
1074 0 79.0784 16.3888 1296 174.578 722.205 501.434
1075 1 36.1038 13.018 470 189.5 722.838 523.257
1076 0 35.0656 14.3445 503 188.485 723.348 522.932
1077 0 37.1101 14.5243 539 189.694 723.866 521.896
1078 0 40.136 14.0024 562 189.233 722.425 522.183
1079 0 39.124 14.6713 574 189.93 722.655 521.84
1080 0 43.1622 14.6424 632 187.622 722.272 520.79
1081 0 44.1606 14.8096 654 188.161 723.04 520.465
1082 0 44.0863 15.1975 670 189.603 722.602 519.467
1083 0 46.1559 15.9459 736 184.817 722.508 519.455
1084 0 46.2354 15.5509 719 189.143 722.259 519.996
1085 0 48.3172 15.8743 767 189.224 723.153 519.292
1086 0 47.299 15.7086 743 194.809 723.18 517.943
1087 0 48.2866 16.3192 788 193.067 723.364 518.194
1088 0 51.3202 15.9976 821 192.722 722.547 518.002
1089 0 54.9176 15.7327 864 207.177 722.216 517.554
1090 0 56.0111 16.1754 906 205.087 721.524 517.523
1091 0 58.0095 15.9802 927 206.985 721.504 515.864
1092 0 58.0073 15.998 928 208.348 722.392 516.391
1093 0 59.7552 16.5843 991 205.63 722.722 514.896
1094 0 58.7772 16.52 971 207.95 722.874 514.687
1095 0 62.7713 16.4406 1032 204.999 723.011 513.913
1096 0 62.9078 15.8963 1000 210.205 721.937 513.672
1097 0 66.7082 16.3098 1088 203.915 722.348 512.531
1098 0 67.808 16.6205 1127 201.582 721.846 512.052
1099 0 70.9227 17.2159 1221 194.25 723.351 512.269
1100 0 72.7072 16.1607 1175 198.674 723.21 509.806
1101 0 73.5252 16.389 1205 195.558 722.273 508.107
1102 0 77.6918 16.012 1244 194.482 723.222 506.236
1103 0 79.5315 16.396 1304 191.734 722.236 504.405
1104 1 35.405 13.8681 491 202.381 722.845 525.495
1105 0 38.365 13.8929 533 196.538 722.576 526.077
1106 0 40.2641 14.3056 576 190.816 722.443 525.052
1107 0 39.2175 14.8913 584 192.572 723.067 524.406
1108 0 42.2306 14.6576 619 188.987 722.292 524.267
1109 0 42.1925 15.0027 633 189.253 722.738 523.908
1110 0 43.2028 15.3462 663 187.326 721.851 523.876
1111 0 42.3511 15.5132 657 191.572 722.212 522.479
1112 0 44.2086 15.2233 673 191.593 722.052 522.04
1113 0 45.2028 15.9282 720 187.562 722.099 521.761
1114 0 45.2028 16.0167 724 184.191 722.091 521.72
1115 0 49.2399 15.13 745 189.409 722.937 520.324
1116 0 49.2095 16.257 800 186.799 722.159 519.549
1117 0 51.1848 16.2158 830 185.181 722.387 519.983
1118 0 53.1102 16.0798 854 185.266 721.564 518.358
1119 0 53.0825 16.804 892 182.817 721.262 517.195
1120 0 55.1286 15.745 868 187.612 722.002 516.789
1121 0 57.0774 16.1885 924 182.944 722.291 516.274
1122 0 58.0124 16.2724 944 180.359 722.201 516.142
1123 0 58.0857 16.0453 932 184.235 721.614 515.063
1124 0 61.0441 16.9386 1034 178.381 722.502 514.578
1125 0 61.0208 17.0761 1042 178.606 721.375 514.363
1126 0 62.032 17.2169 1068 177.304 722.263 513.567
1127 0 65.0095 17.459 1135 174.06 721.516 513.189
1128 0 67.0207 17.0694 1144 176.42 721.746 511.004
1129 0 68.0255 16.8466 1146 177.695 721.383 510.255
1130 0 69.0253 17.1966 1187 176.233 721.263 508.96
1131 0 71.0473 17.0872 1214 177.876 720.788 508.622
1132 0 76.0554 16.6458 1266 176.61 721.732 508.167
1133 0 76.0566 17.1188 1302 175.79 721.069 506.804
1134 0 77.0306 17.3567 1337 176.416 721.82 505.326
1135 0 80.0497 17.7765 1423 173.925 721.474 504.808
1136 0 80.0214 17.5078 1401 178.48 722.188 503.674
1137 0 83.0569 17.8914 1486 176.712 721.416 501.997
1138 0 87.0494 17.5762 1530 175.469 722.06 501.64
1139 0 88.0388 17.1288 1508 181.479 721.086 500.109
1140 0 91.0504 17.6715 1609 178.428 721.411 499.714
1141 0 95.0312 17.8573 1697 176.288 721.114 498.122
1142 0 97.0479 17.5274 1701 178.714 720.15 495.495
1143 0 99.1435 17.4192 1727 179.683 720.845 494.215
1144 0 105.14 16.7871 1765 180.504 720.646 492.321
1145 0 108.079 16.9136 1828 180.008 720.978 490.555
1146 1 48.0246 13.618 654 190.265 721.454 520.454
1147 0 50.0148 13.8759 694 185.288 721.245 520.533
1148 0 52.0791 13.8443 721 187.899 721.248 518.426
1149 0 52.0848 13.8236 720 168.728 721.171 518.162
1150 0 52.0332 13.9526 726 170.208 720.776 518.118
1151 0 56.1086 14.1689 795 166.898 720.411 516.357
1152 0 55.0588 13.7489 757 169.342 720.14 516.28
1153 0 58.1274 13.6597 794 169.611 719.934 514.968
1154 0 59.019 13.9108 821 167.944 720.08 514.549
1155 0 61.0519 14.1846 866 167.572 719.602 513.564
1156 0 63.0389 13.6265 859 169.183 720.751 511.931
1157 0 65.0861 13.9354 907 167.129 720.468 511.043
1158 0 66.0882 14.2385 941 166.891 720.677 509.927
1159 0 67.0603 13.7786 924 168.444 720.943 510.557
1160 0 70.0725 14.328 1004 167.729 720.833 508.428
1161 0 69.0708 13.6092 940 170.511 721.136 508.12
1162 0 73.0869 14.216 1039 167.712 720.694 506.017
1163 0 76.0643 14.1591 1077 168.598 720.522 504.396
1164 0 76.115 14.2942 1088 169.032 720.35 503.88
1165 0 79.0561 14.3442 1134 168.921 720.788 501.303
1166 0 81.0469 14.3991 1167 169.596 720.35 499.979
1167 0 86.1262 13.9795 1204 168.227 720.841 500.422
1168 0 87.0846 13.8141 1203 170.88 720.516 498.712
1169 0 90.0811 14.0762 1268 169.922 720.812 497.591
1170 0 92.1815 13.8965 1281 170.732 721.13 495.936
1171 0 95.0878 13.924 1324 169.31 721.594 495.525
1172 0 97.1401 13.671 1328 171.409 721.161 493.603
1173 0 101.131 13.3886 1354 170.999 721.428 493.146
1174 0 104.215 13.7312 1431 169.614 721.488 490.189
1175 0 109.192 14.0487 1534 168.557 721.082 488.423
1176 0 111.301 13.5039 1503 170.546 720.588 486.637
1177 0 114.248 13.3569 1526 171.553 719.868 484.095
1178 0 118.2 13.7817 1629 169.513 720.125 483.209
1179 1 78.1209 13.0695 1021 165.867 721.211 502.642
1180 0 81.2036 12.6226 1025 166.154 720.403 501.23
1181 0 83.2031 13.3769 1113 162.445 721.867 498.79
1182 0 83.1687 13.142 1093 164.772 721.502 497.049
1183 0 87.1339 13.1981 1150 162.124 720.616 495.328
1184 0 90.151 13.0337 1175 161.478 721.317 492.777
1185 0 89.1438 12.306 1097 165.264 720.204 492.806
1186 0 96.0978 13.6424 1311 160.227 720.404 489.592
1187 0 98.1586 13.7431 1349 160.229 719.497 487.721
1188 0 101.175 13.8671 1403 161.196 720.2 484.773
1189 0 103.228 13.2231 1365 164.057 719.711 484.374
1190 0 106.134 13.8504 1470 162.714 720.652 483.957
1191 0 112.126 14.0645 1577 161.836 721.069 481.401
1192 0 114.159 14.217 1623 162.675 720.296 479.137
1193 0 116.207 13.9751 1624 164.785 720.708 478.449
1194 0 120.196 13.9439 1676 165.494 720.247 476.674
1195 0 125.179 13.7564 1722 165.026 719.945 476.883
1196 0 128.098 13.4819 1727 166.228 720.002 473.386
1197 0 132.14 13.7732 1820 165.805 720.655 470.06
1198 0 134.206 13.8444 1858 168.139 719.916 468.565
1199 0 138.183 13.7499 1900 167.636 719.865 467.086
1200 0 143.169 13.6203 1950 168.045 720.7 465.152
1201 0 149.234 13.1271 1959 169.231 720.831 463.606
1202 0 151.252 13.3089 2013 167.918 720.867 461.199
1203 0 155.252 13.5328 2101 168.532 719.712 458.916
1204 0 160.332 13.5406 2171 165.891 720.284 456.288
1205 1 57.2029 8.72334 499 126.794 719.964 516.018
1206 0 59.2096 9.88016 585 118.609 719.829 516.949
1207 0 59.227 9.89413 586 116.2 719.449 515.625
1208 0 61.214 10.0467 615 115.38 719.115 513.829
1209 0 61.2811 9.98676 612 115.864 719.371 513.698
1210 0 62.2411 10.0898 628 118.231 718.989 513.9
1211 0 64.1146 10.7464 689 115.408 719.756 512.144
1212 0 67.2443 10.4098 700 115.913 720.087 510.586
1213 0 75.3215 9.32005 702 130.208 721.229 507.615
1214 0 77.3507 9.29532 719 132.054 720.426 505.306
1215 0 79.2184 8.62173 683 135.533 720.04 505.605
1216 0 83.2785 9.29412 774 132.678 719.544 505.775
1217 0 85.2799 9.36915 799 135.424 719.976 501.282
1218 0 87.2505 8.98562 784 134.948 720.163 501.224
1219 0 91.2857 10.0454 917 133.313 720.136 498.236
1220 0 91.3293 9.24128 844 135.319 720.924 497.677
1221 0 96.3779 9.73252 938 130.237 721.546 496.966
1222 0 97.3039 8.59164 836 132.598 720.218 495.483
1223 0 101.256 8.62169 873 135.406 720.262 493.026
1224 0 105.282 9.79274 1031 133.138 720.712 490.575
1225 0 108.292 9.86218 1068 135.562 720.329 488.567
1226 0 108.215 9.0376 978 138.674 720.954 487.706
1227 0 115.332 9.7198 1121 135.786 720.164 484.996
1228 0 117.162 9.23508 1082 135.811 720.765 485.047
1229 0 121.223 8.81845 1069 137.215 720.624 482.881
1230 0 120.174 9.10346 1094 137.817 721.45 480.078
1231 0 124.139 9.36047 1162 136.552 720.854 483.775
1232 0 129.202 10.0385 1297 134.581 721.282 478.689
1233 0 129.144 9.06742 1171 141.697 721.672 477.773
1234 0 130.276 9.67942 1261 139.389 721.221 476.786
1235 0 131.238 9.26562 1216 142.794 720.305 473.91
1236 0 134.213 7.62965 1024 145.827 720.698 473.13
1237 0 140.201 7.38937 1036 145.417 721.124 468.963
1238 0 141.156 7.36065 1039 147.846 720.333 467.486
1239 1 67.0617 8.87243 595 111.835 720.852 509.903
1240 0 75.1323 8.3719 629 134.881 721.518 504.526
1241 1 146.212 9.05532 1324 152.213 722.016 474.14
1242 0 140.235 9.51973 1335 155.612 720.991 473.463
1243 0 143.178 9.86884 1413 157.377 722.093 471.796
1244 0 144.204 10.499 1514 156.8 721.096 470.118
1245 0 144.088 9.43865 1360 161.238 721.738 469.522
1246 0 147.224 9.91688 1460 161.315 720.379 468.437
1247 0 150.231 9.22577 1386 164.881 720.596 465.845
1248 0 150.139 10.084 1514 167.794 720.203 466.53
1249 0 152.229 10.1032 1538 166.623 721.066 464.46
1250 0 154.234 10.5618 1629 167.464 720.955 465.293
1251 1 37.0842 9.16831 340 121.803 720.518 525.118
1252 0 39.1991 10.0512 394 120.079 721.074 524.987
1253 0 40.2075 10.1971 410 120.99 721.176 524.12
1254 0 39.154 9.90959 388 124.923 721.26 525.879
1255 0 41.1747 10.3462 426 124.685 721.444 526.005
1256 0 41.1982 10.1461 418 130.813 719.778 523.268
1257 1 161.428 11.6336 1878 178.671 721.461 468.003
1258 0 161.593 12.2777 1984 183.019 721.282 469.953
1259 0 164.499 12.304 2024 185.636 720.52 468.42
1260 0 165.511 12.1986 2019 190.143 721.319 468.101
1261 0 166.623 12.5013 2083 191.089 720.883 468.258
1262 0 168.703 12.5546 2118 193.986 721.427 465.973
1263 0 352.64 20.4883 7225 181.863 720.739 358.894
1264 0 358.742 19.0973 6851 189.715 720.799 359.026
1265 0 368.22 19.6513 7236 187.253 720.048 354.269
1266 0 374.267 19.1067 7151 191.116 719.878 350.009
1267 0 380.658 18.9461 7212 192.944 719.588 345.031
1268 0 389.091 20.6584 8038 183.872 719.742 343.433
1269 1 129.627 13.6392 1768 197.35 719.769 483.784
1270 0 133.714 14.1944 1898 194.155 720.571 482.694
1271 0 134.542 14.1368 1902 198.716 720.425 480.753
1272 0 138.627 14.8672 2061 195.481 720.328 480.021
1273 0 140.534 14.6584 2060 197.564 721.548 480.052
1274 0 141.598 14.9155 2112 199.708 721.02 477.546
1275 0 142.852 14.7915 2113 201.767 721.03 477.099
1276 0 146.685 15.0527 2208 201.092 720.613 475.228
1277 0 151.652 15.2191 2308 197.493 720.769 473.73
1278 0 151.618 13.7913 2091 205.613 719.937 473.189
1279 0 152.624 12.4358 1898 209.476 720.651 476.046
1280 0 150.699 12.6676 1909 207.288 720.584 475.724
1281 0 150.577 12.5119 1884 208.133 720.907 475.883
1282 1 39.1015 12.3269 482 137.714 720.817 525.88
1283 0 39.0217 12.0189 469 142.1 720.87 525.339
1284 0 39.0217 11.9933 468 152.979 720.882 525.31
1285 0 40.019 12.619 505 140.525 720.909 524.23
1286 0 42.0071 13.3311 560 134.141 721.427 523.916
1287 0 42.0672 12.6464 532 138.609 720.816 523.477
1288 0 41.0333 12.9407 531 140.175 721.478 524.034
1289 0 44.0101 13.0879 576 137.977 721.359 523.46
1290 0 45.0373 13.1225 591 137.022 721.091 523.386
1291 0 46.0372 12.7723 588 139.844 721.19 522.201
1292 0 46.0461 13.0087 599 139.337 720.157 521.851
1293 0 46.0195 13.277 611 140.547 721.059 521.075
1294 0 47.0088 13.2316 622 141.418 720.117 520.871
1295 0 49.05 14.21 697 136.641 720.465 519.852
1296 0 49.038 13.255 650 142.289 720.085 519.589
1297 0 49.0286 13.2983 652 143.882 720.845 518.321
1298 0 50.047 13.5073 676 142.825 720.108 518.99
1299 0 50.0437 13.4882 675 141.071 719.102 518.963
1300 0 52.1487 13.2698 692 144.12 720.406 518.392
1301 0 53.0292 13.3511 708 143.804 719.941 517.682
1302 0 56.0835 14.4784 812 136.042 720.261 517.289
1303 0 58.1017 14.0099 814 136.86 719.482 517.093
1304 0 58.0876 13.7379 798 138.204 719.667 516.066
1305 0 58.1028 14.0269 815 138.312 719.474 516.601
1306 0 62.0889 13.6256 846 137.3 720.2 515.545
1307 0 61.1544 14.0301 858 137.157 720.233 515.403
1308 0 62.1374 14.8059 920 135.578 720.141 514.477
1309 0 63.0827 14.3779 907 137.869 720.676 514.508
1310 0 64.0818 14.8248 950 135.057 720.595 513.482
1311 0 67.1605 15.113 1015 131.93 720.68 512.911
1312 0 68.0766 14.7922 1007 134.014 719.93 512.568
1313 0 69.0935 14.1113 975 137.382 720.066 511.543
1314 0 71.1215 14.8619 1057 133.26 720.042 511.591
1315 0 70.1327 15.0001 1052 133.767 719.764 510.065
1316 0 73.1372 15.177 1110 132.161 719.811 510.359
1317 0 77.1601 15.0337 1160 131.417 720.588 509.091
1318 0 77.1181 14.6917 1133 134.108 719.689 507.861
1319 0 80.1902 15.0767 1209 129.361 720.074 506.079
1320 0 82.2061 15.2057 1250 128.05 719.944 505.564
1321 0 83.1849 15.3994 1281 126.237 721.002 504.982
1322 0 86.159 15.5642 1341 126.352 720.244 503.975
1323 0 88.224 15.5626 1373 126.961 720.099 501.891
1324 0 90.1619 15.7384 1419 124.712 721.406 502.276
1325 0 91.195 15.4504 1409 126.769 721.676 501.27
1326 0 93.1705 15.4877 1443 126.237 720.546 500.553
1327 0 95.1641 15.2158 1448 125.851 722.211 500.138
1328 0 99.2436 15.6081 1549 122.613 720.775 499.326
1329 0 101.182 15.0422 1522 125.842 719.759 497.873
1330 0 103.22 16.0241 1654 122.616 720.133 496.313
1331 1 46.0198 13.8853 639 137.448 720.07 524.998
1332 0 48.0068 13.5189 649 137.958 720.479 523.795
1333 0 49.0382 14.3562 704 137.884 720.865 522.243
1334 0 51.02 14.9549 763 132.852 721.414 522.948
1335 0 53.0123 15.1663 804 135.136 720.511 521.8
1336 0 55.0976 15.7538 868 133.161 721.426 519.673
1337 0 55.0267 16.2648 895 132.965 720.977 519.679
1338 0 57.0664 16.1391 921 133.431 721.198 517.646
1339 0 56.0538 16.3058 914 138.148 720.159 517.246
1340 0 56.0533 16.2881 913 170.646 719.15 517.336
1341 0 61.0791 16.8634 1030 133.895 720.74 516.027
1342 0 64.0163 16.5739 1061 135.32 720.287 515.346
1343 0 65.0551 17.0778 1111 133.122 720.078 515.419
1344 0 68.0767 17.3481 1181 132.025 720.7 514.478
1345 0 70.0356 18.4763 1294 127.139 721.193 512.911
1346 0 72.0867 16.9934 1225 132.605 720.571 511.615
1347 0 74.0409 17.936 1328 129.871 721.486 510.88
1348 0 76.044 17.9501 1365 129.559 721.248 508.368
1349 0 80.0566 19.6986 1577 121.917 721.481 508.76
1350 0 82.0717 18.7032 1535 127.775 720.375 507.964
1351 0 83.0545 17.5307 1456 133.874 720.699 505.637
1352 0 83.0198 18.2848 1518 133.605 720.381 506.242
1353 0 87.0822 17.4318 1518 136.375 719.862 504.263
1354 0 89.0369 19.2055 1710 129.047 720.102 503.971
1355 0 91.0835 17.7969 1621 135.172 720.045 502.334
1356 0 92.0387 18.0685 1663 138.214 719.845 503.346
1357 0 94.0684 17.0621 1605 144.457 719.282 501.073
1358 0 97.0926 17.1177 1662 144.245 720.659 500.584
1359 0 104.064 18.383 1913 136.302 720.32 497.628
1360 1 48.0302 15.0114 721 170.121 719.967 523.754
1361 0 50.0327 16.2094 811 166.552 719.366 522.863
1362 0 51.0434 16.0844 821 167.284 720.248 522.81
1363 0 52.026 16.0497 835 168.056 719.841 520.938
1364 0 54.0358 16.1004 870 166.853 719.905 519.991
1365 0 56.0961 17.7018 993 159.484 720.78 520.421
1366 0 56.0221 16.8862 946 166.207 720.008 520.427
1367 0 60.0573 17.4 1045 161.298 720.18 519.622
1368 0 62.0378 16.9735 1053 163.385 719.573 518.789
1369 0 63.0759 16.5673 1045 167.071 719.435 517.208
1370 0 66.1084 17.1839 1136 163.537 719.392 516.597
1371 0 65.0884 17.2535 1123 167.476 720.129 516.352
1372 0 70.0208 17.2806 1210 165.134 719.732 515.149
1373 0 70.08 17.9937 1261 164.419 720.243 513.946
1374 0 73.0171 18.1601 1326 164.419 720.028 513.723
1375 0 76.0402 18.2666 1389 162.13 720.181 512.478
1376 0 78.0146 17.6634 1378 164.627 719.601 510.32
1377 0 81.1477 16.9691 1377 153.967 719.521 510.139
1378 0 83.1141 17.0368 1416 161.386 720.412 509.33
1379 0 85.0767 18.3599 1562 149.247 720.46 508.168
1380 1 42.0798 14.7577 621 169.71 719.852 528.998
1381 0 42.0774 15.115 636 175.692 719.832 528.722
1382 0 42.0952 15.4174 649 176.723 719.116 528.68
1383 0 45.0291 15.1458 682 174.364 718.842 528.296
1384 0 45.0088 16.3523 736 169.833 718.872 527.039
1385 0 46.0272 16.1426 743 165.023 719.295 526.657
1386 0 48.0217 16.4301 789 162.956 719.583 526.793
1387 0 50.0139 15.9356 797 159.942 719.212 526.601
1388 0 51.0191 15.8176 807 158.936 719.535 526.141
1389 0 52.0165 16.3794 852 154.896 718.299 525.183
1390 0 54.0398 15.3591 830 157.557 718.306 524.543
1391 0 54.0283 16.5469 894 155.895 718.415 524.218
1392 0 55.0275 16.7007 919 155.986 719.619 523.314
1393 0 58.0376 16.4032 952 156.704 718.713 522.651
1394 0 59.0274 16.0603 948 159.384 719.351 522.226
1395 0 59.0687 16.0152 946 164.207 719.463 520.815
1396 0 61.0632 16.3929 1001 163.673 719.535 520.251
1397 0 62.0398 16.57 1028 166.916 719.699 519.303
1398 0 64.0729 16.4032 1051 169.401 719.321 518.403
1399 0 65.054 16.1251 1049 173.276 719.526 516.568
1400 0 68.055 16.2075 1103 174.234 718.364 516.234
1401 0 71.0592 16.5214 1174 173.649 719.011 515.439
1402 1 32.0046 14.0292 449 183.227 718.911 532.428
1403 0 33.0193 14.3552 474 184.793 718.58 532.057
1404 0 34.0093 14.8783 506 183.836 718.704 532.304
1405 0 36.0115 14.3288 516 187.333 718.971 531.184
1406 0 35.0048 15.3693 538 186.939 719.857 531.506
1407 0 37.0195 15.2622 565 188.653 719.119 530.596
1408 0 36.0674 15.3324 553 194.745 719.326 529.79
1409 0 39.0549 15.2862 597 191.466 719.111 530.045
1410 0 41.0769 15.2154 625 193.488 718.966 529.278
1411 0 41.2733 15.0945 623 197.75 718.856 528.205
1412 0 43.2007 15.5784 673 192.129 719.41 527.435
1413 0 43.194 15.5808 673 195.841 718.866 527.345
1414 0 42.3284 15.7341 666 199.889 718.218 527.048
1415 0 45.0772 15.2849 689 196.99 719.141 526.541
1416 0 44.3588 15.8029 701 199.987 718.101 526.117
1417 0 47.3399 15.4204 730 198.144 718.889 525.723
1418 0 49.552 15.6401 775 194.79 718.108 525.623
1419 0 50.2518 15.8203 795 194.874 718.561 525.005
1420 0 49.2982 15.8221 780 198.168 719.09 525.128
1421 0 51.2895 16.0657 824 195.602 719.467 524.635
1422 0 52.368 15.983 837 197.732 719.354 522.607
1423 0 52.4144 15.6064 818 201.999 719.053 521.65
1424 0 55.3419 15.8289 876 198.018 719.844 521.755
1425 0 55.4116 16.1158 893 200.688 718.803 520.929
1426 0 57.3671 15.3572 881 202.362 719.191 520.068
1427 0 57.2338 16.0569 919 198.696 719.046 520.259
1428 0 61.3361 15.7819 968 194.854 720.04 517.942
1429 0 61.2515 15.7384 964 196.933 719.553 518.101
1430 0 63.215 15.7874 998 195.774 720.035 517.61
1431 0 64.1133 15.8469 1016 193.642 720.013 517.025
1432 0 66.0602 15.9552 1054 189.569 720.209 516.288
1433 0 67.2031 15.7582 1059 192.787 719.997 515.12
1434 1 38.0126 14.0217 533 190.784 719.568 529.518
1435 0 37.0109 14.3201 530 194.242 719.045 528.623
1436 0 38.0165 14.4937 551 193.176 719.276 528.24
1437 0 40.012 14.5456 582 193.438 719.464 527.857
1438 0 40.0586 14.7284 590 195.297 719.215 528.29
1439 0 41.1018 14.7682 607 198.857 719.509 526.68
1440 0 41.1107 14.838 610 200.702 719.803 526.225
1441 0 44.2403 14.8959 659 198.927 719.602 525.138
1442 0 43.2922 15.5917 675 199.957 720.381 524.209
1443 0 44.4778 15.5583 692 202.272 720.301 523.708
1444 0 48.7109 14.7606 719 201.939 719.515 523.256
1445 0 47.6495 15.1523 722 204.909 719.402 522.946
1446 0 48.7043 15.4196 751 206.831 719.204 522.595
1447 0 48.7587 15.1768 740 209.818 719.889 522.13
1448 0 48.749 15.3029 746 211.811 719.389 520.95
1449 0 50.7343 15.4136 782 211.15 719.771 520.797
1450 0 51.8704 15.3267 795 212.702 720.345 520.777
1451 0 52.8192 15.4111 814 211.866 719.586 520.28
1452 0 52.6636 16.3301 860 208.521 721.052 519.634
1453 0 55.7291 15.5574 867 210.448 720.587 519.293
1454 0 56.831 15.4141 876 212.105 720.708 518.968
1455 0 55.7063 15.8689 884 213.464 720.398 518.434
1456 0 55.7356 15.8965 886 216.319 720.474 517.074
1457 0 58.8345 16.028 943 212.173 719.941 516.834
1458 0 59.823 15.7799 944 214.329 720.042 516.701
1459 0 62.0442 16.0047 993 212.528 719.578 516.017
1460 0 60.7997 16.2665 989 214.753 720.696 515.459
1461 0 62.7348 16.0517 1007 215.46 720.24 513.913
1462 0 62.7199 16.3903 1028 214.786 720.546 513.465
1463 0 64.8562 16.2205 1052 214.982 720.41 512.909
1464 0 67.8471 16.0361 1088 212.646 720.495 513.321
1465 0 67.0978 15.932 1069 217.504 721.347 511.732
1466 0 69.9994 16.2001 1134 213.785 719.755 510.795
1467 0 72.0349 16.1727 1165 213.803 719.882 510.373
1468 0 72.1972 16.0117 1156 216.13 719.926 509.912
1469 0 73.3829 15.8075 1160 218.326 719.408 509.207
1470 0 75.2593 16.3568 1231 214.91 719.473 508.948
1471 0 77.3972 16.0213 1240 215.428 718.79 508.925
1472 0 77.5282 15.7362 1220 219.036 720.233 507.318
1473 0 79.5494 16.4426 1308 215.27 719.512 507.047
1474 0 80.7886 16.2028 1309 216.547 720.545 505.761
1475 0 82.6965 15.9136 1316 217.163 719.566 505.545
1476 0 83.8524 16.3859 1374 216.066 720.031 504.405
1477 0 84.8157 16.0584 1362 220.032 719.927 502.816
1478 0 85.89 16.6958 1434 216.988 719.833 502.334
1479 0 87.8238 16.3965 1440 218.639 719.749 501.14
1480 0 87.8456 16.4493 1445 219.846 719.975 500.455
1481 0 89.0407 16.3184 1453 221.123 719.31 499.181
1482 0 90.8742 16.5724 1506 219.732 719.131 499.471
1483 0 91.8607 16.4488 1511 221.383 719.185 498.734
1484 0 94.7495 16.3273 1547 221.306 719.75 496.593
1485 0 97.9314 16.0725 1574 221.692 718.814 496.4
1486 0 98.9483 16.1397 1597 223.212 721.191 493.924
1487 0 100.913 16.529 1668 220.479 720.59 494.314
1488 0 101.974 16.4453 1677 221.148 720.591 494.501
1489 0 103.112 16.3414 1685 222.198 721.32 493.547
1490 0 107.05 16.3008 1745 219.774 721.142 492.607
1491 0 107.955 16.7385 1807 217.978 721.235 490.813
1492 0 110.122 16.8812 1859 217.108 720.739 489.846
1493 0 109.718 15.95 1750 224.075 721.295 488
1494 0 112.983 16.3476 1847 220.449 719.951 487.788
1495 0 116.068 16.2835 1890 219.652 720.117 486.315
1496 0 118.083 16.4884 1947 217.196 720.952 487.174
1497 0 121.06 16.4712 1994 216.414 720.203 486.223
1498 0 121.924 16.2643 1983 216.725 719.594 485.06
1499 0 125.022 15.9972 2000 216.868 719.598 482.254
1500 0 128.19 16.5067 2116 211.612 719.942 480.312
1501 0 132.165 16.4642 2176 208.83 720.644 478.852
1502 0 132.959 16.0651 2136 210.996 720.942 475.788
1503 0 135.927 15.9204 2164 211.065 719.995 474.549
1504 0 138.875 16.1224 2239 207.371 720.892 473.532
1505 1 35.0303 12.2751 430 178.1 719.977 524.26
1506 0 37.0412 12.3106 456 173.8 720.099 523.825
1507 0 37.0802 11.8662 440 177.205 719.677 523.43
1508 0 39.0562 12.3156 481 172.509 720.135 522.869
1509 0 40.0971 11.8961 477 174.407 720.436 523.539
1510 0 42.0523 12.4369 523 168.21 720.392 523.029
1511 0 43.0813 12.3023 530 165.57 719.866 522.057
1512 0 44.0276 12.8783 567 160.882 719.906 520.192
1513 0 44.0085 12.7475 561 160.627 719.706 520.442
1514 0 46.0179 12.5169 576 159.009 720.144 519.377
1515 0 48.0624 11.6099 558 160.935 720.536 519.204
1516 0 48.0219 12.3277 592 158.182 720.191 518.525
1517 0 49.0075 12.5287 614 155.805 720.78 518.601
1518 0 50.0426 12.2695 614 158.682 720.692 517.423
1519 0 50.0086 11.698 585 160.215 720.537 517.559
1520 0 52.0246 12.1865 634 158.024 720.442 516.147
1521 0 55.0193 11.3597 625 158.571 720.214 515.963
1522 0 56.0466 11.9722 671 156.943 719.675 514.562
1523 1 29.0041 10.5502 306 151.415 720.68 527.582
1524 0 30.0032 10.7322 322 150.27 719.665 527.398
1525 0 30.0135 10.5952 318 149.871 720.343 526.673
1526 0 31.0073 11.1264 345 146.812 720.797 526.997
1527 0 32.0047 11.3421 363 144.766 720.457 526.559
1528 0 33.018 11.0243 364 144.516 721.049 526.033
1529 0 34.0139 11.3189 385 141.86 721.065 526.87
1530 0 34.0181 11.1705 380 141.674 721.397 526.876
1531 0 34.0181 11.0236 375 138.024 722.328 526.941
1532 0 35.0119 11.0534 387 136.233 721.682 525.509
1533 0 37.0032 11.3233 419 132.535 720.871 525.971
1534 0 39.0094 11.4844 448 130.342 720.627 524.317
1535 0 39.0094 11.0999 433 133.411 719.113 523.48
1536 0 39.0046 11.5628 451 129.86 720.007 523.561
1537 0 43.0473 11.6616 502 125.974 719.653 522.751
1538 0 41.007 11.5834 475 128.434 720.299 521.678
1539 0 42.0073 11.26 473 128.575 720.345 522.328
1540 0 43.019 10.8557 467 128.861 720.623 521.111
1541 0 44.0307 10.8561 478 126.508 720.87 521.023
1542 0 44.0307 10.8788 479 122.395 721.864 520.823
1543 0 46.0168 10.8656 500 125.176 721.296 520.436
1544 0 48.0105 10.831 520 123.975 720.842 519.429
1545 0 49.0473 10.8263 531 123.476 720.872 517.004
1546 0 51.0113 10.0566 513 123.111 720.281 518.474
1547 0 52.0081 10.7291 558 122.5 720.581 518.989
1548 0 51.0107 9.17455 468 128.382 720.075 518.412
1549 0 54.0252 9.86577 533 126.705 720.298 514.351
1550 0 57.0279 9.85483 562 124.509 719.843 513.182
1551 0 56.0129 10.7654 603 122.995 720.368 512.998
1552 0 61.0339 10.6171 648 121.557 720.403 511.824
1553 0 62.0515 10.2979 639 122.202 720.757 511.801
1554 0 63.0165 9.87044 622 122.854 720.765 511.979
1555 1 32.0284 10.0536 322 121.54 720.391 525.41
1556 0 34.0082 9.64474 328 122.204 721.183 525.265
1557 0 36.0625 10.1768 367 120.488 721.346 524.112
1558 0 35.0732 10.3213 362 132.635 721.403 524.945
1559 0 35.0601 9.95433 349 136.441 721.418 523.711
1560 0 30.0069 9.93106 298 123.815 721.55 527.369
1561 0 29.0513 8.70873 253 128.723 720.356 528.49
1562 0 31.017 9.22074 286 127.325 720.951 527.266
1563 0 32.0424 9.0193 289 129.045 720.045 526.796
1564 0 30.0203 9.02723 271 130.605 720.424 527.048
1565 0 31.0244 9.60533 298 127.534 720.688 527.826
1566 0 32.0068 10.0291 321 127.863 720.601 527.433
1567 0 31.0411 9.47132 294 131.861 721.439 528.208
1568 0 32.0283 8.71105 279 133.545 721.115 526.968
1569 0 32.0063 9.37316 300 130.013 721.157 528.07
1570 0 35.0248 9.62175 337 130.089 720.555 525.896
1571 0 34.0089 9.76215 332 127.94 720.361 526.964
1572 0 34.0052 9.41032 320 130.775 720.172 526.681
1573 0 33.0384 9.1106 301 130.635 720.439 527.654
1574 0 34.0021 9.4112 320 130.144 719.931 526.984
1575 0 34.0278 10.462 356 127.666 720.545 526.486
1576 0 36.0275 10.3532 373 127.517 720.879 525.727
1577 0 35.0326 10.0478 352 127.491 720.753 526.551
1578 1 71.0513 11.1046 789 123.38 720.915 507.632
1579 0 68.1035 10.7924 735 122.789 720.638 509.992
1580 0 71.0846 10.6774 759 118.49 721.166 509.867
1581 0 69.1188 9.62112 665 120.05 720.38 510.448
1582 0 67.105 10.7295 720 115.181 720.512 511.46
1583 0 62.1074 11.464 712 102.941 719.736 513.715
1584 0 59.1051 10.3544 612 106.915 719.721 517.881
1585 0 58.0734 10.9861 638 102.393 720.321 517.002
1586 0 59.1097 11.2841 667 102.867 720.568 519.471
1587 0 58.0878 11.6548 677 102.306 720.473 518.366
1588 0 57.0399 12.2721 700 101.857 720.081 518.563
1589 0 58.0694 10.5047 610 108.566 720.851 518.818
1590 0 60.0475 12.5401 753 99.1049 720.644 517.203
1591 0 59.0376 12.2634 724 101.769 720.403 518.504
1592 0 50.0197 14.2744 714 101.433 719.685 518.609
1593 0 59.0756 12.4078 733 100.885 719.742 517.424
1594 0 59.0598 12.6651 748 101.183 719.874 517.892
1595 0 60.0873 13.5636 815 95.984 720.068 515.942
1596 0 60.0389 12.5585 754 101.346 719.674 517.103
1597 0 58.0624 12.5038 726 103.383 719.621 517.187
1598 0 61.0857 13.1127 801 98.4694 719.923 516.955
1599 0 61.0912 13.177 805 98.6981 720.103 517.171
