time division length width area intensity CMx CMy
0 0 53.0315 13.3505 708 99.226 1105.19 502.655
1 0 54.0565 14.2998 773 98.3286 1105.82 500.582
2 0 56.0192 14.3879 806 98.7283 1105.99 500.557
3 0 59.032 14.1787 837 98.8746 1105.47 499.752
4 0 60.0213 14.3616 862 98.4002 1105.63 498.564
5 0 60.0213 14.3282 860 155.042 1105.61 498.492
6 0 66.0287 14.9632 988 97.3836 1105.53 497.462
7 0 66.0179 14.0416 927 101.296 1105.58 497.332
8 0 68.0444 13.8733 944 101.41 1105.71 495.425
9 0 72.0412 13.8254 996 100.874 1104.65 494.484
10 0 72.0406 13.8533 998 150.902 1103.65 494.431
11 0 77.0453 14.3941 1109 100.569 1104.79 493.188
12 0 79.0807 14.4536 1143 101.155 1105.48 491.991
13 1 38.0123 11.7067 445 103.746 1105.32 511.256
14 0 42.035 12.0614 507 101.732 1105.23 511.355
15 0 40.0175 12.1197 485 104.332 1105.61 510.054
16 0 43.0402 13.1505 566 100.028 1105.23 509.668
17 0 44.0155 12.6092 555 97.4 1104.76 509.921
18 0 45.0282 12.7476 574 97.101 1104.92 509.199
19 0 45.041 12.0779 544 97.9816 1104.1 509.561
20 0 45.0214 11.75 529 99.7675 1103.9 509.172
21 0 47.0319 12.6935 597 97.7739 1104.28 508.983
22 0 50.0648 12.7834 640 96.1297 1104.7 507.334
23 0 53.114 12.2002 648 96.412 1103.98 506.853
24 0 53.0609 12.8532 682 95.7815 1104.73 506.364
25 0 56.0591 13.236 742 94.1712 1103.96 504.997
26 0 56.0836 12.8736 722 96.3532 1104.12 505.392
27 0 58.0348 12.5787 730 99.3068 1103.79 502.171
28 0 62.0405 13.0238 808 96.6894 1103.41 501.552
29 0 64.0223 12.9174 827 94.4861 1104.01 502.352
30 0 65.0523 12.9742 844 94.955 1103.16 500.48
31 0 68.0291 12.9062 878 95.0524 1103.35 499.464
32 0 71.018 13.4754 957 92.9833 1102.71 497.911
33 0 72.0725 13.6113 981 94.3456 1103.67 496.762
34 0 75.0306 13.1946 990 95.305 1102.77 495.038
35 1 43.037 11.5017 495 97.703 1103.41 510.232
36 0 43.0148 12.3911 533 93.9775 1102.83 511.353
37 0 46.0687 12.4379 573 92.2007 1102.98 510.452
38 0 45.0288 13.1472 592 85.4679 1102.32 509.495
39 0 48.0423 12.0935 581 87.4423 1103.1 509.692
40 0 49.0588 12.3729 607 87.5568 1102.29 507.875
41 0 50.0549 11.807 591 86.8393 1102.6 508.23
42 0 50.0549 11.847 593 134.25 1103.61 508.155
43 0 53.0202 11.7502 623 86.3965 1102.6 507.093
44 0 54.045 12.3416 667 86.5847 1103.37 505.412
45 0 54.0523 11.2299 607 88.8221 1103.16 504.853
46 0 57.0588 11.8299 675 87.5096 1103.74 503.95
47 0 57.0302 12.2391 698 88.288 1102.73 501.984
48 0 60.0463 12.2739 737 87.7273 1103.04 502.246
49 0 63.0454 11.9596 754 88.821 1102.73 499.541
50 0 65.1146 12.5471 817 88.1506 1103.61 498.629
51 0 69.0566 12.5984 870 87.4586 1102.7 495.766
52 0 69.0456 12.3686 854 88.7518 1102.58 495.566
53 0 73.0796 12.5343 916 88.4465 1102.47 494.881
54 0 74.0991 12.6182 935 88.5604 1102.95 493.991
55 0 78.0707 12.3862 967 88.1965 1103.57 492.674
56 0 79.0838 12.0758 955 90.2031 1104.23 490.944
57 0 84.0779 12.6074 1060 87.8028 1103.84 491.575
58 0 84.0526 12.2542 1030 98.735 1103.5 489.226
59 0 91.0367 13.6099 1239 90.4818 1102.88 485.387
60 0 93.0251 12.8782 1198 92.9908 1103.75 484.132
61 0 96.0615 13.3873 1286 93.1415 1103.88 481.371
62 0 99.0941 12.7858 1267 92.7182 1103.21 480.196
63 0 102.062 12.5022 1276 92.2484 1102.39 479.019
64 0 106.054 12.0599 1279 90.7834 1103.39 476.081
65 0 109.07 12.249 1336 88.7994 1103.54 475.618
66 0 109.07 12.3315 1345 131.253 1103.54 475.645
67 1 56.0561 11.0604 620 80.5339 1103.4 502.384
68 0 58.0301 10.8737 631 80.1648 1103.86 501.941
69 0 61.0864 11.8029 721 78.0374 1104.83 501.183
70 0 62.0272 11.366 705 79.722 1105 499.774
71 0 65.0433 11.4078 742 79.1954 1104.85 499.748
72 0 65.0518 11.3756 740 79.2135 1104.29 498.738
73 0 69.0728 11.4372 790 81.1038 1103.79 493.313
74 0 74.1433 11.6396 863 80.9838 1104.62 493.804
75 0 77.1276 12.019 927 83.63 1104.73 491.995
76 0 80.1092 12.2957 985 81.8437 1104.01 489.526
77 0 83.1388 11.9679 995 82.1367 1104.66 488.519
78 0 85.1015 11.3159 963 83.8401 1104.84 486.916
79 0 87.1661 11.8739 1035 82.2783 1105.43 484.081
80 0 88.1131 11.3377 999 81.9009 1105.09 483.908
81 0 93.1089 11.2127 1044 81.1791 1105.67 480.515
82 1 49.1101 10.4052 511 78.0391 1104.79 505.626
83 0 49.0895 11.2855 554 78.8935 1105.34 503.94
84 0 51.0833 10.8254 553 79.9439 1104.69 502.065
85 0 49.0515 11.5389 566 72.2173 1104.29 507.071
86 0 50.0394 11.1312 557 73 1104.39 504.478
87 0 52.0416 10.7798 561 73.221 1104.31 504.134
88 0 54.0086 10.7946 583 72.2076 1104.79 501.47
89 0 58.049 10.9735 637 71.2056 1105.11 502.141
90 0 58.0114 10.7565 624 72.8285 1105.01 500.173
91 0 59.0288 11.6214 686 71.6676 1104.53 499.907
92 0 62.033 10.9458 679 72.2474 1105.43 498.044
93 0 66.055 11.8992 786 70.2316 1105.11 497.565
94 0 68.0428 11.1107 756 71.1389 1104.69 496.233
95 0 70.1062 12.0104 842 71.2055 1103.77 494.335
96 0 72.1006 12.7045 916 70.6889 1103.47 493.912
97 0 77.0663 12.5217 965 71.1067 1102.71 493.768
98 0 79.0774 13.0252 1030 73.8709 1103.64 490.055
99 0 80.0281 13.1579 1053 74.7778 1103.83 487.434
100 0 82.1122 13.5546 1113 75.1015 1102.85 486.996
101 0 85.1405 12.9316 1101 76.4632 1104.36 485.381
102 0 89.1503 13.0342 1162 76.3064 1103.39 485.706
103 0 92.1383 13.2952 1225 76.6996 1104.25 481.74
104 0 94.1203 13.8015 1299 76.6336 1103.93 482.072
105 0 95.1195 13.7406 1307 77.8975 1104.6 481.782
106 0 95.1195 13.7827 1311 138.434 1105.61 481.671
107 0 101.14 13.3577 1351 80.5862 1103.53 478.708
108 0 107.131 13.0962 1403 79.7021 1102.95 474.676
109 0 109.141 13.6246 1487 80.3591 1103.46 474.346
110 0 114.102 13.821 1577 79.7888 1104.11 473.235
111 0 118.148 13.3223 1574 80.4581 1104.12 471.511
112 0 121.039 13.4998 1634 81.549 1104.23 468.968
113 0 123.126 13.4497 1656 83.5115 1104.56 467.236
114 0 127.129 13.1047 1666 84.3944 1104.11 467.16
115 0 132.172 13.2404 1750 85.3137 1103.43 465.651
116 0 135.114 13.1888 1782 87.399 1103.48 463.282
117 0 140.083 13.7133 1921 87.9068 1102.8 461.513
118 0 143.128 13.9666 1999 89.3362 1103.62 460.732
119 0 148.11 13.3616 1979 92.4138 1103.07 457.161
120 0 152.164 14.3529 2184 92.6158 1103.92 453.732
121 0 156.189 13.394 2092 96.3662 1103.72 451.679
122 0 161.09 13.8307 2228 95.4686 1103.89 451.298
123 0 166.116 13.9782 2322 95.4328 1104.01 449.494
124 0 172.151 14.0981 2427 96.4833 1104.4 445.693
125 0 177.135 14.0401 2487 98.5078 1103.92 440.928
126 0 183.142 14.5352 2662 98.3903 1103.98 440.2
127 0 188.132 14.5696 2741 99.0244 1104.19 436.779
128 0 194.185 14.2081 2759 100.802 1103.49 434.171
129 0 197.161 14.0494 2770 100.012 1103.48 430.601
130 0 204.18 14.4481 2950 97.4617 1104.02 427.012
131 1 112.065 11.5379 1293 95.2065 1104.61 475.288
132 0 116.045 12.7192 1476 92.9946 1104.73 473.904
133 0 120.155 12.2426 1471 94.8117 1103.81 472.025
134 0 124.07 12.6219 1566 98.9234 1104.27 469.994
135 0 128.088 12.5226 1604 97.548 1104.16 468.105
136 0 131.094 12.1439 1592 98.2776 1104.27 464.338
137 0 136.049 12.9438 1761 97.347 1103.79 464.283
138 0 140.082 13.2851 1861 97.6034 1103.74 460.704
139 0 142.076 12.4581 1770 100.294 1103.42 458.056
140 0 146.181 12.5598 1836 100.621 1103.42 455.535
141 0 152.174 12.7092 1934 100.506 1103.39 454.002
142 0 154.182 12.1869 1879 103.178 1103.84 451.461
143 0 161.226 12.56 2025 103.881 1102.74 447.251
144 0 165.244 12.4483 2057 106.291 1102.39 443.411
145 1 71.0414 12.0352 855 99.1532 1102.24 495.999
146 0 72.0544 11.5191 830 99.5542 1103.4 491.865
147 0 69.0797 10.6399 735 99.0313 1103.8 486.487
148 0 72.0551 10.3671 747 99.5033 1103.93 486.462
149 0 74.096 10.9183 809 97.2027 1104.21 485.535
150 0 78.0686 10.9775 857 93.8518 1103.45 492.894
151 0 81.0598 10.8685 881 94.151 1103.36 491.898
152 0 85.0247 10.9968 935 95.4299 1102.87 489.238
153 0 87.0761 11.4957 1001 96.9011 1103.12 487.879
154 0 89.0477 11.7241 1044 96.7644 1102.65 487.314
155 0 91.0379 11.8193 1076 97.3271 1102.03 484.701
156 0 95.08 11.9373 1135 96.4855 1102.61 484.967
157 0 100.023 11.9872 1199 95.5096 1102.16 482.327
158 1 53.0131 10.1673 539 94.6122 1102.78 505.51
159 0 55.0276 10.6129 584 93.5925 1103.08 504.762
160 0 56.0249 11.7805 660 91.9045 1103.56 503.092
161 0 58.0578 11.9019 691 89.0347 1102.64 503.291
162 0 60.0752 11.9184 716 95.4777 1102.3 501.994
163 0 63.0888 11.7929 744 100.082 1102.22 501.02
164 0 59.0709 10.7667 636 92.9261 1102.05 502.079
165 0 60.076 10.8196 650 94.2692 1103.66 502.569
166 0 60.0637 10.6554 640 97.1172 1103.78 501.161
167 0 62.0747 10.439 648 98.5602 1103.9 499.94
168 0 64.0422 10.8678 696 97.5474 1104.47 498.743
169 0 68.0844 11.0598 753 95.9761 1104.42 498.53
170 0 67.1276 10.6067 712 98.4101 1104.6 498.447
171 0 70.0354 10.7231 751 96.3915 1103.46 495.863
172 0 70.0392 10.3228 723 97.7137 1102.66 494.733
173 0 72.0289 10.3847 748 97.385 1102.2 493.981
174 0 74.1083 11.1054 823 96.0207 1102.28 491.666
175 0 76.0579 10.8338 824 96.0303 1102.56 491.059
176 0 79.0484 11.0059 870 94.7414 1103.32 491.401
177 0 80.0444 11.0564 885 95.591 1103.32 488.918
178 0 83.0534 11.1374 925 94.5146 1103.3 487.941
179 0 86.0352 10.949 942 95.465 1103.16 486.572
180 0 85.0468 11.1351 947 96.6061 1101.98 484.625
181 0 90.0445 11.4166 1028 95.4874 1101.85 483.417
182 0 92.0333 11.0721 1019 95.4868 1101.46 481.565
183 0 96.0797 11.0221 1059 95.2502 1102.81 479.942
184 0 97.1384 11.0667 1075 95.0502 1103.72 477.759
185 0 99.0947 10.6565 1056 95.5748 1103.51 476.848
186 0 103.146 10.5966 1093 96.9048 1103.91 477.893
187 0 107.118 11.0813 1187 96.0034 1103.78 476.003
188 1 55.0247 10.05 553 94.3725 1104.26 499.595
189 0 56.0268 10.5128 589 92.6587 1103.83 499.255
190 0 60.0422 11.0922 666 91.5345 1103.45 497.09
191 0 60.0512 10.5577 634 93.7161 1103.11 496.915
192 0 62.0562 10.9095 677 92.1123 1102.67 495.366
193 0 63.0452 11.7217 739 89.092 1103.4 495.199
194 0 65.0331 11.0405 718 90.0571 1103.16 493.169
195 0 68.0375 11.0233 750 89.04 1103.55 492.999
196 0 74.0655 12.5024 926 82.4719 1103.13 494.711
197 0 75.0853 12.1595 913 82.7185 1103.27 493.216
198 0 75.0924 12.4913 938 81.6045 1103.21 492.606
199 0 78.0368 12.2763 958 81.4353 1102.13 491.293
200 0 81.0904 12.2949 997 81.6459 1101.78 489.849
201 0 82.0516 12.09 992 81.6825 1102.14 489.132
202 0 82.0516 12.0656 990 147 1103.13 488.995
203 0 86.0404 12.0176 1034 102.094 1102.87 486.877
204 0 88.095 12.1573 1071 99.2446 1102.45 487.394
205 0 93.0667 12.2278 1138 97.3893 1101.95 485.478
206 0 95.0824 11.9265 1134 96.7857 1102.56 482.963
207 0 97.0674 11.456 1112 96.0063 1101.2 483.551
208 0 98.1505 11.1869 1098 95.0811 1101.25 480.456
209 0 103.059 11.7214 1208 92.1142 1100.75 478.416
210 0 105.095 11.9416 1255 89.5785 1101.26 477.802
211 0 107.065 12.1235 1298 89.4214 1101.34 476.865
212 0 111.074 12.3971 1377 89.0712 1101.58 476.543
213 0 114.172 12.1658 1389 89.7063 1102.18 473.746
214 0 118.145 12.1291 1433 88.8548 1102.18 472.186
215 0 121.142 11.5484 1399 90.6476 1102.12 469.914
216 0 123.176 11.3253 1395 91.4588 1101.93 467.047
217 0 130.168 11.9307 1553 90.6722 1101.5 465.005
218 0 134.172 11.5225 1546 93.4515 1101.54 462.025
219 0 137.225 12.177 1671 91.2747 1101.27 460.502
220 1 69.0732 10.7133 740 88.8811 1101.31 493.761
221 0 72.073 11.0305 795 85.1924 1101.99 493.545
222 0 76.1246 11.56 880 88.0432 1102.18 491.861
223 0 75.0906 10.6272 798 86.8396 1102.36 491.703
224 0 78.0784 11.0018 859 87.6438 1101.75 491.2
225 0 81.0722 11.7426 952 88.0683 1101.64 488.911
226 0 84.0861 12.0353 1012 88.4328 1100.89 486.866
227 0 85.0397 11.5946 986 90.4959 1101.65 486.456
228 0 89.0509 11.8472 1055 91.837 1101.24 483.852
229 0 92.0409 12.2772 1130 91.2779 1101.99 483.687
230 0 93.0676 11.4648 1067 94.3992 1101.82 481.604
231 0 97.1036 12.4918 1213 94.5862 1101.85 480.579
232 0 101.1 12.6112 1275 95.2314 1102.71 479.046
233 0 105.111 12.5676 1321 96.2861 1102 477.835
234 0 108.127 12.8923 1394 98.1255 1101.99 473.731
235 1 58.02 10.7722 625 98.1904 1102.17 501.117
236 0 60.0302 10.9778 659 98.176 1101.7 501.642
237 0 61.0437 11.7293 716 98.5908 1102.04 499.296
238 0 63.0249 12.3443 778 99.2648 1101.2 498.324
239 0 63.0245 11.44 721 95.724 1101.24 499.46
240 0 65.0783 11.878 773 96.1695 1101.58 498.6
241 0 68.0169 12.0852 822 97.4964 1102.14 497.861
242 0 69.0417 11.9348 824 99.1493 1102.04 497.256
243 0 71.0339 12.0224 854 100.211 1101.56 496.701
244 0 72.0227 12.3156 887 101.206 1101.7 496.233
245 0 74.0435 12.5197 927 101.656 1101.93 496.033
246 0 76.1128 12.1005 921 104.312 1102.15 494.023
247 0 78.0245 12.7011 991 103.407 1101.61 492.683
248 0 83.0432 12.6681 1052 103.148 1102 491.72
249 0 86.0355 13.0528 1123 102.972 1101.7 490.007
250 0 88.069 13.0806 1152 103.94 1101.5 488.806
251 0 90.027 12.9295 1164 105.788 1101.01 487.064
252 0 93.0577 13.2928 1237 105.066 1101.72 485.535
253 0 96.0266 13.6525 1311 104.439 1102.26 482.783
254 0 98.0335 13.3628 1310 103.25 1102.98 481.887
255 0 102.164 13.586 1388 103.001 1101.95 480.27
256 0 102.164 13.6154 1391 169.419 1100.96 480.139
257 0 106.062 13.5864 1441 102.363 1102.71 475.97
258 1 58.0304 10.7357 623 95.6292 1102.26 500.22
259 0 57.0306 10.5908 604 90.5977 1102.44 496.553
260 0 57.0671 10.917 623 89.3002 1102.49 495.284
261 0 57.0085 10.3142 588 85.9694 1101.81 495.791
262 0 60.0706 11.2035 673 96.6256 1101.44 500.235
263 0 64.0195 12.0276 770 94.8662 1102.08 499.171
264 0 67.0609 12.1233 813 95.4625 1101.89 496.472
265 0 68.0317 12.3178 838 95.8616 1101.58 497.366
266 0 71.0642 12.3409 877 96.9954 1102.55 495.117
267 0 73.0342 12.5284 915 97.2645 1101.97 493.496
268 0 76.0742 12.8953 981 97.4811 1102.32 492.91
269 0 76.0358 12.0601 917 101.256 1102.13 491.797
270 0 81.0477 12.7703 1035 99.3952 1102 491.082
271 0 83.0457 12.4871 1037 101.333 1101.66 490.984
272 0 83.0444 12.8726 1069 102.987 1101.1 489.808
273 0 87.0979 13.3183 1160 102.234 1101.34 487.503
274 0 88.0828 13.0332 1148 104.131 1101.64 486.867
275 0 93.1025 12.975 1208 103.767 1101.54 486.185
276 0 95.1352 12.8133 1219 103.979 1101.84 484.119
277 0 99.0548 13.2048 1308 102.731 1101.92 481.962
278 0 101.042 12.4998 1263 105.312 1101.32 480.333
279 0 104.065 13.0687 1360 103.96 1102.05 477.729
280 0 108.038 13.199 1426 106.442 1101.45 477.722
281 0 110.026 13.2514 1458 104.189 1101.3 476.353
282 0 115.133 13.4627 1550 102.345 1101.14 473.624
283 1 60.021 10.5963 636 101.197 1101.58 501.151
284 0 64.0489 11.2414 720 96.9639 1100.82 498.168
285 0 66.071 11.3514 750 94.8907 1100.29 498.303
286 0 69.1074 11.7354 811 96.6436 1100.43 495.536
287 0 68.0767 11.1198 757 92.8719 1100.51 496.295
288 0 71.0858 11.873 844 91.1481 1101.05 494.13
289 0 72.0284 10.954 789 92.7985 1101.34 493.039
290 0 74.0228 11.6856 865 90.3746 1101.59 492.295
291 0 75.0893 11.24 844 91.6114 1100.84 491.79
292 0 80.0408 11.5941 928 92.0011 1101.62 489.704
293 0 83.0999 11.8532 985 91.3076 1101.28 488.093
294 0 83.1842 11.0357 918 92.7865 1100.73 486.697
295 0 87.0658 11.0261 960 94.2354 1099.97 484.889
296 0 90.0609 11.8364 1066 92.6651 1100.08 481.932
297 0 94.1204 12.0697 1136 92.2685 1101.38 481.267
298 0 96.0864 12.0517 1158 91.5665 1101.62 481.459
299 0 97.1187 11.903 1156 94.1471 1101.37 480.058
300 0 99.0728 11.4259 1132 96.3163 1101 476.679
301 0 104.088 11.8841 1237 93.4462 1101.53 477.896
302 1 58.0378 10.5276 611 89.9558 1101.6 501.696
303 0 60.0892 10.5843 636 87.5031 1101.8 500.497
304 0 60.1605 11.1867 673 88.6092 1100.27 497.811
305 0 63.0519 12.6562 798 84.7744 1101.71 499.787
306 0 64.022 11.949 765 86.5948 1101.73 498.056
307 0 65.089 11.7531 765 86.4627 1102.27 497.078
308 0 68.1283 11.5371 786 86.4109 1102.55 496.691
309 0 69.0929 11.4049 788 87.2906 1102.42 494.487
310 0 72.0652 11.5035 829 86.1978 1102.41 493.221
311 0 74.1056 12.3607 916 84.9967 1102.07 492.734
312 0 74.0843 11.6759 865 89.6647 1101.59 492.747
313 0 77.0724 11.8201 911 90.1427 1101.14 490.807
314 0 79.0713 11.3442 897 92.1616 1101.32 490.936
315 0 81.0696 12.0144 974 91.4856 1101.39 489.172
316 0 86.0843 12.8595 1107 88.5041 1101.95 489.04
317 0 88.0588 12.8664 1133 89.6681 1101.93 488.108
318 0 89.0525 12.6218 1124 90.9395 1101.3 486.612
319 0 90.056 11.826 1065 93.877 1101.87 485.235
320 0 94.0864 12.531 1179 92.5284 1101.59 484.055
321 0 97.0845 12.7003 1233 91.2165 1101.31 481.842
322 0 100.048 12.554 1256 90.6361 1100.86 480.281
323 0 104.064 12.7422 1326 89.8469 1099.71 478.539
324 1 55.0338 9.21252 507 87.4832 1099.68 502.146
325 0 56.0594 9.86454 553 82.6564 1100.34 500.081
326 0 63.0342 11.6286 733 85.6944 1100.96 501.904
327 0 65.0312 12.1634 791 84.1024 1100.52 501.676
328 0 65.0869 11.2926 735 79.7102 1100.63 505.498
329 0 67.0462 11.425 766 81.0287 1100.5 503.753
330 0 69.0382 10.8925 752 82.7832 1100.22 503.664
331 0 71.0872 11.8305 841 82.7336 1099.65 501.671
332 0 71.1198 11.2205 798 85.7231 1099.26 500.035
333 0 76.0681 11.516 876 85.5297 1099.11 499.066
334 0 78.1108 11.983 936 86.8793 1099.03 496.916
335 0 79.0972 11.6186 919 89.1415 1099.38 495.954
336 0 83.1139 12.3204 1024 88.0049 1099.02 494.82
337 0 84.0891 11.7138 985 90.0244 1098.78 493.464
338 0 88.0956 11.8621 1045 88.9005 1099.41 491.833
339 0 91.118 12.3137 1122 89.7139 1098.65 489.18
340 0 93.051 12.2513 1140 88.5096 1098.51 489.63
341 0 96.0469 12.3169 1183 90.3939 1098.33 487.839
342 1 55.012 10.9794 604 92.3295 1097.68 508.578
343 0 55.0192 11.2506 619 87.412 1098.13 505.532
344 0 55.0222 10.3049 567 81.2928 1098.37 501.697
345 0 60.0947 12.264 737 89.81 1098.57 505.03
346 0 58.0264 10.9433 635 81.6756 1098.12 507.595
347 0 59.0462 11.0422 652 81.5568 1098.13 506.265
348 0 61.0398 11.2222 685 82.162 1097.1 504.726
349 0 64.1409 11.958 767 80.0782 1097.29 505.108
350 0 65.0721 11.3413 738 81.3862 1097.25 504.299
351 0 66.0484 11.643 769 81.4902 1097.97 502.808
352 0 71.0882 12.4212 883 78.9751 1098.16 500.128
353 0 73.0495 12.0466 880 79.317 1097.74 501.108
354 0 75.0765 12.0544 905 79.6276 1098.38 498
355 0 77.1197 11.8517 914 80.268 1097.62 498.083
356 0 81.0841 12.0492 977 79.9253 1097.94 495.985
357 0 83.05 11.5954 963 81.8027 1099 494.883
358 0 85.0787 11.5893 986 83.1846 1098.29 492.778
359 0 88.1606 11.8534 1045 83.3914 1097.78 491.566
360 0 90.1439 12.114 1092 83.4423 1097.79 490.077
361 1 47.0354 10.4815 493 84.211 1098.17 511.341
362 0 48.0562 10.6126 510 86.0294 1098.04 510.484
363 0 48.0443 10.3446 497 84.6076 1098.36 509.676
364 0 51.0511 11.2045 572 80.4213 1098.42 507.406
365 0 53.1162 11.5219 612 80.4232 1098.87 508.088
366 0 53.0175 11.0718 587 75.448 1099.22 509.22
367 0 54.0654 10.0064 541 77.4307 1099.35 508.738
368 0 53.0625 10.1955 541 77.9556 1098.79 510.168
369 0 55.0457 10.2279 563 77.4281 1099.22 509.293
370 0 58.0652 10.5571 613 76.4356 1098.59 507.842
371 0 57.0595 9.76174 557 78.5584 1097.89 506.734
372 0 59.0384 11.0775 654 77.1881 1099.05 504.119
373 0 61.051 10.8106 660 77.6727 1099.34 504.971
374 0 62.044 10.3314 641 78.0593 1099.06 502.033
375 0 64.0494 10.4451 669 79.6712 1099.95 502.132
376 0 68.0766 11.208 763 77.768 1099.48 500.984
377 0 69.198 11.1997 775 77.9884 1099.92 500.505
378 0 69.198 11.1708 773 118.62 1098.92 500.585
379 0 73.0609 10.416 761 78.6794 1098.88 496.247
380 0 74.0637 10.437 773 79.5977 1098.47 496.281
381 0 78.1091 10.7286 838 80.3759 1099.09 493.362
382 0 80.1439 10.5934 849 80.4075 1098.8 494.186
383 0 84.0832 10.561 888 81.7522 1099.52 492.231
384 1 43.0448 8.92094 384 83.9635 1099.28 512.102
385 0 47.0465 10.4577 492 79.9817 1099.22 509.72
386 0 48.082 11.21 539 79.9351 1099.73 509.243
387 0 50.0982 11.4974 576 82.1754 1099.75 507.675
388 0 47.0249 10.6327 500 83.894 1099.31 508.244
389 0 50.0268 10.5144 526 80.7148 1098.95 508.063
390 0 52.0377 10.281 535 80.9944 1099.72 507.241
391 0 53.0297 10.2773 545 80.145 1100.13 506.798
392 0 54.0505 10.4902 567 81.0476 1100.16 505.758
393 0 56.054 10.0082 561 81.5811 1100.28 505.565
394 0 59.058 10.1934 602 80.2209 1099.82 503.581
395 0 62.1023 11.159 693 78.14 1100.11 501.743
396 0 64.078 11.0958 711 78.5204 1100.13 500.804
397 0 68.093 10.9997 749 79.8024 1100.25 499.541
398 0 71.1822 11.59 825 81.2085 1100.34 498.493
399 0 73.184 11.8195 865 90.2902 1099.44 495.044
400 0 76.1782 11.46 873 91.5418 1099.99 494.266
401 0 80.1431 11.5668 927 90.7411 1098.81 491.792
402 0 84.1209 11.6737 982 89.9959 1099.63 490.106
403 0 86.084 11.5585 995 91.3146 1100.56 489.581
404 0 88.2075 11.8471 1045 88.0756 1100.65 490.222
405 0 91.1583 11.2003 1021 91.8766 1099.84 487.054
406 1 44.0496 9.80713 432 85.588 1100.4 511.458
407 0 46.0546 10.4224 480 81.3875 1100.45 510.327
408 0 47.0688 11.4938 541 77.3623 1100.1 510.102
409 0 50.1382 11.3287 568 77.2623 1100.49 509.47
410 0 50.0269 11.174 559 78.517 1099.6 507.796
411 0 54.0882 11.6107 628 88.1019 1100.08 506.596
412 0 56.0879 11.8029 662 86.8263 1100.14 505.473
413 0 55.0755 10.767 593 90.0725 1099.83 503.664
414 0 56.1083 11.1035 623 80.1557 1100.18 504.509
415 0 60.0678 11.8033 709 86.11 1099.96 502.911
416 0 60.0705 10.9205 656 88.8979 1099.62 503.024
417 0 61.0662 10.6442 650 87.8385 1099.62 502.248
418 0 64.0837 11.1417 714 86.2843 1099.26 501.371
419 0 65.0479 10.6998 696 86.4784 1100.28 501.958
420 0 68.0535 11.2265 764 84.8874 1100.53 499.963
421 0 68.0546 10.1242 689 87.6604 1100.37 497.522
422 0 71.0986 11.3082 804 84.9838 1099.42 495.103
423 0 73.2132 10.8997 798 85.99 1099.43 494.294
424 0 75.1827 10.6939 804 87.0298 1099.53 493.595
425 1 38.077 9.42828 359 83.1421 1099.64 511.474
426 0 40.1523 10.0866 405 81.9654 1098.8 509.731
427 0 41.1041 10.5342 433 79.7182 1098.99 510.035
428 0 43.1227 10.9687 473 78.5391 1098.65 510.774
429 0 43.1148 11.1331 480 78.6021 1097.91 509.325
430 0 44.0211 10.5631 465 78.9806 1100.27 510.028
431 0 47.0221 10.9098 513 77.9591 1100.28 509.788
432 0 46.0206 10.7343 494 79.9879 1100.09 509.798
433 0 49.0466 12.0498 591 77.4755 1100.69 509.448
434 0 51.0541 12.3594 631 78.8146 1100.7 507.182
435 0 53.046 12.197 647 78.1654 1100.31 508.626
436 0 54.0256 12.0128 649 79.6225 1099.57 506.985
437 0 56.0414 12.9012 723 79.8907 1099.55 505.55
438 0 57.0655 12.7573 728 83.3159 1098.66 504.725
439 0 61.0339 12.8781 786 85.4428 1099.11 503.641
440 0 60.1076 12.9601 779 88.0539 1098.99 501.289
441 0 62.0572 13.3748 830 86.2072 1100.17 500.925
442 0 65.0291 13.2864 864 86.3773 1100.28 501.235
443 0 68.2197 13.3979 914 86.2024 1099.46 498.565
444 0 68.0288 12.9357 880 87.8386 1100.21 499.101
445 0 72.0566 13.309 959 85.7039 1099.16 497.877
446 0 74.0603 13.2595 982 86.7281 1099.68 496.365
447 0 74.0603 13.3 985 159.218 1099.69 496.442
448 0 78.0806 13.1915 1030 88.1835 1100.38 492.761
449 0 82.0549 13.2594 1088 87.3125 1099.93 492.79
450 0 82.0383 12.9086 1059 89.4117 1100.52 491.43
451 0 86.0596 13.3164 1146 87.973 1099.93 489.6
452 0 89.0624 13.2491 1180 88.5771 1099.93 488.834
453 0 93.0697 13.5168 1258 86.1423 1100.18 487.65
454 0 94.0412 13.1113 1233 88.6529 1099.77 485.821
455 0 95.0406 12.8366 1220 89.6484 1099.5 485.598
456 0 100.076 13.6597 1367 87.8113 1100.17 482.966
457 0 102.066 13.4325 1371 89.7031 1100.44 481.538
458 1 56.0248 12.1553 681 82.6564 1100.52 505.655
459 0 58.0679 11.8654 689 85.0319 1100.81 502.569
460 0 59.0841 12.406 733 87.794 1100.41 502.104
461 0 62.0656 12.7446 791 85.3995 1101.09 500.64
462 0 62.021 12.8666 798 92.3609 1100.19 500.668
463 0 67.0246 12.6819 850 90.2576 1100.42 499.779
464 0 68.0191 12.5406 853 91.2415 1099.69 496.898
465 0 71.0206 13.4327 954 89.1237 1099.96 496.525
466 0 73.0754 12.7813 934 89.5439 1100.35 495.697
467 0 76.0571 13.0428 992 88.75 1099.93 495.291
468 0 77.0671 12.9108 995 90.2362 1100.87 493.041
469 0 80.0893 12.7108 1018 89.3477 1100.85 492.097
470 0 81.0944 12.6766 1028 88.9718 1100.3 489.316
471 0 85.0913 12.6805 1079 88.7655 1099.9 488.677
472 0 87.2394 12.758 1113 87.0494 1099.42 487.297
473 0 91.2369 12.7799 1166 87.9271 1099.47 485.138
474 0 93.1808 12.2665 1143 87.6325 1099.9 481.474
475 0 98.2398 12.5102 1229 86.3474 1099.42 481.29
476 0 99.261 12.714 1262 87.0547 1099.9 477.895
477 1 52.1268 11.2034 584 81.7911 1099.88 502.483
478 0 52.2532 10.5448 551 84.755 1099.84 503.359
479 0 55.2856 11.1241 615 86.2667 1099.85 501.891
480 0 58.1859 11.1023 646 87.2136 1099.45 500.063
481 0 58.2014 11.9413 695 85.8518 1099.83 498.016
482 0 61.1423 11.9884 733 86.206 1098.73 497.003
483 0 62.1335 11.7006 727 88.0977 1098.45 495.953
484 0 65.0758 12.3241 802 87.6945 1098.82 495.854
485 0 68.1514 12.6336 861 85.8525 1098.75 495.073
486 0 72.079 11.9452 861 87.9512 1099.07 493.87
487 0 73.1547 12.002 878 88.6093 1099.31 492.322
488 0 76.1456 12.3973 944 88.8676 1098.99 491.519
489 0 78.1098 12.0728 943 90.473 1098.8 492.233
490 0 81.4025 12.2109 994 91.9789 1099.17 489.497
491 0 82.1949 12.4825 1026 93.0331 1099.81 486.984
492 0 86.216 12.7586 1100 91.1609 1098.75 487.374
493 0 89.3564 12.4669 1114 93.1984 1098.85 485.736
494 0 90.2209 12.3807 1117 94.4414 1098.12 483.643
495 0 93.2174 12.4977 1165 94.5434 1098.43 483.776
496 0 96.2051 12.0991 1164 97.0344 1098.46 482.649
497 0 98.2642 12.5071 1229 96.9097 1099 480.282
498 0 101.231 12.6839 1284 97.7991 1098.45 476.89
499 0 103.199 12.6648 1307 98.7636 1099.21 476.261
500 0 106.197 13.07 1388 98.2493 1098.63 475.248
501 0 109.158 12.7704 1394 99.5739 1099.33 474.581
502 0 114.299 12.9222 1477 99.5267 1098.49 473.824
503 0 119.151 13.1682 1569 98.9254 1098.58 471.275
504 1 60.1439 10.8074 650 96.7108 1097.84 500.082
505 0 62.0255 10.802 670 93.0716 1098.86 502.406
506 0 63.0434 12.0869 762 89.7087 1099.01 500.959
507 0 66.0178 10.7698 711 94.2152 1099.3 498.177
508 0 68.0133 11.6742 794 92.3615 1099.19 498.518
509 0 70.1218 11.6797 819 94.5702 1099.1 495.521
510 0 72.0967 11.9146 859 94.6182 1098.54 493.063
511 0 74.0282 11.4281 846 93.6761 1098.73 492.652
512 0 79.0317 11.5017 909 92.3674 1098.48 492.116
513 0 83.094 12.4558 1035 89.0502 1098.45 492.59
514 0 85.0436 12.3936 1054 89.2714 1098.54 490.673
515 0 87.0316 11.7544 1023 90.7537 1098.62 490.332
516 0 87.0602 11.8539 1032 91.8091 1099.08 488.073
517 0 91.1142 11.9411 1088 91.4899 1098.75 489.186
518 0 94.1696 12.4244 1170 89.8291 1098.81 488.05
519 0 96.0612 12.0548 1158 91.2582 1098.81 486.972
520 0 99.1395 11.4889 1139 91.9298 1099.11 484.951
521 0 102.154 11.747 1200 92.9492 1098.32 483.062
522 1 58.041 10.6132 616 88.6282 1099.1 506.422
523 0 56.0998 10.3922 583 86.7496 1098.6 503.338
524 0 58.046 11.2497 653 87.827 1098.79 504.507
525 0 56.0412 10.2068 572 79.5612 1098.08 507.073
526 0 58.0383 10.0968 586 79.2594 1097.55 506.147
527 0 61.0314 10.6666 651 78.5561 1098.63 505.276
528 0 62.0427 9.5257 591 80.0118 1097.28 503.826
529 0 65.0444 9.99317 650 78.9231 1097.18 503.268
530 0 67.0358 10.3527 694 77.7882 1096.82 502.735
531 0 68.0617 10.1379 690 79.329 1097.2 501.183
532 0 71.0193 10.293 731 78.7387 1097.33 500.179
533 0 72.0357 9.96728 718 80.1017 1097.33 499.049
534 0 73.0413 10.6378 777 79.1609 1097.63 498.187
535 0 75.1056 10.1324 761 79.958 1097.97 496.614
536 0 77.0319 10.3074 794 83.9698 1098.87 494.67
537 0 78.0428 9.67418 755 113.572 1098.54 494.223
538 0 80.0525 10.3932 832 82.4952 1098.71 494.388
539 0 83.0516 9.71685 807 83.9554 1097.45 494.352
540 0 86.0729 10.5957 912 83.5373 1097.79 492.796
541 0 90.062 10.8037 973 82.0843 1097.72 491.761
542 0 94.0533 10.9619 1031 82.6082 1097.87 489.862
543 0 95.0393 10.4273 991 85.1433 1098.06 490.657
544 0 99.0813 11.3644 1126 85.2131 1097.39 487.908
545 0 102.085 12.2643 1252 87.353 1098.43 486.845
546 0 103.06 11.7601 1212 93.0206 1098.65 485.486
547 0 109.124 12.2797 1340 92.2448 1098.36 482.578
548 1 58.0417 9.52763 553 90.8752 1098.56 507.986
549 0 61.0829 10.9687 670 88.3448 1098.62 506.107
550 0 63.1125 11.8202 746 86.3177 1097.78 505.949
551 0 59.0582 9.85469 582 86.8041 1098.46 508.325
552 0 63.0869 10.5727 667 86.7706 1097.46 506.265
553 0 64.205 10.9026 700 85.7829 1098.32 505.264
554 0 67.1395 11.2006 752 85.3896 1098.64 504.965
555 0 71.0672 11.2007 796 86.7387 1098.99 503.405
556 0 71.08 11.1846 795 88.6692 1098.66 503.38
557 0 74.0741 11.394 844 88.7228 1098.95 503.935
558 0 76.0744 11.147 848 90.4304 1098.57 499.37
559 0 79.1174 11.1606 883 90.8969 1098.63 501.273
560 0 83.1334 11.6921 972 90.9167 1098.46 498.122
561 0 85.1291 11.6176 989 92.6431 1098.17 495.82
562 0 88.207 11.6317 1026 93.2018 1098.29 492.975
563 0 91.0885 11.1979 1020 95.5402 1097.75 493.649
564 0 92.0761 11.7186 1079 96.5588 1098.8 491.88
565 0 95.1046 10.6409 1012 96.7006 1098.32 492.73
566 0 99.1307 10.9048 1081 95.6476 1099.13 491.891
567 1 56.0553 11.1319 624 96.8798 1098.58 509.678
568 0 57.0833 11.2117 640 93.0047 1098.02 508.838
569 0 55.0294 10.2672 565 89.7345 1097.54 512.143
570 0 57.0418 10.5186 600 89.6767 1097.65 509.5
571 0 58.049 10.0777 585 89.6 1097.18 510.477
572 0 61.0333 10.5025 641 88.4555 1097.42 506.588
573 0 62.0474 10.1697 631 89.4723 1098.25 508.097
574 0 65.0958 10.5229 685 87.673 1097.73 506.089
575 0 65.0336 10.2562 667 89.6282 1098.85 505.567
576 0 69.0591 10.2376 707 88.082 1098.31 504.347
577 0 73.0338 10.8032 789 86.6071 1098 503.074
578 0 74.0611 10.5859 784 87.074 1097.51 502.282
579 0 77.0413 10.7215 826 86.0847 1097.5 498.948
580 0 79.0943 10.5191 832 85.9255 1097.08 497.661
581 0 84.1248 10.5795 890 83.8775 1097.25 497.191
582 0 86.0992 10.0117 862 84.862 1097.83 496.108
583 0 89.1852 10.5847 944 83.5307 1098.08 493.431
584 0 89.1852 10.5286 939 120.843 1099.07 493.509
585 1 50.0579 10.4279 522 84.8602 1098.03 510.609
586 0 53.0613 11.3077 600 83.7883 1097.44 509.515
587 0 55.0462 11.4268 629 87.903 1097.63 509.824
588 0 53.0189 11.1847 593 81.4435 1096.53 509.875
589 0 57.0258 10.9775 626 80.5607 1096.75 507.53
590 0 55.0959 9.87369 544 84.3401 1095.99 509.211
591 0 57.0393 10.3788 592 82.6858 1096.46 509.39
592 0 61.0871 10.9679 670 82.3567 1098.66 506.903
593 0 61.0388 10.6162 648 83.3256 1097.94 507.855
594 0 63.0666 11.2896 712 82.4803 1097.1 507.051
595 0 67.1023 11.2962 758 81.562 1096.98 505.249
596 0 67.0787 11.9561 802 81.6733 1096.78 504.638
597 0 72.0373 11.1748 805 83.2149 1096.49 503.892
598 0 71.0807 10.3122 733 86.6344 1095.57 503.404
599 0 73.132 11.1989 819 86.2943 1096.36 501.67
600 0 76.0927 10.8026 822 87.444 1096.74 497.654
601 0 79.0758 10.9389 865 87.4035 1096.24 497.525
602 0 83.1038 10.9742 912 85.8838 1096.67 497.159
603 0 84.0827 11.1795 940 85.9404 1096.21 495.618
604 0 88.1145 11.8823 1047 86.7564 1095.56 494.257
605 0 91.0536 12.1687 1108 88.4946 1095.41 494.212
606 0 95.1153 12.406 1180 87.4449 1096.5 493.055
607 1 56.0256 11.3519 636 86.9701 1095.31 512.844
608 0 54.0633 11.727 634 89.3502 1095.65 511.028
609 0 56.0335 11.4753 643 89.5552 1095.32 510.652
610 0 58.0126 10.9631 636 89.8412 1096.21 510.201
611 0 60.0108 12.0478 723 81.7676 1096.6 509.967
612 0 60.0196 11.9461 717 84.113 1096.12 510.488
613 0 61.0497 12.2359 747 84.9612 1096.26 508.922
614 0 63.0219 12.7099 801 86.1211 1095 507.911
615 0 65.0213 12.4575 810 87.0741 1095.89 505.294
616 0 67.0316 11.9943 804 88.5037 1095.27 504.846
617 0 69.0305 12.1251 837 88.773 1095.87 505.115
618 0 70.0624 12.2605 859 89.1001 1095.55 502.837
619 0 74.0226 12.6043 933 87.8918 1095.61 501.623
620 0 77.0437 12.0321 927 89.4272 1096.68 501.225
621 0 79.0259 12.2491 968 88.3791 1096.64 499.657
622 0 80.0361 13.0066 1041 86.6945 1097.08 498.78
623 0 84.095 12.7356 1071 87.4556 1096.66 496.818
624 0 87.0614 12.4969 1088 87.7123 1094.9 495.207
625 0 89.0465 12.4205 1106 87.6392 1095.81 493.187
626 0 93.1356 13.0884 1219 86.0541 1096.27 491.732
627 0 95.0947 12.6295 1201 87.0833 1096.81 491.431
628 0 97.085 12.8444 1247 87.8508 1097.17 489.134
629 1 52.0334 10.82 563 94.7638 1096.34 510.753
630 0 54.0193 11.1997 605 90.2347 1096.89 511.661
631 0 55.0164 11.9964 660 82.6621 1096.42 510.821
632 0 57.0236 12.3107 702 79.7678 1096.88 508.668
633 0 55.0766 10.6942 589 82.4635 1097.49 511.358
634 0 54.0314 10.1052 546 85.0604 1097.96 509.128
635 0 59.009 11.3881 672 81.2039 1097.8 507.318
636 0 60.0642 11.1714 671 80.7988 1097.9 506.717
637 0 62.0679 11.2619 699 79.7611 1098.17 507.266
638 0 63.0345 10.5339 664 80.3132 1098.13 506.583
639 0 67.0492 10.8875 730 79.5411 1098.3 505.349
640 0 68.0713 11.3851 775 78.3303 1098.32 503.112
641 0 70.1202 11.2521 789 77.3181 1098.29 503.705
642 0 74.0286 10.5905 784 77.801 1099.22 501.106
643 0 74.0617 11.2744 835 77.0515 1097.91 499.229
644 0 77.0579 11.8223 911 76.5851 1098.38 495.718
645 0 79.064 11.4085 902 77.9823 1098.59 495.233
646 0 81.0463 11.66 945 78.5302 1098.71 495.941
647 0 85.0979 11.9274 1015 79.3803 1098.93 493.358
648 0 89.0482 12.8133 1141 78.4216 1099.07 490.513
649 0 92.0669 11.8283 1089 79.1396 1099.16 488.706
650 0 97.0827 12.7417 1237 76.2546 1099.03 485.74
651 0 97.0907 12.03 1168 79.0043 1099.19 484.085
652 0 100.034 11.5961 1160 82.3302 1098.37 483.083
653 0 104.101 12.0652 1256 81.5135 1098.85 478.671
654 0 106.054 11.9562 1268 83.2516 1098.18 479.409
655 1 56.0772 10.6995 600 85.9783 1097.51 506.23
656 0 55.0721 10.5498 581 84.6609 1097.59 504.642
657 0 58.0684 10.4015 604 76.2318 1098.45 504.566
658 0 60.0458 11.1082 667 75.9026 1098.24 502.505
659 0 63.0301 11.8832 749 73.7957 1098.44 501.589
660 0 62.0291 11.2528 698 76.8467 1099.19 502.14
661 0 68.1062 10.9388 745 76.0242 1099.71 500.499
662 0 66.0336 11.1761 738 78.1707 1099.23 498.74
663 0 68.05 11.8148 804 74.0199 1098.74 496.19
664 0 70.1064 9.98482 700 75.9157 1099.55 492.781
665 0 74.0798 10.8802 806 75.0509 1098.4 490.587
666 0 76.1313 11.1781 851 74.3772 1098.22 489.777
667 0 79.0844 11.1021 878 74.2916 1097.86 488.311
668 0 82.1075 10.4984 862 74.9339 1098.46 486.865
669 0 87.0913 12.7912 1114 70.6742 1098.23 489.374
670 0 87.0816 11.828 1030 74.0252 1098.97 487.095
671 0 91.1853 11.8769 1083 73.7433 1099.1 486.369
672 0 90.1988 11.0201 994 76.4115 1099.09 485.434
673 0 95.1018 11.3142 1076 76.0511 1098.75 483.376
674 0 98.0741 12.1133 1188 81.1305 1098.33 484.366
675 0 102.161 13.1068 1339 84.9574 1098.37 483.259
676 1 56.0638 10.9161 612 89.5997 1098.01 503.843
677 0 59.0379 11.5519 682 88.2331 1098.29 503.154
678 0 62.1255 12.6196 784 86.8253 1098.09 502.973
679 0 61.0312 12.9442 790 85.8873 1098.48 502.389
680 0 66.0923 12.4977 826 89.316 1098.09 500.663
681 0 67.07 12.5689 843 89.0154 1098.76 500.746
682 0 69.1258 12.5858 870 89.4655 1098.65 499.583
683 0 71.1798 13.0936 932 88.0612 1098.6 499.324
684 0 75.1307 13.6163 1023 86.302 1098.58 498.724
685 0 76.0922 13.4179 1021 88.1822 1098.11 496.823
686 0 77.1236 12.9143 996 90.5592 1098.23 496.539
687 0 81.1438 12.8784 1045 89.4632 1098.81 495.096
688 0 82.1631 12.5117 1028 90.1936 1098.3 494.374
689 0 85.1192 12.8173 1091 88.4739 1098.96 492.905
690 0 87.1252 12.396 1080 89.725 1098.85 492.491
691 0 90.147 12.7902 1153 89.4848 1099.48 491.063
692 1 49.0304 11.5847 568 85.7377 1099.34 512.602
693 0 51.0214 11.505 587 82.9284 1099.36 513.02
694 0 54.0304 12.493 675 76.443 1099.16 510.761
695 0 55.0499 12.5341 690 77.8623 1098.89 510.306
696 0 57.0418 12.4645 711 78.3924 1098.44 509.453
697 0 57.05 11.5688 660 80.95 1098.23 509.156
698 0 59.0349 12.3656 730 79.7219 1097.83 508.456
699 0 60.065 12.1202 728 80.7761 1097.81 507.025
700 0 63.0783 13.0156 821 78.9379 1098.33 504.922
701 0 64.1052 12.5263 803 79.5118 1097.77 505.055
702 0 67.0238 12.3687 829 79.2388 1098.09 504.843
703 0 70.0688 12.9159 905 81.2575 1097.63 503.367
704 0 72.0621 12.628 910 82.178 1097.89 500.885
705 0 74.082 12.3377 914 84.2943 1097.9 501.716
706 0 77.1127 12.7346 982 83.1935 1097.59 500.891
707 0 80.0792 13.2244 1059 88.4174 1097.75 500.322
708 0 83.0742 12.9523 1076 84.5781 1098.13 497.597
709 0 88.0589 13.3888 1179 84.1298 1098.13 496.429
710 0 90.1072 12.6072 1136 86.8222 1098.32 496.186
711 0 92.1476 13.0877 1206 87.0622 1098.36 494.978
712 1 50.0389 12.2105 611 91.1113 1097.48 513.604
713 0 51.0558 11.8694 606 88.5363 1098.28 515.043
714 0 53.0779 12.6418 671 84.544 1097.95 513.96
715 0 55.0451 12.4443 685 86.1533 1097.05 513.346
716 0 54.089 12.5534 679 88.8851 1097.09 512.807
717 0 58.0639 12.6585 735 87.8966 1097.07 509.97
718 0 60.1282 13.3382 802 86.5973 1097.77 510.03
719 0 62.0598 12.8747 799 88.169 1098.3 510.846
720 0 62.0769 13.0644 811 88.5006 1098.03 509.625
721 0 63.0503 12.8945 813 91.3247 1097.5 508.995
722 0 64.0572 12.645 810 92.579 1098.75 508.086
723 0 69.0809 13.144 908 88.4802 1096.59 505.809
724 0 71.1086 13.0223 926 88.5994 1097.06 503.758
725 0 73.1135 12.6105 922 89.9154 1096.17 503.685
726 0 75.0635 13.4286 1008 89.625 1096.65 501.97
727 0 77.0575 12.8865 993 90.9235 1096.95 500.392
728 0 79.056 13.0161 1029 91.1866 1096.76 499.5
729 0 82.0766 12.9635 1064 91.4962 1097.38 497.751
730 0 84.0837 12.547 1055 92.0664 1096.88 496.15
731 0 87.1078 12.9495 1128 90.9184 1097.72 493.434
732 0 91.1079 12.2492 1116 92.1944 1096.89 492.69
733 0 94.1371 12.8217 1207 93.9114 1096.92 492.49
734 0 96.0984 12.7578 1226 93.3801 1097.2 489.96
735 1 49.0217 9.20001 451 94.1707 1097.75 512.652
736 0 46.058 9.68344 446 83.7377 1097.52 506
737 0 53.0482 11.122 590 88.2729 1097.63 508.9
738 0 53.0198 10.3169 547 82.4479 1097.64 511.258
739 0 55.0415 10.8645 598 81.2876 1097.4 509.074
740 0 57.077 9.79379 559 82.1986 1096.92 509.277
741 0 58.0324 9.90826 575 83.0835 1096.47 507.64
742 0 60.0306 10.378 623 82.0385 1095.89 504.942
743 0 60.1005 9.80024 589 83.9813 1096.8 504.682
744 0 63.0691 10.3537 653 82.1577 1096.27 503.237
745 0 65.063 9.83662 640 83.7922 1096.71 500.778
746 0 67.0178 9.63924 646 84.4474 1096.98 502.283
747 0 71.0398 10.7405 763 85.7536 1096.77 497.982
748 0 74.1719 12.0666 895 83.9542 1097.12 497.149
749 0 76.0704 11.2133 853 85.9203 1097.21 496.4
750 0 78.0466 11.5444 901 85.1754 1097.75 496.357
751 0 82.0307 11.4104 936 86.468 1096.75 492.776
752 0 84.0783 11.5725 973 87.9959 1097.05 492.725
753 0 88.0424 11.5058 1013 88.2794 1096.8 490.525
754 0 92.0807 11.9026 1096 86.8075 1096.53 488.712
755 0 92.0163 11.2045 1031 90.4694 1097.41 488.597
756 1 50.0557 10.5882 530 86.2792 1096.84 509.468
757 0 51.022 10.5053 536 86.4944 1098.32 508.94
758 0 53.0516 11.6113 616 89.8377 1098.06 507.677
759 0 55.0769 11.1117 612 91.7271 1098.46 506.877
760 0 53.0414 10.6521 565 88.2637 1097.8 508.864
761 0 55.0809 11.7101 645 85.555 1097.61 506.871
762 0 57.0634 11.0403 630 87.4492 1097.21 506.033
763 0 59.0613 11.8521 700 85.9986 1096.74 507.387
764 0 60.0315 11.0275 662 88.6148 1097.42 506.011
765 0 60.0315 11.0442 663 141.143 1098.41 506.118
766 0 66.0431 12.2799 811 86.9346 1098.26 503.703
767 0 67.0365 11.8741 796 87.3807 1098.04 503.765
768 0 67.0516 11.5284 773 89.5213 1098.49 502.387
769 0 69.0392 12.0222 830 90.0819 1098.89 500.712
770 0 73.0265 12.4612 910 88.8242 1098.17 499.088
771 0 76.0499 12.1762 926 89.027 1098.25 498.262
772 0 78.0554 13.0036 1015 87.9212 1098.17 495.17
773 0 80.0497 12.9045 1033 88.4308 1097.91 497.177
774 0 83.0747 12.88 1070 91.414 1098.15 494.356
775 0 87.0692 12.737 1109 92.431 1098.11 492.301
776 0 88.1872 12.9837 1145 93.8908 1098.42 489.644
777 0 90.1828 12.3416 1113 96.2066 1097.95 488.796
778 0 90.1828 12.3416 1113 145.464 1096.96 488.962
779 0 96.0748 11.9594 1149 95.1662 1098.16 484.062
780 1 53.0774 9.87237 524 93.2481 1098.01 504.531
781 0 55.0567 10.7707 593 91.032 1096.03 505.339
782 0 59.1163 12.1455 718 93.8189 1096.76 505.155
783 0 59.0668 11.6309 687 87.9112 1096.75 505.066
784 0 61.0903 11.9986 733 87.1064 1096.71 503.311
785 0 64.0792 12.0008 769 86.1652 1097.55 501.977
786 0 66.095 12.24 809 85.8134 1097.38 501.041
787 0 66.1057 11.8598 784 88.0931 1098.53 499.517
788 0 71.0545 12.9619 921 84.9761 1097.98 499.605
789 0 72.1043 11.9272 860 87.2756 1098.32 499.834
790 0 74.0914 12.6735 939 86.0224 1098.14 497.407
791 0 75.1497 12.4285 934 88.2152 1098.37 497.175
792 0 76.1023 12.1284 923 89.2719 1098.09 494.579
793 0 80.0864 12.7987 1025 87.7502 1098.66 494.125
794 0 81.0479 12.1163 982 90.8605 1098.82 491.178
795 0 84.08 12.6784 1066 89.7627 1099.38 490.445
796 0 86.0743 12.8494 1106 90.0371 1098.89 490.198
797 0 85.0902 11.1176 946 94.9884 1099.26 491.427
798 0 90.0375 12.0172 1082 93.0055 1099.32 488.677
799 0 91.058 11.3005 1029 95.7279 1099.21 487.393
800 0 92.0477 11.6353 1071 95.6769 1098.44 485.881
801 0 95.0683 10.8974 1036 97.3871 1099.33 486.449
802 0 99.0631 11.6693 1156 96.5519 1099.16 481.98
803 1 54.017 10.3486 559 98.3882 1099.08 504.02
804 0 56.0107 10.3373 579 95.437 1099.6 502.214
805 0 57.0689 11.7402 670 95.0552 1098.59 503.437
806 0 60.0815 10.8186 650 90.9323 1098.43 508.542
807 0 60.0774 11.1856 672 91.6682 1098.38 508.408
808 0 63.0938 11.0787 699 92.3762 1097.93 505.954
809 0 67.0848 11.9699 803 89.3026 1098.24 505.634
810 0 68.0374 11.67 794 91.1146 1097.43 504.85
811 0 70.1017 11.0126 772 92.6295 1097.44 502.815
812 0 71.0606 11.3987 810 93.1926 1097.77 503.165
813 0 75.0873 11.2935 848 94.8326 1097.34 501.083
814 0 76.0356 11.9812 911 95.3842 1097.85 499.49
815 0 79.0553 11.8145 934 95.9979 1097.81 498.404
816 0 82.0338 12.312 1010 95.2416 1098.04 498.554
817 0 83.0338 12.5009 1038 94.8767 1098.65 495.913
818 0 87.0802 11.7822 1026 96.809 1097.83 493.428
819 0 89.0562 11.9363 1063 96.841 1098.1 493.525
820 0 93.096 12.3743 1152 95.2161 1097.93 490.937
821 0 95.1377 12.0667 1148 97.4495 1097.5 489.127
822 0 95.1984 12.2376 1165 98.7691 1098.12 486.826
823 0 98.1894 11.5084 1130 100.191 1097.87 485.746
824 0 102.118 12.2603 1252 98.4249 1097.61 483.534
825 0 105.138 12.4313 1307 97.3252 1097.98 483.467
826 0 105.138 12.4788 1312 148.962 1098.98 483.278
827 0 111.131 12.4087 1379 98.103 1097.18 480.966
828 0 113.194 12.6421 1431 97.8477 1097.16 478.128
829 0 117.166 12.478 1462 97.7237 1097.33 476.598
830 0 121.189 13.2025 1600 96.9969 1097.47 473.591
831 0 128.12 13.7449 1761 95.6434 1097.37 466.182
832 0 132.191 13.9873 1849 94.6625 1097.46 466.5
833 0 135.153 13.629 1842 96.7883 1096.95 463.353
834 0 140.252 14.4312 2024 96.4382 1097.82 463.667
835 0 145.243 14.2658 2072 100.043 1097.17 460.8
836 0 148.152 14.7146 2180 99.7128 1097.8 457.985
837 0 152.193 14.0874 2144 101.522 1096.77 454.726
838 0 158.153 13.4364 2125 104.908 1096.56 454.54
839 0 160.192 13.0156 2085 105.218 1096.14 456.226
840 0 163.145 12.7739 2084 106.879 1096.52 452.204
841 1 88.0844 11.3528 1000 106.095 1096.59 488.964
842 0 93.1062 12.9315 1204 105.254 1096.69 490.096
843 0 95.084 13.1463 1250 106.703 1096.74 488.588
844 0 96.1254 12.6918 1220 103.845 1096.75 492.689
845 0 101.114 12.6293 1277 103.415 1096.83 490.313
846 0 101.084 12.3067 1244 104.838 1095.93 487.467
847 0 105.072 12.8388 1349 103.468 1096.35 485.749
848 0 110.126 13.0941 1442 103.304 1095.65 482.853
849 0 111.154 12.2172 1358 104.451 1096.72 481.177
850 0 116.113 12.617 1465 100.767 1096.28 480.445
851 1 66.0262 11.6923 772 101.587 1096.48 503.781
852 0 65.0845 12.092 787 101.384 1097.05 502.502
853 0 69.0467 12.3974 856 91.2313 1096.56 503.047
854 0 67.0599 11.5867 777 94.7465 1096.04 503.203
855 0 71.0671 11.7072 832 92.4303 1096.16 501.453
856 0 72.0755 11.488 828 92.1691 1095.25 500.06
857 0 75.0695 11.163 838 91.6241 1095.39 499.169
858 0 79.1452 11.7127 927 90.1424 1095.43 497.699
859 0 80.1275 11.6689 935 89.462 1095.56 496.266
860 0 82.1048 11.8264 971 88.7116 1096.25 496.086
861 0 85.0788 11.7421 999 88.0911 1095.8 494.638
862 0 87.054 11.6709 1016 89.0118 1096.62 492.009
863 0 91.0877 11.8787 1082 88.7939 1096.45 490.604
864 0 94.0902 12.4243 1169 90.6168 1096.59 486.907
865 0 95.0897 12.0097 1142 90.9562 1095.72 488.271
866 0 97.1732 11.7008 1137 93.1434 1096.43 485.862
867 0 100.075 11.8412 1185 92.4861 1095.78 485.692
868 0 102.145 11.5522 1180 92.8229 1095.68 482.63
869 0 108.165 12.0649 1305 92.6866 1096.43 480.761
870 0 110.122 11.8868 1309 93.5363 1096.17 478.503
871 0 114.182 12.2349 1397 92.9549 1096.15 477.757
872 0 115.188 11.338 1306 92.33 1096.79 473.389
873 0 117.103 10.6829 1251 94.2854 1096.81 472.81
874 0 125.188 11.2791 1412 92.2656 1097.41 472.513
875 1 69.0992 8.91472 616 89.263 1096.93 497.955
876 0 72.0654 9.86604 711 83.0886 1097.86 492.233
877 0 69.0832 9.77083 675 77.8889 1096.82 487.154
878 0 72.069 9.83779 709 78.0832 1096.71 486.585
879 0 75.088 10.774 809 77.0865 1096.85 488.456
880 0 80.1192 10.3096 826 78.8632 1096.66 486.328
881 0 80.0304 9.9962 800 81.8088 1097.06 483.841
882 0 78.0244 9.49703 741 87.8232 1097.32 486.556
883 0 87.0817 12.1954 1062 95.8211 1097 489.393
884 0 91.0475 12.2354 1114 97.3662 1097.34 488.848
885 0 95.0691 12.959 1232 99.1323 1095.93 487.485
886 0 96.0622 13.1686 1265 99.1731 1097.25 484.876
887 0 99.0761 13.101 1298 100.951 1095.89 483.369
888 0 103.055 14.1089 1454 97.469 1095.52 482.716
889 0 104.079 13.6916 1425 102.276 1096.01 480.651
890 0 107.089 14.0444 1504 102.14 1096.55 478.961
891 0 107.092 14.0253 1502 144.205 1097.53 478.903
892 0 113.113 14.3662 1625 101.449 1096.13 478.551
893 0 115.189 13.6732 1575 104.166 1097.05 477.67
894 0 117.063 13.2749 1554 105.06 1096.59 476.706
895 0 121.082 13.6849 1657 104.821 1096.5 472.33
896 0 125.115 13.4357 1681 104.581 1095.98 469.51
897 0 127.153 13.2124 1680 104.961 1096.89 467.039
898 0 131.086 13.1898 1729 102.286 1096.72 462.873
899 0 135.108 13.5596 1832 98.929 1096.61 460.144
900 0 139.139 13.3895 1863 100.126 1096.61 455.245
901 0 144.185 13.1983 1903 101.51 1097.21 452.99
902 0 151.146 13.6557 2064 99.9215 1098.3 450.144
903 0 155.178 13.2686 2059 101.88 1097.61 446.192
904 1 83.119 10.8399 901 92.9578 1098.85 487.87
905 0 86.0992 11.5448 994 92.0724 1098.44 486.303
906 0 88.1659 11.1494 983 90.2442 1098.15 481.949
907 0 90.1197 11.6623 1051 86.2788 1098.04 481.836
908 0 94.0973 11.4562 1078 86.8813 1098.01 482.572
909 0 96.109 12.0904 1162 86.8821 1098.64 480.964
910 0 100.088 12.0194 1203 87.2095 1098.73 481.707
911 0 104.102 13.6693 1423 96.1841 1098.4 483.109
912 0 107.097 13.4084 1436 101.162 1097.23 482.12
913 0 109.112 13.8665 1513 100.469 1098.14 480.145
914 0 112.121 13.7352 1540 99.7779 1097.88 480.803
915 0 115.122 13.8462 1594 97.8626 1097.73 478.23
916 0 118.102 14.0302 1657 97.0386 1096.89 475.386
917 0 120.073 13.6001 1633 96.7061 1096.7 473.588
918 0 124.134 13.9849 1736 95.1233 1097.3 469.896
919 0 126.166 13.2921 1677 95.3685 1097.28 467.356
920 0 131.079 13.2363 1735 95.2369 1097.41 463.964
921 0 132.101 12.6267 1668 96.8393 1097.72 463.527
922 0 134.15 12.24 1642 96.4963 1098.09 461.125
923 0 136.127 12.1871 1659 97.4503 1096.98 462.489
924 0 144.157 12.528 1806 94.0526 1097.41 458.947
925 0 146.138 12.3239 1801 96.4314 1096.42 455.327
926 0 150.139 12.4418 1868 95.114 1096.49 452.848
927 0 154.213 12.1715 1877 96.4854 1097.35 450.345
928 0 159.082 12.3207 1960 94.5362 1096.61 447.93
929 0 164.1 12.8336 2106 93.161 1096.9 442.984
930 0 170.124 12.0971 2058 94.878 1096.63 443.439
931 0 177.155 12.5709 2227 93.5173 1096.57 440.532
932 0 180.139 12.4348 2240 94.033 1096.14 436.525
933 0 187.252 11.9625 2240 95.0156 1095.54 434.185
934 1 106.06 10.1923 1081 90.4015 1095.65 482.096
935 0 110.113 11.7153 1290 94.914 1096.15 483.905
936 0 114.043 11.8815 1355 90.5026 1095.51 480.261
937 0 119.088 12.3354 1469 88.9578 1095.75 480.3
938 0 120.103 11.7899 1416 83.8559 1095.47 479.434
939 0 126.04 11.2742 1421 84.4152 1095.97 475.768
940 0 129.038 11.0742 1429 84.0777 1095.99 474.554
941 0 134.122 11.6163 1558 82.4628 1095.64 471.319
942 0 138.167 11.5078 1590 83.3377 1095.64 469.35
943 0 144.116 12.2471 1765 83.3371 1094.31 464.676
944 1 86.0412 10.4601 900 84.3311 1094.89 498.769
945 0 89.0505 10.9601 976 83.7715 1095.29 496.819
946 0 90.0243 10.3416 931 84.6026 1094.92 495.092
947 0 95.0564 10.2255 972 81.0802 1095.46 494.127
948 0 98.0703 10.8596 1065 79.4122 1095.46 491.888
949 1 176.083 11.3867 2005 85.6853 1095.78 449.35
950 0 176.086 11.4433 2015 133.071 1096.78 449.409
951 1 189.198 12.6005 2384 91.0021 1096.37 446.205
952 0 196.242 15.3331 3009 87.1416 1096.12 437.271
953 0 200.229 12.0512 2413 95.4712 1094.88 439.655
954 0 206.176 12.2371 2523 94.5065 1095.46 438.669
955 0 213.221 11.7155 2498 85.8527 1094.76 433.096
956 1 173.141 10.7427 1860 84.2661 1095.54 457.956
957 0 179.087 11.4861 2057 85.0404 1096 452.88
958 0 184.114 12.351 2274 84.3254 1096.42 449.521
959 0 192.131 12.7153 2443 83.6971 1095.38 444.203
960 0 197.13 12.053 2376 84.9045 1096.42 441.351
961 0 204.227 12.2021 2492 86.1537 1095.29 437.157
962 0 211.375 12.2531 2590 86.1151 1095.92 433.713
963 0 218.348 12.2923 2684 86.9013 1095.43 433.71
964 0 223.378 11.8365 2644 90.0934 1096.22 422.371
965 0 233.31 11.8426 2763 92.8245 1096.07 419.606
966 1 57.0814 10.9668 626 84.6965 1096.24 501.209
967 0 60.0995 11.0317 663 84.6154 1096.09 505.419
968 0 63.0388 11.9133 751 83.0612 1097.7 506.83
969 0 63.0388 11.8181 745 140.647 1099.7 506.8
970 0 66.1017 11.9967 793 84.0504 1096.3 501.016
971 0 68.0777 12.3682 842 83.7542 1097.43 499.58
972 0 70.0896 12.484 875 82.1314 1096.89 500.413
973 0 72.0348 12.1886 878 82.2335 1096.52 499.269
974 0 75.2178 12.7231 957 81.2612 1095.87 499.073
975 0 77.1365 12.5621 969 82.4035 1095.58 497.873
976 0 79.1376 11.9665 947 85.6631 1096.4 498.544
977 0 82.0655 12.8434 1054 83.9412 1096.96 495.35
978 0 85.1035 12.8549 1094 84.6216 1096.91 494.418
979 0 89.1788 13.3552 1191 92.0764 1097.99 493.212
980 0 92.151 14.1615 1305 91.3655 1098.58 491.465
981 0 93.1184 13.5526 1262 93.6672 1097.22 490.449
982 0 95.1101 12.6485 1203 88.7764 1097.53 491.546
983 0 98.0887 12.0809 1185 88.7232 1096.76 486.44
984 0 98.083 11.3271 1111 84.7282 1097.69 478.892
985 0 102.06 11.405 1164 88.8076 1098.14 478.351
986 0 104.04 11.2649 1172 90.2304 1097.33 476.362
987 1 52.0958 8.17724 426 76.5892 1098.98 502.188
988 0 58.0852 11.2765 655 80.0382 1098.48 508.484
989 0 58.0533 11.4033 662 77.9532 1098.71 506.897
990 0 61.0727 11.429 698 79.394 1098.58 506.315
991 0 62.043 11.8466 735 79.015 1098 505.027
992 0 63.0733 10.575 667 80.97 1096.5 505.444
993 0 66.1195 11.0104 728 79.4574 1097.11 505.424
994 0 68.0773 12.0745 822 77.1569 1096.76 505.381
995 0 70.0766 12.6576 887 77.1263 1097.22 503.395
996 0 70.0657 11.5606 810 80.7988 1098.12 502.94
997 0 73.0471 12.2113 892 79.0774 1097.9 499.854
998 0 75.0738 12.5743 944 79.1695 1098.15 501.143
999 0 76.0809 12.2238 930 80.5699 1098.09 499.145
1000 0 80.1071 12.4458 997 79.0421 1097.96 498.667
1001 0 81.0942 12.393 1005 80.3134 1096.7 496.546
1002 0 84.081 12.9994 1093 80.6102 1097.06 495.523
1003 0 84.0808 12.6664 1065 82.2169 1097.29 494.448
1004 0 91.0896 13.097 1193 81.7854 1097.88 493.493
1005 0 93.0735 12.9682 1207 83.5012 1099.29 492.365
1006 0 94.1096 12.7405 1199 85.226 1098.45 490.224
1007 0 98.041 12.199 1196 80.7993 1099.68 486.27
1008 0 99.0948 12.2509 1214 82.5972 1099.45 484.74
1009 0 102.12 11.7509 1200 84.2025 1099.86 484.438
1010 0 105.057 12.0982 1271 85.8009 1099.16 482.88
1011 0 107.073 12.3934 1327 90.413 1098.64 479.705
1012 0 111.107 11.9884 1332 91.708 1097.64 476.319
1013 0 114.108 12.4181 1417 94.7918 1097.96 478.107
1014 0 116.086 12.1721 1413 93.6214 1097.7 474.576
1015 0 119.083 12.5879 1499 94.032 1097.8 474.443
1016 0 124.113 12.7787 1586 96.8052 1099.29 472.185
1017 0 126.121 12.4484 1570 95.8236 1098.19 464.233
1018 0 133.067 12.8282 1707 94.8108 1099.76 466.634
1019 1 68.0309 10.3041 701 82.5136 1099.22 502.064
1020 0 69.1246 10.7487 743 81.7712 1099.01 500.343
1021 0 73.0797 11.3301 828 79.7959 1099.72 501.173
1022 0 74.0861 10.7443 796 82.3555 1100.08 499.8
1023 0 77.0744 11.4824 885 80.1627 1100.03 500.619
1024 0 79.0472 11.588 916 80.1539 1099.6 498.362
1025 0 84.0781 11.6677 981 79.0479 1098.68 495.898
1026 0 86.1491 11.9212 1027 79.8462 1099.06 494.723
1027 0 88.1089 11.3723 1002 90.7844 1098.9 492.468
1028 0 92.1136 11.3881 1049 88.5338 1098.62 492.031
1029 0 94.1463 11.7264 1104 81.0598 1098.71 487.416
1030 0 98.2114 11.5465 1134 85.3554 1098.9 489.593
1031 0 99.2254 11.3882 1130 86.2708 1100.45 488.103
1032 0 103.175 11.4272 1179 84.922 1099.72 484.584
1033 0 103.231 11.2079 1157 79.9983 1099.03 484.457
1034 0 106.168 11.6985 1242 81.3164 1099.47 481.564
1035 0 109.103 10.7147 1169 83.9093 1098.37 481.027
1036 0 112.195 10.9809 1232 82.3239 1098.61 477.415
1037 0 117.174 11.2141 1314 82.2131 1098.5 476.131
1038 0 121.183 11.5032 1394 81.6966 1097.5 474.907
1039 0 124.112 10.7242 1331 82.5244 1097.85 473.328
1040 1 65.0446 9.99315 650 72.2477 1098.58 504.7
1041 0 68.0608 10.3584 705 72.6397 1098.59 503.699
1042 0 67.0615 9.84171 660 74.2045 1098.85 503.82
1043 0 68.0519 9.16948 624 75.9792 1098.2 503.901
1044 0 73.0219 10.4078 760 73.9632 1099.39 500.878
1045 0 75.027 11.4359 858 73.8158 1098.46 499.683
1046 0 78.1105 11.01 860 73.8674 1099.28 498.934
1047 0 80.0567 10.8423 868 75.1083 1098.43 496.353
1048 0 81.0798 10.3108 836 76.4474 1098.08 496.364
1049 0 84.0457 10.8631 913 76.2486 1098.61 492.996
1050 0 85.1114 10.4451 889 74.6344 1099.59 490.097
1051 0 90.0526 11.2823 1016 75.9921 1098.6 491.169
1052 0 93.0966 11.2142 1044 75.5843 1099.39 490.009
1053 0 95.0665 11.392 1083 75.9012 1099.92 489.292
1054 0 98.051 10.5455 1034 80.5087 1099.52 488.077
1055 0 101.084 11.07 1119 80.5862 1099.59 485.959
1056 0 103.067 10.4204 1074 81.6602 1099.75 488.031
1057 0 104.145 10.6198 1106 74.8915 1099.99 485.488
1058 0 109.141 11.6272 1269 82.6612 1098.83 485.45
1059 0 112.22 11.7002 1313 83.0602 1098.34 482.351
1060 0 115.149 11.6197 1338 86.0127 1097.91 480.55
1061 1 63.0271 10.6938 674 87.6929 1098.7 507.665
1062 0 67.0209 11.9217 799 82.433 1099.31 506.553
1063 0 68.1159 12.053 821 81.3691 1097.36 504.238
1064 0 72.0672 12.1414 875 78.936 1099.13 504.967
1065 0 73.0615 12.5374 916 79.5284 1099.06 503.221
1066 0 75.0572 11.9376 896 82.0346 1098.87 501.869
1067 0 77.0536 12.4848 962 82.0395 1098.77 500.605
1068 0 80.0745 11.9888 960 83.5094 1098.43 498.779
1069 0 82.03 12.6295 1036 82.3475 1098.59 498.394
1070 0 86.0691 12.8501 1106 82.717 1098.23 496.877
1071 0 83.049 11.4872 954 90.4277 1098.3 499.888
1072 0 89.0733 12.0575 1074 88.9441 1098.95 497.341
1073 0 91.0621 12.6617 1153 87.3382 1099.48 494.722
1074 0 93.1385 11.7137 1091 90.1943 1098.97 493.492
1075 0 97.0321 12.3361 1197 88.9908 1098.46 492.255
1076 0 102.095 12.8801 1315 88.9034 1099.71 491.366
1077 0 104.032 12.6596 1317 90.5437 1099.9 488.525
1078 1 54.0169 11.4594 619 94.5089 1097.2 511.971
1079 0 53.1523 10.3476 550 83.4055 1098.25 508.765
1080 0 56.0283 11.1194 623 84.9053 1098.74 506.843
1081 0 56.0283 11.1015 622 136.566 1098.75 506.831
1082 0 57.0702 10.3732 592 77.4527 1098.67 506.686
1083 0 58.0768 9.62518 559 78.8998 1098.41 506.837
1084 0 62.0367 9.80065 608 78.5082 1098.24 504.339
1085 0 62.0643 10.763 668 79.4805 1098.96 503.752
1086 0 65.0463 10.6847 695 79.8173 1099.12 502.472
1087 0 68.0609 11.1224 757 79.93 1099.28 500.214
1088 0 66.0967 10.288 680 83.4471 1098.53 499.532
1089 0 73.0658 11.7155 856 96.3388 1098.18 505.372
1090 0 77.0968 11.7255 904 96.2323 1097.43 504.319
1091 0 77.0737 11.9626 922 97.5076 1097.57 503.031
1092 0 81.0365 12.155 985 96.6294 1098.46 501.885
1093 0 82.0573 11.9429 980 97.9276 1098.84 499.361
1094 0 86.0895 12.7077 1094 96.2093 1099.09 497.931
1095 0 88.1617 12.6132 1112 96.4703 1099.32 498.941
1096 0 92.0841 12.6841 1168 97.1832 1098.36 496.556
1097 0 95.1205 13.2884 1264 96.4351 1098.64 494.532
1098 1 51.0604 11.9466 610 99.9754 1098.32 515.456
1099 0 52.1086 11.879 619 98.9742 1099.55 516.33
1100 0 52.0916 10.9423 570 96.4491 1099.71 514.928
1101 0 54.1211 11.9177 645 94.6046 1098.61 511.588
1102 0 56.0364 12.4384 697 94.5022 1099.32 512.118
1103 0 58.0683 13.0364 757 92.9683 1098.41 510.583
1104 0 59.0739 12.4928 738 95.6111 1098.97 512.131
1105 0 60.0793 12.134 729 95.6763 1098.9 511.395
1106 0 61.0362 12.3533 754 96.1446 1098.79 509.357
1107 0 64.1144 12.3373 791 95.1922 1099.38 509.517
1108 0 67.121 12.5743 844 95.4976 1098.69 507.267
1109 0 68.1504 12.4871 851 95.2726 1099.12 507.296
1110 0 71.1264 12.8222 912 93.6985 1098.28 506.055
1111 0 74.0905 13.0516 967 93.6722 1098.67 502.898
1112 0 77.0637 12.561 968 92.6157 1097.55 502.998
1113 0 81.1357 12.6948 1030 92.3427 1097.67 501.595
1114 0 81.1357 12.5839 1021 137.802 1097.67 501.599
1115 0 86.0844 12.1625 1047 95.2732 1098.7 499.421
1116 0 88.0928 12.2371 1078 96.718 1098.1 499.178
1117 1 46.0358 11.1001 511 101.08 1098 518.771
1118 0 48.0654 11.3803 547 98.6654 1097.39 517.543
1119 0 47.0245 11.4834 540 97.4556 1096.8 516.344
1120 0 49.0825 11.8983 584 97.0565 1097.48 515.896
1121 0 51.0814 11.6677 596 92.3658 1097.87 515.04
1122 0 54.0694 11.6702 631 89.5975 1097.82 514.805
1123 0 54.0352 11.8441 640 89.5359 1097.39 513.759
1124 0 53.024 12.2397 649 90.8259 1098.13 513.478
1125 0 57.0908 12.2787 701 89.8588 1097.16 513.444
1126 0 56.0495 11.7931 661 92.6778 1098.04 512.631
1127 0 59.0818 12.288 726 91.0854 1097.26 511.405
1128 0 61.0961 12.0957 739 91.9594 1097.47 510.543
1129 0 62.0755 11.7277 728 93.1346 1097.06 509.6
1130 0 62.0547 11.796 732 95.0232 1097.07 508.142
1131 0 65.021 12.0423 783 95.2669 1096.64 508.155
1132 0 69.0381 12.9204 892 92.4552 1097.47 507.865
1133 0 71.0459 12.5834 894 93.6085 1096.88 505.944
1134 0 73.0407 12.7052 928 93.4407 1097.74 505.591
1135 0 72.0567 12.0877 871 96.4581 1097.36 505.396
1136 0 76.0544 12.8724 979 94.3943 1098.81 503.454
1137 0 78.1279 12.1467 949 91.7334 1097.85 500.483
1138 0 81.0756 12.6549 1026 90.0039 1098.35 500.98
1139 0 83.0757 12.1094 1006 93.0388 1097.35 497.805
1140 0 82.1654 11.3917 936 95.9316 1097.78 498.343
1141 0 86.0842 12.1857 1049 94.266 1097.35 497.457
1142 0 88.268 12.0882 1067 94.3468 1096.41 493.476
1143 0 90.1125 11.4856 1035 96.542 1097.09 495.339
1144 0 93.1535 12.3882 1154 94.9471 1096.8 492.779
1145 0 94.1362 11.7064 1102 97.1497 1097.15 490.707
1146 0 97.1772 12.1325 1179 96.5157 1097.45 492.394
1147 0 99.2347 11.9414 1185 97.9055 1097.23 489.481
1148 0 103.179 12.1246 1251 117.467 1097.32 489.06
1149 0 104.128 11.9853 1248 104.562 1097.22 488.022
1150 0 108.192 11.7014 1266 103.565 1096.26 488.742
1151 0 112.138 12.333 1383 102.023 1096.27 485.732
1152 0 115.137 11.6644 1343 97.0983 1095.82 481.993
1153 0 117.164 11.8467 1388 97.7197 1095.61 481.875
1154 0 120.226 12.1438 1460 98.1637 1095.7 480.426
1155 0 123.371 12.4664 1538 98.6404 1095.28 479.302
1156 0 126.198 11.2284 1417 101.962 1096.43 477.815
1157 0 130.189 12.0441 1568 101.334 1096.01 474.535
1158 0 133.226 11.9496 1592 101.599 1096.39 476.181
1159 0 136.162 12.4337 1693 97.1146 1096.68 474.017
1160 0 138.108 12.2513 1692 100.75 1096.53 473.258
1161 0 143.175 12.7536 1826 99.7514 1096.69 469.647
1162 0 147.153 12.5991 1854 101.895 1096.32 469.488
1163 0 150.102 12.6647 1901 104.862 1096.32 467.822
1164 0 153.137 12.3354 1889 105.648 1095.99 466.959
1165 0 158.19 12.2764 1942 105.846 1096.37 463.483
1166 0 162.126 12.9468 2099 105.332 1096.08 462.921
1167 0 169.129 12.5644 2125 106.612 1096.61 459.159
1168 0 173.291 12.4011 2149 111.435 1096.12 455.694
1169 0 177.338 12.8343 2276 112.123 1096.25 453.456
1170 1 49.304 11.0539 545 100.892 1096.34 517.554
1171 0 51.2006 11.2108 574 100.214 1096.88 515.645
1172 0 49.2899 10.8339 534 101.882 1096.57 515.948
1173 0 52.2165 11.3757 594 103.788 1097.08 515.374
1174 0 50.3071 11.5093 579 110.197 1097.15 513.257
1175 0 52.1411 11.0086 574 100.577 1095.99 516.199
1176 0 54.1219 11.123 602 94.6462 1095.71 512.688
1177 0 53.0621 10.8552 576 97.6285 1095.01 512.654
1178 0 56.0778 10.2714 576 105.212 1095.11 514.047
1179 0 57.1343 10.4141 595 104.919 1097.05 514.924
1180 0 59.1195 11.0623 654 102.668 1096.36 512.934
1181 0 61.0934 11.065 676 101.149 1096.97 512.253
1182 0 62.0667 11.3749 706 100.058 1096.56 509.181
1183 0 63.1093 10.5848 668 102.843 1096.46 509.166
1184 0 67.0387 10.8147 725 99.9048 1096.1 509.014
1185 0 66.0888 10.5918 700 102.904 1095.83 508.083
1186 0 69.0926 11.2024 774 100.088 1095.43 506.34
1187 0 70.1502 10.7626 755 96.6212 1094.56 503.225
1188 0 72.1322 10.4808 756 101.753 1095.73 504.783
1189 0 75.1612 12.1738 915 94.3727 1094.8 499.797
1190 0 76.0967 10.6706 812 100.645 1095.67 503.18
1191 0 76.1988 9.3046 709 105.427 1096.67 502.716
1192 0 78.1852 10.4495 817 102.842 1095.84 500.076
1193 0 81.0967 9.22355 748 104.18 1096.24 499.803
1194 0 87.1857 10.4145 908 101.786 1095.72 498.112
1195 1 48.1876 10.2723 495 101.584 1095.23 515.596
1196 0 49.0275 10.7491 527 100.812 1095.01 513.996
1197 0 52.0679 10.7552 560 100.818 1096.37 513.964
1198 0 51.0383 11.1093 567 107.275 1096.73 513.808
1199 0 50.0182 10.1563 508 109.896 1096.1 514.807
1200 0 52.0564 10.7576 560 108.814 1097.19 513.223
1201 0 54.0298 10.2166 552 106.232 1096.12 514.315
1202 0 56.0979 10.5352 591 105.347 1096.42 512.628
1203 0 58.051 10.6803 620 105.46 1095.27 510.955
1204 0 59.0458 11.0084 650 103.652 1096.13 509.226
1205 0 62.119 10.8501 674 103.976 1096.24 509.953
1206 0 64.0372 10.8999 698 104.642 1095.76 510.003
1207 0 65.025 10.5037 683 105.114 1095.62 509.088
1208 0 69.0305 10.9082 753 102.173 1095.26 507.515
1209 0 70.0857 10.8153 758 104.277 1095.57 505.542
1210 0 71.051 10.0491 714 106.756 1095.34 504.493
1211 0 77.1429 11.6148 896 107.28 1097.12 505.092
1212 0 78.1865 11.8435 926 108.064 1097.32 503.58
1213 0 80.0821 11.7629 942 109.684 1098.25 501.776
1214 0 83.1039 11.8767 987 110.183 1097.05 502.919
1215 1 46.129 10.6007 489 113.196 1095.89 517.941
1216 0 46.1364 10.9458 505 111.323 1095.53 517.75
1217 0 49.1687 11.3283 557 109.65 1095.97 515.208
1218 0 47.1487 11.3259 534 110.7 1096.78 513.983
1219 0 50.0486 12.1082 606 110.673 1096.49 515.606
1220 0 51.0374 11.9716 611 111.997 1097.33 516.214
1221 0 52.0125 12.3432 642 112 1098.65 514.402
1222 0 54.0071 11.9614 646 113.269 1097.41 513.05
1223 0 55.0168 12.4689 686 112.423 1097.32 512.598
1224 0 57.0142 12.9792 740 111.861 1097.55 510.935
1225 0 58.0181 12.2203 709 115.384 1097.29 509.178
1226 0 60.1308 12.6391 760 113.629 1097.34 509.18
1227 0 61.0851 12.7854 781 114.248 1096.61 509.064
1228 0 62.0788 12.1458 754 116.019 1097.1 508.198
1229 0 65.0405 13.0073 846 110.661 1096.9 507.759
1230 0 63.0392 12.1988 769 107.632 1097.41 508.545
1231 0 66.0352 12.2208 807 108.45 1097.05 507.234
1232 0 68.08 11.9124 811 107.927 1097.39 506.317
1233 0 67.1261 12.1413 815 109.368 1097.83 506.28
1234 0 71.1596 12.1698 866 107.412 1097.4 504.096
1235 0 73.1416 11.6213 850 109.995 1096.44 504.444
1236 0 75.1165 12.4873 938 107.771 1096.81 503.892
1237 0 78.1449 12.3361 964 107.845 1097.46 503.363
1238 0 79.0431 12.1073 957 103.878 1097.28 498.833
1239 0 81.0522 12.1403 984 105.687 1098.63 498.692
1240 0 81.0429 11.4014 924 107.929 1098.85 498.88
1241 0 84.0997 11.6766 982 107.141 1098.83 498.136
1242 0 87.071 11.6457 1014 107.082 1097.85 496.527
1243 1 46.0274 10.9066 502 109.572 1099.03 516.185
1244 0 47.1487 11.0926 523 109.384 1096.56 514.356
1245 0 50.0768 11.1628 559 108.114 1097.58 513.898
1246 0 48.0106 11.56 555 108.595 1096.38 514.218
1247 0 50.0197 12.2752 614 106.919 1096.76 512.601
1248 0 52.0491 11.835 616 112.304 1095.75 511.748
1249 0 53.0561 12.1004 642 108.421 1096.66 511.403
1250 0 54.1659 11.834 641 111.161 1096.48 511.094
1251 0 55.0609 12.5861 693 109.485 1097.16 511.253
1252 0 57.037 12.1675 694 111.058 1097.78 510.333
1253 0 57.0522 12.4272 709 112.797 1097.82 510.306
1254 0 59.0338 12.3658 730 114.637 1098.36 511.477
1255 0 63.0248 12.5823 793 113.02 1098.02 509.498
1256 0 64.0265 12.7135 814 113.346 1096.73 507.162
1257 0 65.0506 12.6363 822 114.322 1097.54 507.316
1258 0 69.0356 12.5587 867 114.29 1097.58 505.26
1259 0 70.0538 12.9757 909 114.567 1096.83 502.936
1260 0 72.0205 12.9963 936 115.734 1097.68 502.269
1261 0 74.0491 12.9914 962 116.136 1096.83 501.441
1262 0 76.0175 12.6813 964 133.302 1097.41 499.29
1263 0 80.0583 12.8781 1031 134.203 1097.08 499.034
1264 0 82.0338 12.6168 1035 136.83 1097.57 498.445
1265 0 82.0795 12.2199 1003 140.641 1096.43 496.717
1266 0 84.0951 12.7237 1070 140.043 1096.18 497.036
1267 0 85.0937 12.6919 1080 141.838 1095.97 493.643
1268 0 88.0682 12.6493 1114 140.762 1095.95 493.87
1269 0 90.0674 12.6461 1139 140.791 1095.6 492.687
1270 0 92.1299 12.9491 1193 138.916 1096.59 491.548
1271 0 94.1491 12.682 1194 138.886 1096.62 490.457
1272 0 95.0789 12.9051 1227 139.436 1096.28 489.073
1273 0 98.0771 12.8674 1262 137.747 1097.52 488.089
1274 0 100.077 12.94 1295 137.73 1097.08 487.144
1275 0 103.161 12.9119 1332 136.974 1097.33 484.534
1276 0 104.274 12.2083 1273 139.63 1097.1 481.245
1277 0 109.209 12.8103 1399 134.541 1097.27 480.211
1278 1 46.114 9.7801 451 119.477 1097.28 515.011
1279 0 49.1088 9.46876 465 121.422 1097.67 513.97
1280 0 50.0453 9.49141 475 121.202 1097.31 513.183
1281 0 51.0789 10.2391 523 120.47 1097.77 511.792
1282 0 51.0357 10.4437 533 122.332 1098.32 511.779
1283 0 52.064 10.3334 538 124.734 1098.48 511.171
1284 0 52.064 10.3334 538 143.305 1098.48 511.171
1285 0 55.0197 11.3596 625 118.522 1098.32 509.466
1286 0 53.0484 10.1794 540 106.243 1098.95 512.411
1287 0 53.0478 9.85903 523 107.465 1098.47 512.073
1288 0 56.0248 10.0491 563 106.16 1099.1 510.357
1289 0 58.0415 9.75165 566 106.977 1098.93 510.401
1290 0 60.0589 10.2899 618 105.061 1098.6 510.218
1291 0 60.0184 10.3468 621 106.132 1098.84 507.303
1292 0 65.0614 10.3902 676 104.21 1097.73 505.842
1293 0 65.0146 10.413 677 104.211 1098.59 505.889
1294 0 65.0224 10.3964 676 104.297 1097.63 504.336
1295 0 68.0591 10.6819 727 102.314 1097.73 502.9
1296 0 71.0514 10.8654 772 99.7552 1097.36 503.199
1297 0 73.124 10.9266 799 98.8248 1098.08 500.454
1298 0 76.0522 10.4665 796 98.7889 1097.46 500.759
1299 0 74.0608 10.0998 748 121.571 1096.46 499.725
1300 0 78.0499 10.5573 824 98.6092 1097.35 498.751
1301 0 81.1065 10.7513 872 98.0149 1096.68 497.739
1302 0 83.0684 10.8826 904 97.7976 1097.04 496.184
1303 0 83.0866 10.3506 860 97.9488 1096.19 494.328
1304 0 87.0732 10.784 939 97.9042 1096.49 491.101
1305 0 92.0556 10.8087 995 98.0804 1096.47 491.698
1306 0 94.1054 11.264 1060 96.7528 1097.18 490.012
1307 0 95.0636 10.4246 991 97.7669 1096.97 489.998
1308 0 100.06 11.743 1175 96.3634 1097.33 487.871
1309 0 105.094 11.5135 1210 97.5711 1097.87 486.895
1310 0 105.071 11.0021 1156 91.9074 1097.3 480.195
1311 0 112.141 12.2702 1376 97.0015 1097.34 482.419
1312 1 61.0628 10.6284 649 95.2696 1096.13 508.21
1313 0 62.0837 10.9046 677 98.6691 1096.24 506.641
1314 0 65.0564 12.005 781 95.1805 1096.06 507.65
1315 0 67.1482 12.0927 812 95.218 1095.85 505.749
1316 0 67.0522 12.11 812 98.1527 1095.84 505.468
1317 0 67.1104 11.861 796 99.3002 1096.63 505.491
1318 0 69.054 11.8023 815 98.6233 1095.69 504.14
1319 0 72.0722 11.5301 831 97.5824 1095.87 503.18
1320 0 75.0714 12.215 917 96.0458 1095.86 500.309
1321 0 77.075 12.2219 942 95.3355 1096.76 498.616
1322 0 81.0868 12.6038 1022 96.182 1095.97 497.473
1323 0 84.0811 12.4761 1049 97.3251 1095.76 496.273
1324 0 86.0571 12.7357 1096 96.7345 1097.18 496.599
1325 0 88.0967 12.4636 1098 98.153 1097.44 493.856
1326 0 91.0292 12.5674 1144 97.8112 1096.24 492.802
1327 0 95.0542 12.677 1205 96.3353 1097.96 490.402
1328 0 96.1155 12.7659 1227 95.3138 1096.72 488.602
1329 0 100.043 12.5646 1257 96.5251 1095.61 488.03
1330 0 102.065 12.8154 1308 97.0344 1095.94 486.8
1331 0 104.09 12.6526 1317 97.1526 1095.58 485.311
1332 0 106.137 11.8903 1262 98.878 1096.02 483.364
1333 0 110.093 12.2532 1349 98.6116 1096.55 482.769
1334 0 114.079 13.0436 1488 96.0995 1097.15 481.233
1335 0 117.062 12.472 1460 97.3788 1096.25 480.176
1336 0 119.071 12.3119 1466 98.1037 1097.14 477.427
1337 0 124.128 12.2374 1519 96.9447 1096.38 474.898
1338 0 128.234 12.2432 1570 97.2013 1096.49 470.118
1339 0 129.135 12.7541 1647 97.6612 1096.06 467.323
1340 0 129.128 12.8013 1653 151.719 1096.04 467.27
1341 0 138.145 13.0659 1805 95.6704 1096.65 461.676
1342 0 143.16 12.9436 1853 95.8991 1096.26 463.947
1343 0 146.183 12.6007 1842 96.4175 1096.02 461.144
1344 0 150.197 12.4969 1877 96.7022 1096.57 458.62
1345 0 154.201 12.6524 1951 95.7002 1097 455.52
1346 0 159.193 12.9968 2069 92.9473 1096.41 450.938
1347 0 162.203 12.5213 2031 94.7725 1097.06 441.85
1348 0 165.237 12.3641 2043 94.8771 1096.9 439.418
1349 0 173.208 12.3031 2131 94.2999 1096.88 441.279
1350 0 176.267 12.3165 2171 95.2879 1095.88 433.899
1351 0 186.257 12.166 2266 94.5234 1096.37 436.759
1352 0 192.357 12.1285 2333 93.6485 1095.87 425.511
1353 0 197.226 11.6212 2292 94.0476 1095.46 427.399
1354 0 205.315 12.0011 2464 92.8101 1095.55 424.122
1355 0 208.305 11.5792 2412 92.6057 1095.56 421.996
1356 0 218.266 11.5959 2531 92.8649 1095.25 416.885
1357 1 176.14 13.3984 2360 95.8987 1094.94 448.755
1358 0 177.289 12.2117 2165 94.7649 1096.4 448.93
1359 0 181.099 12.1646 2203 92.9623 1096.41 441.31
1360 0 187.183 11.9295 2233 92.742 1096.27 437.936
1361 0 190.172 12.0207 2286 90.801 1095.34 436.589
1362 0 199.32 12.0058 2393 89.6256 1096.12 431.746
1363 0 208.211 12.7851 2662 87.8355 1095.72 427.477
1364 0 215.225 12.2384 2634 90.0015 1095.87 424.132
1365 0 221.218 12.5396 2774 90.8536 1096.49 418.814
1366 1 57.0457 8.69478 496 66.6613 1096.24 506.815
1367 0 61.0593 9.4007 574 66.8519 1096.98 507.232
1368 0 65.0789 10.6332 692 71.8324 1096.75 510.143
1369 0 66.0476 11.2192 741 71.8934 1096.68 508.242
1370 0 68.1324 11.7712 802 71.1222 1096.23 508.56
1371 0 72.1038 11.8163 852 70.9824 1096.94 505.018
1372 0 73.1062 11.0251 806 73.4913 1096.58 504.69
1373 0 76.1351 11.5321 878 72.2323 1097.15 505.286
1374 0 78.1371 11.8382 925 73.5492 1096.84 503.012
1375 0 78.0615 11.017 860 75.6442 1096.54 503.31
1376 0 80.1155 11.3586 910 75.3022 1095.9 501.582
1377 0 80.0585 10.1925 816 72.7684 1096.21 502.634
1378 0 81.0637 10.3129 836 76.8278 1097.01 501.922
1379 0 85.1086 10.845 923 71.143 1097.02 501.143
1380 0 86.0403 10.6229 914 73.8042 1096.56 499.701
1381 0 86.0465 10.6686 918 76.9717 1096.42 499.272
1382 0 89.0462 10.6237 946 77.4852 1095.83 498.54
1383 0 90.1228 9.99748 901 76.1809 1095.47 499.627
1384 0 94.11 9.80767 923 75.9827 1095.48 497.241
1385 1 53.0268 10.1647 539 73.7273 1096.3 517.623
1386 0 56.0653 10.6126 595 72.1345 1096.68 516.538
1387 0 56.0105 10.8194 606 72.9786 1096.31 515.719
1388 0 58.0848 11.0011 639 71.5399 1096.55 514.161
1389 0 55.0731 9.95041 548 71.9672 1093.62 516.206
1390 0 57.019 9.62837 549 72.3971 1093.62 516.656
1391 0 56.0128 9.96202 558 76.6057 1093.9 514.174
1392 0 58.0318 9.83943 571 75.5009 1094.92 514.708
1393 0 59.0698 10.2252 604 76.4768 1093.94 511.881
1394 0 63.0381 10.3747 654 76.9373 1094.58 511.564
1395 0 64.0536 10.6942 685 78.911 1094.55 510.307
1396 0 64.1391 10.5084 674 79.3294 1095.3 508.956
1397 0 64.1127 10.076 646 82.6068 1095.33 509.149
1398 0 67.0438 10.1277 679 83.7747 1094.61 509.028
1399 0 67.0516 10.5441 707 83.3296 1094.85 509.154
1400 0 69.1032 9.84035 680 85.6221 1093.54 507.434
1401 0 70.0254 10.182 713 87.108 1094.15 505.907
1402 0 73.043 10.4048 760 86.8224 1094.01 504.695
1403 0 75.057 10.3521 777 89.1892 1093.98 503.144
1404 0 78.0894 10.5648 825 87.9164 1094 502.384
1405 0 79.038 10.7037 846 88.591 1094.59 503.545
1406 0 82.0408 10.1779 835 90.1605 1095.51 503.58
1407 0 83.0371 10.6338 883 89.1801 1094.61 500.356
1408 0 85.1175 10.5619 899 88.1179 1094.78 497.986
1409 0 90.0846 10.0794 908 86.3491 1094.66 499.23
1410 0 92.0896 9.9034 912 89.114 1094.51 495.814
1411 1 49.0171 10.1801 499 94.3106 1094.04 516.723
1412 0 49.0625 10.1911 500 97.068 1094.43 515.156
1413 0 48.0358 9.15984 440 95.2523 1094.05 512.352
1414 0 47.0692 9.66662 455 90.7143 1093.59 508.264
1415 0 46.0334 8.81968 406 82.7783 1095.75 512.377
1416 0 47.0221 8.18763 385 85.3455 1094.69 511.281
1417 0 50.0702 8.48808 425 84.8988 1095.65 512.593
1418 0 53.029 8.65564 459 84.4532 1094.78 512.747
1419 0 54.0124 9.23862 499 84.489 1095.12 510.389
1420 0 58.0229 10.582 614 93.7052 1095.86 514.337
1421 0 59.0462 10.5172 621 94.1433 1096.38 513.651
1422 0 61.0157 11.4069 696 92.8161 1096.15 512.833
1423 0 61.0189 10.9802 670 94.1119 1095.78 511.9
1424 0 65.0327 11.3635 739 92.6888 1096.5 511.478
1425 0 67.087 11.5522 775 93.5858 1095.4 509.31
1426 0 68.0518 11.4766 781 93.3995 1095.72 508.115
1427 0 72.0821 11.584 835 93.624 1095.43 507.331
1428 0 72.0555 11.2136 808 94.1547 1096.4 506.205
1429 0 74.0739 11.5695 857 92.734 1095.89 505.817
1430 0 79.1443 12.433 984 91.0102 1096.32 506.715
1431 0 81.1451 11.6212 943 91.5875 1096.19 506.123
1432 0 83.0841 12.8785 1070 88.9505 1096.38 502.239
1433 0 88.0974 13.1559 1159 88.2416 1096.08 500.365
1434 0 90.0888 13.2314 1192 88.8976 1095.56 498.935
1435 0 93.0809 12.6664 1179 89.3952 1095.03 497.027
1436 0 97.3131 13.4617 1310 88.0557 1095.13 494.194
1437 0 99.0916 12.8366 1272 88.7799 1095.38 491.876
1438 0 104.08 13.2302 1377 87.931 1095.45 491.73
1439 0 105.11 13.0339 1370 90.0912 1095.79 489.64
1440 0 109.124 13.2418 1445 89.3273 1096.06 488.213
1441 1 58.0354 12.1305 704 88.3168 1096.16 514.04
1442 0 60.0718 11.9524 718 88.5543 1096.52 511.9
1443 0 62.1075 12.3979 770 89.0429 1096.08 509.587
1444 0 64.0209 12.371 792 88.1604 1095.49 508.645
1445 0 66.0455 12.6125 833 86.1345 1095.94 509.03
1446 0 69.0585 12.7718 882 86.9887 1095.82 507.05
1447 0 72.1023 12.7042 916 86.4258 1096.57 506.694
1448 0 73.0485 12.6902 927 86.8015 1095.79 505.192
1449 0 76.0501 13.5174 1028 85.7996 1096.39 503.523
1450 0 78.1336 13.4769 1053 85.9164 1096.92 503.355
1451 0 80.0421 13.243 1060 87.0424 1096.33 502.463
1452 0 83.1151 12.585 1046 88.5736 1097.69 500.026
1453 0 84.139 12.7171 1070 89.1252 1097.04 498.418
1454 0 87.0792 12.4944 1088 90.6333 1097.17 496.993
1455 0 90.0307 12.7512 1148 90.595 1096.97 496.147
1456 0 93.0526 13.1753 1226 89.3263 1096.91 494.883
1457 0 96.074 12.5008 1201 99.4613 1096.52 492.525
1458 0 100.08 12.2802 1229 97.4508 1096.52 490.983
1459 0 102.084 12.4603 1272 97.3042 1095.96 490.561
1460 0 106.079 12.5284 1329 95.8217 1097.06 489.211
1461 0 108.076 12.4172 1342 98.0961 1096.61 485.269
1462 0 112.112 11.5777 1298 99.4962 1097 484.3
1463 1 60.0896 11.0169 662 83.9728 1096.84 510.631
1464 0 59.0729 9.8353 581 80.6127 1097.12 508.508
1465 0 65.0599 11.9736 779 81.4352 1098.06 509.815
1466 0 67.0748 11.2412 754 82.8223 1096.43 507.184
1467 0 65.062 11.1893 728 84.9712 1096.43 509.271
1468 0 68.0636 10.4167 709 85.6333 1096.16 507.784
1469 0 69.0565 11.0634 764 84.1702 1095.79 506.751
1470 0 71.0546 10.4427 742 84.9124 1096.28 505.892
1471 0 74.042 10.9127 808 85.1646 1094.91 505.006
1472 0 74.042 10.8722 805 145.129 1094.91 505.036
1473 0 80.0619 11.3912 912 84.2972 1096.07 500.909
1474 0 82.0736 10.6368 873 86.4101 1097.1 500.682
1475 0 86.1293 11.4015 982 85.614 1095.68 497.969
1476 0 87.0824 10.9207 951 87.531 1095.75 496.801
1477 0 92.0595 11.8619 1092 86.641 1096.21 495.356
1478 1 48.0739 10.8583 522 85.1762 1096.36 516.538
1479 0 49.0361 10.1762 499 86.9058 1096.54 516.489
1480 0 49.0292 10.3204 506 88.5672 1096.74 514.111
1481 0 52.0798 10.7719 561 86.2941 1096.01 513.602
1482 0 54.0625 11.7457 635 85.6866 1095.71 511.945
1483 0 55.0677 11.5313 635 87.2346 1095.49 511.655
1484 0 57.0636 12.3021 702 85.443 1096.08 509.856
1485 0 59.0438 12.0419 711 86.1491 1095.52 508.518
1486 0 60.0542 12.4887 750 86.4853 1097.93 508.165
1487 0 60.0247 11.5619 694 90.794 1097.21 509.958
1488 0 62.0493 11.7165 727 91.6878 1097.2 507.67
1489 0 63.0724 11.9228 752 91.5718 1097.96 508.473
1490 0 66.0644 12.1699 804 91.3408 1097.76 506.902
1491 0 67.0553 11.7664 789 94.7237 1097.79 503.976
1492 0 71.0535 12.4976 888 92.9504 1097.37 504.632
1493 0 72.05 11.7141 844 96.314 1097.88 502.591
1494 0 76.0428 12.059 917 96.1003 1096.43 501.769
1495 0 78.0586 12.939 1010 93.5515 1096.6 500.694
1496 0 80.043 12.2309 979 95.2033 1097.45 500.94
1497 0 81.1648 12.1481 986 96.3621 1096.63 499.585
1498 0 84.0697 12.335 1037 95.4764 1095.98 498.122
1499 0 86.0802 12.2792 1057 96.14 1095.95 494.909
1500 0 89.0767 11.8437 1055 97.3194 1096.32 491.509
1501 0 93.1266 12.4884 1163 96.0636 1097.01 489.192
1502 0 95.1047 12.2707 1167 96.2699 1097.43 489.615
1503 1 48.0732 11.3161 544 98.0312 1096.84 510.43
1504 0 49.0728 10.9633 538 99.2565 1097.76 509.361
1505 0 51.0826 11.7653 601 97.6389 1095.54 508.74
1506 0 53.0949 11.7525 624 97.742 1095.74 507.782
1507 0 57.1191 12.01 686 97.2289 1095.56 509.465
1508 0 55.0327 11.2842 621 86.3543 1095.92 511.644
1509 0 54.0806 10.7247 580 88.3069 1096.37 511.867
1510 0 55.0489 10.7359 591 86.8088 1096.15 511.162
1511 0 59.0395 11.1959 661 83.4811 1095.77 510.682
1512 0 60.0231 10.5626 634 84.0678 1096.31 508.454
1513 0 62.0374 10.6226 659 84.0501 1095.64 507.419
1514 0 64.1 11.2949 724 82.4351 1096.14 505.17
1515 0 65.0211 10.735 698 82.6103 1096.82 505.905
1516 0 67.0482 10.7833 723 82.3817 1096.06 504.015
1517 0 68.0662 10.5192 716 82.5908 1096.43 502.433
1518 0 72.0705 11.5304 831 80.3333 1096.49 501.572
1519 0 74.0627 10.9502 811 80.8138 1096.29 501.28
1520 0 77.1423 11.7316 905 78.7569 1096.28 498.326
1521 0 78.0544 10.9411 854 80.8337 1096.02 495.961
1522 0 79.0467 11.1327 880 80.1136 1095.9 495.417
1523 0 79.0448 11.1962 885 121.167 1095.89 495.434
1524 0 86.0328 10.9842 945 79.6487 1095.5 492.99
1525 0 89.0962 10.7524 958 79.7704 1096.17 490.402
1526 0 92.0962 10.8365 998 80.0822 1096.77 489.947
1527 1 46.0625 9.98644 460 75.5826 1095.69 512.493
1528 0 47.0984 10.4038 490 74.4306 1096.36 512.114
1529 0 50.134 10.7512 539 73.3358 1096.48 511.499
1530 0 49.0583 10.9665 538 74.4182 1097.02 510.524
1531 0 49.0583 10.9258 536 114.213 1097.04 510.578
1532 0 52.0629 11.0828 577 72.4783 1097.65 511.229
1533 0 55.0121 11.4157 628 71.7611 1097.31 511.229
1534 0 51.0286 10.9547 559 74.508 1097.07 509.866
1535 0 56.0733 11.3066 634 73.5789 1095.63 508.781
1536 0 57.0414 10.9044 622 72.8006 1096.48 508.296
1537 0 60.0603 11.9546 718 70.337 1096.13 507.267
1538 0 59.035 10.4514 617 72.812 1096.76 506.144
1539 0 59.0252 11.3511 670 72.1522 1096.67 505.052
1540 0 62.0226 10.8831 675 72.1185 1096.75 504.471
1541 0 63.0296 11.3122 713 71.5919 1097 504.21
1542 0 63.0296 11.3439 715 113.801 1098 504.141
1543 0 68.0626 11.2837 768 70.1471 1097.47 502.911
1544 0 70.0941 11.4846 805 69.5143 1096.93 501.585
1545 0 68.1134 10.3063 702 71.2635 1096.87 497.89
1546 0 71.0239 10.2078 725 70.9876 1096.25 498.486
1547 0 70.0883 9.87326 692 71.7789 1096.6 499.432
1548 0 73.2151 10.4077 762 69.5341 1096.04 496.583
1549 0 75.0792 10.722 805 68.5714 1096.33 492.527
1550 0 77.0462 10.5651 814 68.5258 1095.69 490.757
1551 0 78.0308 10.3933 811 67.8668 1096.19 489.492
1552 0 79.0464 9.89292 782 67.2481 1096.35 491.292
1553 0 77.0461 10.2925 793 66.802 1096.65 485.227
1554 0 81.0444 9.40226 762 66.5223 1096.61 485.719
1555 0 79.0397 10.3998 822 67.7044 1095.94 478.82
1556 0 82.1194 10.0342 824 66.8786 1096.45 478.63
1557 0 84.058 10.4095 875 65.8823 1096.54 477
1558 0 88.0869 10.1491 894 64.6074 1096.49 477.52
1559 0 91.0743 10.0028 911 65.8024 1096.38 475.582
1560 0 94.0482 10.6966 1006 64.3976 1096.92 474.777
1561 0 93.1338 9.85679 918 65.6078 1095.93 471.568
1562 0 99.1178 10.3513 1026 65.3431 1096.55 470.785
1563 0 103.198 10.3006 1063 66.4036 1095.8 467.553
1564 0 107.072 10.6004 1135 66.1507 1096.11 462.715
1565 0 111.099 10.9812 1220 65.6688 1096.37 462.311
1566 0 113.09 10.0628 1138 68.5422 1096.42 459.846
1567 0 119.126 10.4176 1241 69.3852 1097.29 461.453
1568 0 125.201 11.3338 1419 69.0106 1096.96 456.589
1569 0 128.27 10.8209 1388 71.3574 1097.1 456.778
1570 0 134.185 11.4841 1541 72.599 1096.43 451.154
1571 0 138.221 10.3747 1434 75.014 1096.37 452.596
1572 0 145.278 10.9858 1596 75.765 1096.21 450.882
1573 0 150.164 10.9547 1645 77.5368 1096.51 447.298
1574 0 155.204 11.1531 1731 78.5113 1096.07 443.507
1575 0 161.291 11.2219 1810 80.1155 1096.63 438.754
1576 0 168.199 11.0524 1859 81.2776 1096.99 442.183
1577 0 177.187 11.7164 2076 81.2129 1096.97 439.419
1578 0 182.29 11.372 2073 82.7197 1097.08 437.077
1579 0 189.187 12.0938 2288 83.0935 1096.69 431.8
1580 0 200.237 12.3154 2466 83.2364 1097.17 431.561
1581 0 207.192 13.1569 2726 82.6365 1096.34 428.6
1582 0 211.295 12.7452 2693 84.3012 1096.52 422.453
1583 0 219.258 13.2538 2906 82.7688 1095.72 421.416
1584 1 35.0247 8.56538 300 70.8833 1096.87 510.643
1585 0 34.0211 9.0532 308 71.3864 1097.42 509.864
1586 0 40.0055 10.4236 417 71.1439 1097.8 510.213
1587 0 42.0051 9.64168 405 74.242 1097.62 510.531
1588 0 46.0355 10.8395 499 71.7896 1097.14 510.671
1589 0 45.0733 10.1168 456 75.0724 1097.9 507.939
1590 0 47.0134 10.3588 487 76.6838 1097.77 508.351
1591 0 51.0775 10.5134 537 75.1043 1097.58 507.598
1592 0 53.0053 10.565 560 76.7089 1096.84 507.1
1593 0 53.0403 10.6523 565 78.6478 1096.92 506.175
1594 0 57.0098 11.612 662 75.9758 1097.05 505.903
1595 0 59.0405 10.7723 636 78.7909 1097.1 504.849
1596 0 65.041 13.8067 898 69.9087 1096.82 500.843
1597 0 64.057 11.3024 724 78.7334 1096.52 501.7
1598 0 64.1015 11.6222 745 79.157 1096.64 501.732
1599 0 63.0359 9.3756 591 74.3283 1096.05 502.543
1600 0 66.0889 9.75958 645 71.8062 1096.65 499.764
1601 0 68.0849 7.59346 517 73.1683 1096.21 499.317
1602 1 33.0851 8.79551 291 66.7766 1096.73 517.68
1603 0 37.0067 11.2142 415 70.894 1096.26 521.005
1604 0 39.0484 10.3974 406 71.8522 1096.89 518.256
1605 0 35.0079 9.31217 326 76.7607 1094.5 521.945
1606 0 35.0417 9.6171 337 77.4273 1096.11 520.875
1607 0 38.0403 9.1482 348 75.9224 1096.02 520.615
1608 0 39.0029 9.89671 386 74.0363 1096.72 519.425
1609 0 44.0694 11.6407 513 68.616 1095.13 515.294
1610 0 41.0119 9.77764 401 74.9052 1095.96 518.539
1611 0 42.045 10.7266 451 72.6674 1095.46 517.78
1612 0 44.0345 10.7416 473 73.3573 1095.36 515.651
1613 0 47.0608 11.4745 540 70.0963 1094.89 516.557
1614 0 47.0474 10.9464 515 71.9748 1095.11 515.383
1615 0 49.0278 11.1569 547 72.4826 1095.1 514.272
1616 0 51.0426 11.5982 592 72.1081 1096.08 514.52
1617 0 53.0611 11.2889 599 72.8748 1095.9 513.302
1618 0 54.0344 11.067 598 75.6555 1095.65 513.005
1619 0 55.025 12.1581 669 73.1241 1096.33 512.843
1620 0 56.0107 11.4978 644 75.8634 1095.54 511.509
1621 0 58.0475 11.9557 694 74.1052 1095.23 510.409
1622 0 61.0703 12.5102 764 73.2539 1094.78 507.859
1623 0 61.0804 11.886 726 75.7851 1094.75 507.083
1624 0 61.0139 12.3415 753 76.9256 1096.18 506.874
1625 0 64.0459 13.0688 837 76.0227 1095.46 504.969
1626 0 66.0362 12.8717 850 77.1188 1096.22 504.061
1627 0 69.0437 12.8904 890 77.4831 1096.32 504.552
1628 0 70.0666 12.6879 889 79.6018 1096.45 502.204
1629 0 74.066 13.2314 980 78.8684 1095.86 502.799
1630 0 76.0694 12.883 980 78.3235 1095.87 501.801
1631 0 79.1144 13.1329 1039 81.9394 1095.34 500.181
1632 0 80.0372 13.2563 1061 82.1555 1095.61 498.381
1633 0 84.0791 13.856 1165 80.4755 1095.3 497.737
1634 0 87.0677 13.702 1193 81.3194 1095.52 497.286
1635 1 47.0324 12.3107 579 88.4352 1095.84 514.014
1636 0 49.0285 12.5641 616 89.8506 1095.62 512.138
1637 0 52.1174 13.4696 702 83.547 1096.68 511.34
1638 0 54.0533 13.1722 712 84.7107 1095.56 510.486
1639 0 53.065 13.0595 693 85.6623 1096.03 511.537
1640 0 55.0733 13.1098 722 85.867 1096.07 511.997
1641 0 56.0486 13.0066 729 86.9054 1095.27 510.793
1642 0 56.0551 12.6839 711 89.2841 1095.44 510.262
1643 0 59.0351 13.2633 783 86.9936 1095.34 508.902
1644 0 59.0634 12.8506 759 89.1199 1095.39 508.352
1645 0 62.0225 12.963 804 88.3856 1095.56 508.852
1646 0 63.0373 12.913 814 87.7494 1096.4 507.842
1647 0 65.0862 12.9674 844 87.9585 1096.14 506.665
1648 0 67.0408 13.3799 897 86.4069 1096.73 506.375
1649 0 70.0491 13.1765 923 87.2904 1096.05 505.792
1650 0 73.0822 13.9158 1017 85.4169 1096.38 503.176
1651 0 74.053 13.4363 995 88.3698 1096.1 501.478
1652 0 76.0626 13.5415 1030 88.9641 1095.53 500.794
1653 0 81.0474 13.6217 1104 87.9058 1095.3 499.128
1654 0 82.082 13.2916 1091 92.1063 1095.88 494.907
1655 0 86.1392 13.455 1159 89.8973 1095.23 494.186
1656 0 89.0746 13.3259 1187 89.7346 1095.41 492.254
1657 0 91.1347 13.5294 1233 90.7267 1095.41 490.627
1658 0 94.095 13.5182 1272 90.4348 1095.11 490.041
1659 0 97.1403 13.4754 1309 90.3972 1096.5 490.118
1660 0 100.054 13.4828 1349 89.5752 1096.16 490.007
1661 0 104.094 13.363 1391 87.8771 1096.63 487.909
1662 0 108.111 13.3012 1438 86.0994 1095.67 484.691
1663 0 112.093 13.3817 1500 84.906 1095.89 484.687
1664 1 57.0308 12.9053 736 83.9198 1095.16 510.043
1665 0 58.091 12.4804 725 83.8538 1095.37 508.572
1666 0 62.0346 13.3796 830 82.8241 1095.24 507.725
1667 0 63.0503 13.4813 850 88.3353 1095.51 506.372
1668 0 65.0726 13.5541 882 88.5352 1095.68 505.621
1669 0 68.0814 13.6895 932 88.2811 1095.88 503.662
1670 0 70.0647 13.6017 953 89.2466 1095.54 504.595
1671 0 71.0496 13.3709 950 91.1158 1095.29 502.669
1672 0 73.0737 13.5069 987 91.924 1095.55 501.143
1673 0 76.0623 13.6861 1041 90.7493 1095.86 501.819
1674 0 78.067 13.988 1092 90.5357 1095.77 499.132
1675 0 81.0612 13.2739 1076 90.4006 1095.61 497.402
1676 0 82.1233 12.603 1035 91.9594 1095.53 497.824
1677 0 84.0507 13.4205 1128 87.1365 1095.09 498.154
1678 0 87.1211 12.9016 1124 88.4235 1094.8 495.774
1679 0 88.0661 12.6723 1116 89.5242 1095.04 495.37
1680 0 92.0677 12.4582 1147 90.8622 1095.3 493.228
1681 0 95.1215 13.4039 1275 90.1318 1094.83 493.951
1682 0 98.0919 13.5791 1332 92.732 1096.12 490.492
1683 0 101.17 12.9189 1307 92.0712 1095.43 489.95
1684 1 56.1508 12.6802 712 90.7514 1095.89 510.385
1685 0 55.2319 12.0764 667 95.1934 1096.2 508.813
1686 0 57.1097 12.4147 709 96.3794 1096.03 508.014
1687 0 59.1183 12.7372 753 95.8619 1096.69 507.594
1688 0 63.0907 12.8545 811 95.0802 1095.88 505.973
1689 0 65.1635 12.86 838 95.1396 1095.71 505.523
1690 0 68.1274 13.372 911 93.8595 1095.47 504.324
1691 0 69.1194 12.9631 896 94.5658 1096.35 504.056
1692 0 72.1093 13.4657 971 93.1123 1096.1 502.249
1693 0 75.2509 13.3287 1003 93.3749 1096.59 501.17
1694 0 77.1233 13.1867 1017 94.5782 1096.05 500.51
1695 0 79.1569 13.4669 1066 94.2486 1096.97 499.225
1696 0 79.142 13.381 1059 96.8499 1095.81 496.662
1697 0 84.1823 13.6846 1152 94.8073 1096.61 496.189
1698 0 85.1417 13.5539 1154 95.8128 1096.29 496.666
1699 0 90.1867 13.4942 1217 95.4947 1096.44 494.598
1700 0 90.1502 13.5108 1218 95.9631 1096.61 494.057
1701 0 95.1558 14.0191 1334 94.8748 1097.09 490.852
1702 0 98.1669 13.7725 1352 95.9704 1096.76 491.166
1703 0 100.114 13.4646 1348 97.6395 1096.05 489.174
1704 0 104.196 13.2827 1384 99.4415 1096.55 486.369
1705 1 54.0505 12.0998 654 99.4664 1096.77 511.898
1706 0 54.0898 12.4977 676 102.175 1095.86 508.538
1707 0 55.0446 12.4626 686 97.5292 1095.74 507.867
1708 0 58.0939 12.3421 717 91.4881 1096.29 505.099
1709 0 58.0994 10.8607 631 86.3962 1096.58 504.539
1710 0 60.085 11.8998 715 87.0629 1096.71 506
1711 0 64.0567 12.6919 813 93.0406 1096.36 506.467
1712 0 65.0713 12.4018 807 95.119 1096.96 505.778
1713 0 68.05 13.0492 888 94.83 1096.28 504.468
1714 0 69.0844 13.2591 916 94.6616 1097.28 503.376
1715 0 73.0812 12.2056 892 93.2724 1096.99 502.305
1716 0 75.0813 12.9859 975 93.0215 1097.2 500.8
1717 0 78.062 13.2971 1038 92.474 1096.15 500.388
1718 0 79.0449 12.8661 1017 94.5349 1097.18 499.259
1719 0 82.0545 13.0401 1070 95.0598 1095.94 498.034
1720 0 84.0234 12.925 1086 94.5157 1097.27 498.01
1721 0 88.0169 13.327 1173 95.2916 1096.62 493.615
1722 0 92.0954 12.9648 1194 95.5595 1096.91 493.874
1723 0 96.1373 13.4599 1294 96.4366 1096.94 490.7
1724 0 99.0503 13.4578 1333 97.018 1096.81 488.863
1725 0 100.059 13.3922 1340 98.997 1096.12 487.393
1726 0 104.085 13.2776 1382 98.8546 1096.27 485.436
1727 0 107.053 13.4232 1437 98.4064 1096.11 483.939
1728 1 57.0428 11.4125 651 99.0384 1095.89 508.605
1729 0 58.0123 11.3079 656 93.6951 1096.34 506.373
1730 0 61.0544 12.0548 736 88.5258 1096.02 504.662
1731 0 65.0517 12.7745 831 97.4777 1095.19 506.295
1732 0 67.0798 12.6118 846 89.7175 1095.91 507.213
1733 0 68.091 11.984 816 89.6495 1096.62 505.956
1734 0 71.1164 12.9506 921 87.2465 1096.73 503.934
1735 0 72.0702 12.5295 903 89.3798 1096.08 502.519
1736 0 76.0469 13.1235 998 89.1573 1097.02 500.368
1737 0 79.1046 13.0081 1029 89.5948 1096.19 499.119
1738 0 81.0754 13.2839 1077 89.5432 1096.8 499.253
1739 0 84.0558 13.0033 1093 89.9973 1096.95 496.233
1740 0 88.1294 13.1965 1163 98.2803 1097.73 495.162
1741 0 91.0359 13.4892 1228 97.048 1096.63 494.369
1742 0 95.074 13.5158 1285 98.4662 1096.94 490.537
1743 0 98.048 13.9931 1372 96.6742 1096.71 490.212
1744 0 100.043 13.884 1389 96.671 1097.67 489.35
1745 0 105.084 13.199 1387 98.4412 1096.92 485.879
1746 1 53.0243 11.3533 602 93.2558 1097.01 512.613
1747 0 56.0663 11.201 628 93.9299 1097.68 511.497
1748 0 58.0445 12.5421 728 83.3778 1097.23 511.111
1749 0 59.0614 11.8013 697 85.4261 1097.09 510.416
1750 0 61.0273 12.6009 769 83.238 1096.63 508.711
1751 0 63.0246 12.5665 792 83.4192 1096.66 508.561
1752 0 66.0318 12.5091 826 84.0242 1096.43 507.126
1753 0 68.0248 13.6715 930 82.3796 1096.51 506.117
1754 0 70.0606 13.1458 921 84.0456 1095.64 505.046
1755 0 73.105 12.9813 949 84.6712 1096.68 503.661
1756 0 76.1897 13.427 1023 84.1241 1096.19 500.562
1757 0 79.0541 13.4465 1063 82.6519 1096.23 501.161
1758 0 79.1416 12.2818 972 83.5617 1096.41 498.21
1759 0 82.0412 12.6278 1036 83.7944 1096.72 497.153
1760 0 85.0423 12.9465 1101 83.6185 1096.62 496.65
1761 0 86.0404 12.0409 1036 87.8369 1097.13 494.68
1762 0 90.0815 13.177 1187 86.1786 1096.1 494.044
1763 0 93.1163 13.3274 1241 86.9613 1096.57 494.073
1764 0 94.1429 12.5023 1177 90.8394 1096.12 491.687
1765 0 97.1302 12.2825 1193 96.0402 1096.75 491.011
1766 0 101.083 12.5243 1266 94.8112 1095.27 488.558
1767 0 103.151 12.3121 1270 93.6874 1095.55 486.356
1768 0 105.06 12.2501 1287 96.2067 1095.67 485.745
1769 0 108.163 11.8894 1286 96.1322 1095.33 482.509
1770 0 112.095 12.2396 1372 95.148 1095.95 479.892
1771 0 117.178 12.2463 1435 94.5408 1095.88 477.596
1772 1 63.1353 12.2594 774 92.9703 1096.64 504.835
1773 0 63.1646 12.9503 818 92.6553 1095.84 503.98
1774 0 65.201 12.8372 837 92.693 1096.67 504.129
1775 0 66.0734 12.8494 849 94.1366 1095.85 501.817
1776 0 69.0965 13.5463 936 92.0556 1096.65 501.331
1777 0 70.1641 13.1976 926 90.7808 1095.08 498.045
1778 0 73.1571 13.3138 974 90.9086 1095.61 498.204
1779 0 73.0935 12.4361 909 95.692 1095.36 496.988
1780 0 77.1445 13.0275 1005 95.0985 1096.11 494.351
1781 0 78.0822 13.806 1078 100.583 1096.25 489.45
1782 0 80.1466 13.0636 1047 103.336 1096.61 489.083
1783 0 83.0983 13.3697 1111 102.973 1096.07 487.402
1784 0 85.075 13.3647 1137 104.314 1097.28 487.084
1785 0 88.158 13.9749 1232 102.03 1097.12 484.713
1786 0 92.0932 13.8447 1275 103.569 1097.06 484.816
1787 0 92.1356 13.2522 1221 103.921 1096.76 482.085
1788 0 96.058 13.2108 1269 103.369 1097.01 480.552
1789 0 97.0533 13.4153 1302 106.154 1096.17 480.542
1790 0 104.159 13.4986 1406 104.385 1096.3 479.457
1791 0 107.194 14.0493 1506 102.962 1095.99 476.738
1792 0 109.118 12.9493 1413 106.872 1096.37 475.266
1793 0 112.116 12.5495 1407 108.46 1096.44 471.605
1794 0 120.098 13.6972 1645 102.64 1096.14 471.896
1795 0 124.175 13.3119 1653 103.236 1096.22 469.113
1796 1 62.0896 11.2257 697 105.413 1096.35 498.798
1797 0 68.0341 11.9646 814 99.059 1096.31 498.735
1798 0 67.041 12.649 848 100.093 1096.36 496.012
1799 0 69.1217 12.8324 887 98.8805 1095.94 494.758
1800 0 71.056 12.9194 918 98.9967 1095.05 494.473
1801 0 71.0417 11.8803 844 103.985 1096.02 491.833
1802 0 74.0407 12.5201 927 100.485 1095.94 493.329
1803 0 77.1291 12.4596 961 99.9979 1095.72 491.004
1804 0 80.0232 12.6713 1014 98.7643 1095.62 489.885
1805 0 81.0256 11.9098 965 101.363 1095.96 488.394
1806 0 84.0617 12.8953 1084 97.6744 1096.38 487.975
1807 0 88.0524 12.4358 1095 99.0676 1096.45 485.762
1808 0 88.0301 12.5525 1105 100.627 1096.01 482.803
1809 0 90.0442 12.7271 1146 99.7356 1096.35 480.35
1810 1 102.051 13.4246 1370 103.52 1095.93 480.182
1811 0 99.0446 13.0446 1292 98.024 1096.17 476.807
1812 0 101.032 12.7187 1285 98.3245 1095.31 476.848
1813 0 105.038 12.386 1301 99.2375 1095.52 472.885
1814 0 108.158 12.3801 1339 99.1412 1095.91 472.804
1815 0 112.076 12.3488 1384 98.2681 1095.45 471.124
1816 0 119.068 12.8834 1534 95.5561 1096.12 468.053
1817 0 122.115 12.3572 1509 96.8569 1096.1 468.262
1818 0 128.09 13.4515 1723 94.0023 1096 462.866
1819 0 130.096 12.437 1618 97.7787 1096.09 460.375
1820 0 136.144 12.6484 1722 96.547 1096.41 458.927
1821 0 142.15 12.5431 1783 96.9591 1096.62 456.798
1822 0 146.135 12.5569 1835 96.9946 1095.72 451.656
1823 0 151.154 12.4442 1881 96.5125 1095.95 448.724
1824 0 158.188 12.3271 1950 96.3969 1095.48 448.889
1825 1 87.1049 9.88463 861 93.8304 1095.41 480.158
1826 0 92.0458 10.2884 947 92.5934 1095.4 478.979
1827 0 92.0155 10.5308 969 93.4613 1095.16 476.499
1828 0 99.0735 11.2038 1110 92.709 1095.33 478.376
1829 0 96.0628 11.2531 1081 92.802 1095.76 473.299
1830 0 105.127 10.5872 1113 91.8203 1096.18 474.81
1831 0 109.208 12.3709 1351 94.4167 1096.31 477.415
1832 0 113.163 11.8944 1346 92.2548 1095.75 475.802
1833 0 118.259 12.498 1478 92.7341 1096.03 475.478
1834 0 122.136 12.2732 1499 92.6251 1096.41 472.58
1835 0 124.197 11.9166 1480 92.9223 1095.99 471.082
1836 0 130.225 11.841 1542 96.1316 1095.68 467.803
1837 0 132.125 11.5875 1531 96.612 1095.57 465.225
1838 1 77.1981 9.36552 723 89.9115 1096.55 496.773
1839 0 79.187 10.8856 862 88.5035 1096.14 492.722
1840 0 82.1472 10.396 854 87.7623 1095.98 491.349
1841 0 81.0866 9.54535 774 87.3786 1096.19 484.656
1842 0 85.044 10.4652 890 80.5966 1095.98 487.671
1843 0 86.064 8.65635 745 80.5208 1096.34 490.71
1844 0 89.0805 10.1032 900 79.9556 1096.82 487.191
1845 0 94.0925 10.4259 981 80.7594 1096.97 485.235
1846 0 96.1301 10.4858 1008 81.0814 1096.67 483.164
1847 0 101.141 10.4507 1057 80.9253 1096.36 482.952
1848 0 104.068 10.743 1118 80.475 1096.78 479.441
1849 0 108.125 10.8115 1169 79.1574 1096.8 479.258
1850 0 110.071 10.6204 1169 81.8931 1096.42 474.905
1851 0 114.107 10.832 1236 80.1537 1096.35 474.816
1852 0 116.097 10.6549 1237 80.3274 1096.41 471.982
1853 1 64.0666 9.38086 601 71.1131 1096.94 503.977
1854 0 65.0347 9.17971 597 73.9062 1096.64 501.457
1855 0 64.0633 9.99012 640 74.7938 1097.19 498.766
1856 0 69.057 9.84694 680 72.0779 1096.97 499.478
1857 0 69.0467 9.47185 654 74.8242 1096.43 499.128
1858 0 71.0774 9.72179 691 74.4486 1096.61 498.97
1859 0 74.0415 10.359 767 72.8175 1096.11 495.508
1860 0 75.0628 10.2714 771 80.9222 1096.65 495.226
1861 0 79.0883 10.0647 796 74.5025 1095.97 494.138
1862 0 82.0738 10.3322 848 74.52 1096.85 494.554
1863 0 84.0698 10.3485 870 75.5058 1096.2 490.987
1864 0 87.0479 10.7986 940 75.2894 1096.05 491.069
1865 0 90.0576 10.5599 951 76.041 1096.87 488.74
1866 0 90.0646 11.092 999 76.8639 1096.76 486.806
1867 0 93.0823 10.9043 1015 77.0315 1096.98 487.872
1868 0 96.0871 10.4176 1001 78.1738 1097.45 485.039
1869 0 96.0703 9.98227 959 79.1835 1097.2 481.745
1870 0 101.079 10.6649 1078 78.5009 1096.95 479.649
1871 0 105.051 10.376 1090 79.9431 1097.42 479.295
1872 1 57.0146 9.83959 561 81.5562 1096.43 503.362
1873 0 58.0745 9.7461 566 82.7438 1096.81 500.263
1874 0 61.0323 10.093 616 83.5584 1096.86 501.987
1875 0 60.0914 9.96816 599 85.0835 1097.05 500.98
1876 0 62.0792 10.2933 639 85.2175 1097.49 499.351
1877 0 67.0834 11.7019 785 80.7261 1097.19 499.825
1878 0 70.1482 11.4615 804 79.8694 1095.62 497.5
1879 0 70.0762 11.6445 816 78.3382 1097.8 497.07
1880 0 73.0568 12.5792 919 78.7573 1097.27 497.383
1881 0 75.1045 12.689 953 78.9433 1096.91 496.357
1882 0 75.097 12.2508 920 79.6804 1096.96 494.351
1883 0 77.1118 12.5921 971 79.2997 1097.29 492.79
1884 0 80.0546 12.404 993 79.5539 1096.54 490.581
1885 0 84.1129 12.3049 1035 79.6058 1097.05 488.69
1886 0 84.1093 12.2103 1027 82.1451 1096.85 490.025
1887 0 86.0626 11.9913 1032 82.5698 1096.37 488.666
1888 0 87.0789 11.8973 1036 84.2046 1097.06 487.213
1889 0 90.1587 12.0898 1090 84.9275 1097.27 488.924
1890 0 92.137 11.8628 1093 88.1363 1097.05 483.953
1891 0 93.089 12.0959 1126 87.7416 1097.45 483.467
1892 0 96.0684 12.2309 1175 88.5157 1096.99 482.142
1893 0 100.137 12.3031 1232 88.849 1097.76 481.902
1894 0 104.13 11.9082 1240 89.5645 1096.95 479.825
1895 0 107.114 12.118 1298 90.6649 1097.39 478.062
1896 0 106.102 11.5738 1228 93.9055 1096.63 474.961
1897 0 112.139 12.0833 1355 91.3063 1097.47 474.729
1898 0 116.143 12.2264 1420 91.0754 1096.24 472.124
1899 1 65.0975 10.6763 695 90.4648 1096.86 496.899
1900 0 67.1144 11.1153 746 90.9464 1097.15 494.063
1901 0 70.0552 12.3046 862 90.0568 1096.16 496.679
1902 0 71.0692 11.932 848 88.2724 1095.8 497.854
1903 0 74.0261 11.7391 869 89.0667 1096.43 497.68
1904 0 76.0557 12.2936 935 89.3112 1096.08 496.892
1905 0 79.0409 12.4746 986 87.2566 1096.1 494.094
1906 0 79.04 11.4752 907 90.9691 1095.67 495.189
1907 0 83.0554 11.7994 980 90.5286 1095.95 492.645
1908 0 86.1529 12.2108 1052 89.9078 1095.88 490.717
1909 0 88.1015 12.3153 1085 89.1862 1095.99 488.374
1910 0 92.195 12.7447 1175 89.1804 1096.18 487.369
1911 0 96.1155 12.5786 1209 89.2754 1096.05 484.503
1912 0 99.0947 12.7757 1266 93.4344 1096.28 482.76
1913 0 101.187 13.1144 1327 92.1929 1095.36 479.517
1914 0 106.134 13.5395 1437 91.0849 1095.26 476.431
1915 1 56.1195 11.725 658 90.1261 1095.07 501.429
1916 0 59.0792 11.8147 698 90.6676 1094.96 500.023
1917 0 62.1214 12.5561 780 86.9462 1095.42 502.832
1918 0 61.05 12.6945 775 85.0271 1095.6 502.937
1919 0 66.0262 13.2826 877 82.268 1095.03 502.972
1920 0 67.0189 13.1306 880 82.6159 1096.41 501.808
1921 0 68.0703 12.6928 864 85.0336 1095.98 500.454
1922 0 68.0673 12.8109 872 85.8119 1096.3 499.72
1923 0 70.0919 12.4265 871 87.713 1095.52 499.548
1924 0 71.0417 12.6405 898 87.0434 1096.18 497.656
1925 0 74.0386 12.1828 902 87.6741 1095.42 496.8
1926 0 76.0547 12.5305 953 87.17 1096.06 495.857
1927 0 76.0547 12.5436 954 148.7 1097.06 495.735
1928 0 79.0414 12.4365 983 88.4212 1096.4 490.827
1929 0 82.0479 11.8589 973 90.0925 1095.58 488.863
1930 0 85.0971 12.4211 1057 90.1116 1095.49 486.77
1931 0 87.0494 12.2 1062 94.1356 1095.62 486.524
1932 1 44.0809 10.5942 467 91.5589 1095.1 509.636
1933 0 45.1152 11.526 520 90.7115 1095.35 508.721
1934 0 48.0703 11.3376 545 91.811 1095.81 507.253
1935 0 48.0875 11.4375 550 93.2055 1096.18 506.955
1936 0 51.2311 11.3408 581 93.6076 1095.2 505.969
1937 0 52.1337 11.9309 622 93.1222 1095.2 505.206
1938 0 53.1057 11.9949 637 95.2998 1095.56 505.367
1939 0 56.1306 12.079 678 96.3628 1095.82 506.233
1940 0 55.1299 12.0261 663 98.0181 1096.07 505.6
1941 0 57.1622 13.0681 747 94.1754 1094.57 503.541
1942 0 59.1711 13.1652 779 94.7381 1095.16 503.949
1943 0 62.2321 13.0961 815 94.8393 1094.24 502.811
1944 0 64.0783 12.8437 823 96.565 1094.4 502.365
1945 0 68.1352 12.2257 833 98.0624 1093.97 501.421
1946 0 68.1189 13.1681 897 97.5608 1094.95 499.604
1947 0 67.0777 13.1489 882 99.3481 1095.38 497.957
1948 0 72.218 13.5008 975 96.7887 1095.32 497.503
1949 0 72.0911 13.4413 969 93.7358 1095.1 495.411
1950 0 72.0224 13.1903 950 97.2095 1095.41 494.16
1951 0 75.0533 13.1506 987 99.3617 1095.08 495.168
1952 0 77.0386 13.2142 1018 99.8566 1095.24 492.795
1953 0 80.0237 12.6962 1016 100.714 1094.88 491.832
1954 0 81.0649 13.0636 1059 100.043 1094.96 490.116
1955 0 84.0376 13.2798 1116 97.7975 1094.05 488.37
1956 0 87.0289 13.0302 1134 97.8404 1094.93 486.29
1957 0 91.0648 13.5069 1230 95.9968 1094.04 483.463
1958 1 47.0385 10.5445 496 98.8105 1095.08 505.683
1959 0 49.0249 10.9332 536 99.0616 1094.42 504.974
1960 0 53.039 11.8592 629 97.7043 1095.07 504.218
1961 0 53.039 11.8215 627 136.53 1097.07 504.14
1962 0 61.1132 12.6159 771 93.1777 1095.16 506.201
1963 0 62.0579 11.9244 740 96.45 1094.81 505.977
1964 0 64.1208 12.2113 783 96.2656 1095.78 505.488
1965 0 65.0483 13.2363 861 91.5714 1095.14 503.467
1966 0 68.0388 13.1249 893 93.3113 1094.47 502.984
1967 0 70.0318 12.68 888 95.0518 1093.95 501.422
1968 0 70.0262 12.124 849 97.8881 1094.25 502.284
1969 0 70.0313 12.3373 864 98.7708 1094.4 501.661
1970 0 74.0863 11.9725 887 99.1691 1094.74 500.204
1971 0 74.0611 11.8551 878 101.661 1095.38 499.216
1972 0 80.0669 12.3397 988 99.2389 1094.5 498.069
1973 0 82.0511 12.4435 1021 100.222 1095.02 496.319
1974 0 83.041 12.3553 1026 102.48 1094.76 495.549
1975 0 88.0172 12.9179 1137 101.557 1094.21 486.299
1976 0 91.0674 13.1112 1194 101.394 1094.16 488.325
1977 0 93.1065 13.2429 1233 101.424 1095.11 491.135
1978 1 51.0691 10.4956 536 102.535 1094.83 512.349
1979 0 52.0472 10.894 567 100.702 1095.6 512.296
1980 0 50.0617 10.4671 524 99.4389 1094.8 508.616
1981 0 55.0237 11.9403 657 99.2527 1094.88 511.181
1982 0 55.0558 11.4974 633 93.1185 1094.81 510.676
1983 0 58.1381 12.2467 712 90.7388 1094.72 510.407
1984 0 58.1579 11.8643 690 92.0681 1095.34 508.842
1985 0 60.065 11.987 720 91.4181 1094.9 508.064
1986 0 64.1833 12.3085 790 89.7696 1094.97 506.465
1987 0 65.2347 12.3247 804 90.306 1095.17 506.418
1988 0 67.1067 11.4296 767 92.2086 1095.08 504.218
1989 0 68.2181 11.0528 754 94.76 1094.83 505.191
1990 0 71.0842 12.3797 880 92.4841 1095.03 502.977
1991 0 74.0521 12.5857 932 91.8058 1094.29 500.029
1992 0 75.1966 12.3277 927 92.2621 1094.11 499.819
1993 0 79.0936 12.3019 973 91.3905 1093.35 499.927
1994 0 82.0985 12.3876 1017 91.1524 1094.46 497.371
1995 1 43.064 11.0069 474 94.711 1094.12 515.865
1996 0 42.0274 9.9221 417 97.8513 1093.57 515.002
1997 0 44.0178 11.1318 490 95.7429 1093.88 514.363
1998 0 44.0144 10.7919 475 97.2337 1094.56 512.705
1999 0 45.0944 11.6644 526 95.1901 1094.64 510.93
2000 0 46.0438 11.9234 549 91.153 1094.98 515.913
2001 0 47.0328 11.8641 558 91.3907 1095.53 514.889
2002 0 46.0325 11.3615 523 95.4455 1094.82 514.763
2003 0 50.0662 11.5447 578 94.026 1094.16 513.702
2004 0 49.061 11.0882 544 96.9688 1093.65 513.513
2005 0 52.0326 11.7234 610 94.9623 1094.49 513.175
2006 0 52.0928 11.4603 597 95.9632 1094.35 513.484
2007 0 53.0492 11.9512 634 96.4858 1094.68 509.962
2008 0 57.0218 11.5745 660 95.8015 1094.73 509.685
2009 0 56.0359 12.0815 677 96.3324 1094.26 508.953
2010 0 56.0316 11.904 667 98.9505 1093.91 509.439
2011 0 59.0256 11.8254 698 99.4456 1094.37 507.113
2012 0 61.0996 11.6858 714 100.725 1093.32 506.94
2013 0 62.0696 12.2765 762 100.444 1094.07 505.924
2014 0 64.1152 11.8849 762 100.741 1093.89 504.407
2015 0 66.0515 11.7484 776 100.102 1095.15 503.446
2016 0 66.0755 12.3495 816 101.944 1093.98 501.95
2017 0 68.0502 12.3291 839 101.403 1095.22 503.042
2018 0 70.0713 11.8451 830 102.675 1094.66 500.306
2019 0 71.0512 11.5832 823 103.897 1094.69 498.537
2020 0 73.0218 11.7499 858 103.358 1094.32 496.632
2021 0 79.0456 11.7274 927 102.224 1094.3 495.826
2022 0 78.0501 11.9667 934 103.059 1093.68 493.075
2023 0 82.0698 12.1847 1000 102.51 1094.07 493.86
2024 0 82.0916 12.1815 1000 101.935 1094.21 493.261
2025 0 82.0379 12.0798 991 103.306 1093.87 489.71
2026 0 84.0829 12.3688 1040 102.816 1094.53 487.82
2027 0 88.0335 12.2908 1082 101.583 1094.3 486.024
2028 0 91.0349 12.0833 1100 102.051 1095.08 484.679
2029 0 93.0446 12.2414 1139 101.666 1094.25 482.551
2030 0 96.0649 11.6588 1120 101.186 1094.9 480.938
2031 1 56.0185 11.5498 647 94.2458 1094.43 502.584
2032 0 57.0567 11.4097 651 95.1321 1094.54 502.14
2033 0 59.0711 11.9009 703 94.8506 1094.27 502.555
2034 0 63.0231 11.71 738 94.435 1094.03 500.386
2035 0 65.0368 11.7779 766 92.3486 1094.46 505.286
2036 0 68.1103 12.0099 818 92.4572 1093.76 502.632
2037 0 69.0362 12.4862 862 91.5209 1095.16 501.278
2038 0 70.0612 12.3749 867 92.1534 1095.12 499.157
2039 0 71.0991 12.1661 865 92.7503 1094.95 499.31
2040 0 73.064 12.2906 898 92.1971 1095.06 496.477
2041 0 75.0689 12.5352 941 91.0925 1095.36 494.836
2042 0 79.0935 12.226 967 90.5315 1094.84 493.418
2043 0 80.0664 12.3148 986 91.2931 1095.14 491.676
2044 0 83.0457 12.5714 1044 90.9502 1093.83 491.569
2045 0 84.0407 12.4345 1045 91.2344 1095.13 487.582
2046 0 86.1344 12.318 1061 92.7804 1094.25 486.512
2047 0 90.0258 12.6297 1137 91.8241 1094.58 486.304
2048 0 94.127 12.6319 1189 91.1548 1094.58 485.27
2049 0 96.0578 12.8777 1237 89.9361 1094.84 482.538
2050 0 98.0278 12.5781 1233 91.6586 1094.7 483.195
2051 0 103.054 12.2266 1260 92.273 1094.81 480.552
2052 1 51.0634 9.51758 486 86.3951 1095.23 502.525
2053 0 52.0127 9.68995 504 88.744 1094.64 499.321
2054 0 54.0253 10.8468 586 86.4198 1094.73 496.638
2055 0 55.0177 10.8692 598 86.4314 1094.85 495.727
2056 0 59.0387 10.942 646 88.9907 1094.85 497.768
2057 0 65.0757 10.5569 687 88.2722 1094.13 501.748
2058 0 67.0655 11.869 796 85.7274 1095.07 499.295
2059 0 70.0947 10.7426 753 86.7517 1093.59 497.424
2060 0 72.1145 10.6775 770 88.5468 1094.84 495.891
2061 0 79.0565 10.9795 868 89.6037 1093.86 495.149
2062 0 77.0352 11.0209 849 92.4853 1094.16 495.515
2063 0 80.0676 11.253 901 92.9922 1094.02 493.868
2064 0 82.064 11.2473 923 91.7638 1094.44 488.732
2065 0 85.0348 11.7246 997 91.8195 1094.12 488.187
2066 0 93.0648 12.4107 1155 88.574 1094.57 487.377
2067 0 95.0464 12.9621 1232 87.9951 1093.78 486.936
2068 0 96.0407 11.693 1123 91.9706 1094.88 487.321
2069 1 52.0151 10.9391 569 88.2619 1093.16 509.868
2070 0 54.0265 10.0136 541 89.7006 1093.97 510.002
2071 0 57.0235 11.3637 648 89.8086 1093.72 508.943
2072 0 58.028 12.0459 699 88.6724 1093.98 508.25
2073 0 58.0907 10.8279 629 83.6041 1095.16 509.38
2074 0 61.0395 10.9274 667 83.7991 1095.34 508.772
2075 0 62.0396 10.59 657 84.7367 1094.69 508.591
2076 0 61.0401 10.9272 667 86.3958 1094.97 505.721
2077 0 65.0687 11.1267 724 86.645 1094.56 504.409
2078 0 68.0392 10.8467 738 88.0569 1095.18 503.986
2079 0 69.0812 11.7977 815 85.9386 1094.87 503.146
2080 0 70.0851 11.0152 772 91.035 1095.76 501.539
2081 0 71.1086 11.6442 828 89.6655 1095.37 500.9
2082 0 73.1127 11.6122 849 90.7479 1095.47 499.079
2083 0 77.1146 12.462 961 89.2216 1095.75 499.292
2084 0 79.0781 12.2031 965 91.2238 1095.81 496.863
2085 0 82.1276 12.2979 1010 91.2495 1095.19 494.412
2086 0 83.0757 11.7965 980 93.4531 1095.2 494.68
2087 0 86.1195 12.5291 1079 92.5913 1094.34 493.927
2088 0 89.1396 12.2841 1095 94.4694 1094.91 491.855
2089 0 89.1396 12.2729 1094 144.413 1094.93 491.734
2090 0 99.0701 12.476 1236 99.7144 1094.84 487.689
2091 0 100.062 12.7821 1279 99.9265 1094.87 485.611
2092 0 104.107 13.1211 1366 99.6713 1095.36 483.387
2093 1 53.0723 10.0617 534 97.4382 1094.26 508.605
2094 0 56.0557 11.2567 631 95.0428 1094.68 507.761
2095 0 57.077 11.9313 681 94.7695 1094.55 506.827
2096 0 60.0456 11.408 685 97.9912 1094.98 505.6
2097 0 63.0362 11.8503 747 95.8126 1093.91 504.622
2098 0 64.0117 12.3884 793 95.2383 1095.24 503.936
2099 0 67.0139 12.5496 841 95.0951 1093.67 501.804
2100 0 68.0288 12.4212 845 97.2343 1094.04 501.077
2101 0 67.0491 12.1702 816 101.892 1094.4 500.143
2102 0 71.0251 12.1788 865 101.636 1094.67 499.504
2103 0 73.1094 12.8301 938 100.405 1095.39 499.423
2104 0 75.0526 13.244 994 100.612 1095.51 496.824
2105 0 75.055 12.6307 948 103.536 1095.23 497.046
2106 0 78.0799 12.7562 996 102.703 1095.04 496.022
2107 0 80.1027 13.5077 1082 102.201 1095.44 494.431
2108 0 83.0764 12.663 1052 102.861 1095.77 493.095
2109 0 85.047 12.7694 1086 102.878 1095.87 490.84
2110 0 87.0981 12.7902 1114 102.171 1095.6 490.647
2111 0 89.0854 12.7967 1140 101.725 1095.83 489.05
2112 0 91.0854 13.2184 1204 99.4369 1094.76 488.758
2113 0 93.0747 12.5383 1167 101.236 1094.83 486.968
2114 0 95.1118 12.5011 1189 102.18 1094.7 485.383
2115 0 99.0525 12.8619 1274 101.119 1094.95 483.874
2116 1 55.0497 11.0627 609 100.232 1094.16 506.658
2117 0 56.0476 11.2405 630 101.748 1095.26 505.198
2118 0 56.0789 11.3055 634 101.683 1095.61 500.582
2119 0 55.059 11.1698 615 94.5285 1096.08 498.728
2120 0 56.067 11.3793 638 94.7524 1095.75 496.931
2121 0 57.0374 10.8876 621 96.409 1096.41 495.358
2122 0 58.0587 11.0233 640 95.0875 1096.68 493.795
2123 0 61.0557 11.4486 699 94.299 1095.72 492.84
2124 0 64.0314 11.2757 722 93.4418 1095.84 493.569
2125 0 67.0955 11.5656 776 91.6675 1095.27 490.59
2126 0 70.0707 10.6321 745 86.5087 1095.69 495.591
2127 0 75.1068 11.8098 887 90.2988 1095.22 495.455
2128 0 77.119 12.176 939 91.7977 1095.34 494.348
2129 0 79.0511 11.9037 941 89.0489 1093.95 493.693
2130 0 81.0266 10.9347 886 90.605 1095.7 494.411
2131 0 86.2168 11.5291 994 90.1197 1095.83 490.782
2132 1 45.0262 10.6827 481 92.3098 1096.11 511.198
2133 0 48.0671 10.8806 523 96.0746 1096.23 507.352
2134 0 50.0494 11.129 557 96.7038 1095.18 509.14
2135 0 51.041 11.5789 591 92.3418 1096.3 509
2136 0 50.0906 10.3213 517 86.0484 1095.57 509.896
2137 0 51.0342 10.8359 553 85.7107 1095.84 509.38
2138 0 51.0671 10.6722 545 86.1229 1096.44 507.222
2139 0 55.0657 10.6237 585 84.8188 1095.92 506.853
2140 0 57.0708 10.6885 610 85.3508 1096.1 506.975
2141 0 57.0982 11.0161 629 85.442 1095.06 505.781
2142 0 60.0337 11.4436 687 84.7627 1095.28 503.387
2143 0 63.1001 12.0127 758 81.6847 1094.82 503.972
2144 0 64.1312 11.2738 723 84.184 1095.35 502.797
2145 0 66.0382 11.5842 765 84.1438 1094.86 501.489
2146 0 68.0124 11.5861 788 84.1904 1095.8 499.656
2147 0 71.0654 12.5659 893 83.028 1095.59 498.941
2148 0 73.074 11.6321 850 85.3894 1095.86 498.654
2149 0 75.022 11.8632 890 85.8933 1095.58 496.609
2150 0 77.0341 12.1115 933 85.5145 1096.06 494.208
2151 0 78.046 11.6085 906 87.372 1095.68 491.015
2152 0 81.0729 12.3222 999 86.2502 1095.91 493.502
2153 0 84.1188 11.1152 935 89.8727 1094.8 490.326
2154 0 86.1042 11.1841 963 89.6833 1095.15 490.587
2155 0 88.1373 11.709 1032 88.6017 1094.66 487.449
2156 0 91.0813 11.2427 1024 89.4775 1095.09 487.423
2157 0 93.1047 11.965 1114 89.3124 1096.17 484.7
2158 0 94.0744 11.4165 1074 89.7486 1095.46 484.049
2159 0 98.1056 10.6008 1040 91.3404 1097.07 480.606
2160 0 99.0635 11.2049 1110 90.0892 1096.69 477.922
2161 0 103.082 11.0203 1136 90.0819 1095.99 477.002
2162 0 105.095 10.4097 1094 91.0274 1096.18 474.271
2163 1 55.1608 8.73809 482 83.027 1096.03 501.707
2164 0 58.0686 8.8516 514 83.9377 1096.22 500.751
2165 0 59.093 10.0519 594 83.8266 1096.24 499.471
2166 0 63.0166 10.0291 632 82.8972 1096.7 498.403
2167 0 60.0375 10.4268 626 86.8546 1096.85 493.257
2168 1 69.0617 10.6137 733 89.9795 1097.16 496.969
2169 0 69.0545 10.8465 749 89.9559 1097.14 493.838
2170 0 75.0839 11.4272 858 87.7576 1096.64 494.761
2171 0 73.0304 11.1324 813 90.3358 1096.86 492.394
2172 0 76.0906 12.0646 918 89.1721 1096.47 490.082
2173 0 77.0593 11.277 869 90.3579 1097.61 490.144
2174 0 82.0917 11.9257 979 88.5138 1096.37 489.423
2175 0 83.0908 11.7342 975 91.0892 1097.55 487.257
2176 0 89.0755 11.9674 1066 89.6801 1096.71 488.697
2177 0 93.0925 12.6433 1177 88.0178 1096.77 485.76
2178 0 94.0746 12.0436 1133 90.4228 1096.16 485.953
2179 0 97.0862 12.7825 1241 89.2603 1097.24 486.396
2180 0 98.0381 12.5053 1226 91.8491 1096.66 483.416
2181 0 98.0319 12.5163 1227 146.356 1096.65 483.489
2182 0 105.03 12.5774 1321 92.5836 1096.53 479.927
2183 0 108.068 12.7327 1376 92.1853 1096.72 479.504
2184 0 110.093 13.3523 1470 90.2245 1095.71 478.482
2185 0 112.051 12.3783 1387 92.6712 1095.9 476.603
2186 0 115.098 12.8152 1475 90.3207 1095.87 475.398
2187 0 121.115 13.095 1586 89.8329 1096.57 472.309
2188 0 123.094 12.5595 1546 90.817 1096.22 469.576
2189 0 127.074 13.079 1662 88.583 1096.97 468.965
2190 0 133.146 12.783 1702 89.5264 1097.02 466.95
2191 0 138.165 13.2813 1835 88.7629 1096.83 466.213
2192 0 144.137 15.3604 2214 83.6725 1097.13 458.453
2193 0 145.181 12.97 1883 92.4015 1096.72 460.248
2194 0 149.201 13.3779 1996 92.2736 1096.37 456.977
2195 0 156.129 14.0333 2191 91.612 1096.68 454.356
2196 0 160.165 13.1177 2101 94.7059 1096.43 453.937
2197 0 165.136 13.177 2176 95.9407 1096.09 451.191
2198 1 85.1098 11.7025 996 92.7068 1096.22 494.267
2199 0 85.0748 11.6368 990 95.1707 1096.7 488.781
2200 0 89.0594 11.352 1011 93.3709 1096.97 492.272
2201 0 91.0648 11.9036 1084 93.3681 1096.44 491.232
2202 0 94.082 11.6813 1099 94.9463 1096.41 490.295
2203 0 97.0589 11.6218 1128 94.8777 1096.2 490.214
2204 0 100.062 11.0631 1107 97.2367 1096.67 487.085
2205 0 103.104 11.309 1166 96.6664 1096.97 484.719
2206 1 53.04 10.0679 534 90.3577 1096.92 511.313
2207 0 52.009 10.3636 539 81.0186 1096.8 511.434
2208 0 53.0281 9.82497 521 82.4319 1096.26 512.614
2209 0 55.0332 10.1575 559 82.9302 1097.13 509.896
2210 0 56.0694 10.6653 598 82.811 1098.05 508.635
2211 0 57.0596 10.1999 582 83.933 1097.39 509.019
2212 0 60.0648 10.1723 611 83.7889 1097.19 509.262
2213 0 61.0105 10.1458 619 82.8724 1097.05 509.267
2214 0 63.0448 10.2784 648 84.0725 1097.49 507.653
2215 0 64.0403 10.2748 658 84.2888 1097.04 506.612
2216 0 64.0741 10.2225 655 86.429 1097.87 504.818
2217 0 67.0335 10.6215 712 84.8244 1096.92 504.601
2218 0 71.0891 10.7049 761 84.8423 1096.53 503.043
2219 0 72.0307 10.7871 777 86.0656 1098.23 501.535
2220 0 73.1047 10.5602 772 86.9469 1097.52 499.978
2221 0 75.0486 10.5665 793 88.029 1097.24 501.165
2222 0 77.0476 10.7336 827 87.2152 1096.9 500.283
2223 0 81.0744 10.8172 877 87.5815 1097.12 498.34
2224 0 81.0577 10.363 840 88.0298 1097.16 497.462
2225 0 85.0972 10.1884 867 88.4095 1097.18 495.622
2226 0 87.0814 10.5533 919 88.4418 1096.91 492.716
2227 1 48.0135 8.6434 415 86.506 1097.8 515.14
2228 0 50.0249 10.4748 524 83.0344 1098.31 513.208
2229 0 50.0641 10.9659 549 86.1129 1097.06 510.616
2230 0 51.1641 10.3393 529 87.7164 1097.3 507.851
2231 0 51.0787 10.7873 551 87.363 1097.14 505.47
2232 0 55.0645 11.4411 630 87.5524 1095.55 508.841
2233 0 56.0373 11.5637 648 86.9475 1094.17 509.69
2234 0 58.0364 11.3205 657 87.0731 1095.12 509.049
2235 0 57.0604 11.1461 636 88.7076 1095.03 507.86
2236 0 58.0442 10.4059 604 78.8709 1095.39 507.924
2237 0 60.0114 11.4978 690 76.8333 1095.1 507.745
2238 0 62.0762 10.6321 660 77.6621 1097.17 508.718
2239 0 63.1539 10.799 682 78.2522 1096.21 506.29
2240 0 65.0601 11.3434 738 77.1843 1095.6 504.764
2241 0 66.0734 11.1391 736 77.663 1095.8 503.5
2242 0 67.031 10.8159 725 78.1076 1096.11 505.048
2243 0 73.071 11.9336 872 75.3647 1095.51 503.493
2244 0 72.0862 11.5001 829 77.076 1095.53 502.944
2245 0 75.0513 11.6987 878 77.1401 1095.23 503.736
2246 0 76.123 12.0726 919 77.2862 1094.32 502.017
2247 0 79.1772 11.8721 940 79.9287 1094.71 501.407
2248 0 81.0979 11.8499 961 82.0094 1095.46 498.814
2249 0 84.1207 12.6247 1062 85.7298 1095.63 498.282
2250 0 86.0547 12.6199 1086 85.8923 1095.14 495.764
2251 0 88.0745 12.603 1110 86.2532 1096.46 494.886
2252 0 89.1497 12.7538 1137 86.4521 1095.81 493.476
2253 0 93.1225 13.5735 1264 85.197 1096.06 490.454
2254 0 95.1388 13.0861 1245 86.7084 1095.68 490.318
2255 0 97.121 12.7264 1236 88.4531 1095.89 488.519
2256 0 100.138 12.9821 1300 87.8946 1095.44 487.058
2257 1 51.1074 10.8986 557 83.8366 1095.8 511.971
2258 0 53.0601 10.686 567 81.2628 1095.95 512.792
2259 0 56.0338 11.3324 635 78.2189 1095.89 511.373
2260 0 55.0978 11.7609 648 78.912 1095.9 511.824
2261 0 58.0365 11.8546 688 78.3154 1095.08 510.981
2262 0 59.0417 11.9746 707 78.3932 1094.73 510.685
2263 0 61.0488 11.9904 732 78.1926 1095.98 510.648
2264 0 62.0239 12.1889 756 78.7354 1095.38 509.673
2265 0 61.0403 12.0576 736 80.0978 1095.42 507.772
2266 0 65.0442 12.4838 812 78.6589 1095.68 506.096
2267 0 67.0638 12.4359 834 86.0648 1095.43 505.367
2268 0 70.07 12.4304 871 85.4845 1095.52 503.256
2269 0 72.0207 12.5242 902 85.4246 1095.82 502.04
2270 0 74.0615 12.1116 897 85.1472 1094.25 502.106
2271 0 76.0801 12.5394 954 83.7484 1095.38 501.357
2272 0 79.0552 11.6248 919 86.2829 1094.74 499.09
2273 0 82.0866 12.633 1037 83.4986 1095.65 498.285
2274 0 84.1079 11.8776 999 85.047 1094.73 497.064
2275 0 86.1027 12.2528 1055 85.0654 1095.21 495.446
2276 0 88.044 12.3575 1088 84.5267 1095.53 494.475
2277 0 92.0666 12.3172 1134 85.0194 1095.12 491.526
2278 0 92.0666 12.3715 1139 137.455 1094.12 491.551
2279 1 49.077 11.5737 568 80.7746 1094.61 514.699
2280 0 50.0173 10.9162 546 82.4267 1095.02 513.385
2281 0 52.0309 11.6469 606 79.9109 1095.62 511.881
2282 0 54.0761 11.8352 640 79.7969 1094.72 511.77
2283 0 49.0836 10.6757 524 80.1679 1094.56 513.576
2284 0 53.0962 11.0366 586 78.3498 1095.28 512.392
2285 0 55.1229 10.8666 599 78.4858 1095.29 512.618
2286 0 55.0745 11.3664 626 78.5463 1094.38 509.411
2287 0 57.0382 10.7296 612 80.0931 1094.53 509.368
2288 0 58.052 11.1452 647 80.1561 1095.03 505.971
2289 0 62.0732 11.1804 694 80.3977 1095.07 506.006
2290 0 64.0684 11.4565 734 80.1117 1095.59 506.485
2291 0 65.0447 10.9924 715 81.2587 1095.51 503.401
2292 0 67.0481 11.2755 756 81.1151 1095.27 503.294
2293 0 69.0172 11.8086 815 81.6528 1095.91 502.772
2294 0 70.0585 10.9194 765 79.3804 1095.41 499.009
2295 0 70.0366 10.7944 756 80.7434 1096.34 499.372
2296 0 74.0343 11.4812 850 84.2906 1094.79 499.018
2297 0 74.033 11.8326 876 84.6005 1095.1 496.529
2298 0 76.042 11.5331 877 84.9544 1094.25 494.568
2299 0 79.0728 11.5969 917 84.8735 1094.64 494.083
2300 0 81.0081 10.9989 891 88.6083 1094.42 493.933
2301 0 83.0431 11.8252 982 87.9511 1094.28 492.952
2302 0 85.0454 11.535 981 87.4302 1095.59 490.876
2303 0 88.0419 11.733 1033 79.1462 1094.71 489.192
2304 0 92.0453 11.9398 1099 89.1556 1095.3 487.139
2305 0 94.0634 12.0557 1134 90.3034 1095.36 483.155
2306 0 95.0535 12.0669 1147 92.0323 1094.81 482.104
2307 0 99.1515 11.5782 1148 93.5732 1094.67 481.186
2308 1 54.0578 11.3397 613 91.4861 1095.07 503.522
2309 0 53.0318 11.1066 589 94.5705 1095.57 501.971
2310 0 58.0108 12.9286 750 89.708 1095.62 501.105
2311 0 54.0416 10.1588 549 88.5628 1094.7 500.514
2312 0 62.0349 10.9132 677 92.5761 1094.82 503.12
2313 0 66.0669 11.4278 755 93.8596 1093.6 502.362
2314 0 69.061 12.279 848 93.2571 1094.55 501.417
2315 0 71.0295 12.1217 861 94.3322 1094.34 502.116
2316 0 74.1411 12.3683 917 93.7481 1094.85 499.477
2317 0 76.0463 12.4266 945 95.6952 1094.25 499.22
2318 0 79.0287 12.0463 952 95.9265 1094.94 497.371
2319 0 81.0977 12.3555 1002 95.2685 1094.71 494.349
2320 0 82.0465 12.0663 990 95.4455 1095.1 492.668
2321 0 86.0397 12.3199 1060 94.7217 1094.04 490.025
2322 0 88.0574 12.5486 1105 94.4217 1093.9 488.172
2323 1 47.0359 9.73724 458 96.4192 1093.27 511.889
2324 0 51.0197 11.917 608 93.153 1093.89 512.829
2325 0 51.0185 11.1528 569 90.6028 1094.3 511.605
2326 0 53.0579 11.2707 598 84.3813 1094.49 509.174
2327 0 55.045 11.7177 645 83.8729 1094.54 509.895
2328 0 57.0245 11.1005 633 84.7583 1094.18 506.746
2329 0 58.0373 11.975 695 83.6777 1094.8 506.993
2330 0 61.0674 12.0686 737 81.924 1095.97 504.792
2331 0 62.0416 11.1054 689 85.6647 1096.34 501.952
2332 0 64.0272 11.6357 745 83.7826 1097.22 502.435
2333 0 66.0312 11.8277 781 84.42 1096.39 500.924
2334 0 69.0196 11.7503 811 85.3231 1096.8 498.778
2335 0 68.0749 12.0309 819 86.42 1096.55 498.458
2336 0 72.0387 12.063 869 86.6456 1097.07 498.216
2337 0 77.088 11.8955 917 86.9498 1096.55 496.667
2338 0 78.0669 11.9513 933 89.3901 1096.72 496.245
2339 0 79.1199 12.1082 958 90.7307 1097.2 495.478
2340 0 82.1074 12.4593 1023 91.0753 1097.61 495.057
2341 0 85.0834 12.3761 1053 92.7559 1096.34 493.822
2342 0 89.0892 12.7737 1138 93.0562 1096.28 492.918
2343 0 92.1152 13.1683 1213 91.5622 1096.48 493.511
2344 0 95.1032 13.3539 1270 92.2701 1097 493.915
2345 1 53.0862 11.4531 608 97.5066 1096.98 514.599
2346 0 52.1138 11.5133 600 101.357 1096.48 514.063
2347 0 54.1063 12.4015 671 96.9523 1096.63 513.718
2348 0 56.053 12.2919 689 92.521 1097.06 513.09
2349 0 55.0593 12.1687 670 89.5955 1097.13 513.516
2350 0 56.0524 12.185 683 88.7247 1096.94 512.928
2351 0 59.0308 11.7566 694 88.464 1096.46 512.121
2352 0 62.0197 12.9152 801 85.4844 1096.21 511.394
2353 0 65.0214 12.4728 811 86.2811 1095.64 511.619
2354 0 65.026 11.6107 755 88.7987 1095.37 509.972
2355 0 67.0236 12.0853 810 88.6827 1094.96 508.978
2356 0 69.0219 12.4019 856 88.271 1094.83 508.475
2357 0 71.0365 12.6977 902 87.6552 1094.5 508.22
2358 0 74.1044 12.7118 942 88.0626 1094.99 507.055
2359 0 75.0518 12.4447 934 89.6478 1094.36 505.52
2360 0 77.0363 12.3059 948 91.135 1094.59 504.734
2361 0 79.0488 12.2203 966 92.1315 1093.72 504.654
2362 0 82.0409 12.7741 1048 91.4265 1093.86 502.744
2363 0 85.0363 13.1591 1119 90.6059 1093.31 501.877
2364 0 88.0621 12.9 1136 92.2245 1094.57 501.263
2365 0 90.1084 12.8512 1158 94.2021 1093.06 499.386
2366 0 91.0899 12.6359 1151 95.7741 1093.2 497.548
2367 0 94.0891 12.7114 1196 96.9139 1092.73 496.732
2368 0 97.0808 13.1746 1279 97.774 1093.63 493.996
2369 0 98.1141 11.7109 1149 101.368 1093.88 495.52
2370 0 100.07 11.8318 1184 101.345 1093.08 492.116
2371 0 105.197 12.3007 1294 102.563 1093.31 489.348
2372 1 50.0436 9.85142 493 92.2353 1092.8 514.442
2373 0 54.0636 11.172 604 96.4553 1093.23 514.093
2374 0 56.0203 10.4248 584 86.6747 1092.4 510.426
2375 0 58.033 10.942 635 86.7638 1092.47 514.34
2376 0 57.0928 10.9821 627 87.1531 1092.49 514.085
2377 0 61.0525 10.6793 652 85.2577 1093.18 512.624
2378 0 63.0658 11.1312 702 83.01 1092.67 512.217
2379 0 66.047 11.5827 765 82.0588 1093.53 509.956
2380 0 68.0459 10.8015 735 82.4299 1093.73 510.497
2381 0 68.0527 11.0503 752 81.8564 1093.67 508.589
2382 0 70.0525 11.2773 790 81.838 1092.72 507.739
2383 0 74.0699 12.2047 904 80.1925 1092.82 504.908
2384 0 75.1443 11.5378 867 81.9931 1092.39 503.982
2385 0 78.0833 12.0256 939 81.1278 1093.04 501.394
2386 0 81.0568 12.0533 977 79.9355 1092.93 500.532
2387 0 83.0649 11.8702 986 80.7718 1092.88 499.078
2388 0 84.0933 11.7013 984 81.3161 1092.77 497.611
2389 0 86.0765 12.4889 1075 80.9126 1092.37 495.445
2390 0 90.132 12.1267 1093 88.9954 1093.51 495.811
2391 0 92.119 11.7891 1086 85.3738 1093.87 489.3
2392 0 94.132 11.3989 1073 87.1025 1094.03 488.372
2393 0 95.1834 11.1889 1065 89.4244 1093.79 486.652
2394 0 101.256 11.5647 1171 87.0359 1094.65 484.951
2395 0 104.188 11.7096 1220 88.7984 1094.25 483.464
2396 0 107.253 12.2607 1315 88.5087 1094.04 480.198
2397 0 110.162 11.9279 1314 88.8006 1094.27 479.122
2398 0 111.219 11.1761 1243 90.7522 1094.31 478.351
2399 0 115.292 12.0217 1386 89.6292 1095.54 475.429
2400 0 118.247 11.4507 1354 90.6957 1094.49 472.803
2401 0 124.37 11.3291 1409 90.9383 1094.67 471.771
2402 0 125.249 10.9302 1369 92.3324 1094.47 469.532
2403 0 127.154 10.9395 1391 93.2416 1094.89 467.745
2404 0 132.259 10.8499 1435 93.6613 1094.39 464.609
2405 0 138.326 11.0391 1527 93.4362 1094.71 462.234
2406 0 142.276 10.9716 1561 93.2082 1094.61 461.446
2407 0 145.34 11.3596 1651 93.3901 1095.52 457.973
2408 0 151.294 10.7737 1630 93.7669 1095.86 455.449
2409 0 157.303 11.4238 1797 91.5253 1096.61 452.073
2410 0 162.429 11.3772 1848 95.4681 1095.72 450.01
2411 1 74.3757 10.6083 789 93.8327 1096.26 497.022
2412 0 76.3169 11.0985 847 98.5407 1096.04 493.176
2413 0 79.2354 10.412 825 99.1176 1096.42 493.401
2414 0 81.0329 10.65 863 95.4959 1096.79 496.645
2415 0 82.083 9.80715 805 97.954 1095.55 493.379
2416 0 85.0684 10.9794 934 94.6585 1095.04 491.703
2417 0 90.0617 11.1923 1008 93.2163 1095.5 493.888
2418 0 91.1424 12.0251 1096 93.4288 1095.42 492.099
2419 0 94.117 11.2838 1062 94.7797 1095.74 491.609
2420 0 96.078 11.6468 1119 94.8409 1095.34 488.544
2421 0 101.086 12.2667 1240 94.1726 1096.16 485.815
2422 0 103.072 11.1475 1149 95.8755 1095.44 485.345
2423 0 105.134 11.6328 1223 90.2175 1096.3 484.041
2424 0 111.186 11.4313 1271 93.9095 1095.65 479.429
2425 0 114.215 11.3471 1296 95.1034 1096.05 477.412
2426 0 121.253 11.076 1343 96.5175 1095.55 475.616
2427 0 125.112 11.0461 1382 91.898 1095.71 478.187
2428 1 57.0423 11.4126 651 80.5069 1095.73 511.743
2429 0 57.0276 10.8369 618 83.0016 1095.19 510.866
2430 0 58.0327 11.528 669 82.0598 1095.71 509.961
2431 0 60.0287 11.8443 711 81.9269 1095.5 509.364
2432 0 61.0809 12.1969 745 82.0242 1096.31 509.184
2433 0 65.1011 12.0735 786 81.9567 1095.55 508.668
2434 0 66.1447 12.8657 851 82.5852 1096.63 507.913
2435 0 69.2518 12.5195 867 84.6482 1096.15 507.866
2436 0 69.0843 11.9998 829 93.7081 1096.46 504.645
2437 0 71.205 11.9233 849 93.6196 1095.52 505.38
2438 0 71.1874 12.1089 862 94.406 1095.81 504.596
2439 0 74.2759 12.3863 920 94.1967 1095.06 500.92
2440 0 76.2262 11.9906 914 95.3917 1095.61 501.207
2441 0 79.1853 12.7296 1008 94.3502 1095.56 497.088
2442 0 81.3468 12.5635 1022 94.683 1096.1 497.222
2443 0 83.3641 12.5954 1050 95.1133 1096.14 495.425
2444 0 84.2821 12.3751 1043 95.8207 1095.31 495.002
2445 0 87.2725 12.5011 1091 95.396 1096.19 493.982
2446 0 88.3282 12.7592 1127 96.024 1095.22 492.918
2447 0 91.26 12.2178 1115 96.922 1096.17 490.525
2448 0 93.2885 12.724 1187 96.2915 1095.64 490.961
2449 0 96.2984 12.4924 1203 97.2835 1095.44 487.771
2450 0 98.419 12.7211 1252 97.1078 1094.67 486.184
2451 0 100.434 12.3963 1245 96.6988 1094.61 486.422
2452 0 103.343 13.2084 1365 93.8484 1094.38 484.377
2453 0 106.204 12.8526 1365 94.5751 1095.01 482.65
2454 0 111.167 13.763 1530 92.2882 1095.12 482.112
2455 0 113.154 13.6275 1542 92.0104 1095.6 480.969
2456 0 118.173 13.2771 1569 92.2314 1094.77 477.769
2457 0 119.176 13.1318 1565 92.922 1095.86 475.288
2458 0 125.319 13.326 1670 92.2521 1095.24 473.823
2459 0 127.283 13.4267 1709 92.8233 1095.9 470.676
2460 1 70.189 9.8591 692 82.1084 1096.22 507.169
2461 0 71.213 10.5318 750 81.9107 1095.22 504.952
2462 0 73.1656 10.7974 790 81.8076 1096.1 504.458
2463 0 74.2369 11.4229 848 81.9375 1095.3 501.725
2464 0 77.0693 11.561 891 84.6061 1096 500.811
2465 0 78.0856 11.3593 887 85.3743 1095.44 499.759
2466 0 82.1125 11.4112 937 85.2956 1095.73 497.637
2467 0 86.1088 11.9848 1032 84.6386 1095.22 496.467
2468 0 88.1358 12.1063 1067 84.4077 1094.78 496.298
2469 0 89.1083 11.6039 1034 86.2389 1094.34 493.883
2470 0 92.196 11.9962 1106 85.7324 1095.13 490.82
2471 0 95.2248 11.8352 1127 85.2919 1095.57 491.26
2472 0 98.1667 11.6231 1141 85.489 1095.39 489.01
2473 0 101.18 11.9886 1213 85.7988 1095.74 488.557
2474 0 104.196 11.9103 1241 87.0733 1095.74 486.5
2475 0 105.238 12.0679 1270 87.3638 1095.76 485.178
2476 0 108.177 11.5551 1250 88.9144 1095.64 480.946
2477 0 111.134 11.4097 1268 90.2232 1095.49 479.301
2478 0 117.141 12.0368 1410 88.4851 1095.21 479.46
2479 0 119.191 11.9221 1421 89.7579 1094.84 476.477
2480 0 123.23 11.5718 1426 91.0743 1094.48 473.437
2481 0 128.152 11.7439 1505 91.3289 1095.14 472.359
2482 0 128.147 11.2371 1440 93.0479 1095.64 469.937
2483 0 135.159 12.156 1643 87.3962 1095.19 466.97
2484 0 139.19 11.9908 1669 89.8568 1095.94 463.866
2485 0 144.129 12.0309 1734 89.9689 1095.5 463.264
2486 0 148.237 11.5019 1705 89.6129 1094.65 461.038
2487 0 155.122 11.8939 1845 88.1268 1095.28 459.928
2488 1 86.0915 9.47829 816 78.5159 1094.74 496.914
2489 0 88.0684 10.242 902 78.5111 1095.09 494.832
2490 0 90.0486 10.25 923 79.611 1094.96 491.634
2491 0 92.1353 10.1156 932 82.897 1094.88 490.729
2492 0 97.113 10.0913 980 83.4469 1094.67 489.019
2493 0 99.0926 10.6567 1056 84.5881 1095.05 488.608
2494 0 102.084 11.4415 1168 83.4658 1094.67 487.37
2495 0 104.133 11.0435 1150 83.9991 1094.83 484.637
2496 0 106.156 10.5222 1117 85.4503 1094.55 482.833
2497 0 110.131 10.7962 1189 85.4693 1094.66 482.151
2498 0 114.171 10.6507 1216 86.2837 1094.48 478.8
2499 0 118.156 11.2986 1335 84.8217 1093.81 478.318
2500 0 121.109 10.7754 1305 86.6337 1094.5 475.344
2501 0 123.154 11.0431 1360 86.8198 1094.74 475.026
2502 0 127.119 10.8796 1383 88.1034 1095.42 470.62
2503 0 130.131 10.4971 1366 88.8045 1095.25 470.378
2504 0 136.157 10.7449 1463 89.4593 1094.65 469.137
2505 1 75.1412 9.19603 691 88.2272 1095.29 500.324
2506 0 80.1576 10.0427 805 87.5652 1094.94 500.016
2507 0 80.1165 10.0728 807 90.6444 1094.95 498.689
2508 0 84.2092 10.4858 883 90.2424 1095.31 497.669
2509 0 86.1629 11.2229 967 91.0269 1094.65 496.378
2510 0 90.129 11.2284 1012 91.8419 1094.26 495.272
2511 0 92.1628 10.8938 1004 94.1594 1094.55 493.429
2512 0 93.112 10.3209 961 96.9688 1094.6 489.598
2513 0 98.1847 11.3256 1112 94.3138 1094.28 491.38
2514 0 99.1779 11.2323 1114 96.4668 1094.74 490.606
2515 0 102.145 11.4641 1171 95.4808 1093.68 486.938
2516 0 104.11 11.4494 1192 95.2592 1094.3 486.225
2517 0 107.124 11.454 1227 95.8476 1094.39 484.776
2518 0 109.052 10.9764 1197 96.3876 1093.99 481.559
2519 0 115.099 11.2425 1294 95.2349 1093.94 478.185
2520 0 116.064 11.0801 1286 96.4036 1093.97 476.854
2521 0 117.075 11.121 1302 98.2888 1094.86 475.337
2522 0 123.053 11.5235 1418 96.0275 1095.29 471.439
2523 0 127.147 11.3884 1448 95.7714 1093.89 470.436
2524 0 130.087 11.4693 1492 91.7353 1094.32 465.833
2525 0 132.117 10.1955 1347 95.634 1094.18 462.8
2526 0 139.135 10.8816 1514 94.4967 1094.77 462.372
2527 0 145.112 11.722 1701 94.6872 1095.64 460.239
2528 0 146.11 10.9986 1607 95.7486 1095.19 461.168
2529 0 154.132 10.5818 1631 95.0239 1094.95 457.047
2530 0 157.163 10.0851 1585 95.1533 1095.33 452.059
2531 1 86.0681 9.1904 791 87.7965 1095.51 491.383
2532 0 91.2362 11.0921 1012 83.3814 1095.31 490.271
2533 0 93.2073 11.351 1058 84.4943 1094.5 485.066
2534 0 98.1042 11.5999 1138 79.3023 1095.39 487.482
2535 0 100.091 11.0299 1104 75.1576 1094.89 487.708
2536 0 104.081 11.8466 1233 74.3934 1095.37 486.696
2537 0 106.089 12.1596 1290 74.7016 1094.24 484.476
2538 0 109.062 11.6264 1268 75.933 1094.63 481.626
2539 0 113.115 11.3336 1282 82.5094 1094.62 480.832
2540 0 117.158 12.3423 1446 78.6936 1094.1 475.305
2541 0 120.165 11.4842 1380 81.6377 1094.37 475.424
2542 0 123.26 11.7881 1453 79.956 1094.76 473.015
2543 0 126.401 11.8828 1502 80.2437 1094.66 464.968
2544 0 133.296 12.4085 1654 80.5054 1094.44 470.36
2545 0 135.297 12.4467 1684 82.6348 1095.79 469.305
2546 0 140.241 12.0934 1696 83.9092 1095.04 465.331
2547 1 71.3341 10.3457 738 76.9336 1095.04 495.657
2548 0 76.287 10.3294 788 72.1307 1094.84 496.193
2549 0 75.1064 10.4252 783 79.5824 1094.86 496.542
2550 0 78.1864 9.74594 762 72.7612 1095.2 498.138
2551 0 80.2236 9.51092 763 73.8558 1094.89 494.98
2552 0 82.1822 10.282 845 73.3929 1095.4 493.933
2553 0 86.187 10.3148 889 73.0405 1095.82 492.003
2554 0 90.1706 10.1807 918 74.6176 1096.82 490.075
2555 0 93.1868 10.2482 955 76.1236 1097.43 488.534
2556 0 96.1605 10.6489 1024 78.29 1096.22 486.061
2557 0 99.2313 11.1054 1102 75.6897 1095.33 481.268
2558 0 102.2 10.499 1073 79.7148 1094.49 478.471
2559 0 105.227 11.2138 1180 77.4254 1094.66 477.27
2560 0 109.362 11.3019 1236 77.8673 1094.11 472.829
2561 0 112.232 11.2445 1262 79.3582 1095.02 472.741
2562 0 114.312 10.5763 1209 81.9562 1095.4 471.307
2563 0 117.287 10.3251 1211 83.7036 1095.83 470.576
2564 0 121.239 10.6484 1291 83.4973 1095.09 468.892
2565 0 125.381 11.3415 1422 82.1681 1095.14 466.9
2566 1 67.2273 10.2339 688 78.7108 1095.29 493.065
2567 0 71.3456 10.9888 784 78.1684 1095.06 494.57
2568 0 71.2089 11.7261 835 80.0503 1094.96 494.153
2569 0 69.1105 10.7798 745 81.5141 1095.62 491.553
2570 0 69.0479 10.9924 759 74.4743 1096.24 488.05
2571 0 71.0572 10.963 779 75.5212 1095.84 486.48
2572 0 74.0492 11.0197 816 76.7549 1095.88 485.869
2573 0 73.0401 11.569 845 78.5799 1095.46 483.151
2574 0 76.0727 11.5547 879 79.6724 1096.03 483.613
2575 0 78.0346 11.4693 895 81.7754 1095.31 483.634
2576 0 80.0797 10.9891 880 84.5443 1094.87 482.152
2577 0 79.0937 10.5192 832 87.6538 1095.49 480.75
2578 0 83.0857 9.85729 819 89.7265 1095.09 477.968
2579 0 88.1164 10.9968 969 90.226 1095.25 476.544
2580 0 91.0621 11.2341 1023 90.4311 1095.43 476.403
2581 0 96.0794 11.9276 1146 90.6448 1095.21 474.665
2582 0 98.0786 11.6233 1140 91.414 1096.81 473.546
2583 0 103.223 11.5866 1196 90.5201 1096.36 473.832
2584 1 56.0416 9.83198 551 90.1579 1096.81 495.978
2585 0 56.0206 10.3712 581 89.6833 1095.8 494.976
2586 0 60.0338 11.1271 668 76.8578 1096.9 496.457
2587 0 60.0548 10.6403 639 75.3427 1096.47 496.083
2588 0 62.1068 10.7396 667 75.5247 1096.3 495.772
2589 0 62.0879 10.3724 644 77.5637 1096.19 493.834
2590 0 63.0768 10.9708 692 76.9451 1096.67 492.886
2591 0 66.0699 11.7905 779 75.8164 1096.72 492.858
2592 0 70.0967 10.6424 746 77.4786 1097.09 491.213
2593 0 70.137 11.1496 782 78.298 1096.74 490.496
2594 0 73.0685 11.4687 838 77.8007 1096.52 490.254
2595 0 75.0845 11.2273 843 78.5338 1096.27 487.967
2596 0 77.1154 10.9965 848 72.2512 1096.43 486.243
2597 0 78.0416 12.0961 944 78.5858 1095.47 485.745
2598 0 81.1383 11.2647 914 81.826 1096.03 483.914
2599 0 81.0302 11.3415 919 83.445 1096.14 482.096
2600 0 85.2186 11.758 1002 84.9291 1095.72 480.947
2601 0 86.0359 11.4371 984 87.688 1096.33 480.387
2602 0 92.1364 12.3404 1137 94.2647 1096.12 488.177
2603 0 93.1707 11.4628 1068 96.9092 1095.66 486.143
2604 0 97.1717 11.7112 1138 97.1257 1095.01 483.378
2605 0 103.183 12.7928 1320 93.972 1095.6 481.093
2606 0 104.085 12.4033 1291 102.92 1094.52 477.573
2607 0 105.126 12.2615 1289 103.873 1094.82 476.653
2608 1 55.0616 10.57 582 97.5258 1094.42 503.771
2609 0 56.033 10.6188 595 99.1798 1095.54 502.222
2610 0 55.0481 10.9904 605 96.6281 1095 497.749
2611 0 58.075 11.313 657 96.3014 1095.44 495.6
2612 0 65.1318 13.2501 863 87.679 1095.51 500.78
2613 0 65.0524 12.39 806 90.6774 1096.19 500.179
2614 0 66.0776 12.5913 832 90.8714 1095.64 498.935
2615 0 69.1372 12.6126 872 89.0505 1096.18 498.43
2616 0 70.0997 12.6249 885 90.8712 1095.47 497.572
2617 0 74.1127 13.1826 977 88.8536 1096.48 496.448
2618 0 76.1376 13.0422 993 90.5327 1095.85 494.822
2619 0 74.0833 12.5804 932 95.1212 1096.03 494.502
2620 0 79.0758 12.5323 991 93.2644 1095.03 494.53
2621 0 81.0921 12.7509 1034 93.6886 1095.69 492.332
2622 0 79.072 12.027 951 91.8339 1094.8 488.741
2623 0 86.0353 12.646 1088 97.9118 1096.07 491.956
2624 0 88.0865 13.5094 1190 94.4857 1095.81 488.303
2625 0 89.1004 12.9629 1155 98.2407 1096.2 486.668
2626 0 92.0871 13.2266 1218 97.7135 1095.65 485.193
2627 0 92.0503 13.3297 1227 97.8248 1096.24 482.164
2628 0 92.0931 13.0194 1199 99.7823 1095.59 481.86
2629 0 96.0738 13.3959 1287 99.7226 1095.92 481.213
2630 0 100.061 13.2019 1321 100.197 1095.26 479.869
2631 0 105.172 13.3686 1406 98.7347 1095.13 478.045
2632 0 104.116 13.6963 1426 100.551 1095.68 475.151
2633 0 108.106 13.5977 1470 99.9075 1096.32 470.567
2634 0 113.055 13.9843 1581 99.3928 1095.84 467.895
2635 0 116.127 14.0536 1632 99.0668 1095.5 467.707
2636 0 121.1 13.8232 1674 99.5143 1095.29 466.883
2637 0 125.149 13.8635 1735 99.272 1095.74 463.752
2638 0 130.092 13.598 1769 99.1176 1095.63 458.703
2639 0 134.093 14.0947 1890 97.1206 1096.17 458.641
2640 1 58.0535 10.8004 627 90.2711 1096.17 499.247
2641 0 62.0694 11.5355 716 91.3603 1095.53 500.318
2642 0 63.0446 11.6584 735 86.3959 1096.57 503.913
2643 0 64.036 11.4623 734 86.3106 1095.14 503.956
2644 0 67.0666 11.496 771 86.441 1095.64 503.477
2645 0 69.0624 11.6272 803 85.6849 1095.57 502.613
2646 0 73.0945 11.7656 860 83.936 1095.47 499.84
2647 0 73.094 11.15 815 86.7239 1095.15 499.283
2648 0 76.0718 11.8441 901 84.7081 1095.49 499.599
2649 0 77.0275 11.5543 890 87.6517 1094.99 495.98
2650 0 80.0356 11.8322 947 86.8722 1094.78 495.914
2651 0 84.051 11.7429 987 86.9615 1095.59 494.911
2652 0 85.109 10.9037 928 88.3481 1096.2 494.234
2653 0 89.128 11.4779 1023 86.5318 1096 492.227
2654 0 93.0218 11.3092 1052 87.4924 1096.12 489.856
2655 0 95.0554 11.4986 1093 85.5874 1095.75 489.016
2656 0 97.1633 11.3932 1107 84.6025 1095.94 485.634
2657 0 101.065 12.0516 1218 83.4319 1095.78 484.297
2658 0 105.081 11.277 1185 84.7975 1095.89 484.354
2659 0 105.05 11.6801 1227 85.1654 1095.72 483.825
2660 0 109.048 11.8664 1294 84.993 1095.07 479.167
2661 0 112.095 11.0531 1239 89.791 1095.36 477.5
2662 1 58.0161 10.0834 585 83.1419 1095.7 506.371
2663 0 60.0664 10.3885 624 86.9968 1095.07 504.359
2664 0 64.0856 12.0776 774 85.0762 1094.82 504.146
2665 0 63.0362 10.7557 678 84.5192 1096.3 504.476
2666 0 67.1025 12.0413 808 83.0656 1095.64 499.54
2667 0 66.095 10.848 717 86.0167 1095.54 500.794
2668 0 67.0439 10.6796 716 87.0992 1094.89 498.726
2669 0 69.0541 10.2239 706 88.932 1095.42 501.116
2670 0 72.0522 11.2141 808 86.9394 1095.84 499.546
2671 0 75.0691 12.5085 939 83.8616 1095.49 495.104
2672 0 76.0405 11.2966 859 88.8673 1095.7 494.944
2673 0 77.0466 10.7467 828 89.035 1096.91 496.016
2674 0 81.0507 11.4373 927 89.9137 1096.25 493.598
2675 0 81.1185 11.1072 901 93.1654 1096.32 488.846
2676 0 85.0494 10.9113 928 93.6584 1095.83 489.205
2677 0 89.1061 10.7063 954 93.4518 1096.79 487.275
2678 0 92.1003 10.8143 996 93.6416 1095.92 485.47
2679 0 95.0435 11.5316 1096 92.3266 1096.48 483.294
2680 1 51.0452 10.4221 532 90.985 1095.81 507.126
2681 0 54.0476 10.8423 586 88.0324 1096.21 508.561
2682 0 57.0813 11.1245 635 88.3984 1095.98 508.465
2683 0 58.0564 11.7472 682 82.7742 1096.02 510.086
2684 0 59.0816 11.7126 692 83.9754 1095.65 508.022
2685 0 62.163 11.7272 729 82.9136 1096.62 504.877
2686 0 62.0627 11.6334 722 84.9958 1095.79 505.032
2687 0 63.089 11.1747 705 87.2482 1095.45 505.611
2688 0 65.0639 12.2188 795 84.9132 1094.83 505.658
2689 0 65.0596 12.3733 805 85.1056 1094.74 504.112
2690 0 68.093 12.4095 845 84.942 1094.8 503.116
2691 0 70.1198 12.3788 868 86.4032 1095.23 503.114
2692 0 74.0729 12.7712 946 85.8499 1094.41 501.281
2693 0 75.0397 12.3002 923 88.428 1095.28 499.856
2694 0 75.066 11.8696 891 90.7868 1095.4 500.942
2695 0 77.0877 11.4285 881 91.958 1094.65 499.318
2696 0 80.0889 12.0741 967 92.1189 1094.67 497.228
2697 0 81.0935 11.5792 939 93.6283 1095.55 497.064
2698 0 87.0731 11.967 1042 92.7246 1094.68 496.052
2699 0 89.0933 12.1221 1080 93.1556 1094.75 495.289
2700 0 92.0486 12.5477 1155 92.5567 1094.92 492.313
2701 0 96.1016 12.3723 1189 91.1766 1095.23 491.157
2702 0 100.093 12.9679 1298 92.4122 1094.23 487.789
2703 0 103.136 12.2654 1265 101.47 1095.44 485.401
2704 0 103.098 12.4445 1283 100.242 1094.95 483.362
2705 1 57.0306 10.0122 571 94.7285 1094.91 508.785
2706 0 59.0535 10.753 635 92.7654 1095.51 507.644
2707 0 62.0407 10.9444 679 89.9043 1095.38 506.812
2708 0 63.0743 11.1932 706 91.9263 1095.74 503.132
2709 0 66.1086 11.3298 749 94.3258 1095.25 500.984
2710 0 68.0842 12.1467 827 94.2237 1095.52 498.682
2711 0 69.0704 11.7851 814 100.321 1094.31 498.843
2712 0 71.079 12.1133 861 100.467 1094.72 500.31
2713 0 74.084 12.5398 929 99.394 1094.76 500.012
2714 0 74.0777 12.1629 901 103.394 1095.03 497.737
2715 0 77.0441 11.7206 903 104.411 1094.74 496.724
2716 0 81.0941 12.6643 1027 101.668 1096 495.774
2717 0 83.0783 11.8442 984 104.133 1094.53 494.319
2718 0 86.0998 12.2765 1057 103.145 1095.05 492.219
2719 0 88.0858 12.0337 1060 104.798 1094.95 492.242
2720 0 91.0909 12.1856 1110 104.036 1095.16 489.341
2721 0 93.0683 13.4095 1248 98.0841 1094.47 488.407
2722 0 95.1273 12.0365 1145 102.871 1095.78 488.578
2723 0 98.0905 12.0603 1183 102.598 1095.61 487.861
2724 0 101.078 12.5151 1265 103.142 1095.42 485.776
2725 0 105.195 11.9397 1256 102.293 1095.24 484.416
2726 0 105.194 11.341 1193 104.681 1096.33 482.785
2727 1 60.0326 11.1439 669 98.9148 1095.87 504.945
2728 0 61.0466 11.2046 684 95.0775 1095.17 505.713
2729 0 62.0431 11.8144 733 93.7885 1095.03 504.217
2730 0 65.0373 12.1315 789 98.1888 1096.42 502.314
2731 0 66.018 12.3603 816 98.0809 1095.33 502.562
2732 0 69.0558 12.5696 868 97.5622 1096.22 500.806
2733 0 70.0373 12.1935 854 91.8536 1095.7 499.898
2734 0 68.0198 11.0997 755 94.8185 1095.81 499.547
2735 0 71.0446 10.8101 768 95.8789 1095.19 498.801
2736 0 75.0403 10.9674 823 94.8906 1094.93 498.004
2737 0 76.0837 10.7907 821 96.0987 1094.76 496.244
2738 0 81.0664 10.9663 889 94.1946 1094.97 496.218
2739 0 83.0362 11.2481 934 95.7302 1095.57 494.012
2740 0 85.0145 10.7041 910 99.5286 1095.57 493.352
2741 0 88.1466 11.583 1021 98.7747 1095.74 490.557
2742 0 90.0602 11.5478 1040 101.505 1095.47 490.43
2743 0 95.1148 11.9329 1135 100.307 1095.4 489.504
2744 0 98.0591 11.3095 1109 102.506 1096.85 488.371
2745 0 100.077 11.3613 1137 101.779 1095.43 485.996
2746 0 102.057 11.3368 1157 103.562 1096.08 484.984
2747 1 57.1235 11.0462 631 98.8859 1094.52 506.241
2748 0 60.1186 11.5605 695 98.5108 1095.21 503.331
2749 0 62.0648 12.1003 751 97.0826 1095.63 503.67
2750 0 65.1048 12.2725 799 95.4493 1095.52 502.987
2751 0 66.0461 12.1279 801 94.0961 1095.71 503.501
2752 0 67.0804 12.0602 809 96.1656 1095.37 502.227
2753 0 67.0661 12.5846 844 96.3507 1095.38 501.615
2754 0 71.062 12.6087 896 94.2902 1096.14 500.827
2755 0 72.0441 12.2564 883 96.1031 1095.73 499.899
2756 0 73.0281 12.5979 920 96.0076 1096.12 499.042
2757 0 76.0971 12.3395 939 96.7252 1095.51 497.135
2758 0 79.0887 13.1751 1042 95.2083 1096.33 496.59
2759 0 81.0895 12.9857 1053 97.6572 1095.17 493.976
2760 0 85.0469 12.7342 1083 107.991 1095.43 492.208
2761 0 88.1705 13.145 1159 105.245 1095.26 493.569
2762 0 91.103 12.6121 1149 106.876 1094.99 491.714
2763 0 92.0786 12.9129 1189 106.193 1095.64 491.579
2764 0 96.0681 13.022 1251 107.733 1095.67 489.202
2765 1 52.0429 10.8757 566 104.539 1095.06 511.797
2766 0 52.0833 11.2896 588 102.503 1095.14 511.293
2767 0 54.0371 12.1953 659 99.522 1095.14 509.287
2768 0 55.0438 12.4628 686 93.8994 1095.4 508.51
2769 0 58.07 12.3988 720 92.0333 1096.14 508.696
2770 0 58.0426 12.577 730 92.5603 1095.78 507.356
2771 0 61.0975 12.5701 768 92.0586 1095.3 507.474
2772 0 62.0451 13.2323 821 90.1523 1095.93 507.421
2773 0 63.0427 12.9277 815 91.5558 1095.62 506.11
2774 0 65.082 13.3677 870 89.5218 1096.02 505.953
2775 0 65.0346 13.0085 846 90.8262 1095.25 504.565
2776 0 69.0438 13.3683 923 89.1105 1095.81 505.026
2777 0 68.0541 13.2835 904 89.5088 1096.06 504.469
2778 0 72.0228 13.4263 967 87.9431 1095.8 502.52
2779 0 74.0665 13.5419 1003 87.0887 1096.26 501.019
2780 0 76.1214 12.7691 972 88.5556 1095.34 500.523
2781 0 78.0457 13.2743 1036 87.5386 1095.54 499.515
2782 0 79.0373 13.5632 1072 86.8405 1094.82 499.155
2783 0 81.0641 12.484 1012 90.6304 1096.34 498.738
2784 0 85.0737 12.7066 1081 89.2535 1095.32 496.795
2785 0 87.0349 12.9833 1130 89.5885 1095.52 495.376
2786 0 89.0277 12.805 1140 90.6412 1095.27 491.104
2787 0 91.0589 13.1234 1195 90.6929 1096.21 490.704
2788 0 96.0483 12.8998 1239 90.1186 1094.88 490.714
2789 0 100.078 13.2097 1322 94.3888 1095.62 484.875
2790 0 103.135 13.4096 1383 93.4244 1095.16 482.295
2791 0 106.084 13.6119 1444 92.295 1095.49 479.925
2792 1 56.1044 11.2647 632 90.9573 1094.96 506.313
2793 0 58.0962 11.8424 688 91.8823 1095.25 504.908
2794 0 60.1533 12.0027 722 91.3532 1094.62 504.403
2795 0 62.0825 12.6606 786 88.7557 1095.29 505.258
2796 0 64.031 11.9005 762 88.7979 1095.34 505.749
2797 0 66.0479 12.0367 795 83.7031 1094.32 504.518
2798 0 66.053 11.9904 792 85.2576 1094.92 503.3
2799 0 71.0606 12.2571 871 83.853 1094.5 502.288
2800 0 72.0336 12.4942 900 88.0756 1095.24 500.64
2801 0 76.1186 12.8352 977 87.9437 1094.68 498.433
2802 0 78.0479 12.6333 986 88.0862 1095.12 498.63
2803 0 80.1398 12.9648 1039 87.5361 1095.47 497.731
2804 0 83.1698 13.0456 1085 86.612 1094.76 495.216
2805 0 86.0739 13.1283 1130 86.5186 1095.3 494.205
2806 0 88.082 12.2499 1079 89.2261 1095.39 492.618
2807 0 90.0827 12.5329 1129 89.4376 1095.6 490.787
2808 0 93.0803 12.7739 1189 89.5231 1094.97 489.59
2809 0 96.0817 12.7912 1229 88.4215 1095.46 488.461
2810 1 50.0887 10.0621 504 87.7659 1095.06 511.74
2811 0 52.0642 11.5819 603 87.456 1095.86 509.294
2812 0 55.0887 12.2711 676 88.4349 1095.25 508.689
2813 0 56.0197 11.9601 670 92.4015 1093.93 506.902
2814 0 56.0644 10.9695 615 84.0244 1094.13 505.618
2815 0 57.054 11.8835 678 89.7891 1094.82 508.628
2816 0 60.0439 11.858 712 90.5857 1094.54 507.944
2817 0 62.0741 11.9051 739 91.4357 1094.95 508.413
2818 0 64.0511 12.2558 785 92.3783 1094.85 505.27
2819 0 67.0359 12.9185 866 91.8441 1095.27 506.254
2820 0 68.0589 12.93 880 91.3989 1095.19 504.226
2821 0 71.0317 13.3884 951 90.9947 1094.98 502.962
2822 0 74.022 12.9556 959 92.6778 1095.32 501.925
2823 0 75.0325 13.4209 1007 92.4052 1094.89 500.809
2824 0 77.0287 12.9303 996 93.988 1095.88 500.568
2825 0 80.0154 13.3099 1065 93.1183 1095.02 500.124
2826 0 82.0306 13.2755 1089 94.1662 1095.06 496.907
2827 0 85.0701 14.0002 1191 94.4643 1095.19 496.189
2828 0 87.0619 13.2434 1153 97.4432 1094.94 494.628
2829 0 88.0256 13.7119 1207 97.9031 1094.83 493.399
2830 0 92.0295 13.4413 1237 98.65 1095.3 493.451
2831 0 93.0461 13.8641 1290 98.2411 1094.68 490.846
2832 0 97.0551 13.7448 1334 99.4265 1094.36 487.592
2833 0 99.0957 13.5526 1343 99.0424 1095.39 484.995
2834 0 101.123 13.627 1378 100.507 1094.81 483.67
2835 0 105.037 14.1569 1487 99.4055 1095.51 481.667
2836 1 60.0211 11.2794 677 99.449 1095.37 505.817
2837 0 62.0511 11.6033 720 98.4222 1095.43 504.961
2838 0 65.044 12.4839 812 96.0727 1094.87 506.025
2839 0 66.0479 12.5061 826 91.1186 1095.1 507.376
2840 0 68.0621 12.3564 841 93.9774 1095.11 506.155
2841 0 70.0191 12.4823 874 94.8616 1094.66 505.945
2842 0 73.0273 12.3652 903 95.3721 1095.37 504.817
2843 0 74.0515 12.6264 935 95.6888 1094.53 502.106
2844 0 75.017 12.9037 968 97.3244 1095.3 500.678
2845 0 78.0248 13.0471 1018 97.2534 1094.9 500.643
2846 0 81.08 12.6295 1024 98.9023 1095.46 498.887
2847 0 84.0312 12.4359 1045 100.524 1094.85 497.097
2848 0 85.0611 12.3323 1049 102.016 1095.61 496.037
2849 0 89.0484 13.4309 1196 100.6 1095.06 495.31
2850 0 91.0422 13.686 1246 102.417 1095.51 492.624
2851 0 93.1069 13.5865 1265 105.172 1095.28 489.461
2852 0 97.0275 13.4704 1307 107.834 1094.99 490.194
2853 0 101.086 14.3245 1448 104.999 1094.45 487.822
2854 0 102.06 13.933 1422 106.624 1094.57 485.551
2855 0 105.095 13.4925 1418 107.547 1094.52 483.955
2856 0 110.065 13.701 1508 106.199 1094.51 483.857
2857 0 112.084 13.1508 1474 101.981 1093.87 476.567
2858 0 115.06 12.915 1486 102.598 1094.7 473.834
2859 0 120.124 13.2613 1593 100.854 1095.11 471.999
2860 0 122.078 12.9835 1585 99.9413 1095.04 466.643
2861 1 68.1043 11.0125 750 97.1747 1095.96 495.504
2862 0 70.1004 10.756 754 97.9111 1096.36 495.182
2863 0 76.0419 12.2432 931 92.2728 1096.48 498.216
2864 0 78.0287 12.7133 992 93.6341 1095.66 498.046
2865 0 80.0229 11.4592 917 103.94 1095.7 496.043
2866 0 85.0766 12.5181 1065 99.4394 1095.9 493.916
2867 0 87.045 12.1316 1056 100.065 1095.54 492.976
2868 0 89.0642 11.6208 1035 101.165 1095.39 490.909
2869 0 93.0586 12.2933 1144 100.226 1095.45 484.101
2870 0 94.0836 12.1169 1140 99.8842 1095.56 489.276
2871 0 95.0412 12.079 1148 102.057 1095.16 486.422
2872 0 99.0708 12.5062 1239 101.338 1095.85 484.682
2873 0 102.079 12.1866 1244 100.71 1094.9 482.692
2874 0 105.049 12.3942 1302 99.7412 1095.01 481.737
2875 0 108.086 12.2125 1320 103.607 1094.61 475.729
2876 0 112.085 12.6154 1414 102.535 1094.61 476.111
2877 0 115.054 12.0204 1383 105.048 1093.97 476.57
2878 0 121.056 12.6306 1529 102.869 1094.64 474.946
2879 0 123.079 12.8779 1585 104.05 1094.66 472.408
2880 1 68.0314 11.3183 770 93.6234 1095.35 504.796
2881 0 69.0318 11.5164 795 95.5585 1094.82 503.248
2882 0 70.0284 10.3672 726 96.1019 1094.52 496.441
2883 0 71.0669 10.7364 763 100.771 1094.54 497.136
2884 0 77.0418 12.2661 945 102.362 1095.07 500.049
2885 0 77.0516 11.8103 910 105.586 1094.18 498.474
2886 0 80.0433 12.1809 975 105.109 1095.46 496.767
2887 0 83.0324 12.5012 1038 105.384 1094.79 497.115
2888 0 84.0252 12.2939 1033 106.547 1094.56 495.737
2889 0 87.0879 12.4242 1082 105.038 1094.55 495.08
2890 0 90.0273 12.4629 1122 102.482 1094.78 492.25
2891 0 93.0578 13.0779 1217 97.9408 1094.23 492.37
2892 0 92.0148 11.9872 1103 97.4116 1094.03 489.16
2893 0 95.0277 12.6805 1205 101.175 1093.97 488.527
2894 0 96.028 12.9754 1246 104.169 1094.46 488.016
2895 0 96.0377 12.6305 1213 93.1113 1094.45 486.074
2896 0 97.048 12.6226 1225 101.982 1094.52 485.744
2897 0 98.0722 13.1332 1288 103.219 1095.01 486.67
2898 0 100.029 13.2261 1323 104.706 1094.87 486.329
2899 0 101.049 13.2609 1340 103.823 1095.1 486.174
2900 0 102.058 12.9926 1326 103.615 1094.78 485.874
2901 0 106.068 12.9069 1369 100.258 1095.46 484.638
2902 0 109.116 12.5922 1374 98.9949 1094.39 483.325
2903 0 111.08 12.8196 1424 95.0976 1094.28 480.609
2904 0 115.089 13.0508 1502 94.0326 1095.02 478.154
2905 1 63.0846 10.478 661 92.1483 1094.01 504.764
2906 0 66.1276 11.3115 748 87.4679 1094.47 505.297
2907 0 68.081 11.1485 759 90.3755 1093.48 502.564
2908 0 68.0477 11.4625 780 93.1423 1094.45 502.615
2909 0 71.0512 11.6536 828 90.5954 1093.62 502.903
2910 0 72.1012 11.5948 836 94.9928 1093.76 501.343
2911 0 74.0765 11.4341 847 86.6836 1093.88 500.401
2912 0 75.0574 11.9775 899 86.8743 1094.95 501.166
2913 0 76.0836 11.0799 843 90.4947 1094.44 499.648
2914 0 78.1171 11.9948 937 88.5443 1094.94 497.674
2915 0 81.0464 11.9931 972 88.2171 1094.8 497.456
2916 0 83.0615 11.329 941 90.3337 1095.37 496.981
2917 0 83.055 11.3178 940 91.2415 1094.41 495.337
2918 0 85.0592 11.4508 974 92.2433 1095.45 493.501
2919 0 87.0466 11.7179 1020 97.7922 1094.88 493.718
2920 0 89.0727 11.1819 996 95.4759 1095.23 491.096
2921 0 90.0301 11.0741 997 98.7643 1094.71 490.018
2922 0 93.0833 10.8935 1014 100.719 1095.29 489.265
2923 0 95.1369 10.5953 1008 104.073 1094.78 490.188
2924 1 53.0595 9.14068 485 98.3423 1095.7 512.984
2925 0 52.0625 9.93036 517 100.207 1094.8 512.414
2926 0 54.0741 10.0418 543 101.731 1094.88 511.39
2927 0 55.132 10.4476 576 104.377 1094.53 509.53
2928 0 55.0696 10.6048 584 99.7038 1095.42 508.36
2929 0 59.0843 10.8658 642 103.134 1094.77 508.57
2930 0 60.0352 11.0935 666 105.213 1095.46 508.125
2931 0 63.0729 11.6532 735 103.657 1094.85 508.034
2932 0 62.0877 11.4677 712 105.726 1095.12 507.515
2933 0 63.1032 11.0612 698 108.367 1094.87 504.885
2934 0 66.0936 11.7107 774 106.089 1094.74 504.673
2935 0 67.1036 11.8623 796 107.136 1094.5 503.906
2936 0 70.1087 11.8958 834 105.596 1095.11 503.8
2937 0 71.0675 11.074 787 106.727 1094.75 502.377
2938 0 71.0978 11.7163 833 106.884 1094.99 500.025
2939 0 73.0976 11.8472 866 108.184 1094.14 500.461
2940 0 73.0837 11.4116 834 110.912 1094.75 499.523
2941 0 77.0754 11.5861 893 110.073 1094.23 498.218
2942 0 78.0876 11.7944 921 112.056 1094.49 497.584
2943 0 80.0831 12.2747 983 111.829 1094.82 498.592
2944 0 82.0642 11.6372 955 115.568 1094.7 495.339
2945 0 84.0821 12.3451 1038 113.057 1095.32 494.768
2946 0 83.0786 11.5433 959 117.642 1095.88 492.885
2947 0 86.0861 12.1506 1046 115.232 1095.08 493.56
2948 0 87.0434 11.8332 1030 116.035 1094.98 492.648
2949 0 91.066 12.2988 1120 115.067 1095.07 492.093
2950 0 93.0678 11.8408 1102 116.069 1095.17 489.852
2951 0 97.1856 12.1829 1184 115.36 1095.32 488.541
2952 0 97.0735 11.2801 1095 119.323 1095.28 486.888
2953 0 99.048 11.6509 1154 120.529 1095.49 485.423
2954 0 101.071 11.9916 1212 121.228 1095.36 485.106
2955 0 106.111 12.2984 1305 118.285 1095.57 484.47
2956 0 110.178 12.262 1351 117.651 1095.53 482.179
2957 0 112.174 12.4628 1398 118.935 1095.21 480.703
2958 0 115.09 11.8342 1362 118.626 1094.78 479.3
2959 0 119.23 11.893 1418 117.558 1094.72 476.981
2960 0 123.203 12.1912 1502 115.523 1094.8 477.22
2961 0 128.192 11.7246 1503 117.079 1095.05 473.536
2962 0 131.274 11.7921 1548 116.999 1093.83 471.051
2963 0 135.158 11.4311 1545 115.496 1094.83 470.318
2964 0 139.151 11.5055 1601 114.5 1094.34 467.66
2965 1 81.0618 10.8436 879 105.622 1093.9 495.472
2966 0 83.0277 11.1047 922 106.028 1094.16 494.817
2967 0 85.1402 11.6984 996 105.674 1094.83 493.236
2968 0 87.1456 11.98 1044 103.964 1094.13 491.984
2969 0 92.0756 12.6635 1166 107.319 1094.12 492.36
2970 0 93.1193 11.9524 1113 107.61 1094.63 491.206
2971 0 97.1883 11.915 1158 108.345 1095.17 489.156
2972 0 100.148 12.5814 1260 107.431 1094.1 488.571
2973 0 102.103 12.6441 1291 107.472 1094.73 487.124
2974 0 104.133 12.7337 1326 107.798 1094.51 484.606
2975 0 108.173 13.3583 1445 105.116 1095.38 483.109
2976 0 109.119 12.6285 1378 107.411 1094.87 481.221
2977 0 114.091 13.4366 1533 104.71 1095.23 480.854
2978 0 116.247 12.482 1451 108.573 1094.29 478.125
2979 0 119.293 12.7585 1522 108.072 1094.98 476.058
2980 0 124.19 13.2539 1646 107.119 1094 473.748
2981 0 126.174 12.6809 1600 108.051 1094.69 471.988
2982 0 131.259 13.5381 1777 105.827 1093.65 471.838
2983 0 135.27 12.7449 1724 108.926 1094.17 470.354
2984 0 140.207 12.724 1784 109.414 1093.78 466.18
2985 0 142.227 13.0917 1862 109.265 1093.98 465.009
2986 0 148.191 12.99 1925 109.543 1093.74 464.07
2987 0 153.147 13.5948 2082 108.208 1094.12 461.474
2988 0 158.182 13.3264 2108 109.533 1094.43 459.704
2989 0 161.205 13.0269 2100 112.36 1094.92 457.455
2990 0 165.124 13.6201 2249 110.802 1094.05 456.455
2991 0 171.119 13.5754 2323 110.96 1093.85 454.002
2992 0 175.153 13.4568 2357 112.076 1093.81 450.18
2993 0 181.092 13.4628 2438 111.203 1093.95 445.999
2994 0 185.196 13.6126 2521 111.895 1094.25 445.903
2995 0 190.16 13.3466 2538 112.026 1093.6 443.532
2996 0 196.136 13.0165 2553 113.747 1093.74 439.944
2997 1 153.114 12.5005 1914 113.422 1094.12 460.521
2998 0 156.261 12.9911 2030 111.473 1093.71 458.529
2999 0 161.07 13.4476 2166 110.814 1094.53 454.781
3000 0 167.136 13.6356 2279 108.373 1093.89 452.088
3001 0 170.075 12.7002 2160 112.67 1095.27 448.969
3002 0 172.091 12.6387 2175 113.13 1094.42 445.636
3003 0 180.113 12.9308 2329 112.491 1094.55 442.448
3004 0 182.162 12.9994 2368 112.291 1094.02 440.057
3005 0 189.173 12.7714 2416 112.501 1094.47 437.085
3006 0 196.138 13.0724 2564 111.041 1094.38 431.617
3007 1 237.177 11.6495 2763 112.547 1093.73 435.412
3008 0 234.12 8.31625 1947 115.203 1094.39 445.736
3009 1 49.0791 9.882 485 103.965 1094.33 502.171
3010 0 53.0229 10.4294 553 101.179 1094 502.148
3011 0 56.107 11.2642 632 98.337 1095.54 501.921
3012 0 54.0401 11.5655 625 102.131 1095.3 500.074
3013 0 57.31 11.6733 669 100.326 1094.18 499.889
3014 0 59.1471 11.446 677 99.7341 1094.93 499.177
3015 0 61.167 12.2452 749 98.243 1094.52 498.208
3016 0 63.1068 12.2808 775 96.5923 1094.84 501.923
3017 0 67.0861 12.8044 859 96.2759 1094.41 500.752
3018 0 67.0703 12.1067 812 96.4803 1094.57 498.51
3019 0 69.1662 12.2025 844 98.9182 1094.71 498.936
3020 0 70.1067 12.5666 881 98.5857 1095.19 496.237
3021 0 71.1731 12.2237 870 96.8 1094.96 494.329
3022 0 74.1458 12.934 959 97.78 1095.4 494.771
3023 0 74.1074 11.9961 889 103.195 1094.6 495.39
3024 0 340.416 15.4017 5243 109.386 1094.87 353.555
3025 1 220.191 12.3075 2710 124.334 1094.27 342.654
3026 1 80.2047 11.9818 961 103.988 1094.9 488.467
3027 0 81.2076 12.0555 979 105.195 1095.33 488.283
3028 0 85.2661 11.986 1022 104.295 1095.85 486.309
3029 0 86.2483 12.2089 1053 106.773 1094.85 485.399
3030 0 88.0951 12.5092 1102 106.19 1095.47 484.706
3031 0 94.1974 12.58 1185 104.25 1095.64 483.583
3032 0 94.2737 12.5061 1179 106.805 1095.63 482.674
3033 0 97.1994 12.6338 1228 107.314 1094.37 480.701
3034 1 137.198 12.0629 1655 92.6562 1094.6 472.203
3035 0 135.126 13.1877 1782 90.3822 1094.03 468.791
3036 0 131.315 14.7812 1941 88.3988 1094.76 467.556
3037 0 131.43 16.0694 2112 85.876 1094.57 464.033
3038 0 130.167 15.6721 2040 88.6961 1094.79 462.163
3039 0 129.136 16.502 2131 87.9779 1094.99 459.22
3040 0 138.193 16.7591 2316 85.4378 1095.38 457.233
3041 0 139.304 16.3814 2282 88.8002 1095.26 457.166
3042 0 143.27 17.1913 2463 85.6098 1095.11 453.129
3043 1 72.0756 10.6832 770 111.71 1095.16 490.405
3044 0 74.1418 11.3431 841 109.954 1094.44 487.982
3045 0 76.0894 11.9465 909 106.674 1095.17 489.648
3046 0 77.1013 11.8805 916 104.009 1095.3 485.865
3047 0 77.089 11.3765 877 104.499 1095.79 483.008
3048 0 82.0899 11.5727 950 104.491 1095.49 482.241
3049 0 86.1699 11.4077 983 103.174 1095.86 485.132
3050 0 81.1358 11.3144 918 107.208 1095.94 477.977
3051 0 94.1816 12.3591 1164 99.5644 1095.47 481.425
3052 0 96.4416 12.4946 1205 98.132 1095.94 481.253
3053 0 99.2587 12.2206 1213 99.2696 1095.02 477.19
3054 0 103.259 12.2991 1270 97.7323 1095.36 477.595
3055 0 106.335 12.3289 1311 98.2319 1094.7 475.967
3056 0 110.384 12.5562 1386 97.7973 1095.21 473.293
3057 0 112.328 12.7038 1427 97.3202 1094.24 472.579
3058 0 118.22 12.2653 1450 96.2172 1095.12 472.321
3059 0 119.284 12.2397 1460 97.6938 1094.89 469.464
3060 0 128.306 12.2286 1569 96.638 1095.09 470.727
3061 1 69.1551 10.1366 701 95.8188 1095.23 501.053
3062 0 72.2047 11.0658 799 89.0576 1095.93 496.237
3063 0 75.305 11.8186 890 90.5528 1095.59 492.881
3064 0 75.3087 11.9375 899 87.1279 1095.82 497.192
3065 0 76.2568 11.6842 891 90.8732 1095.46 494.957
3066 0 80.2839 11.6711 937 92.1793 1096.15 493.727
3067 0 83.3542 11.3971 950 92.6758 1095.91 490.877
3068 0 84.3826 11.8034 996 91.9578 1095.89 489.428
3069 0 86.4336 11.3266 979 93.3024 1096.43 487.982
3070 0 90.3719 12.3379 1115 91.3901 1095.61 484.978
3071 0 93.4047 12.0551 1126 92.238 1096.57 484.804
3072 0 95.4499 11.912 1137 93.1873 1095.43 482.059
3073 0 98.4968 12.3862 1220 92.0131 1095.7 481.926
3074 0 98.4413 12.1697 1198 94.3714 1095.99 479.068
3075 0 104.472 12.5584 1312 92.4634 1096.23 477.642
3076 0 104.536 12.4263 1299 95.0146 1095.86 477.263
3077 0 108.499 13.0324 1414 93.2779 1095.89 476.383
3078 0 110.548 12.8723 1423 95.2277 1095.79 475.294
3079 0 115.597 13.201 1526 94.6265 1096.59 473.784
3080 1 68.4406 9.9064 678 94.208 1096.12 499.24
3081 0 69.3885 9.95842 691 95.5499 1096.26 498.452
3082 0 71.3178 10.3621 739 94.6346 1096.31 497.429
3083 0 74.23 10.9794 815 93.6785 1095.99 494.656
3084 0 76.1941 11.4444 872 93.7477 1095.64 494.679
3085 0 79.1042 11.3268 896 95.3371 1095.14 494.59
3086 0 79.2532 11.7976 935 97.3316 1095.03 492.465
3087 0 81.115 11.7734 955 97.4188 1095.01 490.598
3088 0 84.249 11.9764 1009 94.45 1094.92 492.322
3089 0 86.0912 11.4181 983 95.1953 1094.44 487.704
3090 0 88.1358 11.8113 1041 96.1316 1094.96 488.736
3091 0 92.1448 12.3935 1142 94.6314 1094.62 488.227
3092 0 94.1439 12.6721 1193 94.9388 1094.88 486.91
3093 0 94.111 12.1133 1140 98.3614 1094.54 484.143
3094 0 98.2535 12.3456 1213 98.6884 1094.78 481.073
3095 0 99.153 12.4555 1235 99.4186 1094.52 480.786
3096 0 102.176 12.4785 1275 100.638 1095.37 477.562
3097 0 104.163 12.7396 1327 99.9307 1095.08 473.79
3098 0 107.144 12.8799 1380 100.405 1094.79 470.111
3099 0 110.205 12.2861 1354 100.781 1094.93 468.971
3100 0 110.218 12.0761 1331 101.712 1094.86 467.443
3101 0 117.139 12.1735 1426 100.762 1094.76 466.708
3102 0 120.125 12.4204 1492 99.4303 1095.3 465.836
3103 1 65.0647 9.54435 621 102.488 1094.26 492.184
3104 0 67.0522 10.7081 718 100.795 1095.23 491.357
3105 0 70.0816 11.6293 815 97.1448 1094.84 490.51
3106 0 76.134 12.0577 918 93.9739 1095.85 495.267
3107 0 78.1411 11.3257 885 96.7582 1095.1 494.842
3108 0 78.1131 10.9457 855 99.3977 1095.27 492.683
3109 0 81.1229 11.2792 915 99.2831 1094.5 491.379
3110 0 82.0773 11.3552 932 99.3841 1095.19 490.446
3111 0 85.1045 11.4448 974 100.439 1094.77 488.796
3112 0 87.1353 11.7518 1024 99.9121 1095.98 488.989
3113 0 90.0631 11.8917 1071 101.242 1094.93 485.615
3114 0 89.1373 11.6001 1034 103.183 1095.19 483.939
3115 0 93.1577 11.926 1111 101.358 1095.07 482.975
3116 0 98.1311 12.2184 1199 101.787 1095.11 480.989
3117 0 99.1502 12.0322 1193 103.459 1093.88 479.545
3118 0 102.179 12.439 1271 101.971 1094.5 480.304
3119 0 104.21 12.6667 1320 104.195 1094.73 473.241
3120 0 104.079 12.3848 1289 106.329 1094.16 471.806
3121 0 108.11 12.7186 1375 106.052 1093.88 468.171
3122 0 111.145 12.2993 1367 107.307 1093.75 466.382
3123 0 113.136 12.5601 1421 105.885 1094.8 465.098
3124 0 121.094 13.6258 1650 99.6255 1094.01 468.242
3125 0 124.183 12.7553 1584 102.606 1094.62 463.648
3126 0 128.157 13.3508 1711 101.805 1094.32 459.572
3127 0 130.121 13.326 1734 102.815 1094.35 460.358
3128 0 134.123 13.331 1788 103.561 1094.85 454.372
3129 0 140.121 13.5169 1894 102.857 1095.43 452.369
3130 0 145.131 13.4086 1946 103.456 1094.65 452.798
3131 1 82.1017 9.65875 793 99.9357 1095.46 484.818
3132 0 85.1216 10.2324 871 98.7956 1095.1 485.993
3133 0 90.0993 11.676 1052 94.8546 1094.8 487.277
3134 0 92.1304 11.8745 1094 93.5548 1095.13 487.587
3135 0 94.1235 11.3149 1065 95.0685 1095.05 485.503
3136 0 95.1613 11.738 1117 93.6813 1094.68 485.467
3137 0 97.1612 11.3317 1101 95.109 1095.06 482.332
3138 0 101.086 11.8216 1195 96.2301 1094.35 480.747
3139 0 99.1127 10.7655 1067 100.049 1095.74 479.583
3140 0 103.049 10.791 1112 100.12 1095.57 476.518
3141 0 109.096 11.5769 1263 97.8979 1095.61 474.967
3142 0 112.221 11.9675 1343 97.4408 1095.08 473.957
3143 0 112.169 11.9195 1337 98.35 1095.11 469.437
3144 0 115.059 11.9504 1375 97.3775 1095.33 464.789
3145 0 115.116 11.8142 1360 99.011 1095.13 462.151
3146 0 121.062 11.6635 1412 99.1353 1095.07 459.681
3147 1 51.1071 8.1789 418 84.9569 1094.68 498.797
3148 0 58.1054 8.72552 507 89.4951 1094.28 504.625
3149 0 60.1191 9.49781 571 78.9247 1094.54 501.911
3150 0 58.0577 7.73368 449 83.1982 1096.04 503.659
3151 0 60.1018 9.23433 555 82.0667 1095.3 501.276
3152 0 62.0716 9.16684 569 83.1072 1096.09 503.135
3153 0 64.0946 9.29876 596 84.5805 1095.43 502.572
3154 0 63.1688 8.67516 548 86.4343 1096.34 500.668
3155 0 67.0787 8.94471 600 86.1333 1095.3 500.2
3156 0 70.1148 9.0851 637 86.6044 1095.23 499.976
3157 0 72.1332 9.51019 686 86.6691 1094.3 498.982
3158 0 73.0814 9.52363 696 87.9942 1095.09 495.77
3159 0 73.0816 8.97626 656 88.8704 1094.69 496.015
3160 0 76.0438 8.87646 675 89.8696 1094.96 494.338
3161 0 77.0179 8.79017 677 89.6544 1094.58 494.338
3162 0 80.123 9.01114 722 89.1759 1095.32 492.267
3163 0 82.1021 9.54909 784 88.9082 1095.63 491.226
3164 0 85.0708 10.121 861 88.7666 1095.46 490.583
3165 1 15.0048 5.19834 78 75.4103 1096.37 526.423
3166 0 17.0173 5.5238 94 75.5532 1095.72 525.394
3167 0 17.0182 5.93482 101 74.1881 1095.56 525.317
3168 0 17.0169 5.28885 90 73.8 1095.17 526.022
3169 0 16.0134 6.4321 103 75.6505 1095.37 525.078
3170 0 16.0279 4.24259 68 75.4118 1095.49 526.824
3171 0 15.0036 5.532 83 76.7229 1094.19 525.59
3172 1 106.157 11.1156 1180 92.7254 1095.05 479.538
3173 0 107.151 10.6392 1140 92.5675 1095.04 478.36
3174 0 111.191 10.4775 1165 93.9399 1095.41 476.306
3175 0 114.131 11.294 1289 93.2545 1094.26 475.272
3176 0 116.091 10.5865 1229 93.7412 1094.7 473.157
3177 1 71.1248 9.50442 676 89.2367 1094.71 499.058
3178 0 73.0938 9.69987 709 87.8054 1094.7 496.34
3179 0 75.0983 10.3464 777 88.2072 1095.12 494.322
3180 0 77.0801 9.71717 749 94.9266 1096.16 494.507
3181 0 79.0466 9.93086 785 95.4994 1094.96 492.296
3182 1 19.0024 4.73624 90 75.7111 1094.36 524.5
3183 0 18.0016 3.66633 66 78.1364 1093.41 523.788
3184 0 20.0016 4.19967 84 76.9405 1094.26 523.81
3185 0 20.0502 4.28923 86 77.3372 1093.28 522.802
3186 0 22.0053 6.044 133 76.4511 1093.83 520.466
3187 0 21.032 3.6611 77 79.1169 1093.22 521.416
3188 0 24.0159 6.16258 148 76.9054 1092.68 521.122
3189 0 23.0035 4.7384 109 76.1284 1093.9 521.56
3190 1 96.0433 10.287 988 86.2692 1094.91 483.224
3191 0 99.0564 10.4082 1031 87.0184 1094.35 480.767
3192 0 102.069 10.8065 1103 86.3481 1095.43 480.615
3193 0 104.09 10.9233 1137 87.5259 1094.6 479.222
3194 0 107.107 10.9797 1176 90.1701 1094.85 476.283
3195 0 109.065 10.5167 1147 91.8405 1094.98 476.174
3196 0 113.069 10.7368 1214 90.9695 1095.42 472.066
3197 0 114.13 11.1627 1274 91.0314 1095.29 472.319
3198 0 119.104 10.9149 1300 95.0131 1095.24 468.421
3199 0 124.085 12.0321 1493 90.3912 1095.11 471.552
3200 0 125.119 11.6369 1456 96.0982 1095.97 464.102
3201 0 131.109 11.9519 1567 96.2393 1095.36 463.852
3202 0 135.086 12.1034 1635 96.967 1095.67 463.472
3203 0 138.131 11.757 1624 99.2365 1095.73 458.921
3204 0 143.14 11.632 1665 98.3844 1095.73 456.184
3205 0 147.184 11.8695 1747 98.5512 1095.2 454.59
3206 1 87.12 8.21855 716 92.6229 1095.12 488.926
3207 0 92.2137 9.93345 916 93.8286 1095.62 485.122
3208 0 95.1175 10.5448 1003 93.3609 1095.49 482.782
3209 0 96.1478 10.5463 1014 94.5118 1095.84 482.822
3210 0 98.0922 10.4901 1029 91.8066 1094.82 482.734
3211 0 99.0852 10.1832 1009 93.6412 1094.35 481.087
3212 0 101.12 9.99798 1011 96.0346 1095.01 478.033
3213 0 107.108 11.1196 1191 93.4081 1095.55 478.626
3214 0 109.079 10.7628 1174 95.9029 1095.35 475.414
3215 0 112.102 11.4807 1287 94.735 1094.53 473.515
3216 0 114.133 11.3201 1292 99.7337 1094.83 472.118
3217 0 116.106 10.9555 1272 99.603 1095.06 466.217
3218 0 122.107 11.5882 1415 98.4544 1095.23 467.282
3219 1 16.003 4.62414 74 78.1622 1093.8 525.541
3220 0 18.0126 4.66339 84 78.9881 1094.35 523.821
3221 0 16.0062 6.18509 99 77.3131 1092.46 522.414
3222 0 16.0084 4.49763 72 78.6111 1093.19 522.306
3223 0 17.0019 3.82309 65 78.7231 1091.97 521.923
3224 0 14.0017 5.92786 83 75.8434 1092.54 522.265
3225 0 16.0366 3.61672 58 79.9138 1092.36 520.741
3226 0 17.0023 5.17577 88 77.9773 1093.35 519.466
3227 1 156.146 13.0775 2042 96.0284 1093.87 447.222
3228 0 160.172 12.2119 1956 98.5603 1095.29 448.41
3229 0 163.155 12.6812 2069 97.9807 1094.15 447.807
3230 0 168.117 12.5864 2116 98.8232 1094.72 442.273
3231 0 174.109 12.6759 2207 97.966 1094.57 440.067
3232 0 179.136 13.2972 2382 98.0306 1095.21 437.634
3233 0 185.103 13.2899 2460 97.8602 1095.32 437.404
3234 0 188.174 12.8764 2423 100.365 1094.42 431.828
3235 0 195.119 13.0689 2550 100.05 1094.34 431.716
3236 1 33.0391 7.476 247 71.7773 1093.73 518.814
3237 0 34.0583 7.66333 261 72.1954 1094.82 518.314
3238 0 34.0097 8.46817 288 73.5486 1094.88 518.368
3239 0 35.0536 8.33009 292 73.1781 1095.32 518.606
3240 0 35.0524 8.30185 291 73.512 1094.87 519.155
3241 0 35.0065 9.39824 329 72.4346 1095.09 518.535
3242 0 35.0515 9.21502 323 71.743 1094.75 517.418
3243 0 36.0156 9.44035 340 71.8118 1094.55 517.624
3244 0 37.0064 9.70102 359 71.4791 1094.36 517.047
3245 0 34.0377 8.81376 300 72.3733 1095.52 516.177
3246 0 36.0188 9.24517 333 71.6126 1094.2 517.096
3247 0 36.0102 8.69198 313 71.7188 1094.88 517.166
3248 0 39.0278 9.19856 359 69.6769 1094.42 518.22
3249 0 39.0484 8.42545 329 68.3708 1093.85 515.93
3250 0 39.0263 7.91774 309 69.8608 1094.24 515.819
3251 0 38.0618 8.3811 319 70.6677 1094.52 515.571
3252 0 41.2839 8.52632 352 69.2699 1095.37 511.991
3253 0 41.1086 8.17347 336 70.747 1093.28 514.098
3254 0 43.0485 8.98986 387 69.814 1094.56 514.406
3255 0 35.1692 8.98514 316 77.1171 1094.29 520.598
3256 0 35.0679 10.1232 355 73.7296 1094.41 520.899
3257 0 37.15 8.80214 327 73.9083 1094.65 519.948
3258 0 36.1461 9.95959 360 71.6861 1094.42 519.333
3259 0 37.1343 9.74839 362 74.8122 1094.42 520.091
3260 0 35.0549 9.67055 339 76.7758 1094.76 520.05
3261 0 42.1584 8.77642 370 64.5595 1095.32 517.111
3262 0 40.0846 10.4529 419 70.6134 1094.47 518.656
3263 0 35.0213 9.82258 344 76.9593 1094.79 520.296
3264 0 36.0815 10.31 372 76.4731 1094.89 522.618
3265 0 37.0595 9.95697 369 75.1518 1095.15 520.043
3266 0 38.0906 9.92372 378 75.8095 1094.56 518.352
3267 0 39.1516 10.1911 399 73.9724 1094.45 518.063
3268 0 35.0303 10.0199 351 75.8775 1094.13 518.726
3269 0 39.0573 9.70368 379 75.3668 1094.67 517.211
3270 0 38.1137 9.288 354 76.0791 1093.89 517.833
3271 0 40.0801 10.3293 414 73.6522 1094.99 516.594
3272 0 40.106 10.4224 418 72.689 1094.67 516.45
3273 0 39.1476 10.2433 401 72.4564 1094.73 517.616
3274 0 40.1272 10.2674 412 72.6505 1093.97 517.711
3275 0 42.206 9.83271 415 73.1735 1095.21 517.68
3276 0 43.0571 9.96351 429 72.986 1094.78 518.196
3277 0 44.073 10.9591 483 68.7122 1094.48 517.172
3278 0 44.1699 10.5502 466 68.3305 1094.51 516.506
3279 0 45.1058 9.91003 447 67.9306 1094.87 517.557
3280 0 44.0915 10.3875 458 67.941 1093.96 516.9
3281 0 46.0941 10.305 475 64.8863 1094.1 515.68
3282 0 45.1919 10.1788 460 65.7891 1094.85 515.576
3283 0 46.1766 10.3299 477 64.2977 1094.19 516.065
3284 0 47.1308 9.16598 432 66.2917 1093.3 515.613
3285 0 45.1385 10.6118 479 64.1566 1093.54 515.228
3286 0 48.0988 9.62601 463 64.6544 1093.95 515.233
3287 0 47.2205 9.27564 438 66.6826 1093.75 514.098
3288 0 48.1589 9.24024 445 65.9551 1093.82 513.582
3289 0 48.1564 9.44837 455 66.0198 1094.11 514.881
3290 0 49.1078 9.10243 447 66.1857 1094.74 513
3291 0 48.1499 9.49119 457 64.4508 1094.25 511.101
3292 0 49.0544 9.47928 465 64.9054 1094.57 512.581
3293 0 45.1888 9.16157 414 62.942 1096.12 511.903
3294 0 46.306 8.89734 412 63.3811 1095.62 511.767
3295 0 47.1213 8.91316 420 63.2881 1096.41 511.162
3296 0 49.1732 9.09032 447 62.4139 1096.35 511.298
3297 0 50.1468 8.93377 448 62.7656 1096.43 511.359
3298 0 51.3231 9.64478 495 61.1394 1096.56 512.469
3299 0 52.1664 9.45053 493 62.0162 1094.56 512.505
3300 0 52.0758 9.56299 498 61.5904 1096.89 511.958
3301 0 51.17 8.48153 434 62.4447 1096.74 510.249
3302 0 51.1358 9.62143 492 61.6301 1094.8 509.467
3303 0 51.1358 9.69966 496 102.837 1094.78 509.49
3304 0 53.0854 9.70134 515 59.235 1094.1 509.532
3305 0 52.154 9.41443 491 60.3401 1093.87 510.802
3306 0 54.175 9.67236 524 60.3454 1094.4 508.662
3307 0 53.0859 9.73894 517 59.8898 1093.56 509.01
3308 0 53.1341 10.1065 537 59.0801 1093.26 509.898
3309 0 55.0655 9.20721 507 60.0828 1093.97 508.801
3310 0 54.1199 9.94089 538 59.3048 1094.82 507.244
3311 0 54.1703 9.56244 518 59.529 1094.42 508.784
3312 0 55.1004 9.78214 539 59.1614 1094.71 508.223
3313 0 55.0961 9.69216 534 59.2959 1094.05 505.76
3314 0 56.1087 10.1588 570 57.7158 1093.72 507.267
3315 0 56.0642 9.2394 518 59.7027 1094.7 506.187
3316 0 56.0865 8.87914 498 58.9659 1094.04 506.753
3317 1 17.0154 6.17086 105 57.981 1094.97 525.467
