time division length width area intensity CMx CMy
0 0 58.0086 13.498 783 93.3972 1255.36 499.239
1 0 60.0395 13.9242 836 92.5778 1256.01 497.675
2 0 63.103 13.7236 866 94.47 1256.09 496.031
3 0 63.0429 13.8318 872 94.7385 1255.84 497.505
4 0 67.0628 13.8825 931 93.5961 1256.06 495.647
5 0 67.061 13.9276 934 161.625 1256.06 495.656
6 0 69.0505 13.9173 961 94.257 1255.91 494.289
7 0 70.051 14.0184 982 93.7149 1255.95 494.703
8 0 71.0408 13.3726 950 96.1968 1256.09 493.558
9 0 74.0606 14.0696 1042 93.095 1254.92 492.351
10 0 74.0606 14.0966 1044 163.239 1252.91 492.339
11 0 78.0257 13.5981 1061 93.0188 1255.01 490.436
12 0 81.1539 13.4806 1094 91.6033 1255.73 490.486
13 0 84.0551 13.7648 1157 90.5774 1255.53 487.522
14 0 86.0934 13.8454 1192 90.6435 1255.35 487.382
15 1 44.0684 12.3444 544 95.3033 1255.45 505.259
16 0 46.0273 12.6447 582 92.1048 1255.12 505.342
17 0 48.1025 11.9536 575 93.24 1254.82 504.52
18 0 48.0582 12.9426 622 91.2299 1254.99 504.399
19 0 51.0442 13.0671 667 89.1064 1254.19 504.127
20 0 52.0128 12.9391 673 89.9094 1254.27 503.202
21 0 53.05 12.8369 681 91.9633 1254.98 502.396
22 0 54.0708 13.1309 710 90.4 1255.25 502.911
23 0 56.0547 12.9338 725 90.9628 1254.39 503.596
24 0 57.059 13.3721 763 87.3394 1255.12 501.72
25 0 59.0486 13.0401 770 86.8195 1254.29 503.395
26 0 60.0458 13.2732 797 87.8043 1254.5 503.166
27 0 63.0327 12.9774 818 87.4328 1254.2 501.719
28 0 65.0273 12.9023 839 87.6698 1253.95 500.092
29 0 69.024 13.4156 926 84.9017 1254.47 498.764
30 0 70.0392 13.3639 936 86.0459 1253.71 496.541
31 0 72.0473 13.4079 966 85.5321 1253.91 495.983
32 0 75.0268 13.5152 1014 84.7712 1253.18 494.785
33 0 77.018 13.1138 1010 86.003 1254.35 493.809
34 0 80.0544 13.1411 1052 85.6065 1253.33 493.281
35 0 83.0398 13.6079 1130 85.8451 1253.89 489.855
36 1 45.0334 11.9245 537 87.7225 1253.46 509.633
37 0 45.0446 12.0547 543 87.7182 1253.32 508.492
38 0 47.0605 12.3671 582 87.2612 1252.74 507.136
39 0 45.0098 12.3529 556 81.2644 1253.61 508.592
40 0 45.0347 12.9234 582 80.6667 1252.88 507.447
41 0 48.0143 12.4963 600 79.08 1253.24 507.17
42 0 48.0143 12.5587 603 131.494 1253.25 507.201
43 0 52.0598 12.6009 656 77.6357 1253.3 505.599
44 0 53.0441 12.5367 665 78.3654 1254.02 504.844
45 0 56.0347 12.7421 714 77.3824 1253.96 503.57
46 0 56.0475 12.0969 678 79.9307 1254.43 503.13
47 0 57.0794 12.1935 696 81.1494 1253.4 501.501
48 0 61.1632 12.3604 756 80.8122 1253.81 501.127
49 0 61.0489 12.5473 766 82.9713 1253.31 499.064
50 0 64.0328 13.212 846 81.8452 1254.29 498.293
51 0 65.0606 12.3116 801 83.4806 1253.34 497.377
52 0 68.0351 12.7728 869 82.6041 1253.04 497.163
53 0 70.0459 13.0914 917 82.0404 1253.07 495.55
54 0 73.061 12.7701 933 81.7996 1253.62 494.896
55 0 74.0518 12.9504 959 81.7143 1254.23 494.921
56 0 79.0385 12.7153 1005 80.6607 1254.99 494.234
57 0 80.0499 12.1799 975 82.7477 1254.58 492.8
58 0 82.0451 11.9568 981 93.105 1254.24 491.789
59 1 42.0352 11.99 504 80.9365 1253.71 511.101
60 0 44.0514 12.213 538 81.3643 1254.62 509.223
61 0 46.0084 12.4977 575 87.0104 1254.81 509.445
62 0 43.0504 12.1718 524 78.9198 1253.92 510.792
63 0 45.0212 12.5941 567 78.3545 1253.08 510.014
64 0 46.034 10.8181 498 81.7048 1254.05 510.394
65 0 48.0252 12.077 580 79.6138 1254.24 508.034
66 0 48.0252 12.0353 578 134.756 1254.2 508.085
67 0 51.0317 11.9534 610 80.341 1254.14 506.93
68 0 51.0135 12.3301 629 79.1304 1254.42 506
69 0 54.0178 11.7924 637 79.6248 1255.3 505.928
70 0 57.0375 11.9045 679 79.0574 1255.41 504.353
71 0 57.0514 12.1645 694 79.1081 1255.39 504.594
72 0 61.0265 12.0603 736 78.9158 1254.89 502.046
73 0 61.0596 11.6771 713 80.1136 1254.55 501.881
74 0 64.0734 12.0175 770 79.8571 1255.28 500.353
75 0 68.0399 12.6837 863 79.299 1255.5 499.196
76 0 71.0424 12.4714 886 79.2111 1254.69 497.731
77 0 73.0278 12.6801 926 80.7549 1255.23 495.905
78 0 75.0641 12.5093 939 81.1395 1255.4 495.986
79 0 77.1688 12.4921 964 81.9886 1255.99 494.563
80 0 79.0636 12.3571 977 82.4841 1255.69 491.941
81 1 38.0098 10.7341 408 86.7353 1256.36 512.551
82 0 39.0826 11.1047 434 86.682 1255.44 511.689
83 0 44.0421 11.1257 490 83.0612 1255.92 511.057
84 0 44.0269 12.1289 534 81.5487 1255.6 510.449
85 0 46.0146 13.1697 606 78.1419 1255.14 510.058
86 0 47.0929 12.2736 578 78.9654 1255.15 510.047
87 0 47.0426 12.5206 589 79.6282 1255.07 508.345
88 0 49.0437 13.2739 651 76.6129 1255.45 506.465
89 0 50.0737 12.6214 632 77.3212 1255.78 507.396
90 0 53.0773 13.3767 710 75.7746 1255.77 505.43
91 0 52.0344 12.1842 634 78.9132 1255.13 506.426
92 0 54.0412 12.5645 679 78.3225 1256.02 505.502
93 0 53.0256 11.485 609 81.3793 1255.79 505.366
94 0 55.0539 11.6795 643 80.4588 1255.55 503.689
95 0 57.0805 11.878 678 78.9956 1254.83 502.63
96 0 60.0725 12.3018 739 77.7632 1254.26 501.664
97 0 62.1278 11.75 730 77.7699 1253.75 501.47
98 0 63.0512 11.4669 723 78.7662 1254.46 499.414
99 0 65.0247 11.411 742 78.4164 1254.99 499.205
100 0 69.055 11.9325 824 78.0813 1254 497.046
101 0 70.094 11.7842 826 79.3099 1255.25 496.317
102 0 73.0758 11.9054 870 78.9506 1254.46 496.259
103 0 75.052 11.1656 838 82.1909 1255.34 492.521
104 1 41.0155 11.1665 458 81.3166 1255.26 511.175
105 0 44.0218 11.9032 524 80.5344 1255.97 509.74
106 0 44.0218 11.9486 526 145.92 1255.95 509.696
107 0 42.0321 10.7299 451 81.5964 1254.65 511.545
108 0 43.039 11.6406 501 80.1397 1254.03 508.87
109 0 43.0503 11.2891 486 81.3909 1254.65 509.276
110 0 47.1136 11.1645 526 80.9563 1255.13 508.452
111 0 46.1018 11.6915 539 80.4731 1255.02 506.03
112 0 49.0912 11.1629 548 80.1569 1255.15 507.549
113 0 51.161 11.3954 583 80.012 1255.49 506.202
114 0 52.1085 11.8215 616 78.5065 1254.95 505.218
115 0 53.144 11.2713 599 80.1987 1254.3 504.803
116 0 56.1268 11.9729 672 77.4211 1254.26 505.342
117 0 57.123 12.2893 702 77.4274 1253.6 502.944
118 0 59.066 12.2236 722 78.3393 1254.41 501.902
119 0 60.0928 12.4474 748 78.2326 1253.81 500.63
120 0 62.0819 12.4513 773 79.1358 1254.69 500.316
121 0 64.0911 12.1546 779 79.5186 1254.77 499.416
122 0 66.0743 12.153 803 80.5268 1254.71 498.668
123 0 67.0715 12.4494 835 80.9198 1254.8 496.348
124 0 69.0621 12.1919 842 81.8979 1255.16 496.394
125 0 72.0602 12.5589 905 80.4387 1254.73 495.786
126 0 76.0635 12.4107 944 80.4025 1254.69 494.416
127 0 77.0556 11.7577 906 82.4117 1255.02 491.173
128 1 40.029 11.2918 452 85.0243 1254.41 508.504
129 0 45.0865 11.7774 531 81.8531 1254.31 508.663
130 0 45.0131 12.3964 558 80.5394 1254.96 507.909
131 0 42.0684 11.7903 496 79.2702 1254.77 508.339
132 0 44.0315 12.0368 530 77.9774 1255.05 509.998
133 0 45.0244 11.305 509 79.9627 1254.5 508.888
134 0 46.0253 11.5589 532 79.5132 1254.77 509.412
135 0 48.05 11.717 563 79.5932 1254.69 507.664
136 0 49.0738 11.3299 556 80.6151 1254.92 506.888
137 0 51.0586 11.6337 594 80.2407 1254.43 506.993
138 0 52.0835 11.808 615 81.1268 1254.63 505.938
139 0 55.1052 11.8319 652 80.2331 1254.37 504.552
140 0 57.0934 12.2256 698 79.3037 1254.5 504.943
141 0 59.0229 12.1309 716 79.7849 1254.59 504.455
142 0 59.0799 12.153 718 81.3677 1255.14 502.061
143 0 62.0328 12.5418 778 80.6234 1254.07 500.81
144 0 64.1247 12.7096 815 80.638 1253.74 498.848
145 0 67.0469 12.6031 845 80.3929 1253.76 499.198
146 0 69.073 13.1745 910 79.5 1254.35 497.398
147 0 73.064 13.1392 960 78.7802 1254.1 496.226
148 0 74.0545 13.2875 984 80.0539 1254.13 493.812
149 0 76.0504 13.1755 1002 80.6437 1254.52 491.963
150 0 79.0382 12.5003 988 82.7601 1253.98 491.285
151 0 81.0339 12.4146 1006 83.6292 1253.84 490.496
152 0 85.0518 12.4042 1055 83.8701 1253.51 488.98
153 1 44.0301 10.3565 456 85.7873 1253.72 507.575
154 0 45.0163 12.2622 552 82.7989 1253.22 507.668
155 0 47.0406 12.2447 576 83.6128 1252.48 506.413
156 0 48.0717 13.2302 636 81.9009 1253.32 506.626
157 0 47.0093 12.0615 567 78.0952 1252.98 508.423
158 0 49.0421 12.5199 614 79.3192 1253.76 508.163
159 0 49.0841 12.7129 624 80.9519 1254.07 506.196
160 0 50.1025 11.9555 599 82.621 1254.43 507.219
161 0 53.109 12.8415 682 79.9648 1253.58 505.182
162 0 54.0694 12.3175 666 82.3258 1253.2 504.854
163 0 55.0432 12.2086 672 82.6756 1253.41 504.504
164 0 57.101 12.4691 712 82.3652 1253.48 503.499
165 0 60.0526 12.9886 780 81.2115 1253.29 502.246
166 0 61.0905 12.3423 754 84.2003 1253.41 500.284
167 0 64.1339 12.5207 803 84.2279 1253.5 498.771
168 0 66.0918 12.5583 830 84.3735 1254.15 497.86
169 0 70.0706 13.2152 926 82.8607 1254.01 497.523
170 0 71.0937 13.5174 961 84.6535 1254.32 496.869
171 0 73.1131 13.5817 993 85.0403 1254.02 495.912
172 0 75.0584 13.6827 1027 85.9873 1253.18 493.764
173 0 77.055 13.5228 1042 88.0086 1252.67 492.486
174 0 80.0719 13.388 1072 89.0326 1252.72 491.222
175 0 83.0925 13.7076 1139 88.6295 1252.96 490.413
176 0 84.0904 13.9136 1170 89.6419 1253.76 490.207
177 0 89.1164 14.1949 1265 89.6182 1253.61 489.234
178 0 91.0777 13.4281 1223 88.2772 1253.68 486.368
179 1 49.0737 11.9412 586 88.3993 1253.68 507.481
180 0 50.1028 12.9534 649 85.0277 1252.69 506.263
181 0 54.0546 12.5984 681 85.0793 1252.58 505.482
182 0 54.066 12.2813 664 82.9157 1252.06 505.872
183 0 54.0415 12.3424 667 83.3643 1253.14 505.403
184 0 56.0374 12.3132 690 83.513 1253.99 503.138
185 0 58.0726 12.8977 749 80.9199 1253.84 503.478
186 0 62.0359 12.8796 799 81.816 1254.09 502.031
187 0 65.0309 13.3014 865 81.0775 1254.11 500.909
188 0 67.085 12.596 845 86.2024 1254.2 498.306
189 0 68.0476 13.4906 918 82.4118 1253.92 497.391
190 0 69.1234 13.3963 926 82.9006 1253.31 495.363
191 0 72.0392 13.2011 951 82.6204 1253.22 494.25
192 0 75.1149 13.486 1013 81.9092 1252.7 494.762
193 0 78.0593 13.0542 1019 82.8999 1253.56 493.658
194 0 79.0842 13.8207 1093 84.1574 1253.34 492.278
195 0 81.1227 12.7954 1038 89.2187 1253.73 490.395
196 0 85.0474 13.5572 1153 87.2741 1253.25 488.536
197 0 89.1811 13.0633 1165 87.1588 1253.38 486.813
198 0 92.0614 13.491 1242 85.7987 1253.35 485.551
199 0 94.1566 13.297 1252 86.4089 1252.61 483.089
200 0 95.0982 13.5123 1285 86.7479 1252.28 482.789
201 1 51.0814 11.3349 579 83.6028 1252.44 505.549
202 0 51.0814 11.4132 583 154.322 1252.43 505.482
203 0 53.1031 12.1462 645 102.341 1252.83 503.659
204 0 55.0695 12.911 711 103.751 1252.47 502.799
205 0 57.0057 12.8584 733 107.266 1251.94 501.66
206 0 59.0464 12.2277 722 107.323 1252.71 501.429
207 0 61.0262 13.0764 798 103.454 1251.43 501.58
208 0 62.0236 13.7851 855 101.294 1251.41 499.885
209 0 63.0298 13.1525 829 103.685 1251.1 498.457
210 0 65.0121 13.3821 870 101.759 1251.84 498.191
211 0 69.0328 13.6602 943 99.7625 1251.82 497.068
212 0 70.0294 13.223 926 103.359 1252.03 496.891
213 0 71.0628 13.5092 960 103.864 1252.78 495.867
214 0 75.0079 13.6652 1025 102.188 1252.58 493.987
215 0 75.0321 13.5675 1018 102.966 1252.58 493.818
216 0 77.0513 13.5235 1042 104.334 1252.45 490.788
217 0 81.0515 13.2138 1071 104.067 1251.99 490.33
218 0 81.0788 13.5177 1096 103.581 1252.03 488.918
219 0 86.045 13.4232 1155 103.055 1251.85 487.938
220 0 88.022 13.4853 1187 103.774 1252.41 486.63
221 0 89.0699 13.3827 1192 104.961 1252.63 485.201
222 0 92.0421 13.4504 1238 105.41 1252.47 484.456
223 0 96.1027 13.8914 1335 102.708 1252.85 482.051
224 0 97.0685 13.2381 1285 104.385 1252.27 479.313
225 0 100.067 13.2411 1325 104.435 1252 478.189
226 0 103.108 12.8991 1330 105.611 1251.26 474.813
227 0 104.061 13.3575 1390 105.299 1252.01 473.894
228 1 56.0364 10.1184 567 98.4021 1251.27 501.515
229 0 57.0726 11.1087 634 94.7066 1251.97 499.322
230 0 60.0506 11.9233 716 92.831 1251.67 497.821
231 0 63.1503 12.1298 766 93.7206 1251.72 497.648
232 0 65.1175 12.5158 815 90.0736 1252.57 497.904
233 0 66.0907 11.6053 767 92.5085 1252.01 496.84
234 0 69.0828 12.0725 834 91.3022 1252.07 494.869
235 0 70.0815 12.5711 881 92.0148 1252.27 493.208
236 0 75.0672 12.309 924 103.566 1251.63 492.722
237 0 76.1063 12.1935 928 105.653 1251.95 490.659
238 0 80.1341 12.6663 1015 103.424 1251.21 490.201
239 0 83.1195 12.6685 1053 103.83 1251.86 488.656
240 0 84.1525 12.4298 1046 106.2 1252.03 485.919
241 0 89.1915 12.86 1147 104.391 1252.66 486.792
242 0 89.1613 12.5391 1118 106.544 1252.25 485.203
243 0 93.1596 12.7416 1187 105.917 1251.78 484.201
244 0 97.1621 12.9577 1259 104.973 1251.85 483.532
245 0 98.1692 12.6312 1240 107.011 1252.1 481.914
246 0 103.159 12.8927 1330 104.95 1252.32 480.368
247 0 106.144 12.3135 1307 105.065 1251.77 479.178
248 1 55.086 11.4911 633 93.9336 1251.95 504.885
249 0 54.039 11.9358 645 95.186 1251.58 502.326
250 0 54.0733 11.2255 607 87.2619 1251.75 505.18
251 0 57.0435 10.8163 617 87.5673 1251.11 504.1
252 0 56.05 10.7047 600 88.9783 1251.78 503.623
253 0 60.1237 10.7445 646 89.2802 1252.2 501.443
254 0 61.0483 11.1223 679 88.6303 1252.89 500.614
255 0 61.1196 11.2893 690 89.8174 1251.81 500.949
256 0 65.1506 11.1895 729 90.8697 1252.37 499.811
257 0 66.0227 11.5869 765 91.8745 1252.37 498.868
258 0 68.0603 12.0041 817 91.2203 1251.88 497.64
259 0 70.043 12.0926 847 91.9374 1251.93 495.599
260 0 71.0477 11.3586 807 94.5564 1252.05 494.682
261 0 76.0407 11.8752 903 95.1429 1251.74 493.406
262 0 76.09 11.4207 869 97.9494 1251.15 492.926
263 0 79.0226 12.275 970 98.1711 1251.63 490.36
264 0 82.0489 11.8222 970 100.179 1251.3 489.794
265 0 83.0453 12.0055 997 100.37 1251.17 489.008
266 0 87.0229 12.3416 1074 100.659 1252.28 486.788
267 0 90.0536 11.4265 1029 102.679 1251.65 485.753
268 0 93.0811 12.0647 1123 101.754 1252.11 485.671
269 0 94.0841 12.1806 1146 102.243 1252.1 483.475
270 0 97.0693 12.4241 1206 102.336 1251.96 481.896
271 1 53.0272 10.9378 580 102.688 1252.01 505.579
272 0 56.0309 11.8328 663 101.25 1251.44 503.792
273 0 55.0452 12.5533 691 100.59 1251.99 503.122
274 0 57.0312 12.6773 723 99.9862 1252.51 501.946
275 0 55.0424 11.155 614 93.9463 1252.22 504.024
276 0 58.0371 11.3204 657 94.4384 1252.58 502.738
277 0 59.0795 11.5607 683 93.4348 1252.74 503.032
278 0 59.0632 11.3946 673 96.1367 1252.41 501.337
279 0 62.0365 10.9452 679 97.4904 1253.15 500.473
280 0 64.0372 10.978 703 99.6458 1252.6 499.172
281 0 66.0326 11.5095 760 98.2158 1252.43 497.554
282 0 69.0823 12.087 835 96.7545 1252.28 497.212
283 0 71.0448 11.5702 822 97.826 1252.71 496.724
284 0 74.041 11.5477 855 98.1895 1251.72 496.101
285 0 77.1318 12.148 937 98.1238 1251.51 493.175
286 0 77.0662 11.0035 848 100.248 1251.82 493.278
287 0 81.0466 11.3762 922 97.5033 1251.67 491.884
288 1 45.0173 10.4182 469 97.597 1252.4 507.928
289 0 47.0756 11.0036 518 96.1371 1252.62 506.697
290 0 47.0197 11.1017 522 96.1073 1252.96 506.764
291 0 49.0067 11.5699 567 95.351 1251.77 505.614
292 0 50.0142 11.2768 564 91.1649 1252.83 505.261
293 0 47.0621 11.3042 532 93.1071 1252.52 505.485
294 0 49.0385 10.4408 512 94.1309 1251.99 504.842
295 0 50.022 11.295 565 92.8531 1251.11 504.242
296 0 52.0576 10.8149 563 93.1084 1251.15 503.053
297 0 52.0346 10.7621 560 93.8607 1252.39 503.589
298 0 52.0497 10.2402 533 94.3039 1252.5 502.983
299 0 54.0267 10.6799 577 93.513 1252.28 502.246
300 0 56.052 10.9363 613 92.4633 1252.06 502.418
301 0 57.025 10.0658 574 94.4756 1252.55 501.7
302 0 58.0362 10.1661 590 94.5678 1252.21 500.651
303 0 61.0166 10.7676 657 93.2831 1252.69 500.798
304 0 62.0185 10.4807 650 94.1892 1251.44 499.005
305 0 63.0388 9.93039 626 95.1901 1252.01 500.187
306 0 64.0391 10.4155 667 94.7586 1251.99 497.291
307 0 67.0371 11.0834 743 93.2153 1252.34 497.249
308 0 69.0691 11.0904 766 93.1971 1252.63 496.546
309 0 73.0632 11.2368 821 90.8246 1252.09 496.206
310 0 79.054 13.0797 1034 83.9545 1252.12 495.445
311 0 79.054 12.7255 1006 86.0577 1251.85 494.859
312 0 80.06 12.1909 976 89.1977 1251.34 494.06
313 0 85.0964 12.3389 1050 88.1448 1250.91 492.341
314 0 88.1277 12.5386 1105 89.4941 1251.06 489.923
315 0 91.0664 13.3968 1220 87.7107 1251.22 488.181
316 0 93.0601 12.8304 1194 87.1106 1251.86 488.9
317 0 96.04 13.3486 1282 85.4087 1251.98 488.693
318 1 51.0217 11.6421 594 89.9226 1251.62 509.182
319 0 52.0477 12.0658 628 88.535 1252.23 508.334
320 0 54.0911 12.7747 691 85.9161 1251.66 507.185
321 0 56.0355 13.0632 732 84.2787 1251.07 507.184
322 0 55.0444 12.1538 669 83.8849 1251.4 506.665
323 0 56.0262 12.4406 697 77.4003 1250.08 506.989
324 0 58.0453 12.1285 704 78.4318 1250 506.651
325 0 59.023 11.8598 700 79.6343 1250.9 506.2
326 0 62.101 12.4475 773 77.674 1251.46 504.435
327 0 62.033 12.1387 753 79.8845 1250.88 504.947
328 0 65.0199 11.3658 739 81.2544 1251.39 504.583
329 0 66.0856 12.1812 805 79.9578 1251.2 504.117
330 0 68.0179 12.7613 868 80.129 1250.96 502.738
331 0 70.067 12.9305 906 80.3543 1250.35 502.125
332 0 72.03 13.2306 953 80.298 1250.22 501.125
333 0 75.0398 12.66 950 82.5063 1249.92 499.322
334 0 77.019 12.6073 971 84.4912 1249.88 497.396
335 0 79.1119 12.7035 1005 84.1323 1250.33 496.786
336 0 82.0838 12.402 1018 85.2554 1250.01 494.322
337 0 84.0339 12.495 1050 83.9533 1249.69 493.341
338 0 87.0435 12.7637 1111 84.4599 1250.17 491.97
339 0 90.051 12.8927 1161 82.3135 1249.35 489.57
340 0 93.0203 12.7929 1190 83.3345 1249.34 487.032
341 1 50.0325 11.5525 578 85.0623 1248.55 509.349
342 0 51.0935 11.5866 592 86.3209 1248.1 508.747
343 0 52.0441 12.7776 665 81.4436 1248.48 508.66
344 0 53.0753 11.7757 625 72.9616 1248.88 508.566
345 0 54.0334 12.0296 650 73.3846 1249.34 506.995
346 0 55.0968 12.8682 709 72.2285 1248.93 505.796
347 0 57.0911 12.2436 699 72.937 1249.14 506.215
348 0 59.0512 13.2258 781 71.6914 1248 504.561
349 0 60.0792 12.4169 746 73.3834 1248.2 504.744
350 0 62.0448 12.2331 759 73.8485 1248.04 504.47
351 0 64.0348 12.665 811 74.1048 1248.68 502.901
352 0 67.1112 13.0381 875 74.6571 1249 500.818
353 0 69.0401 12.4131 857 77.182 1248.48 499.358
354 0 70.0302 12.8088 897 77.8161 1249.36 499.081
355 0 72.0642 12.8635 927 78.7778 1248.51 497.261
356 0 75.0299 13.2081 991 79.9082 1248.86 495.715
357 0 77.0748 13.9086 1072 83.8974 1249.94 496.116
358 0 80.0603 13.4524 1077 86.1885 1249.1 493.274
359 0 82.1278 13.686 1124 86.742 1248.71 493.741
360 0 85.0814 13.6693 1163 88.1642 1248.57 492.847
361 0 86.1014 12.9266 1113 91.3082 1249.41 490.109
362 0 89.1324 13.7885 1229 89.3133 1249.21 487.245
363 0 91.1674 12.8884 1175 91.9217 1249.47 487.461
364 0 95.1406 13.0333 1240 92.1597 1248.74 485.264
365 0 99.267 13.0356 1294 91.6267 1249.65 484.003
366 0 100.17 12.8682 1289 93.6439 1249.84 481.847
367 1 54.0832 10.5763 572 87.8059 1249.45 507.086
368 0 55.0621 11.2418 619 86.4006 1249.1 506.942
369 0 56.0568 11.2564 631 85.4802 1249.46 506.461
370 0 59.065 12.3931 732 84.4413 1249.02 503.35
371 0 60.0448 11.4581 688 87.8837 1248.36 501.747
372 0 61.0744 11.5433 705 86.3929 1249.76 501.562
373 0 62.0112 11.4818 712 88.2444 1249.97 501.546
374 0 65.0711 12.2942 800 86.175 1249.57 502.212
375 0 67.0453 12.3797 830 90.259 1250.2 499.148
376 0 72.0166 12.8998 929 89.4155 1249.63 497.943
377 0 73.0487 12.6491 924 91.6526 1250.19 495.604
378 0 73.0487 12.567 918 132.264 1250.19 495.452
379 0 77.0579 12.3543 952 91.2185 1249.32 495.363
380 0 80.0556 13.1658 1054 91.4867 1248.87 492.953
381 0 84.0484 13.7659 1157 93.5376 1249.36 491.745
382 0 85.0498 14.0506 1195 94.9113 1249.27 489.521
383 0 89.0464 14.1612 1261 93.958 1250.08 488.921
384 0 90.0841 14.1756 1277 94.3947 1250.32 487.864
385 0 93.1023 12.8139 1193 96.9682 1250.04 485.977
386 0 96.0768 13.3435 1282 96.6069 1250.45 484.944
387 1 52.0156 10.9582 570 91.493 1250.46 506.918
388 0 55.0647 11.0597 609 90.4039 1250.72 505.545
389 0 55.0448 11.6632 642 87.257 1249.93 504.755
390 0 55.0357 11.5561 636 82.8333 1249.94 504.286
391 0 60.1232 11.6594 701 82.0214 1250.38 504.719
392 0 59.0171 12.0135 709 83.4711 1250.57 504.166
393 0 61.0421 11.3856 695 84.6849 1250.64 502.219
394 0 64.0527 12.1619 779 83.0501 1250.09 500.083
395 0 66.0225 12.6169 833 82.3097 1250.42 498.513
396 0 69.038 12.6452 873 81.0515 1250.39 498.979
397 0 70.0674 11.7601 824 84.0752 1250.49 497.585
398 0 72.0421 11.7848 849 84.9234 1250.45 497.007
399 0 75.0878 12.1591 913 84.7788 1249.64 494.818
400 0 77.0266 11.879 915 85.3803 1250.14 493.495
401 0 80.0942 12.0233 963 85.0197 1248.95 493.07
402 0 83.1182 12.1634 1011 85.8131 1249.86 490.424
403 0 84.0618 11.5986 975 87.3344 1250.72 489.086
404 0 87.0815 12.184 1061 86.6484 1250.77 489.051
405 0 89.0792 11.4617 1021 89.8717 1250 487.928
406 0 92.1237 11.9513 1101 89.0045 1250.56 486.582
407 1 50.0513 10.6291 532 86.1974 1250.59 506.97
408 0 51.0807 11.0022 562 84.6246 1250.21 507.774
409 0 52.0582 11.4871 598 82.0602 1250.81 506.284
410 0 55.0482 11.6443 641 82.805 1250.03 504.855
411 0 56.1085 11.4956 645 82.507 1250.84 504.166
412 0 56.0678 11.932 669 83.5605 1250.85 504.374
413 0 58.0441 11.0433 641 84.6115 1250.4 503.303
414 0 60.1595 11.403 686 84.1224 1250.47 501.109
415 0 62.0954 11.5628 718 83.4819 1250.52 500.971
416 0 65.0727 11.4487 745 83.8872 1250.12 500.832
417 0 68.077 12.1333 826 82.4794 1250.02 498.892
418 0 69.0448 12.0791 834 83.0024 1249.64 498.217
419 0 73.0535 12.5388 916 83.1965 1250.59 496.032
420 0 74.1096 12.0362 892 86.9933 1250.87 493.306
421 0 78.1281 12.3131 962 88.1726 1250.86 491.004
422 0 82.1625 12.9621 1065 87.6845 1250.01 489.857
423 0 84.0517 13.2299 1112 89.223 1250.32 489.711
424 0 88.0688 13.7166 1208 95.6076 1250.34 487.539
425 0 90.1669 12.5323 1130 99.3522 1250.43 486.848
426 0 93.2792 12.8432 1198 97.7679 1249.55 484.594
427 0 98.1552 12.8164 1258 95.1932 1249.86 483.409
428 0 97.1573 12.382 1203 95.788 1249.42 481.951
429 0 102.157 12.5102 1278 92.6158 1248.72 479.605
430 0 105.113 12.1964 1282 93.1919 1250.43 478.654
431 0 109.275 12.6195 1379 92.889 1250.27 477.397
432 1 58.1438 10.732 624 90.0529 1250.08 502.766
433 0 60.0818 10.752 646 90.2802 1250.53 503.09
434 0 61.0824 11.7546 718 90.851 1250.49 500.818
435 0 63.0852 12.1582 767 88.2542 1250.04 500.729
436 0 66.0634 12.0036 793 90.1765 1249.65 499.077
437 0 67.0796 11.6131 779 90.3684 1249.81 499.196
438 0 70.094 12.312 863 89.1645 1249.14 496.565
439 0 73.0884 11.7118 856 88.9369 1249.74 497.504
440 0 73.1771 11.479 840 91.8452 1249.65 494.47
441 0 75.1399 11.778 885 91.296 1250.3 492.218
442 0 79.1308 12.9911 1028 88.1342 1250.45 492.901
443 0 80.1677 12.5986 1010 88.5673 1250.11 491.416
444 0 82.1472 12.6237 1037 89.8833 1250.61 491.117
445 0 85.1511 13.247 1128 87.4034 1249.75 490.085
446 0 87.1758 12.9508 1129 88.729 1250.45 489.151
447 0 87.167 13.0095 1134 141.821 1251.47 489.129
448 0 93.2245 13.2047 1231 88.8351 1250.84 485.377
449 0 96.2762 12.6095 1214 91.1985 1250.47 484.855
450 0 100.267 12.7161 1275 91.5459 1251.02 482.768
451 1 53.0466 10.2363 543 91.9558 1250.51 506.365
452 0 56.1408 11.5068 646 88.6904 1250.35 504.293
453 0 58.1156 12.3203 716 87.7011 1250.84 503.31
454 0 58.1222 11.8371 688 93.9026 1250.42 501.666
455 0 60.1434 12.2707 738 87.8008 1249.75 502.229
456 0 59.1484 11.7163 693 88.2179 1250.44 501.266
457 0 61.1609 12.2791 751 88.2929 1250.65 502.118
458 0 65.2575 12.8414 838 88.5406 1250.47 499.124
459 0 67.084 12.3129 826 90.2542 1250.61 499.413
460 0 68.1812 12.2761 837 93.2939 1250.34 497.852
461 0 70.1776 13.0241 914 93.1138 1250.87 493.876
462 0 73.2103 12.949 948 94.615 1250.28 493.208
463 0 75.292 12.7504 960 94.8896 1250.42 492.726
464 0 78.2249 13.1927 1032 94.8314 1249.76 491.144
465 0 81.158 13.3567 1084 97.8681 1249.98 489.908
466 0 82.1869 13.1773 1083 99.3906 1250.38 489.183
467 0 84.0893 13.2121 1111 99.5932 1249.88 487.182
468 0 86.1499 13.5462 1167 101.24 1250.88 485.819
469 0 88.1595 13.5777 1197 100.612 1251.12 487.629
470 0 89.1005 12.716 1133 92.3963 1250.3 485.298
471 0 93.0518 12.5414 1167 94.4147 1250.3 485.789
472 0 98.089 13.3144 1306 90.7802 1250.2 484.709
473 0 101.194 13.4099 1357 92.0656 1250.18 482.853
474 0 103.114 13.3153 1373 92.2615 1250.71 481.122
475 0 105.094 13.2833 1396 93.5623 1250.11 478.963
476 0 110.044 12.7586 1404 95.4544 1250.63 476.402
477 0 112.033 13.0229 1459 96.3269 1250.73 475.826
478 1 49.0595 11.4351 561 96.2299 1251.16 508.344
479 0 50.0472 11.8888 595 94.5109 1250.69 506.398
480 0 51.068 12.3561 631 92.4168 1250.49 505.848
481 0 54.0736 13.4631 728 88.5522 1251.02 504.743
482 0 54.0186 12.6993 686 90.9009 1249.84 503.179
483 0 55.0603 12.3501 680 91.9868 1249.4 502.962
484 0 57.0264 12.6257 720 91.3611 1249.64 502.426
485 0 56.0554 12.4698 699 87.887 1249.51 503.335
486 0 58.0229 11.9608 694 87.938 1250 503.69
487 0 59.0605 12.5295 740 88.5189 1250.25 501.468
488 0 61.0187 12.7502 778 88.0321 1249.64 500.87
489 0 66.0422 13.0068 859 87.6601 1249.62 500.366
490 0 65.0395 12.7922 832 91.3413 1250.03 498.994
491 0 67.0654 12.5996 845 91.5053 1250.56 499.497
492 0 70.0945 12.5402 879 90.6985 1249.76 498.255
493 0 73.1129 12.7748 934 89.6135 1249.73 497.605
494 0 75.1144 13.3796 1005 88.2786 1249.13 496.133
495 0 79.079 13.5181 1069 86.3527 1249.32 494.098
496 0 80.0706 12.4265 995 88.8633 1249.31 492.471
497 1 42.0398 11.1561 469 86.7761 1249.94 510.473
498 0 46.1068 11.7119 540 83.3389 1249.29 508.809
499 0 46.0753 11.9587 551 80.9129 1250.1 508.238
500 0 45.0342 11.5024 518 83.1757 1249.5 512.338
501 0 47.0446 11.436 538 84.4591 1250.33 510.888
502 0 49.1106 11.6065 570 82.993 1249.34 510.056
503 0 49.1223 11.8276 581 84.9019 1249.4 509.217
504 0 53.1377 12.0442 640 81.3766 1249.13 507.552
505 0 54.1031 11.9587 647 81.0649 1249.16 506.694
506 0 57.049 12.0598 688 78.1294 1249.34 506.609
507 0 58.1526 12.3296 717 79.3487 1249.64 504.484
508 0 58.1117 12.063 701 80.5278 1249.78 504.04
509 0 61.0876 11.8518 724 80.7735 1249.47 503.015
510 0 62.133 12.5537 780 81.1385 1248.71 501.759
511 0 66.0935 12.8606 850 80.4871 1249.07 500.048
512 0 68.1365 13.4289 915 80.8404 1248.82 499.486
513 0 70.1632 13.3403 936 83.6239 1248.77 498.298
514 0 73.1408 13.2758 971 82.8157 1248.7 497.268
515 0 73.1109 13.0487 954 84.3742 1248.73 496.739
516 0 76.1064 13.4154 1021 84.0166 1249.05 496.195
517 0 79.1244 13.1944 1044 86.4512 1248.69 496.221
518 0 82.0903 13.4608 1105 86.5738 1248.75 493.55
519 0 86.0507 13.4339 1156 85.4187 1248.81 492.234
520 0 88.0349 14.1535 1246 83.3178 1249.2 492.575
521 0 90.0903 13.0314 1174 84.7385 1248.38 489.629
522 0 93.0376 13.4999 1256 83.9435 1248.55 487.412
523 0 97.1161 13.8906 1349 81.4715 1248.23 487.987
524 1 48.0268 11.3895 547 88.7587 1248.94 510.554
525 0 50.05 11.968 599 91.1302 1249.49 510.262
526 0 53.0501 12.7427 676 87.2396 1248.87 508.794
527 0 55.0638 13.1302 723 81.2268 1249.85 508.541
528 0 56.0465 13.239 742 80.0162 1248.61 508.306
529 0 56.0473 12.2575 687 83.5066 1248.35 508.068
530 0 57.0681 13.2649 757 80.4439 1247.85 507.791
531 0 61.0404 13.3682 816 79.5257 1248.22 506.567
532 0 63.0881 13.4891 851 79.443 1248.29 505.12
533 0 63.0212 12.9639 817 82.0563 1248.49 504.86
534 0 64.1016 13.3382 855 81.1965 1248.65 504.747
535 0 69.0588 12.9455 894 79.7852 1248.86 503.547
536 0 70.0701 13.4437 942 81.8217 1249.74 502.234
537 0 71.1313 12.4558 886 119.211 1249.24 501.365
538 0 72.0339 13.1744 949 78.6249 1249.32 500.654
539 0 76.1126 13.572 1033 77.453 1248.08 498.906
540 0 75.0795 12.7199 955 79.9843 1248.13 500.101
541 0 78.0696 12.0533 941 80.3284 1247.99 498.833
542 0 79.0661 12.0659 954 81.0786 1248.28 497.221
543 0 82.0577 12.0525 989 81.8129 1248.4 496.747
544 0 85.074 12.0601 1026 81.7105 1247.49 494.621
545 0 88.0937 12.7478 1123 82.0071 1248.58 494.547
546 0 92.1328 12.2106 1125 84.6853 1248.43 491.462
547 0 96.1304 12.6599 1217 85.8677 1248.12 489.597
548 0 97.1407 12.4356 1208 86.1002 1248.5 488.055
549 0 99.137 13.2947 1318 81.3209 1248.31 486.897
550 0 102.079 12.5002 1276 84.3096 1248.12 486.617
551 0 106.034 13.1751 1397 81.0637 1248.01 486.762
552 0 108.065 12.8997 1394 83.3372 1247.08 485.465
553 0 108.065 12.8534 1389 145.712 1246.07 485.477
554 0 114.113 13.1711 1503 82.7152 1248.28 479.9
555 0 119.125 12.659 1508 82.443 1248.59 479.182
556 0 123.157 12.7642 1572 81.0153 1248.24 479.305
557 0 127.089 12.6054 1602 83.2272 1248.51 476.201
558 1 72.038 11.7854 849 82.7468 1248.02 500.465
559 0 76.044 12.427 945 80.7799 1248.23 500.032
560 0 78.0894 13.2412 1034 79.8772 1248.31 498.315
561 0 80.0941 12.323 987 82.6231 1247.99 497.979
562 0 83.0488 12.607 1047 83.0907 1248.38 495.537
563 0 85.0294 12.7603 1085 82.823 1247.46 495.224
564 0 88.028 12.4733 1098 84.5146 1248.46 494.037
565 0 91.0749 13.0332 1187 83.3033 1248.01 493.983
566 0 93.0597 12.8735 1198 84.9558 1248.71 491.169
567 0 95.0216 13.2812 1262 86.0016 1248.28 489.844
568 0 99.0509 13.3972 1327 87.1311 1248.38 487.517
569 0 100.064 13.6813 1369 89.1534 1247.6 485.75
570 0 105.066 14.1625 1488 89.4966 1247.74 483.886
571 0 109.107 15.0311 1640 87.5317 1247.1 482.658
572 0 110.126 14.0657 1549 89.7624 1247.02 479.592
573 0 115.077 14.399 1657 89.0314 1247.59 478.491
574 0 118.173 14.0895 1665 89.3375 1247.13 477.691
575 0 119.195 13.4402 1602 86.6891 1248.63 475.126
576 0 124.115 13.5036 1676 85.4105 1248.06 472.218
577 1 65.0324 11.179 727 82.0853 1247.76 501.055
578 0 70.1063 11.3684 797 79.527 1247.23 500.336
579 0 71.0483 12.1326 862 78.7796 1247.49 500.145
580 0 75.0536 13.0174 977 74.4698 1247.13 499.151
581 0 76.0379 12.5727 956 74.0554 1247.29 498.203
582 0 79.0327 12.8175 1013 73.388 1247.78 497.83
583 0 81.0926 12.2699 995 76.3387 1248.2 496.195
584 0 81.0926 12.2823 996 138.676 1249.19 495.996
585 0 87.1614 12.6203 1100 77.33 1248.04 493.348
586 0 92.0786 12.8694 1185 76.3114 1247.42 492.015
587 0 95.0877 12.5358 1192 77.2433 1247.35 490.225
588 0 98.0712 12.9804 1273 77.586 1247.35 487.973
589 0 101.079 12.8117 1295 77.8672 1247.53 487.693
590 0 103.183 13.3162 1374 77.3952 1247.32 486.731
591 0 106.077 13.4525 1427 78.1605 1247.72 484.792
592 0 109.126 13.1133 1431 78.666 1248.36 485.1
593 0 112.224 13.286 1491 79.1046 1248.61 482.054
594 0 116.087 12.818 1488 88.4321 1248.12 478.433
595 0 121.106 12.8235 1553 86.5905 1248.33 475.542
596 0 124.083 12.54 1556 86.822 1248.15 473.355
597 0 130.105 13.0357 1696 85.0554 1247.86 473.326
598 0 133.091 12.7807 1701 86.6079 1246.79 471.156
599 0 138.131 12.3288 1703 88.4263 1247.69 469.817
600 0 142.118 12.6515 1798 87.9255 1248.08 465.818
601 0 149.145 13.6176 2031 85.7518 1247.61 463.08
602 0 155.093 13.1727 2043 85.3284 1247.95 461.074
603 0 158.11 13.0542 2064 85.0799 1247.52 460.337
604 0 163.274 13.0884 2137 86.3421 1246.76 455.682
605 0 168.137 13.0965 2202 87.5168 1246.43 452.143
606 0 175.18 14.1569 2480 84.9569 1247.29 451.84
607 0 177.194 13.567 2404 87.4929 1246.45 447.49
608 0 184.178 13.4001 2468 89.1382 1246.7 444.902
609 0 188.125 13.693 2576 90.005 1246.3 442.578
610 0 194.163 14.1839 2754 89.6213 1247.15 441.13
611 0 200.152 13.5897 2720 90.4401 1247.3 438.25
612 0 205.174 13.5154 2773 91.5088 1246.97 435.466
613 0 210.332 13.9874 2942 91.3134 1246.96 433.189
614 0 217.341 13.6468 2966 93.4555 1245.79 429.43
615 0 225.211 13.3963 3017 93.883 1246.59 421.938
616 0 235.268 14.5239 3417 91.5294 1246.04 418.78
617 0 243.399 13.6689 3327 94.2146 1246.65 414.472
618 1 72.1698 12.1242 875 88.2629 1246.09 497.976
619 0 76.1656 12.6435 963 87.2264 1246.44 495.518
620 0 79.1375 12.9521 1025 88.8663 1247.2 493.868
621 0 82.2722 13.0056 1070 87.3794 1247.22 490.896
622 0 83.0995 12.467 1036 83.9286 1247.62 491.332
623 0 87.1298 12.3494 1076 84.5446 1247.07 489.888
624 0 91.0795 12.0774 1100 84.6945 1245.25 487.609
625 0 94.1355 11.8446 1115 84.9641 1246.16 486.414
626 1 52.0931 12.1897 635 82.3654 1246.45 505.663
627 0 54.1577 11.7066 634 82.4338 1246.98 505.379
628 0 55.0856 12.7075 700 81.2157 1247.37 504.126
629 0 57.1164 12.2207 698 80.9527 1247.37 503.53
630 0 59.1667 12.5747 744 79.4892 1247.51 502.875
631 0 61.0754 12.3781 756 80.3836 1246.75 501.866
632 0 59.135 11.6513 689 82.7881 1246.9 502.102
633 0 59.1957 10.7271 635 83.5701 1247.24 501.923
634 0 61.0947 11.2612 688 83.8779 1247.6 497.98
635 0 65.1928 11.2282 732 82.5765 1247.69 497.395
636 0 65.2212 11.668 761 82.5282 1247.68 495.842
637 0 69.1741 10.8567 751 83.233 1247.84 497.314
638 0 72.2 11.6482 841 81.5589 1247.9 493.765
639 0 73.2574 10.6337 779 84.579 1247.99 492.19
640 0 77.2301 11.7312 906 82.5309 1248.13 491.524
641 1 43.1806 9.98134 431 82.9907 1248.44 508.399
642 0 43.2022 11.2031 484 81.9835 1249.31 508.281
643 0 46.192 10.8027 499 82.7695 1247.9 507.715
644 0 47.1586 11.4295 539 83.8126 1248.49 505.596
645 0 47.1292 11.6276 548 84.6296 1248.86 506.734
646 0 50.0288 11.8532 593 87.2243 1249.74 505.685
647 0 53.0466 12.4419 660 86.7 1249.92 504.532
648 0 54.032 11.7523 635 87.6488 1250.08 505.822
649 0 55.0255 11.9399 657 88.1994 1250.33 505.294
650 0 57.0345 12.0453 687 88.1179 1250.16 504.237
651 0 57.0348 12.0102 685 151.337 1249.15 504.28
652 0 57.0219 12.1006 690 91.6435 1249.33 500.629
653 0 61.0529 12.2844 750 86.276 1249.63 499.819
654 0 62.1144 12.7346 791 85.8976 1249.21 499.358
655 0 62.047 13.0546 810 85.9556 1249.13 500.451
656 0 65.0438 12.7299 828 87.0737 1248.63 499.192
657 0 68.0818 13.5278 921 85.0956 1248.93 498.609
658 0 69.0711 12.9287 893 87.5454 1248.44 497.518
659 0 73.1126 13.1441 961 86.8772 1248.29 496.736
660 0 74.0957 13.0777 969 88.3891 1249.07 496.543
661 0 74.0594 12.6655 938 87.4947 1250.13 495.062
662 0 78.118 12.4427 972 88.5545 1250 494.35
663 0 79.0573 12.0419 952 89.7248 1249.16 493.547
664 0 83.0958 12.7684 1061 87.5174 1249.92 492.582
665 1 44.0574 10.8495 478 89.6862 1249.13 509.297
666 0 46.0568 11.4424 527 87.9431 1249.1 508.03
667 0 47.0672 11.6004 546 86.6062 1248.77 507.158
668 0 49.015 12.0575 591 87.2944 1249.5 507.047
669 0 47.0322 11.439 538 87.6803 1248.77 509.424
670 0 50.031 11.3729 569 86.8541 1249.38 508.021
671 0 51.0532 11.6349 594 86.0976 1250.01 508.7
672 0 52.0585 11.1413 580 86.9948 1250.02 508.866
673 0 55.053 11.28 621 84.7617 1249.74 508.039
674 0 55.0437 11.5545 636 85.4135 1249.51 506.695
675 0 58.0391 11.699 679 84.8012 1249.61 504.219
676 0 59.0969 12.0988 715 85.8769 1249.12 502.708
677 0 62.0617 12.7937 794 86.1688 1249.36 501.06
678 0 62.0988 11.9326 741 87.4413 1249.36 501.961
679 0 67.0756 12.9854 871 84.6188 1249.7 500.972
680 0 69.1007 12.6771 876 86.6084 1249.13 499.168
681 0 70.0321 12.7227 891 87.294 1249.69 497.535
682 0 71.0839 12.3516 878 89.9943 1249.66 496.503
683 0 74.0646 12.7456 944 89.6642 1249.54 495.79
684 0 78.0764 13.2947 1038 88.5183 1249.52 495.599
685 0 79.1214 12.2344 968 92.3554 1249.2 494.559
686 0 83.0876 12.878 1070 91.6813 1249.3 494.435
687 0 87.0321 13.6042 1184 90.3041 1249.86 490.11
688 0 91.1888 13.7736 1256 88.7134 1249.31 490.438
689 1 48.0532 11.3416 545 92.7798 1249.93 510.908
690 0 47.111 11.2076 528 92.447 1249.68 509.297
691 0 50.0494 11.5286 577 92.4194 1250.4 508.848
692 0 49.0782 11.5326 566 78.9841 1249.96 508.62
693 0 49.0617 10.4766 514 83.2004 1249.88 511.047
694 0 50.0998 11.2775 565 87.8142 1249.2 511.632
695 0 53.1582 11.8702 631 86.7559 1249.73 510.93
696 0 53.0212 12.7119 674 86.1142 1249.28 511.402
697 0 57.1347 12.3918 708 84.9364 1249.1 509.763
698 0 59.0295 12.5869 743 85.2288 1248.71 508.67
699 0 59.1112 11.7068 692 87.8078 1248.55 509.127
700 0 63.125 12.8475 811 85.217 1249.16 506.947
701 0 65.0852 13.0444 849 84.7998 1248.44 506.751
702 0 67.0764 13.4772 904 85.3197 1248.85 505.444
703 0 70.0503 13.0192 912 87.5515 1248.35 504.97
704 0 71.0697 13.4375 955 89.5466 1248.64 503.689
705 0 75.1308 14.2152 1068 89.4204 1248.7 502.833
706 0 76.0781 13.1707 1002 94.5619 1248.34 501.609
707 0 82.1107 13.8228 1135 99.8555 1248.36 499.552
708 0 85.1682 13.6436 1162 96.6119 1248.75 496.962
709 0 86.1934 13.957 1203 97.4663 1248.75 495.481
710 0 88.1059 14.1534 1247 98.0289 1248.86 494.714
711 0 94.2583 14.7361 1389 101.25 1248.8 492.23
712 0 96.1961 14.5432 1399 101.606 1248.21 490.361
713 1 49.2432 11.5143 567 102.716 1248.32 514.952
714 0 49.133 11.2348 552 91.9094 1248.41 514.525
715 0 52.163 12.6718 661 94.8275 1247.53 514.015
716 0 54.2369 13.8467 751 93.6844 1247.69 513.316
717 0 57.1972 13.672 782 100.909 1247.56 510.785
718 0 57.0927 13.2416 756 105.008 1248.62 511.858
719 0 60.1241 13.7882 829 102.603 1248.95 511.565
720 0 61.0803 13.3595 816 103.24 1248.81 510.933
721 0 63.1717 12.8539 812 105.791 1247.93 509.371
722 0 66.2228 13.6056 901 102.206 1249.15 509.58
723 0 66.2425 13.6317 903 102.194 1247.35 507.648
724 0 70.142 13.2873 932 101.973 1247.81 507.068
725 0 70.1479 13.9705 980 100.78 1246.89 506.299
726 0 73.0855 13.9152 1017 102.465 1247.1 504.603
727 0 74.2762 12.8978 958 104.2 1247.54 502.776
728 0 76.1722 13.3776 1019 102.63 1247.35 501.592
729 0 79.2243 12.9884 1029 103.473 1248.04 500.553
730 0 83.1095 13.9575 1160 97.2379 1247.49 501.722
731 0 84.142 12.9662 1091 95.7214 1248.21 500.092
732 1 44.0596 11.1213 490 96.6429 1247.41 519.359
733 0 44.1204 11.4459 505 98.099 1247.04 517.939
734 0 47.1094 12.0146 566 94.9488 1246.93 517.152
735 0 49.1263 12.6409 621 93.4364 1247.1 515.821
736 0 48.1305 12.8816 620 92.1064 1247.63 513.203
737 0 51.0336 13.4225 685 86.3518 1248.15 513.19
738 0 52.08 12.6536 659 87.6753 1248.65 514.663
739 0 53.048 13.1013 695 87.6043 1248.26 511.514
740 0 55.0904 11.9985 661 88.2663 1247.73 511.548
741 0 57.0529 13.4261 766 85.5248 1247.04 508.721
742 0 60.0612 13.2698 797 84.2497 1246.59 508.345
743 0 61.0878 12.9649 792 85.553 1247.46 506.708
744 0 64.0489 13.0525 836 82.8935 1247.13 506.026
745 0 65.0302 13.4092 872 83.8108 1247.27 504.319
746 0 66.1043 13.0854 865 85.896 1247.44 504.806
747 0 68.0566 12.8863 877 87.5028 1247.47 504.242
748 0 70.0305 12.1518 851 89.9577 1247.94 502.625
749 0 72.0324 12.3972 893 89.5554 1248.02 500.529
750 0 76.0423 13.1374 999 88.2623 1248.63 498.594
751 0 78.0358 12.6224 985 89.7878 1247.58 497.416
752 0 81.1423 12.2008 990 91.595 1247.93 495.127
753 0 83.037 12.8015 1063 90.8326 1247.85 495.647
754 0 84.0684 12.133 1020 93.5127 1247.39 494.466
755 0 87.0641 12.4276 1082 93.8715 1248.42 492.451
756 0 91.0889 12.5811 1146 91.3124 1248.06 490.536
757 0 94.1191 12.8242 1207 91.7705 1249.21 490.196
758 0 98.1223 13.8297 1357 90.4554 1249.21 489.289
759 0 101.145 13.6042 1376 93.0225 1249.6 485.984
760 1 52.0742 11.4068 594 97.6044 1248.8 510.172
761 0 54.0221 12.2357 661 97.1074 1248.51 508.941
762 0 57.0568 12.251 699 97.9256 1248.24 506.28
763 0 60.0378 12.7753 767 93.0548 1247.83 505.9
764 0 63.0851 13.2678 837 91.0753 1248.37 505.35
765 0 63.0879 13.2196 834 136.255 1248.36 505.364
766 0 67.0614 12.8241 860 100.228 1248.97 502.106
767 0 69.0734 13.2033 912 98.8158 1248.68 501.087
768 0 70.0682 12.9588 908 100.009 1249.07 498.314
769 0 73.0667 13.1113 958 100.229 1249.42 497.185
770 0 77.041 13.9666 1076 95.198 1248.55 496.852
771 0 77.0814 14.1279 1089 94.9348 1248.65 496.279
772 0 79.0482 14.371 1136 94.3257 1248.19 496.408
773 0 80.0247 14.0457 1124 90.7171 1247.75 496.544
774 0 81.0736 12.8895 1045 93.5895 1248.5 497.766
775 0 83.0841 13.6368 1133 92.7502 1248.61 493.231
776 0 85.0824 13.6103 1158 92.5069 1248.88 493.231
777 0 88.0367 13.4489 1184 93.2061 1248.34 492.122
778 0 88.0367 13.5285 1191 158.497 1247.34 492.028
779 0 93.0725 13.194 1228 92.9788 1248.64 487.967
780 0 96.0531 12.9512 1244 94.0997 1248.86 487.925
781 0 100.063 13.4116 1342 92.4188 1247.3 485.436
782 0 101.091 13.1664 1331 93.6822 1247.33 483.409
783 1 56.0404 12.0984 678 90.503 1247.62 505.659
784 0 56.0704 12.5378 703 89.8947 1247.56 505.663
785 0 59.0417 12.4488 735 89.3347 1248.41 503.343
786 0 60.0357 12.5092 751 85.494 1248.17 505.312
787 0 61.0792 13.2287 808 85.8713 1249.26 504.142
788 0 62.0442 12.475 774 88.2894 1248.68 503.606
789 0 65.0267 12.7947 832 88.0913 1249.12 502.587
790 0 69.0485 12.3391 852 88.6538 1248.74 501.158
791 0 69.0947 12.9388 894 90.1163 1249.1 499.192
792 0 72.0721 12.6401 911 90.7322 1248.74 498.22
793 0 76.0567 12.6879 965 90.1036 1249.3 497.113
794 0 78.0385 13.0961 1022 90.5068 1249.43 496.889
795 0 80.0928 13.2596 1062 91.4689 1250.18 494.64
796 0 84.1057 13.3879 1126 91.2655 1249.63 493.968
797 0 85.1357 12.5799 1071 95.3343 1250.12 493.657
798 0 87.0335 13.2018 1149 95.7598 1250.18 491.977
799 0 91.1059 13.5008 1230 96.1065 1250.08 490.806
800 0 94.134 13.8632 1305 94.7617 1249.31 490.496
801 0 99.0971 14.067 1394 97.8981 1248.88 487.944
802 1 55.0951 12.4149 684 98.8216 1248.83 509.665
803 0 56.1394 12.3443 693 100.886 1248.31 508.254
804 0 58.1553 12.8449 747 101.119 1249.17 506.565
805 0 60.0843 13.1315 789 100.82 1249.66 506.06
806 0 63.1128 13.563 856 98.8329 1249.73 504.558
807 0 63.2386 13.6309 862 99.2367 1249.52 504.964
808 0 66.1521 13.3329 882 99.7177 1248.99 504.447
809 0 68.1084 13.6988 933 99.5295 1249.44 503.544
810 0 72.0624 13.6548 984 98.9004 1248.61 502.47
811 0 73.1471 13.9172 1018 98.0452 1248.45 501.744
812 0 74.115 13.6949 1015 100.496 1248.83 501.203
813 0 76.0939 13.7856 1049 101.981 1248.47 498.712
814 0 78.1939 13.6839 1070 103.422 1248.99 498.699
815 0 81.1136 13.7462 1115 103.594 1248.92 498.944
816 0 84.2157 13.4535 1133 104.576 1248.98 496.936
817 0 86.1156 14.1902 1222 102.392 1249.29 496.646
818 0 89.1003 13.7149 1222 103.147 1248.77 495.017
819 0 93.0738 14.1286 1315 100.983 1249.16 493.29
820 1 50.0869 11.3403 568 95.4049 1248.63 515.359
821 0 51.0797 11.5506 590 96.4542 1248.33 513.307
822 0 53.0825 11.5481 613 96.4372 1248.25 513.184
823 0 54.0213 12.8283 693 92.9206 1248.07 512.932
824 0 55.0597 12.6408 696 91.658 1247.81 510.595
825 0 58.0642 13.2612 770 88.3104 1248.1 512.122
826 0 58.0642 13.244 769 143.308 1249.11 512.139
827 0 59.0436 12.5839 743 90.2826 1247.7 512.209
828 0 61.1051 12.2085 746 89.4973 1247.62 511.777
829 0 61.2391 11.9695 733 90.4529 1247.77 510.705
830 0 65.0957 12.5047 814 89.1167 1247.89 509.673
831 0 68.1407 12.753 869 87.3959 1247.81 507.336
832 0 70.1338 12.5332 879 86.6405 1247.87 506.852
833 0 70.2285 12.7584 896 88.0681 1247.33 505.464
834 0 75.1159 13.1663 989 87.9858 1248.2 503.558
835 0 78.1418 12.4901 976 89.2715 1247.52 503.716
836 0 78.0856 12.8065 1000 91.161 1248.05 501.031
837 0 83.1583 13.0594 1086 91.1105 1247.15 499.66
838 0 85.156 12.483 1063 94.1072 1246.89 497.598
839 0 87.1258 12.8894 1123 96.3045 1246.33 494.884
840 0 91.2474 12.9428 1181 100.229 1246.92 493.041
841 0 94.2158 12.9702 1222 98.7987 1246.99 488.876
842 0 96.1872 12.2366 1177 101.297 1247.34 487.027
843 1 49.0683 9.94533 488 98.6967 1247.55 510.154
844 0 50.0562 10.5881 530 97.0302 1247.91 509.106
845 0 51.0939 10.7645 550 98.0764 1248.14 506.891
846 0 56.0583 12.3265 691 93.5499 1247.22 506.417
847 0 53.062 11.3641 603 92.4196 1247.08 510.652
848 0 57.0682 11.5301 658 91.1641 1246.29 508.777
849 0 59.0245 12.0967 714 89.7255 1247.35 505.825
850 0 61.1146 11.6012 709 90.3512 1246.69 505.509
851 0 62.1294 12.0555 749 88.494 1247.74 505.762
852 0 66.0543 12.2778 811 87.6621 1247.9 506.144
853 0 66.106 11.6782 772 91.1282 1247.52 503.934
854 0 68.1161 11.7006 797 91.1292 1247.12 503.192
855 0 71.0613 11.9193 847 89.5348 1247.36 501.159
856 0 73.0336 12.2136 892 87.778 1246.72 499.004
857 0 77.108 12.4371 959 88.4244 1246.8 497.908
858 0 79.0437 11.4873 908 87.3998 1246.74 496.019
859 0 83.0837 12.3249 1024 85.2803 1246.92 494.095
860 0 84.0271 11.9723 1006 89.4056 1247.62 493.66
861 0 88.1069 11.7925 1039 86.8653 1247.15 490.609
862 0 92.0522 12.0584 1110 88.0541 1247.96 488.568
863 0 94.0588 12.237 1151 89.2632 1247.75 488.124
864 0 100.125 12.4644 1248 88.7147 1247.67 486.257
865 1 56.0085 11.8018 661 91.4644 1247.1 509.542
866 0 58.1171 12.2511 712 89.6236 1247.8 507.404
867 0 59.0214 12.199 720 88.425 1246.37 506.481
868 0 59.0531 11.3119 668 78.9521 1246.73 504.918
869 0 60.1048 12.4449 748 83.1738 1247.49 505.787
870 0 61.0495 11.9575 730 83.6137 1247.25 505.678
871 0 64.0316 11.8535 759 79.4954 1247.09 502.619
872 0 65.0751 12.2628 798 77.8434 1247.5 501.698
873 0 68.058 12.4746 849 75.8916 1247.59 500.505
874 0 71.0674 12.9173 918 75.9564 1248.12 500.488
875 0 72.0947 12.2339 882 77.3356 1248.19 500.605
876 0 74.0641 12.3542 915 77.4688 1248.07 498.562
877 0 75.1235 12.0335 904 78.6759 1247.12 498.502
878 0 77.0662 11.7821 908 78.62 1247.04 497.053
879 0 80.1257 12.8049 1026 77.1072 1247.28 497.69
880 0 82.1886 11.8021 970 78.0948 1247.03 495.216
881 0 85.0782 12.3769 1053 76.9772 1247.49 494.63
882 0 88.083 11.3302 998 78.3367 1247.81 494.508
883 0 90.078 11.8786 1070 78.0346 1248.02 492.376
884 0 94.0826 12.8291 1207 79.6877 1248.33 490.055
885 0 96.1224 12.8794 1238 81.437 1246.82 486.565
886 0 98.1268 12.494 1226 82.2847 1248.01 484.587
887 0 104.154 13.2496 1380 81.5101 1246.68 483.055
888 0 106.141 12.7848 1357 82.6043 1246.25 481.09
889 0 110.159 13.0992 1443 83.0104 1246.68 477.852
890 0 113.15 12.594 1425 84.5635 1247.16 475.55
891 0 113.15 12.5763 1423 146.877 1248.16 475.591
892 1 61.1685 10.9043 667 76.5292 1246.38 504.016
893 0 64.2169 11.5079 739 76.5372 1247.44 503.042
894 0 65.0718 11.7562 765 78.1948 1246.95 501.749
895 0 67.1383 12.2881 825 76.7176 1246.74 500.125
896 0 68.0754 12.1189 825 77.9964 1246.46 498.455
897 0 75.0539 11.4984 863 80.9212 1247.48 497.976
898 0 74.0681 11.5569 856 81.0444 1246.92 495.901
899 0 80.0684 12.5768 1007 78.3615 1246.92 496.101
900 0 82.1176 12.0194 987 81.1256 1247.04 494.311
901 0 84.0636 12.4311 1045 82.1608 1247.36 493.144
902 0 87.1934 11.9963 1046 83.4082 1248.54 491.525
903 0 91.19 12.2163 1114 84.2549 1247.72 489.036
904 0 92.0571 12.3402 1136 85.2104 1248.82 487.406
905 0 96.1646 11.9899 1153 86.1474 1248.5 484.175
906 0 99.1854 11.6247 1153 87.4111 1248.01 483.752
907 0 103.141 12.129 1251 86.6331 1247.97 480.701
908 1 53.2253 10.5965 564 82.25 1248.34 505.746
909 0 55.2222 11.6982 646 81.9984 1248.88 504.33
910 0 57.1319 12.3574 706 83.0793 1248.97 503.323
911 0 58.1488 12.4336 723 81.935 1249.05 502.231
912 0 60.1842 11.7473 707 80.058 1248.01 501.518
913 0 62.0302 11.0108 683 87.145 1249.09 499.063
914 0 64.036 11.4155 731 86.8755 1248.89 500.007
915 0 66.0254 11.4653 757 84.9987 1248.59 497.548
916 0 68.0659 11.959 814 85.2469 1247.85 497.8
917 0 69.0998 12.084 835 85.6515 1247.73 497.389
918 0 70.0427 12.4638 873 87.063 1248.23 496.446
919 0 75.0734 12.561 943 86.8579 1248.26 495.519
920 0 76.0688 12.4098 944 89.5678 1248.37 495.335
921 0 78.1923 12.3542 966 89.9762 1248.64 495.719
922 0 80.1478 12.6142 1011 88.821 1248.97 495.141
923 0 84.1283 13.2892 1118 88.1163 1247.87 493.136
924 0 87.2052 12.5566 1095 86.5215 1248.19 488.314
925 0 90.1257 12.3272 1111 87.487 1247.12 487.25
926 0 91.0938 12.5804 1146 86.8106 1247.22 487.116
927 0 94.2544 12.8906 1215 87.5539 1248.04 485.003
928 0 99.2112 13.2344 1313 84.7586 1247.37 485.891
929 0 99.13 12.3273 1222 87.5025 1247.67 484.994
930 0 103.138 12.6626 1306 86.6217 1247.35 483.834
931 1 53.0895 10.7177 569 77.3708 1247.72 510.213
932 0 56.0542 10.5791 593 76.2816 1246.67 510.207
933 0 59.0302 11.3332 669 76.0732 1246.24 509.936
934 0 59.0467 11.7534 694 75.7738 1245.99 508.876
935 0 62.0363 11.993 744 75.3495 1246.26 508.996
936 0 62.0538 11.2322 697 77.0531 1245.72 507.682
937 0 65.1262 11.4854 748 76.4545 1246.01 506.964
938 0 68.146 11.7542 801 76.2747 1245.77 504.868
939 0 68.1722 11.9257 813 77.0184 1246.13 504.659
940 0 69.0585 11.1789 772 79.5518 1246.26 503.399
941 0 73.1092 12.1462 888 78.1408 1245.86 501.47
942 0 74.1014 11.7272 869 80.7227 1245.92 500.389
943 0 79.074 11.5588 914 80.0339 1244.59 500.909
944 0 79.0481 11.474 907 81.2734 1245.26 498.481
945 0 80.0644 11.2909 904 81.8097 1245.73 497.53
946 0 84.0808 12.155 1022 79.9217 1245.37 494.599
947 0 86.087 11.5581 995 81.4231 1246.08 493.534
948 0 88.1147 11.6439 1026 81.6501 1246.04 492.436
949 0 90.1335 11.6272 1048 80.9428 1246.45 490.716
950 0 91.0948 11.5594 1053 87.3077 1246.21 488.93
951 0 96.107 12.5277 1204 86.2915 1246.96 488.027
952 0 98.1089 11.314 1110 90.0883 1246.7 487.181
953 0 103.081 11.2048 1155 90.5515 1245.45 486.003
954 0 104.092 11.0959 1155 90.9974 1245.96 485.745
955 0 110.056 12.1574 1338 79.0755 1245.17 484.398
956 1 60.0228 11.2957 678 74.4322 1245.78 508.016
957 0 63.0623 10.9733 692 76.4032 1246.61 505.724
958 0 62.0389 10.8319 672 81.8988 1247.05 503.077
959 0 66.0203 11.4662 757 75.4914 1246 502.894
960 0 68.0361 11.1264 757 80.7041 1247.33 501.162
961 0 71.0303 11.8119 839 79.1871 1246.19 499.565
962 0 74.0665 12.3538 915 76.4044 1246.73 498.187
963 0 76.0252 12.2196 929 77.6512 1246.29 499.141
964 0 77.0348 12.423 957 77.9822 1247.12 496.645
965 0 78.0556 11.21 875 80.9006 1247.02 496.086
966 0 80.0298 11.8081 945 80.273 1247.1 492.167
967 0 85.0603 12.6616 1077 78.8041 1246.51 493.655
968 0 86.0336 11.8674 1021 81.5495 1248.12 492.452
969 0 86.0336 11.7628 1012 118.631 1250.14 492.233
970 0 92.0492 12.6997 1169 80.2558 1247.15 488.322
971 0 96.0933 12.7168 1222 80.072 1247.79 488.904
972 0 97.0773 13.2163 1283 79.0834 1248.19 488.31
973 0 101.119 12.6386 1278 80.1557 1247.33 484.668
974 0 104.149 12.8277 1336 80.5629 1246.76 483.937
975 0 107.062 13.2073 1414 80.8975 1246.59 481.258
976 0 110.187 12.7056 1400 82.5264 1247.25 479.901
977 0 114.106 11.9625 1365 84.3883 1247.76 476.058
978 0 118.088 13.2105 1560 82.8705 1247.75 474.406
979 0 120.092 12.9817 1559 92.6709 1248.79 474.434
980 0 126.116 13.6858 1726 92.241 1249.52 472.953
981 0 130.082 13.5145 1758 92.537 1248.05 471.246
982 0 133.076 12.6244 1680 87.9411 1248.51 468.773
983 0 139.266 13.4778 1877 86.3841 1247.91 467.66
984 1 68.0478 11.1098 756 79.4312 1248.63 503.565
985 0 71.0293 11.5868 823 77.3426 1248.92 500.995
986 0 72.0817 12.0974 872 78.4518 1247.12 496.986
987 0 75.1452 12.3627 929 77.9333 1249.33 499.449
988 0 76.0438 11.9799 911 79.3326 1248.95 498.516
989 0 81.0948 12.9601 1051 77.8154 1248.6 496.364
990 0 82.0616 12.3566 1014 80.5838 1248.25 495.424
991 0 85.1701 12.7509 1086 80.7689 1247.81 493.565
992 0 88.1055 11.997 1057 93.5213 1247.79 492.17
993 0 92.1646 12.9985 1198 92.3372 1247.84 491.556
994 0 96.122 12.817 1232 93.302 1247.6 490.521
995 0 96.1021 12.7885 1229 94.965 1247.79 487.218
996 0 101.229 12.6644 1282 95.9056 1248.63 485.289
997 0 103.098 12.5803 1297 96.7032 1248.65 483.879
998 1 45.0658 10.8952 491 87.275 1248.61 515.642
999 0 46.0681 10.6581 491 84.8147 1248.09 514.283
1000 0 49.0701 12.4923 613 82.1289 1248.03 513.584
1001 0 47.0562 11.5819 545 82.5982 1247.08 512.943
1002 0 50.0221 12.3945 620 80.7742 1247.15 512.381
1003 0 51.0452 12.0677 616 81.6153 1247.39 511.75
1004 0 55.0579 12.3143 678 80.9764 1247.9 511.117
1005 0 54.0246 12.0316 650 84.1815 1249.55 511.505
1006 0 56.0746 12.519 702 83.7464 1248.62 509.574
1007 0 59.0323 13.0776 772 82.8964 1249.46 510.214
1008 0 60.0677 12.5192 752 85.6995 1249 509.32
1009 0 63.1204 12.7851 807 85.0855 1249.55 508.297
1010 0 64.1722 12.7469 818 86.769 1248.97 507.934
1011 0 65.0937 13.1196 854 87.4707 1248.4 506.611
1012 0 65.0949 13.0271 848 89.5719 1247.56 503.765
1013 0 67.1256 13.363 897 89.3434 1247.62 504.35
1014 0 68.1123 12.7583 869 93.1945 1247.67 504.173
1015 0 71.1562 13.2806 945 91.2286 1247.62 502.46
1016 0 72.1063 13.2305 954 92.0168 1249.19 502.3
1017 0 73.0848 12.7934 935 94.907 1248.22 504.537
1018 0 75.0974 12.557 943 94.1485 1249.42 502.391
1019 0 77.058 12.0688 930 93.3602 1249.72 502.256
1020 0 80.2302 12.2772 985 93.3503 1250.05 498.682
1021 0 83.1933 12.0803 1005 92.3851 1249.78 498.01
1022 0 86.2094 12.0288 1037 91.9219 1250.01 496.636
1023 0 91.1971 12.9938 1185 102.743 1250.22 491.957
1024 1 49.095 10.7547 528 103.61 1249.67 512.536
1025 0 53.1218 11.6148 617 102.204 1248.61 511.585
1026 0 54.0554 11.9322 645 101.003 1248.73 508.124
1027 0 56.1393 12.3265 692 99.4856 1248.63 508.098
1028 0 57.1086 12.4149 709 101.907 1248.75 508.992
1029 0 61.1093 12.584 769 99.541 1248.84 507.977
1030 0 62.0739 12.0985 751 102.08 1248.8 506.698
1031 0 63.134 12.8774 813 101.228 1250.31 505.796
1032 0 66.0972 12.9658 857 99.3804 1249.73 505.364
1033 0 67.083 12.656 849 100.094 1249.08 504.583
1034 0 69.063 12.9158 892 98.6166 1249.58 504.549
1035 0 71.0791 12.8448 913 98.1972 1248.62 502.981
1036 0 74.0846 12.2967 911 98.1833 1249.34 501.674
1037 0 75.0608 12.2168 917 98.1788 1249.26 500.49
1038 0 77.1042 12.8916 994 96.8099 1248.09 500.227
1039 0 79.0951 12.5419 992 97.2369 1248.28 499.046
1040 0 83.1291 13.1121 1090 95.6706 1248.41 497.374
1041 0 85.1119 13.5234 1151 95.2963 1248.69 496.655
1042 0 87.0743 13.5057 1176 95.3495 1248.62 494.82
1043 0 90.1088 14.0275 1264 94.1068 1248.54 494.176
1044 0 92.2061 14.1205 1302 93.3333 1249.16 494.929
1045 0 96.1594 14.6943 1413 93.5591 1248.6 493.067
1046 0 99.1258 14.2243 1410 94.7837 1249.05 491.711
1047 0 98.1091 13.4238 1317 98.3721 1248.19 490.634
1048 0 103.094 14.7341 1519 94.3167 1248.3 487.76
1049 0 105.126 14.5255 1527 95.2908 1248.85 485.709
1050 0 107.227 14.1476 1517 93.9005 1249.33 482.044
1051 1 59.1078 12.5533 742 93.2871 1247.84 503.183
1052 0 60.1562 12.5174 753 92.1155 1248.58 502.38
1053 0 62.1722 12.6584 787 93.0521 1249.34 500.105
1054 0 64.2367 13.2167 849 99.3428 1249.13 502.973
1055 0 68.1071 13.4054 913 98.4436 1248.99 502.366
1056 0 67.0762 13.0598 876 101.453 1249.28 504.091
1057 0 70.174 14.0793 988 89.8077 1249.64 504.453
1058 0 73.1164 13.8546 1013 100.028 1248.44 503.05
1059 0 75.0752 13.8794 1042 101.657 1248.43 501.4
1060 0 76.1445 13.9078 1059 102.618 1248.07 499.678
1061 0 76.139 13.8037 1051 147.764 1248.06 499.544
1062 0 81.1142 14.2268 1154 104.291 1248.64 497.406
1063 0 86.1921 15.0014 1293 99.8136 1248.21 497.572
1064 0 88.156 14.7352 1299 102.132 1248.85 495.098
1065 0 91.1549 14.5796 1329 102.286 1248.87 493.585
1066 0 94.2025 14.9465 1408 101.599 1249.09 491.893
1067 0 96.1208 14.7315 1416 102.739 1248.81 491.27
1068 0 99.1606 14.9051 1478 103.704 1248.61 489.528
1069 0 102.136 14.5884 1490 105.104 1248.64 486.634
1070 0 104.236 14.6014 1522 105.781 1248.46 486.122
1071 0 107.205 14.5516 1560 105.997 1248.79 486.122
1072 0 110.175 14.5677 1605 107.14 1248.92 482.998
1073 0 112.26 14.5466 1633 105.601 1249.24 482.944
1074 0 116.148 14.4471 1678 101.79 1248.86 481.503
1075 0 119.205 14.2695 1701 97.5738 1249.29 482.985
1076 0 124.417 14.2666 1775 97.1211 1249.81 480.833
1077 1 66.0884 13.7846 911 103.164 1250.46 506.714
1078 0 67.1906 13.9454 937 102.672 1249.16 506.966
1079 0 67.0691 14.3583 963 102.369 1249.46 506.123
1080 0 72.2131 14.8034 1069 99.9663 1249.03 504.528
1081 0 72.2131 14.8311 1071 174.869 1249.01 504.657
1082 0 75.1827 15.1764 1141 98.6223 1249.42 502.102
1083 0 76.1994 14.9214 1137 99.5602 1249.26 501.859
1084 0 80.2403 14.5313 1166 99.1321 1249.03 500.411
1085 0 82.2255 14.6183 1202 99.8943 1249.85 500.933
1086 0 83.1291 14.7121 1223 99.9002 1249.94 499.994
1087 0 86.2001 14.768 1273 99.9214 1250.08 498.732
1088 0 87.1826 14.9227 1301 101.509 1249.28 497.849
1089 0 90.2151 15.0418 1357 113.13 1248.81 496.811
1090 0 92.1404 15.2376 1404 113.026 1248.14 495.063
1091 0 97.2293 14.9646 1455 113.441 1248.09 493.835
1092 0 99.1797 14.9829 1486 113.006 1248.89 492.562
1093 0 101.279 14.3169 1450 114.762 1249.33 490.663
1094 1 49.094 12.8325 630 121.044 1249.69 514.524
1095 0 53.1802 13.5389 720 116.315 1249.88 514.443
1096 0 54.2448 14.3055 776 114.186 1248.84 514.661
1097 0 57.1882 14.0413 803 115.198 1249.17 513.293
1098 0 59.1678 14.8054 876 112.72 1248.72 511.951
1099 0 60.139 14.5995 878 113.759 1250.21 513.543
1100 0 62.1369 14.7738 918 113.493 1250.03 511.3
1101 0 64.1339 14.5789 935 113.528 1249.06 507.969
1102 0 67.1193 14.8095 994 111.388 1249.98 509.131
1103 0 69.1614 14.5601 1007 113.041 1248.92 506.055
1104 0 72.1547 15.1064 1090 111.239 1249.5 505.998
1105 0 72.1931 14.8768 1074 114.278 1249.28 505.704
1106 0 76.143 15.4972 1180 111.718 1249.2 503.885
1107 0 75.0908 15.2748 1147 115.302 1249.78 503.578
1108 0 78.2067 15.3312 1199 115.786 1249.02 502.635
1109 0 82.1733 15.5647 1279 114.322 1249.51 502.552
1110 0 83.1001 15.1985 1263 116.679 1248.51 501.984
1111 0 87.1519 15.8344 1380 115.461 1248.89 499.209
1112 0 89.1992 14.9441 1333 119.158 1248.69 498.044
1113 0 91.1658 15.8722 1447 116.874 1248.76 496.533
1114 0 91.1658 15.8612 1446 173.071 1248.76 496.557
1115 0 96.2028 15.5713 1498 118.427 1249.48 494.803
1116 0 100.141 15.3883 1541 120.165 1248.7 492.099
1117 0 102.237 15.0239 1536 122.474 1248.95 491.09
1118 0 105.132 15.8182 1663 119.732 1248.27 491.016
1119 0 107.23 15.6952 1683 121.242 1247.74 488.575
1120 0 113.276 15.0782 1708 123.435 1248.53 485.822
1121 0 117.2 15.5632 1824 122.166 1248.77 484.941
1122 0 121.136 15.5033 1878 120.891 1248.77 483.394
1123 0 124.222 16.2049 2013 120.059 1248.25 480.364
1124 0 128.204 15.4207 1977 123.773 1249.05 478.781
1125 0 133.178 15.7985 2104 122.783 1247.95 477.802
1126 0 137.188 16.2697 2232 121.142 1248.86 475.841
1127 0 140.246 16.1431 2264 122.753 1248.05 472.046
1128 0 143.287 15.4864 2219 126.343 1248.31 469.922
1129 0 149.222 16.0365 2393 123.929 1247.92 469.02
1130 0 154.235 16.183 2496 123.307 1247.83 465.562
1131 1 75.1498 13.0805 983 135.782 1247.43 504.059
1132 0 79.086 14.7308 1165 130.976 1248.26 501.404
1133 0 82.103 14.6036 1199 130.829 1247.65 500.298
1134 0 84.1186 14.753 1241 130.27 1248.39 498.932
1135 0 87.0638 15.2187 1325 128.269 1248.02 497.93
1136 0 88.0541 14.7864 1302 130.565 1248.79 497.817
1137 0 92.1048 14.8092 1364 130.088 1248 496.007
1138 0 94.1304 15.6379 1472 127.482 1248.64 494.505
1139 0 98.0474 15.1661 1487 128.835 1247.66 493.455
1140 0 100.047 15.133 1514 129.064 1247.89 492.32
1141 0 103.085 15.2108 1568 129.08 1247.49 490.057
1142 0 105.057 15.1251 1589 129.975 1246.63 488.13
1143 0 109.075 14.7696 1611 130.541 1247.25 486.571
1144 0 111.119 15.3259 1703 129.363 1246.9 485.197
1145 0 116.051 15.0796 1750 129.439 1247.33 482.791
1146 0 118.163 15.2756 1805 130.056 1247.65 480.918
1147 0 123.125 15.3015 1884 128.902 1247.42 479.758
1148 0 127.173 15.7895 2008 127.955 1247.48 478.32
1149 1 56.119 12.5269 703 116.637 1247.56 510.461
1150 0 57.139 12.8984 737 117.402 1247.35 511.094
1151 0 57.0487 13.0064 742 119.139 1246.98 509.311
1152 0 61.0572 13.5774 829 115.119 1246.67 509.726
1153 0 61.1293 13.2997 813 119.945 1246.43 507.641
1154 0 63.0528 13.2904 838 120.323 1246.52 506.989
1155 0 65.1075 13.0553 850 123.267 1246.17 506.564
1156 0 68.1539 12.9706 884 123.619 1247.28 505.262
1157 0 68.128 13.1517 896 125.886 1246.93 503.892
1158 0 71.1244 13.3288 948 124.847 1247.21 503.666
1159 0 71.0652 13.6494 970 125.477 1247.45 503.305
1160 0 74.1114 13.925 1032 127.368 1247.31 500.374
1161 0 77.0814 13.116 1011 128.288 1247.59 499.101
1162 0 80.1102 13.756 1102 126.508 1247.08 497.61
1163 0 82.1382 13.9399 1145 126.958 1246.9 496.364
1164 0 84.1155 13.4339 1130 128.804 1246.7 495.608
1165 0 87.1149 12.914 1125 131.578 1247.16 492.988
1166 0 89.1907 13.1404 1172 132.916 1246.71 491.644
1167 0 92.1994 12.9936 1198 132.313 1247.1 491.737
1168 0 92.1283 12.526 1154 133.165 1246.67 490.551
1169 0 92.1167 11.9197 1098 137.728 1247.06 489.545
1170 0 97.2139 12.8171 1246 134.372 1247.31 487.615
1171 0 98.218 12.401 1218 136.425 1247.7 486.121
1172 0 102.221 12.5513 1283 136.479 1247.35 484.959
1173 0 104.14 12.3679 1288 138.643 1247.6 482.773
1174 0 109.173 12.9336 1412 137.103 1247.66 479.47
1175 0 111.231 12.047 1340 141.196 1247.28 478.221
1176 0 114.191 11.98 1368 143.477 1246.81 474.26
1177 0 120.265 12.1731 1464 140.839 1246.03 475.133
1178 0 123.235 11.1657 1376 147.223 1246.23 469.18
1179 0 128.334 11.7584 1509 143.052 1247.12 470.109
1180 0 132.297 11.4741 1518 144.645 1246.25 466.827
1181 0 137.308 12.1406 1667 141.985 1247.73 465.616
1182 0 138.243 11.4364 1581 146.912 1247.39 461.139
1183 1 37.0496 9.50078 352 104.023 1247.79 519.929
1184 0 40.0333 10.0666 403 110.288 1248.52 519.633
1185 0 41.1182 10.5306 433 109.654 1247.41 516.686
1186 0 40.088 9.85333 395 112.77 1247.44 516.924
1187 0 44.1269 10.1072 446 109.767 1246.51 515.901
1188 0 40.0651 8.31147 333 98.964 1245.41 518.748
1189 1 80.1051 8.4514 677 111.047 1245.03 498.188
1190 0 82.1042 8.72063 716 110.342 1245.92 496.515
1191 0 86.1402 8.90408 767 108.694 1246.37 496.261
1192 0 87.128 8.80314 767 109.677 1245.71 495.197
1193 0 90.1197 8.30007 748 110.579 1246.16 492.838
1194 0 95.1641 9.10007 866 107.875 1245.72 490.707
1195 0 96.131 8.8317 849 107.883 1245.39 488.766
1196 0 99.23 9.23108 916 105.828 1245.5 488.348
1197 0 100.216 7.74325 776 108.159 1246.07 486.586
1198 0 107.378 8.40953 903 106.41 1245.47 486.618
1199 1 52.0281 8.16867 425 94.5576 1245.14 512.209
1200 0 56.0442 8.51114 477 93.3228 1246.17 512.331
1201 0 56.0483 8.04663 451 94.5854 1246.29 513.377
1202 0 56.0421 7.56575 424 95.0731 1246.36 512.311
1203 0 58.0518 8.25125 479 93.9791 1245.24 510.086
1204 0 60.0908 8.25418 496 91.9294 1245.86 508.167
1205 0 60.0425 6.81184 409 94.8778 1245.81 512.208
1206 0 63.0872 7.89384 498 93.5622 1245.85 510.219
1207 0 66.0652 6.872 454 95.0573 1245.68 507.478
1208 0 68.0641 5.97966 407 94.4275 1245.28 509.084
1209 0 71.0589 7.31788 520 92.9654 1245.71 504.225
1210 0 75.0422 6.83616 513 93.0136 1245.2 505.559
1211 0 75.0484 4.9568 372 95.086 1245.78 509.898
1212 1 33.0097 6.45265 213 93.6761 1246.6 480.005
1213 1 45.0313 9.1936 414 91.186 1246.89 517.481
1214 0 45.0525 9.7442 439 89.9841 1246.23 517.041
1215 0 47.1084 9.57367 451 91.0643 1245.94 516.65
1216 0 44.024 10.2217 450 88.3933 1245.34 517.602
1217 0 42.0113 8.37871 352 95.571 1245.62 518.358
1218 0 45.0606 8.03362 362 95.8453 1245.94 518.95
1219 0 47.0766 8.22064 387 95.54 1245.72 518.142
1220 0 53.0975 8.19248 435 95.0115 1246.77 516.549
1221 0 53.0915 8.53244 453 94.3378 1247.37 515.636
1222 0 52.049 9.02995 470 93.9532 1246.13 513.234
1223 0 50.0308 8.71463 436 97.1307 1246.02 512.766
1224 0 53.0471 8.87891 471 95.1698 1246.54 512.947
1225 0 62.0665 5.73579 356 98.5702 1246.08 516.719
1226 0 63.1297 7.06482 446 96.7758 1246.7 513.583
1227 0 64.0787 8.48955 544 94.6471 1246.25 508.403
1228 0 65.0668 11.2653 733 88.7272 1246.75 507.668
1229 0 66.132 10.7059 708 89.8432 1246.65 505.273
1230 0 68.0572 10.932 744 89.3481 1247.39 504.98
1231 0 71.1705 10.8612 773 90.9327 1247.05 504.322
1232 0 74.0868 10.5957 785 90.4038 1247.33 504.229
1233 0 76.1252 10.9031 830 90.5506 1247.7 501.374
1234 0 78.0592 11.0557 863 90.0406 1247.32 499.955
1235 0 82.0616 11.5035 944 86.25 1246.49 497.35
1236 0 86.1074 12.1825 1049 82.9409 1246.98 496.489
1237 0 86.0629 10.4691 901 85.1276 1247.57 493.19
1238 1 43.0472 9.9658 429 84.648 1246.78 513.911
1239 0 49.0507 11.9061 584 81.2072 1248.21 515.993
1240 0 51.0911 12.1743 622 78.6945 1248.76 513.698
1241 0 50.045 12.1691 609 81.0493 1248.71 514.222
1242 0 53.1279 12.1217 644 80.5854 1247.74 512.565
1243 0 54.1788 12.2557 664 85.4895 1248.72 511.258
1244 0 56.1314 13.219 742 82.3491 1247.48 510.749
1245 0 57.1927 13.1835 754 83.5053 1248.18 508.899
1246 0 59.0723 13.1195 775 84.8658 1246.81 508.87
1247 0 59.078 13.169 778 142.134 1244.8 508.857
1248 0 64.0946 13.7297 880 88.3739 1246.64 507.449
1249 0 66.1285 13.383 885 84.8486 1247.4 507.268
1250 0 67.0797 13.2827 891 86.1122 1247.34 506.827
1251 0 69.1345 14.2476 985 83.4142 1248 505.261
1252 0 73.0847 13.4091 980 82.7643 1248.58 504.501
1253 0 75.1511 13.0404 980 83.2643 1248.63 503.833
1254 0 78.1322 14.0019 1094 81.5192 1248.86 502.423
1255 0 78.0801 13.4221 1048 84.0964 1248.99 501.993
1256 0 78.0801 13.3709 1044 144.33 1249 501.98
1257 0 84.0904 13.7471 1156 80.878 1248.2 498.471
1258 0 87.1717 13.3759 1166 81.2573 1248.31 496.276
1259 0 90.1475 13.5888 1225 82.129 1247.59 495.149
1260 0 92.0781 13.4342 1237 83.253 1248.34 494.355
1261 0 97.114 14.3131 1390 83.1302 1248.04 493.519
1262 0 99.391 13.8946 1381 91.7589 1248.6 490.887
1263 1 51.1032 11.8779 607 87.2867 1248.18 517.209
1264 0 52.0988 12.054 628 85.4984 1248.36 515.533
1265 0 53.0703 12.719 675 87.2104 1247.48 513.619
1266 0 55.064 12.4582 686 86.8324 1247.19 513.759
1267 0 56.0679 13.3053 746 92.1233 1247 511.653
1268 0 54.0376 12.4543 673 84.1649 1247.44 513.178
1269 0 56.129 12.1149 680 85.1956 1247.05 512.426
1270 0 59.0578 13.1397 776 82.9188 1247.91 510.13
1271 0 60.1652 12.5986 758 85.5237 1247.76 508.57
1272 0 63.0924 12.6164 796 85.3329 1247.66 508.162
1273 0 66.1567 13.0599 864 84.6979 1248.8 507.775
1274 0 66.0489 12.3545 816 90.4032 1248.3 505.681
1275 0 71.1291 13.2295 941 90.4155 1248.31 504.515
1276 0 73.0921 13.6403 997 90.1655 1247.76 501.906
1277 0 76.1429 13.6717 1041 88.3429 1247.9 502.073
1278 0 77.1524 13.091 1010 91.5119 1247.05 500.801
1279 0 78.1263 13.7342 1073 90.4287 1247.83 499.301
1280 0 79.0928 13.756 1088 90.6802 1247.41 496.899
1281 0 83.3329 13.4281 1119 91.7525 1247.6 494.193
1282 0 86.2148 14.1855 1223 90.3794 1248.11 492.442
1283 0 89.2118 14.0452 1253 92.008 1248.25 491.658
1284 0 89.2118 14.0452 1253 156.151 1248.25 491.658
1285 0 95.2583 14.4134 1373 92.1872 1248.28 488.78
1286 0 96.2218 13.7703 1325 94.5977 1248.82 486.961
1287 0 100.281 14.2101 1425 93.9144 1248.23 484.881
1288 0 104.359 14.0764 1469 94.3179 1248.85 484.366
1289 0 109.338 14.7342 1611 92.6865 1248.82 482.936
1290 0 111.265 14.2453 1585 94.8221 1248.41 482.422
1291 0 115.375 14.1192 1629 96.0503 1248.65 479.716
1292 0 118.376 14.5046 1717 95.1485 1247.56 478.446
1293 0 123.34 14.6019 1801 94.769 1248.39 474.924
1294 1 60.3456 12.4616 752 92.8497 1247.45 505.912
1295 0 61.2633 12.9931 796 93.3053 1247.68 504.862
1296 0 64.1714 13.7133 880 91.3284 1247.62 504.986
1297 0 65.1261 13.4201 874 92.8124 1248.43 504.367
1298 0 68.0957 13.5545 923 92.1495 1247.94 504.212
1299 0 68.092 13.5552 923 161.457 1247.95 504.287
1300 0 73.251 13.365 979 94.76 1248.05 500.54
1301 0 77.241 13.5809 1049 94.1392 1247.3 499.702
1302 0 78.1198 13.3129 1040 96.0202 1247.49 497.552
1303 0 81.2436 13.5518 1101 96.3724 1246.81 495.079
1304 0 83.196 13.6064 1132 97.0813 1247.09 495.042
1305 0 85.2689 13.5454 1155 97.9203 1246.83 494.982
1306 0 89.2333 13.9522 1245 97.9309 1247.62 492.881
1307 0 94.257 13.9512 1315 96.381 1247.45 492.138
1308 0 95.2349 13.3565 1272 100.793 1247.42 488.716
1309 1 51.1425 11.6928 598 102.839 1247.76 511.615
1310 0 52.087 11.5 599 104.28 1247.67 510.102
1311 0 54.107 11.5512 625 104.206 1247.81 509.37
1312 0 54.0334 11.9926 648 103.279 1247.3 509.41
1313 0 56.0643 13.2526 743 99.0727 1247.68 508.233
1314 0 58.0224 12.7365 739 100.969 1247.63 508.717
1315 0 60.1063 12.6609 761 100.301 1247.55 507.018
1316 0 60.0628 12.7866 768 101.49 1247.46 506.393
1317 0 62.0898 12.6269 784 103.614 1248.09 505.385
1318 0 64.0547 12.7547 817 102.764 1247.17 503.942
1319 0 66.0678 13.0472 862 98.6415 1247.59 503.334
1320 0 69.1315 12.5702 869 98.4338 1247.38 500.976
1321 0 71.0805 12.9712 922 95.6638 1248.5 501.132
1322 0 73.1211 12.4861 913 94.4359 1246.38 501.977
1323 0 74.0723 11.4078 845 96.9243 1246.24 500.193
1324 0 78.1234 11.9426 933 94.3591 1247.6 499.041
1325 0 79.1223 11.6276 920 96.5685 1248.04 495.536
1326 0 82.1437 11.7721 967 94.4871 1246.88 496.33
1327 0 86.1129 12.1004 1042 92.8368 1248.53 494.354
1328 1 45.0676 9.36371 422 91.2749 1246.52 514.505
1329 0 46.0252 10.4291 480 92.8729 1245.15 512.415
1330 0 46.0118 10.606 488 94.1844 1246.26 513.904
1331 0 49.196 10.8546 534 92.9214 1245.81 512.463
1332 0 50.1294 11.211 562 92.169 1246.76 513.671
1333 0 53.2054 11.3898 606 91.0016 1246.7 513.043
1334 0 53.1289 11.7074 622 91.1704 1247.59 513.857
1335 0 53.143 11.1021 590 93.5051 1246.64 512.176
1336 0 58.1277 11.3887 662 91.0725 1247.36 511.594
1337 0 58.1036 11.3418 659 91.4264 1246.86 510.41
1338 0 59.1183 11.4178 675 91.8918 1246.92 508.767
1339 0 60.1352 11.524 693 92.5988 1246.1 507.579
1340 0 60.1352 11.5739 696 130.779 1245.14 507.685
1341 0 63.0922 10.9681 692 93.7514 1246.51 506.319
1342 0 66.0995 11.2255 742 94.1631 1246.07 505.775
1343 0 68.1398 11.8286 806 92.3288 1245.88 505.15
1344 0 68.1543 11.1071 757 95.1255 1246.43 504.037
1345 0 71.1343 11.8227 841 94.1023 1246.66 502.389
1346 0 73.137 10.5282 770 95.3662 1246.52 501.795
1347 0 77.1244 11.0601 853 95.3388 1247.28 501.164
1348 0 79.096 11.2016 886 95.1862 1247.14 498.841
1349 0 81.0669 11.4843 931 97.0376 1247.31 496.598
1350 0 83.1112 11.4906 955 98.0796 1246.04 497.113
1351 0 85.0824 11.3419 965 100.168 1246.44 494.02
1352 1 43.0801 9.4243 406 93.1305 1245.17 516.069
1353 0 44.0525 10.1924 449 94.8619 1245.25 516.904
1354 0 46.1697 9.91992 458 93.7686 1246.07 516.157
1355 0 44.0634 10.2353 451 85.7982 1245.63 517.368
1356 0 49.0144 9.95625 488 80.6803 1246.71 516.119
1357 0 49.0304 9.9326 487 81.9815 1246.45 514.111
1358 0 51.0544 10.2636 524 80.6412 1247.73 513.92
1359 0 53.0564 10.9506 581 78.8933 1247.3 512.658
1360 0 54.0517 10.1199 547 80.8336 1247.29 513.062
1361 0 55.0724 10.2411 564 77.8865 1245.77 511.911
1362 0 57.1145 10.155 580 72.2655 1247.31 508.376
1363 0 58.1069 10.5151 611 71.7561 1246.43 507.795
1364 0 60.1419 10.1094 608 72.528 1246.48 507.268
1365 0 61.0539 10.417 636 72.3789 1247.25 506.715
1366 0 62.1751 10.4865 652 72.2822 1246.6 506.235
1367 0 65.0943 10.938 712 71.6671 1246.85 505.506
1368 0 66.0774 10.639 703 72.7184 1246.21 505.004
1369 0 68.134 10.3473 705 85.3262 1246.76 503.445
1370 0 73.0965 10.835 792 81.5619 1246.47 503.465
1371 0 72.0491 10.4928 756 82.5569 1247.26 502.545
1372 0 76.1139 11.3646 865 81.8382 1246.9 499.313
1373 0 78.0293 11.5982 905 81.3271 1247.49 499.257
1374 0 77.061 10.7447 828 85.0507 1247.25 498.93
1375 0 81.1203 10.996 892 83.5516 1247.38 496.251
1376 0 82.1248 10.3136 847 84.5785 1246.82 495.555
1377 1 44.1306 9.65317 426 72.5235 1246.8 517.392
1378 0 44.0514 9.48892 418 78.1938 1247.36 521.282
1379 0 44.032 9.62936 424 75.5731 1246.58 520.993
1380 0 46.0505 9.59816 442 77.543 1246.18 520.805
1381 0 45.0406 10.2574 462 80.0022 1246.43 520.015
1382 0 45.0644 10.4739 472 80.1674 1245.96 518.686
1383 0 48.0572 10.4667 503 76.7137 1245.54 519.447
1384 0 49.0151 10.4662 513 75.9591 1245.42 518.119
1385 0 52.0472 10.8747 566 72.5177 1246.5 517.753
1386 0 53.0802 10.6443 565 72.4973 1246.72 518.237
1387 0 54.041 10.9917 594 70.0337 1245.71 516.816
1388 0 57.064 12.0216 686 67.1866 1245.88 516.5
1389 0 57.1093 11.5218 658 68.5213 1244.92 515.474
1390 0 59.0986 11.2693 666 68.8784 1245.31 513.126
1391 0 60.1052 11.4799 690 70.1652 1244.94 513.732
1392 0 63.017 11.4414 721 70.742 1246.21 512.469
1393 0 63.1281 11.4688 724 72.2307 1245.33 511.594
1394 0 64.164 11.3147 726 73.6198 1246.42 509.348
1395 0 68.1573 12.0603 822 72.5791 1246.68 509.241
1396 0 68.0707 11.3558 773 77.3441 1246.06 509.045
1397 0 70.0414 11.4075 799 79.0814 1246.9 508.934
1398 0 70.0486 11.5206 807 81.8686 1245.99 507.363
1399 0 73.0579 12.2369 894 82.085 1246.15 505.246
1400 0 74.0838 11.73 869 85.7986 1244.9 507.283
1401 1 39.01 10.7152 418 92.1866 1244.78 522.825
1402 0 41.0154 10.1182 415 96.1687 1244.6 521.969
1403 0 42.0325 10.135 426 98.3709 1244.98 522.772
1404 0 42.0691 10.2213 430 100.895 1245.19 522.358
1405 0 43.0562 10.6837 460 100.533 1245.33 521.341
1406 0 45.0857 12.0659 544 96.8879 1246.24 520.811
1407 0 46.0737 11.9808 552 97.7699 1245.59 520.598
1408 0 47.0734 11.5139 542 109.718 1245.43 518.673
1409 0 49.1342 11.2752 554 111.401 1245.29 517.906
1410 0 52.1163 12.3378 643 108.369 1245.51 516.854
1411 0 53.0537 11.3847 604 112.374 1244.93 516.04
1412 0 52.0875 12.1142 631 110.412 1245.68 515.298
1413 0 55.0918 11.5262 635 112.357 1244.95 514.844
1414 0 55.1312 11.6812 644 113.307 1244.79 514.137
1415 0 56.0752 11.5381 647 112.841 1245.2 513.83
1416 0 59.0831 12.3386 729 110.458 1244.82 512.262
1417 0 59.1587 11.6128 687 112.875 1245.69 512.044
1418 0 59.1076 11.7413 694 112.004 1244.98 512.393
1419 0 62.1106 12.2523 761 109.583 1245.29 511.34
1420 0 61.0973 12.1773 744 110.551 1245.75 510.806
1421 0 64.065 12.659 811 107.498 1245.97 511.022
1422 0 65.0561 12.0819 786 108.538 1245.73 509.454
1423 0 68.0618 12.5768 856 105.657 1245.36 506.393
1424 0 70.1343 12.0483 845 105.382 1246.32 507.027
1425 0 72.0821 12.6661 913 103.666 1245.29 504.637
1426 0 72.1018 12.2604 884 104.561 1245.77 503.255
1427 0 76.0574 12.6483 962 102.478 1245.6 503.295
1428 0 77.0859 12.8688 992 101.349 1246.62 500.556
1429 0 78.0487 12.0438 940 103.591 1246.04 499.284
1430 0 82.0404 12.1769 999 101.429 1246.51 499.619
1431 0 85.0729 12.2013 1038 99.5482 1246.57 498.915
1432 0 86.0824 12.1395 1045 98.5311 1247.14 497.929
1433 0 87.0372 11.9834 1043 99.7613 1246.81 494.289
1434 0 91.053 11.993 1092 98.8727 1246.31 494.002
1435 0 93.0604 11.6591 1085 99.0276 1245.54 491.684
1436 1 48.0134 10.1013 485 93.901 1245.97 514.759
1437 0 50.0295 10.7537 538 92.119 1246.23 514.831
1438 0 50.0441 10.9304 547 91.7623 1246 514.311
1439 0 50.0914 10.7004 536 90.3731 1246.48 508.644
1440 0 52.0682 11.12 579 90.6045 1246.66 508.413
1441 0 54.0982 11.0355 597 89.7722 1246.04 509.107
1442 0 55.1169 11.4484 631 90.0364 1246.57 508.225
1443 0 57.1289 11.5003 657 90.2192 1246.11 507.654
1444 0 61.0958 11.6702 713 87.9074 1245.58 506.944
1445 0 61.1705 11.3126 692 88.8049 1245.55 505.71
1446 0 63.1993 11.5508 730 88.8973 1245.52 505.579
1447 0 63.2125 11.7382 742 90.0916 1246.07 504.571
1448 0 66.1343 11.8093 781 90.4225 1245.51 501.866
1449 0 67.1925 11.4001 766 92.3956 1246.02 502.014
1450 0 71.2106 12.1752 867 92.6067 1246.77 499.494
1451 0 73.1945 12.0638 883 92.1268 1246.16 499.946
1452 0 74.1921 12.6294 937 91.5806 1247.74 498.795
1453 0 77.1925 12.6955 980 91.8041 1247.12 496.538
1454 0 78.16 12.2697 959 91.7508 1246.95 494.765
1455 0 82.107 13.2875 1091 88.9954 1246.69 495.244
1456 0 84.0833 13.0942 1101 91.0127 1246.84 492.228
1457 0 87.1898 12.4212 1083 93.2844 1246.64 491.459
1458 0 88.1734 12.9177 1139 91.4565 1246.65 490.788
1459 0 91.1538 13.2633 1209 91.3474 1246.05 490.509
1460 1 44.077 10.3002 454 94.207 1247.57 511.811
1461 0 44.0742 10.8453 478 93.2573 1247.09 508.056
1462 0 47.0371 10.9275 514 92.2802 1247.51 505.321
1463 0 50.1398 12.2657 615 91.7805 1247.22 510.302
1464 0 50.1276 12.4283 623 91.6485 1247.3 512.425
1465 0 53.0935 12.1484 645 92.5302 1248.16 510.709
1466 0 53.0981 12.4487 661 91.4569 1246.57 510.168
1467 0 53.0256 12.1639 645 93.5054 1247.16 509.78
1468 0 57.0243 12.1176 691 91.0246 1247.23 508.735
1469 0 57.0563 12.2686 700 89.5314 1245.49 510.177
1470 0 58.0806 12.0522 700 90.15 1245.5 510.299
1471 0 61.0596 12.2831 750 89.4133 1244.89 508.641
1472 0 61.0596 12.2667 749 150.431 1242.9 508.632
1473 0 66.0711 12.8801 851 88.349 1245.84 504.623
1474 0 66.1748 12.7239 842 89.209 1246.89 503.065
1475 0 67.0767 12.9404 868 89.3099 1245.87 502.336
1476 0 70.118 12.7499 894 90.1969 1246.7 502.028
1477 0 71.0758 13.1831 937 91.0715 1246.55 499.149
1478 0 75.1595 13.3716 1005 90.0836 1246.49 496.754
1479 0 79.2059 13.2061 1046 89.9187 1246.16 496.024
1480 0 79.2252 12.7358 1009 92.672 1246.33 492.906
1481 0 82.1527 13.4262 1103 90.7851 1245.7 489.704
1482 0 84.2186 13.0731 1101 92.8529 1245.57 485.277
1483 0 86.0961 13.1481 1132 92.7032 1245.58 484.764
1484 0 89.0704 12.956 1154 92.9177 1246.2 481.917
1485 0 93.1867 13.5642 1264 91.3884 1245.29 480.327
1486 0 97.1394 12.9916 1262 92.7726 1247.63 477.109
1487 1 48.0627 10.6944 514 94.3132 1246.62 503.591
1488 0 49.0471 11.0914 544 94.1765 1246.63 505.494
1489 0 51.0879 11.0789 566 95.5406 1247.36 506.678
1490 0 56.0746 12.305 690 89.6928 1247.18 509.338
1491 0 57.1033 11.9783 684 93.2018 1247.55 506.162
1492 0 59.0792 12.1532 718 91.663 1247.02 506.341
1493 0 62.1112 12.0268 747 91.0602 1247.58 503.965
1494 0 64.0806 12.6715 812 89.7414 1246.18 503.707
1495 0 65.0701 13.0475 849 89.6843 1246.39 503.71
1496 0 67.0845 12.8644 863 91.0591 1247.22 504.175
1497 0 69.1405 12.5252 866 92.2829 1246.47 504.359
1498 0 72.1076 12.6755 914 90.6958 1245.95 503.031
1499 0 72.1191 13.1726 950 96.7379 1245.95 497.584
1500 0 75.1496 13.227 994 95.6207 1246.35 494.37
1501 0 77.1242 13.1606 1015 93.8749 1247.19 494.888
1502 0 79.134 12.4472 985 89.7513 1247.44 494.955
1503 0 81.0826 11.8151 958 81.7985 1247.02 495.162
1504 0 85.0652 12.2612 1043 80.4583 1247.88 492.738
1505 0 85.0549 11.522 980 83.2898 1246.63 491.128
1506 0 89.0832 12.3256 1098 82.4071 1246.85 490.515
1507 0 93.1261 12.1663 1133 82.5075 1246.5 489.114
1508 0 96.0915 11.9261 1146 82.555 1247.01 486.716
1509 0 99.1206 12.4091 1230 81.3138 1247.3 485.533
1510 0 101.139 11.7264 1186 82.9258 1247.24 484.579
1511 1 51.0254 10.7789 550 78.3418 1246.6 509.782
1512 0 52.0301 10.5131 547 77.8702 1246.78 508.388
1513 0 55.248 10.8239 598 78.6321 1246.76 505.493
1514 0 57.2189 11.6395 666 77.7778 1247.1 504.191
1515 0 58.0583 11.4023 662 76.8731 1247.67 505.711
1516 0 60.1682 11.551 695 76.1381 1247.42 504.619
1517 0 62.0554 11.1352 691 76.8886 1247.87 503.368
1518 0 66.1316 12.2029 807 75.3309 1247.86 501.771
1519 0 67.0463 11.768 789 76.5526 1247.75 502.603
1520 0 70.0578 12.404 869 75.5593 1247.58 500.472
1521 0 70.063 12.032 843 77.828 1247.4 500.051
1522 0 73.0897 12.081 883 77.9853 1246.77 497.553
1523 0 74.0661 12.2188 905 77.7348 1247.48 498.056
1524 0 79.0961 12.4911 988 77.1154 1246.51 496.639
1525 0 80.0827 11.3882 912 79.2083 1247.1 494.668
1526 0 82.1198 11.1179 913 80.5203 1247.59 492.917
1527 0 85.1393 11.7689 1002 80.9242 1247.28 492.799
1528 0 88.1402 11.6405 1026 80.5887 1248 492.611
1529 0 90.1365 11.3494 1023 82.2004 1247.91 490.816
1530 0 93.0929 11.4294 1064 85.8496 1248.57 490.548
1531 0 92.0886 11.5107 1060 126.91 1248.57 490.551
1532 0 98.1829 11.173 1097 86.8596 1248.79 488.137
1533 1 49.0835 10.3905 510 78.2157 1248.33 516.196
1534 0 51.0987 11.1549 570 78.0105 1247.62 511.672
1535 0 51.2185 10.8555 556 86.0576 1245.61 506.88
1536 0 54.1358 10.7323 581 75.8416 1247 506.91
1537 0 59.1697 11.5431 683 87.9517 1246.78 507.394
1538 0 60.1456 11.0565 665 88.2526 1247.38 505.974
1539 0 59.1625 11.8656 702 88.7578 1247.31 504.736
1540 0 62.2264 11.8278 736 87.8995 1247.36 503.754
1541 0 64.1911 11.8864 763 87.6527 1247.78 502.343
1542 0 63.1906 12.4227 785 123.772 1247.7 501.929
1543 0 68.1605 12.4265 847 87.954 1248.18 501.795
1544 0 69.1651 11.74 812 91.851 1247.66 498.406
1545 0 70.1306 12.491 876 90.2808 1247.52 496.441
1546 0 73.2751 11.9686 877 90.5063 1246.96 497.112
1547 0 77.1268 12.46 961 89.1561 1247.33 497.192
1548 0 77.3332 12.5948 974 88.3696 1246.55 495.286
1549 0 80.0796 13.1994 1057 86.6613 1247.08 494.698
1550 0 80.0712 12.8511 1029 88.5316 1246.61 493.583
1551 0 84.2033 12.8974 1086 89.1602 1247.01 492.393
1552 0 87.3505 13.3714 1168 87.4512 1246.84 489.631
1553 0 90.2488 12.9863 1172 88.4497 1247.13 488.032
1554 0 92.3552 13.1882 1218 88.7849 1247.11 485.555
1555 0 93.3633 11.7177 1094 92.5722 1246.56 489.011
1556 0 97.256 12.5545 1221 91.4513 1247.07 485.294
1557 0 99.2947 12.3974 1231 90.8944 1247.11 486.578
1558 0 101.299 12.1422 1230 91.8244 1247.25 485.277
1559 0 106.195 12.5241 1330 92.2391 1247.17 484.193
1560 0 104.247 11.396 1188 97.2197 1247.78 486.086
1561 1 58.0898 11.8609 689 92.4586 1246.96 508.56
1562 0 61.1474 12.6743 775 90.5123 1247.79 506.787
1563 0 64.1314 12.3341 791 92.3426 1246.95 505.599
1564 0 66.1534 12.0326 796 92.4673 1247.23 504.68
1565 0 64.0586 11.5831 742 86.7493 1247.39 506.077
1566 0 66.03 11.7674 777 86.9562 1247.24 505.916
1567 0 69.1062 11.9816 828 86.9191 1247.89 504.412
1568 0 71.0871 12.351 878 84.2107 1247.13 500.694
1569 0 72.1469 11.4904 829 85.76 1247.21 501.273
1570 0 75.0875 12.1192 910 85.0209 1246.46 499.088
1571 0 78.1344 11.685 913 84.4129 1246.35 499.296
1572 0 79.1463 11.8388 937 85.4514 1246.25 498.81
1573 0 82.1268 11.8475 973 85.7852 1246.51 496.212
1574 0 85.1478 12.5077 1065 86.0817 1246.17 493.766
1575 0 88.1353 13.0027 1146 88.6239 1246.76 492.738
1576 0 90.0682 12.5571 1131 90.9089 1247.17 491.393
1577 0 94.1468 12.7673 1202 91.2887 1247.18 488.901
1578 0 96.1327 13.1485 1264 91.5047 1247.34 487.024
1579 0 100.217 13.4608 1349 90.8443 1246.94 485.212
1580 0 102.136 13.0121 1329 93.9624 1247.96 483.57
1581 0 105.145 12.6872 1334 92.1874 1247 482.802
1582 0 109.11 13.0877 1428 90.9216 1247.2 483.732
1583 0 110.114 12.9229 1423 91.4013 1246.32 482.266
1584 0 112.115 13.2186 1482 96.7962 1246.42 481.704
1585 0 115.158 12.409 1429 98.3086 1246.98 479.775
1586 0 118.128 12.8843 1522 96.5775 1247.16 478.465
1587 0 122.112 12.9062 1576 96.6212 1246.96 476.552
1588 0 125.159 12.544 1570 97.7045 1246.1 474.577
1589 0 129.098 13.1838 1702 95.2521 1246.72 472.882
1590 0 134.164 13.1555 1765 96.7541 1246.52 470.315
1591 0 136.178 13.2327 1802 96.9268 1246.35 467.935
1592 0 141.205 13.7034 1935 94.2455 1245.55 467.035
1593 1 77.0511 11.2912 870 100.454 1245.59 497.906
1594 0 80.047 11.4183 914 100.997 1245.86 496.741
1595 0 83.0661 11.22 932 101.137 1246.05 494.527
1596 0 85.2382 11.9195 1016 99.123 1245.82 491.92
1597 0 86.1807 12.3694 1066 98.7533 1245.65 488.131
1598 0 88.1123 12.1095 1067 99.7976 1245.97 485.412
1599 0 90.1551 12.7558 1150 97.9487 1246.33 482.992
1600 0 92.2156 12.9913 1198 98.5309 1247.04 481.372
1601 0 97.1537 14.3587 1395 92.19 1246.51 483.548
1602 0 99.1495 13.7167 1360 95.2743 1246.95 483.631
1603 0 101.17 13.1461 1330 96.8632 1246.38 482.035
1604 0 102.089 12.3911 1265 100.465 1246.22 481.674
1605 0 108.162 12.4443 1346 99.2043 1245.89 480.915
1606 0 111.154 12.5952 1400 98.5736 1246.67 477.437
1607 0 114.17 11.8946 1358 98.9838 1246.39 476.377
1608 1 61.0745 11.1503 681 94.4273 1246.53 501.601
1609 0 65.092 12.0445 784 90.8431 1245.8 502.737
1610 0 66.1526 11.9874 793 94.0353 1246.58 502.803
1611 0 69.1126 12.3711 855 96.0433 1247.06 499.933
1612 0 70.0575 12.2043 855 92.5298 1246.65 500.508
1613 0 72.1226 11.7023 844 93.4645 1246.23 500.707
1614 0 74.0875 11.6214 861 93.9942 1246.46 499.496
1615 0 77.0641 12.1198 934 92.7869 1246.64 497.601
1616 0 81.0474 12.3014 997 92.8164 1247.69 496.371
1617 0 84.0568 12.4202 1044 92.8822 1247.14 495.039
1618 0 88.1156 12.5857 1109 92.2263 1246.39 491.642
1619 0 89.0771 12.5285 1116 92.336 1247.14 489.336
1620 0 94.0725 12.6498 1190 91.6202 1246.59 488.734
1621 0 97.2753 12.7268 1238 88.9822 1245.59 485.83
1622 0 99.1036 12.3608 1225 91.3902 1245.87 484.42
1623 0 102.075 12.432 1269 91.0615 1245.62 482.049
1624 1 53.0121 11.0918 588 92.4116 1246.04 507.085
1625 0 54.028 11.8827 642 90.3816 1245.07 504.188
1626 0 56.0591 12.1479 681 83.3642 1247.29 505.333
1627 0 56.1524 11.7181 658 86.19 1247.4 502.149
1628 0 59.0516 11.3968 673 79.0565 1247.69 502.083
1629 0 62.069 11.89 738 78.6016 1246.79 503.373
1630 0 61.1344 11.303 691 83.5138 1247.17 503.492
1631 0 63.0541 11.2919 712 83.7823 1246.3 503.601
1632 0 66.0693 10.822 715 82.9552 1246.83 501.421
1633 0 66.0852 10.9556 724 83.2942 1246.4 500.011
1634 0 70.1086 10.7833 756 83.3135 1246.58 499.733
1635 0 71.0585 11.1739 794 82.8552 1246.85 497.932
1636 0 72.0747 11.3771 820 83.3134 1246.69 496.89
1637 0 74.1126 11.3341 840 83.9131 1247.44 496.027
1638 0 76.0658 10.8985 829 84.4186 1246.31 494.613
1639 0 79.0924 11.7205 927 83.9827 1246.82 492.948
1640 0 82.0594 11.2236 921 83.2117 1246.86 493.759
1641 0 85.0357 11.9009 1012 82.0257 1245.83 491.392
1642 0 86.0816 11.4891 989 84.2285 1246.03 492.14
1643 0 89.0408 11.388 1014 84.3481 1245.9 491.361
1644 0 91.102 12.0634 1099 83.7862 1246.07 489.668
1645 0 96.0912 11.8325 1137 84.3228 1245.97 487.024
1646 0 98.0899 12.3356 1210 82.7678 1246.81 486.416
1647 0 98.0894 11.5507 1133 86.1236 1246.7 485.607
1648 0 102.058 12.0324 1228 85.3013 1247.24 486.549
1649 0 107.114 12.3327 1321 85.6972 1246.44 484.566
1650 0 110.109 12.1698 1340 86.2007 1246.86 482.667
1651 0 111.056 12.3001 1366 87.3309 1246.57 479.575
1652 0 115.067 12.3927 1426 87.4691 1245.74 475.972
1653 0 118.06 12.3751 1461 89.2067 1245.33 472.21
1654 0 124.078 12.2746 1523 89.5312 1246.1 470.826
1655 0 126.133 12.2093 1540 88.9916 1245.53 465.665
1656 0 130.133 12.2721 1597 90.603 1245.75 462.93
1657 1 66.1128 9.34765 618 83.3398 1245.9 496.142
1658 0 70.0804 10.2026 715 83.365 1245.59 495.573
1659 0 73.1168 10.7226 784 85.5204 1247.16 496.952
1660 0 73.0824 11.015 805 82.0248 1246.48 494.766
1661 0 78.0586 11.8757 927 84.3732 1247.55 498.238
1662 0 78.168 10.4391 816 84.5024 1246.28 492.251
1663 0 79.0783 10.5844 837 84.2067 1246.41 493.125
1664 0 83.0486 11.0056 914 84.8151 1245.5 491.88
1665 0 86.0628 11.4567 986 83.4422 1245.92 489.784
1666 0 85.0541 10.3111 877 87.0342 1245.84 487.38
1667 0 91.1232 11.2046 1021 85.0245 1245.91 485.278
1668 0 95.1374 11.2469 1070 86.3308 1245.76 484.542
1669 0 98.0776 11.9497 1172 86.43 1246.07 480.17
1670 1 48.1194 9.76737 470 81.8447 1245.58 507.864
1671 0 52.0337 10.3394 538 82.9442 1246.45 509.121
1672 0 53.1159 11.6349 618 86.8447 1246.72 509.976
1673 0 55.0867 12.09 666 85.6396 1246.94 509.387
1674 0 57.0535 12.1816 695 84.2029 1246.59 509.128
1675 0 57.1325 11.4121 652 84.2255 1246.62 507.494
1676 0 57.113 11.4335 653 85.879 1246.52 506.395
1677 0 59.1086 12.1471 718 84.3649 1246.26 506.095
1678 0 63.1051 11.9008 751 83.1878 1246.14 505.112
1679 0 64.0718 12.0022 769 85.2042 1246.35 504.876
1680 0 66.0509 12.3995 819 84.2357 1246.67 502.722
1681 0 69.0611 12.2355 845 85.6473 1246.25 502.858
1682 0 72.0768 12.6115 909 84.6304 1247.59 501.352
1683 0 71.0843 12.5063 889 85.6198 1246.78 500.35
1684 0 76.1263 12.8208 976 84.2582 1247.09 497.649
1685 0 79.0876 12.8718 1018 84.1061 1247.51 496.748
1686 0 78.0747 12.3856 967 86.9152 1247.36 495.794
1687 0 83.1168 12.5606 1044 85.6513 1247.84 494.156
1688 0 85.0793 12.5177 1065 86.646 1247.03 493.563
1689 0 86.0454 13.1094 1128 85.5062 1246.89 491.651
1690 0 88.0617 12.3096 1084 87.3247 1246.66 492.082
1691 0 91.0976 12.6348 1151 87.2346 1247.51 489.989
1692 0 91.1214 12.0169 1095 90.7215 1247.34 491.25
1693 0 93.0641 10.9494 1019 92.9401 1247.84 490.966
1694 0 96.0891 11.583 1113 92.0845 1247.2 488.98
1695 0 98.1486 11.7679 1155 90.9948 1248.23 487.843
1696 0 102.075 11.5601 1180 91.6432 1247.03 486.23
1697 0 104.068 11.1754 1163 92.6449 1247.79 485.259
1698 1 60.0808 10.9353 657 93.8752 1247.76 506.448
1699 0 61.0266 10.7986 659 93.736 1247.85 505.822
1700 0 62.1315 12.1999 758 85.3984 1247.01 505.517
1701 0 63.1259 11.8652 749 86.5741 1247.3 502.842
1702 0 68.0626 12.0771 822 90.2871 1248.18 501.865
1703 0 68.1126 12.2004 831 90.716 1247.57 500.963
1704 0 70.1053 12.0818 847 91.438 1247.89 499.429
1705 0 73.0796 11.9185 871 93.2687 1248.03 498.586
1706 0 72.1401 12.3648 892 93.3408 1246.92 498.017
1707 0 77.0824 12.8174 988 91.1437 1246.91 496.846
1708 0 77.0288 12.9692 999 92.0761 1247.56 494.636
1709 0 81.0294 13.057 1058 91.1994 1247.45 495.405
1710 0 81.1299 12.0547 978 96.775 1247.35 494.725
1711 0 84.0575 12.0275 1011 97.7735 1247.24 492.915
1712 0 84.0933 11.9034 1001 100.351 1247.74 490.27
1713 0 88.0732 12.535 1104 98.923 1246.86 490.755
1714 0 92.1101 12.0399 1109 100.211 1247.85 488.787
1715 0 94.1875 12.2097 1150 99.0983 1247.35 488.725
1716 0 97.2718 12.7992 1245 98.2048 1247.52 486.336
1717 0 98.1344 11.739 1152 100.447 1246.25 485.484
1718 0 100.188 11.8777 1190 99.4277 1247.15 483.987
1719 0 104.107 12.1126 1261 98.0571 1246.02 482.687
1720 0 104.179 11.6914 1218 100.463 1247.22 481.83
1721 0 106.159 12.0668 1281 99.5535 1246.56 478.937
1722 0 111.217 12.4891 1389 97.2426 1246.8 478.21
1723 0 113.095 12.2905 1390 96.6964 1246.86 477.505
1724 0 116.086 11.6207 1349 98.7998 1246.79 476.216
1725 0 120.185 11.9732 1439 97.9486 1246.22 475.763
1726 0 120.183 11.5491 1388 99.933 1246.43 474.875
1727 0 126.118 12.6231 1592 95.8455 1246.31 470.899
1728 0 130.182 11.9832 1560 97.3006 1245.78 468.93
1729 0 134.192 12.1691 1633 95.6326 1246.01 468.214
1730 0 137.223 11.7984 1619 95.7239 1245.9 465.784
1731 0 142.302 11.7005 1665 95.427 1245.91 463.136
1732 0 145.28 11.9494 1736 96.0351 1246.34 460.303
1733 0 151.234 12.2128 1847 96.3898 1246.63 458.342
1734 0 157.24 12.0834 1900 96.4163 1246.69 456.235
1735 0 162.228 11.7982 1914 96.8401 1245.99 456.452
1736 0 167.246 12.6999 2124 95.5989 1247.01 450.794
1737 0 169.213 11.128 1883 99.2135 1246.09 449.327
1738 0 176.169 12.2099 2151 98.2245 1246.97 445.131
1739 0 180.187 12.7478 2297 97.1828 1247.22 441.188
1740 0 186.151 11.8452 2205 99.5841 1247.85 438.915
1741 0 190.202 11.7717 2239 99.0607 1246.72 434.698
1742 0 192.193 12.399 2383 98.0013 1247.52 429.02
1743 0 201.164 12.7607 2567 96.806 1246.58 426.331
1744 0 206.275 13.2009 2723 95.6368 1247.36 417.436
1745 0 210.304 12.4962 2628 97.2363 1246.8 412.752
1746 0 219.305 12.8497 2818 96.1572 1246.75 410.828
1747 1 56.0527 8.84882 496 90.6835 1248.93 500.137
1748 0 61.0918 10.4433 638 88.9718 1248.42 500.47
1749 0 65.1874 10.8303 706 88.0014 1247.66 497.399
1750 0 72.3606 12.1337 878 83.869 1246.53 495.593
1751 0 71.1256 12.021 855 85.5544 1247.12 495.649
1752 0 72.1504 12.0997 873 85.6838 1246.97 494.984
1753 0 75.1182 11.6084 872 86.8853 1247.22 494.302
1754 0 75.073 12.1615 913 85.8072 1246.32 492.912
1755 0 77.1106 11.3344 874 83.1819 1246.28 498.021
1756 0 79.061 11.3963 901 83.5649 1246.2 494.27
1757 0 84.0332 13.5066 1135 78.8317 1246.25 492.709
1758 0 82.0788 10.9042 895 84.9922 1246.22 495.193
1759 0 87.1003 11.481 1000 83.442 1246.68 492.771
1760 0 87.1099 11.1583 972 85.1862 1247.06 490.4
1761 0 92.0802 11.642 1072 84.3563 1248.31 487.681
1762 0 94.0903 11.2233 1056 85.0956 1247.56 487.659
1763 0 95.0528 10.7204 1019 87.1354 1247.97 486.609
1764 0 102.106 12.1442 1240 82.6936 1247.46 486.675
1765 0 103.188 12.075 1246 84.6613 1248.11 483.383
1766 0 107.111 12.417 1330 83.6068 1246.59 482.024
1767 0 107.074 11.917 1276 85.8284 1246.91 479.161
1768 0 111.108 12.0514 1339 85.3308 1247 477.133
1769 0 116.109 12.0404 1398 84.6731 1246.59 476.707
1770 1 65.0307 10.0875 656 83.7043 1247.27 501.282
1771 0 68.0636 10.975 747 82.7202 1247.14 498.716
1772 0 72.1808 11.9561 863 80.2584 1247 498.066
1773 0 74.1092 11.645 863 81.9409 1246.03 496.21
1774 0 73.055 11.2518 822 77.4586 1246.55 500.066
1775 0 73.0975 9.90458 724 78.7486 1245.96 496.807
1776 0 80.0954 12.61 1010 75.3901 1246.46 492.591
1777 0 81.0947 11.69 948 77.8555 1245.06 490.595
1778 0 84.0995 11.9026 1001 77.7612 1245.67 490.033
1779 0 85.0794 12.1063 1030 78.6214 1245.31 488.691
1780 0 88.1247 11.9376 1052 79.1207 1245.97 485.172
1781 0 91.1494 12.1559 1108 78.4774 1245.92 484.192
1782 0 93.1301 11.8222 1101 79.6903 1246.49 484.128
1783 0 97.1344 12.4776 1212 77.1997 1246.3 485.184
1784 0 100.209 12.8532 1288 77.4262 1247.95 482.119
1785 0 102.137 12.3853 1265 79.015 1247.77 479.526
1786 0 104.174 11.6632 1215 82.5679 1247.84 480.001
1787 0 109.17 12.7965 1397 80.3973 1247.5 477.772
1788 1 57.0946 9.54556 545 86.567 1248.46 503.228
1789 0 57.0754 10.162 580 86.1362 1247.47 502.167
1790 0 60.1376 10.9416 658 84.8617 1247.37 500.748
1791 0 61.1449 10.9249 668 84.9431 1246.93 499.617
1792 0 64.0409 11.68 748 83.3195 1247.81 500.402
1793 0 65.0244 11.7341 763 84.3368 1247.62 500.955
1794 0 67.0493 11.8569 795 84.1019 1247.53 498.792
1795 0 70.086 12.5275 878 79.7392 1246.84 499.276
1796 0 73.102 12.3663 904 78.5188 1247.04 497.448
1797 0 73.0707 12.44 909 79.3597 1246.84 498.23
1798 0 76.0359 12.5335 953 79.8332 1247.23 496.529
1799 0 80.035 12.3571 989 79.5187 1246.9 496.393
1800 0 80.0762 12.4382 996 80.7882 1246.34 492.751
1801 0 83.0977 12.0581 1002 81.5898 1247.03 492.99
1802 0 86.1696 12.1504 1047 79.6285 1246.89 490.763
1803 0 88.2106 11.96 1055 78.9573 1246.42 489.362
1804 1 43.2142 8.95538 387 80.4367 1245.49 508.109
1805 0 45.1612 9.36645 423 80.3546 1245.81 507.849
1806 0 46.096 10.4564 482 84.2531 1247.29 511.56
1807 0 49.0243 11.0354 541 82.7024 1245.64 511.566
1808 0 49.0255 11.0759 543 83.8895 1245.09 509.324
1809 0 51.0195 11.329 578 83.2405 1245.64 507.486
1810 0 52.0564 9.54734 497 84.4467 1245.16 509.298
1811 0 51.0322 9.62138 491 79.4297 1245.49 509.448
1812 0 54.0292 10.4388 564 77.3067 1244.56 510.601
1813 0 55.025 10.7769 593 77.2024 1244.8 509.835
1814 0 55.0449 10.9729 604 78.5861 1245.18 508.762
1815 0 57.0234 10.7324 612 78.6356 1244.73 508.611
1816 0 58.0612 10.7473 624 79.008 1245.34 507.181
1817 0 57.0337 10.748 613 80.6427 1245.43 507.982
1818 0 62.0234 11.6085 720 77.0611 1245.52 506.586
1819 0 60.0503 10.0249 602 81.2774 1245.63 506.513
1820 0 63.042 10.8023 681 78.6637 1246.06 504.112
1821 0 66.0158 10.8004 713 78.0533 1246.52 502.839
1822 0 68.2152 10.9946 750 77.1093 1246.35 499.879
1823 0 69.1374 11.629 804 75.8321 1246.56 499.582
1824 0 70.1565 11.3175 794 77.1134 1246.12 497.504
1825 0 74.1123 11.5096 853 76.7163 1246.33 497.121
1826 0 74.2163 11.3452 842 78.0534 1246.35 496.158
1827 0 75.1931 11.7431 883 78.0997 1246.12 494.524
1828 0 78.1969 11.1641 873 79.6231 1246.32 493.482
1829 0 78.2571 10.4911 821 81.743 1246.78 493.532
1830 0 85.1312 11.9815 1020 77.1853 1246.86 490.06
1831 1 44.0939 10.1601 448 80.567 1247.39 510.105
1832 0 45.0771 10.6706 481 81.0021 1246.77 509.324
1833 0 46.2063 10.8643 502 80.1574 1246.99 509.129
1834 0 49.1746 11.5303 567 77.8536 1247.11 508.109
1835 0 48.1998 11.805 569 78.5729 1246.79 507.352
1836 0 53.1107 12.4834 663 73.9412 1245.52 507.715
1837 0 52.1252 11.6834 609 77.2414 1245.23 508.14
1838 0 54.0488 12.1557 657 76.1537 1245.77 506.516
1839 0 56.0612 12.7004 712 75.75 1245.93 505.242
1840 0 59.1505 12.8993 763 74.4024 1245.57 504.894
1841 0 59.1732 11.9818 709 78.5078 1245.98 504.388
1842 0 61.0856 12.4416 760 73.9895 1245.66 503.232
1843 0 65.0693 12.7095 827 73.6143 1246.04 501.206
1844 0 67.0557 12.7357 854 73.8548 1246.35 500.281
1845 0 68.0811 12.2354 833 76.1284 1246.57 498.275
1846 0 69.0992 12.2433 846 75.6312 1246.32 497.525
1847 0 69.0685 12.6107 871 75.6441 1246.05 496.076
1848 0 74.1015 12.8472 952 73.4265 1246.01 494.309
1849 0 76.1424 12.2665 934 73.7131 1246.16 493.892
1850 0 77.0715 12.6765 977 73.6919 1245.81 492.104
1851 0 79.0982 12.7057 1005 73.7323 1245.68 491.187
1852 0 81.0669 12.6439 1025 74.0995 1245.93 490.819
1853 0 83.0683 12.9171 1073 73.3924 1246.22 488.19
1854 0 83.1049 12.3458 1026 75.3265 1245.68 487.623
1855 0 82.1147 11.8127 970 78.601 1246.05 489.457
1856 0 85.0741 11.7074 996 79.8946 1246.06 486.029
1857 0 88.0969 11.8846 1047 81.4948 1246.65 485.919
1858 0 89.0674 11.3397 1010 84.0644 1246.74 485.35
1859 0 93.0513 12.0794 1124 83.3683 1246.16 483.282
1860 0 100.082 12.7396 1275 85.0204 1246.79 482.66
1861 0 99.0754 12.4552 1234 83.9887 1246 481.336
1862 0 101.041 11.9259 1205 85.2979 1246.83 481.066
1863 0 103.116 12.1708 1255 85.6614 1246.73 479.21
1864 0 107.099 11.9422 1279 86.3425 1246.45 475.733
1865 1 57.0207 10.3997 593 86.2513 1247.6 499.55
1866 0 61.1108 11.0782 677 82.7637 1247.84 496.836
1867 0 62.0761 11.0671 687 83.7031 1247.86 498.607
1868 0 64.0666 11.9251 764 81.1073 1247.53 498.168
1869 0 68.1018 11.7177 798 80.9837 1248.22 497.036
1870 0 69.0794 11.7691 813 81.9459 1248.01 494.235
1871 0 71.0438 11.6548 828 83.4287 1248.48 493.847
1872 0 73.0374 11.542 843 81.0012 1248.31 494.604
1873 0 76.0775 11.8432 901 80.1687 1248.54 494.146
1874 0 77.0476 11.746 905 81.7436 1248.37 492.96
1875 0 79.0814 11.368 899 83.1068 1248.4 491.865
1876 0 80.0497 11.3554 909 84.6656 1247.94 487.785
1877 0 84.0869 11.9638 1006 82.9225 1246.47 490.079
1878 0 88.078 11.9667 1054 83.2524 1246.44 487.804
1879 0 90.1111 11.6079 1046 84.3719 1247.49 486.114
1880 0 93.0943 11.8052 1099 83.9973 1247.11 485.434
1881 0 96.0887 12.0618 1159 83.0785 1246.52 482.335
1882 1 51.02 10.5645 539 83.1132 1246.14 504.132
1883 0 53.0783 10.8142 574 83.1899 1246.45 502.047
1884 0 54.0954 11.5167 623 80.8684 1245.87 501.067
1885 0 56.0729 11.1819 627 81.8278 1246.85 501.126
1886 0 58.0406 10.9234 634 83.2618 1247.99 500.273
1887 0 59.031 11.7227 692 81.8887 1247.33 498.727
1888 0 59.0583 11.5818 684 82.5833 1248.01 499.367
1889 0 61.0576 11.6775 713 83.0449 1248.19 499.37
1890 0 62.0715 11.7929 732 83.0096 1248.01 498.291
1891 0 65.0988 11.7206 763 83.9725 1248.29 496.007
1892 0 67.1283 12.3346 828 82.4807 1247.87 496.443
1893 0 68.1655 12.5137 853 81.9097 1248.54 495.3
1894 0 71.0999 12.4895 888 80.9403 1247.85 494.307
1895 0 72.0702 12.2936 886 81.8984 1248.23 493.414
1896 0 73.1299 12.0607 882 83.0726 1247.5 491.912
1897 0 75.0842 12.5992 946 79.7548 1248.26 490.856
1898 0 79.1867 12.2495 970 80.1485 1247.08 489.625
1899 0 79.0541 11.9032 941 80.7535 1247.18 489.544
1900 0 82.1279 12.6023 1035 79.5246 1246.93 486.532
1901 0 85.1875 12.2201 1041 80.1614 1247.04 483.147
1902 0 86.0783 12.6629 1090 79.8092 1246.68 484.261
1903 0 90.0715 12.3902 1116 79.4373 1247.06 479.746
1904 0 92.2851 12.3639 1141 79.9167 1246.81 478.975
1905 1 47.0751 9.13435 430 81.907 1246.62 503.084
1906 0 50.0792 10.4435 523 77.5335 1246.1 502.983
1907 0 55.2108 11.5195 636 79.3789 1246.63 501.387
1908 0 57.0719 11.652 665 79.2301 1245.85 503.755
1909 0 58.0815 11.3633 660 78.9364 1246.06 503.759
1910 0 61.0714 12.0515 736 78.5326 1246.32 502.432
1911 0 61.1155 12.2391 748 79.1925 1246.19 501.337
1912 0 65.084 12.4916 813 77.8549 1246.33 503.005
1913 0 65.1253 12.4683 812 78.5702 1245.21 501.165
1914 0 68.0662 11.9736 815 79.7975 1245.12 499.393
1915 0 71.1314 12.737 906 78.2605 1245.1 498.684
1916 0 72.0934 12.359 891 80.0079 1245 496.309
1917 0 74.0834 11.946 885 81.7107 1245.33 493.435
1918 0 77.1011 12.2048 941 80.4686 1245.89 492.807
1919 0 78.0496 12.428 970 80.8876 1245.02 491.794
1920 0 80.0561 11.8167 946 81.8478 1246.28 489.322
1921 0 83.057 11.9677 994 76.5473 1245.9 491.524
1922 0 86.0495 10.7612 926 78.5281 1246.31 491.51
1923 0 88.0763 10.4341 919 79.9576 1245.45 490.28
1924 0 90.0725 10.1918 918 79.7614 1246.42 489.22
1925 0 93.0956 10.1186 942 79.8195 1245.89 488.165
1926 1 51.0967 9.9028 506 80.9664 1246.58 506.057
1927 0 51.125 10.0342 513 129.889 1247.61 506.191
1928 0 56.0884 10.43 585 78.5197 1245.89 504.648
1929 0 56.1293 11.4379 642 77.3458 1245.56 504.162
1930 0 57.099 11.6639 666 77.3604 1245.47 503.038
1931 0 62.0915 12.079 750 75.052 1245.89 503.776
1932 0 60.0709 11.32 680 79.8853 1246.39 501.284
1933 0 64.0717 11.8461 759 77.8248 1246.51 500.655
1934 0 65.1131 11.5031 749 79.3284 1246.64 498.147
1935 0 65.0935 11.6909 761 79.975 1247 498.081
1936 0 68.0683 11.6354 792 79.5934 1246.04 496.013
1937 0 70.1683 11.5579 811 79.6412 1245.67 494.776
1938 0 74.202 11.59 860 80.036 1245.98 493.544
1939 0 77.2472 12.6865 980 77.2347 1246.32 493.52
1940 0 76.045 11.4932 874 79.2906 1245.64 498.752
1941 0 80.063 12.128 971 77.9114 1244.16 495.588
1942 0 83.0992 11.733 975 80.2523 1245.47 494.107
1943 0 85.1379 11.6047 988 81.0992 1244.54 494.533
1944 0 88.2519 11.7391 1036 81.2761 1244.82 493.504
1945 0 91.1657 11.7807 1074 81.1378 1244.54 490.633
1946 0 93.2416 11.3254 1056 83.3239 1245.45 489.148
1947 1 47.1657 10.3465 488 79.9918 1245.64 509.352
1948 0 48.098 10.5202 506 78.6719 1245.58 507.834
1949 0 46.017 9.90938 456 77.7829 1245.34 501.327
1950 0 51.0883 11.4703 586 77.9608 1245.98 506.543
1951 0 53.0884 10.9252 580 76.3483 1246.34 511.953
1952 0 53.0384 10.9166 579 78.0104 1246.74 510.843
1953 0 56.0979 11.5691 649 76.2327 1246.11 509.495
1954 0 56.0662 11.094 622 77.7797 1246.12 509.029
1955 0 57.0676 11.355 648 77.4491 1245.23 507.131
1956 0 58.0595 11.5399 670 77.4448 1246.08 506.5
1957 0 62.0664 11.6005 720 77.4361 1245.18 505.294
1958 0 63.116 11.4234 721 78.3107 1246.32 503.749
1959 0 65.0864 11.8765 773 78.6248 1245.65 502.075
1960 0 65.1389 10.6388 693 81.6551 1246.24 502.501
1961 0 65.1389 10.7002 697 136.106 1246.24 502.465
1962 0 71.0805 11.2408 799 80.6558 1245.02 499.641
1963 0 73.069 12.0434 880 80.1739 1244.86 497.307
1964 0 75.1007 12.3168 925 80.3222 1245.76 498.498
1965 0 79.0621 11.8008 933 81.0289 1244.76 495.379
1966 0 81.1704 11.9132 967 81.7466 1244.42 494.793
1967 0 84.1279 12.5642 1057 80.2204 1243.99 492.695
1968 0 86.095 12.3468 1063 80.6924 1244.33 490.551
1969 0 88.0537 11.7542 1035 82.6715 1244.22 491.316
1970 0 90.0863 12.1106 1091 81.846 1244.67 489.412
1971 0 93.0377 11.318 1053 82.8746 1245.19 489.297
1972 0 98.0858 11.9079 1168 80.3878 1244.33 486.323
1973 1 50.0676 11.5843 580 80.0414 1244.86 508.716
1974 0 50.0607 10.4074 521 80.9923 1244.36 507.334
1975 0 51.0283 10.5236 537 80.4637 1243.99 508.035
1976 0 52.0716 10.2551 534 81.515 1245.37 508.528
1977 0 58.0662 11.3319 658 76.927 1245.55 509.146
1978 0 60.0524 11.9729 719 75.911 1244.9 507.242
1979 0 60.0185 11.1965 672 78.4316 1245.76 505.97
1980 0 62.0425 11.1859 694 78.6974 1245.01 504.767
1981 0 63.0402 11.8337 746 77.2038 1244.36 503.606
1982 0 65.0665 11.5881 754 77.6737 1244.59 503.862
1983 0 68.1105 11.775 802 77.9264 1244.75 501.516
1984 0 69.1551 10.8163 748 80.1738 1245.4 500.636
1985 0 70.035 11.2372 787 79.953 1245.06 500.235
1986 0 71.0848 10.5226 748 81.8957 1245.03 499.064
1987 0 74.0538 10.7219 794 82.0504 1245.35 497.603
1988 0 77.1098 10.8546 837 82.6272 1245.32 496.299
1989 0 79.1538 11.3829 901 82.0222 1245.13 494.646
1990 0 82.1768 10.7816 886 82.7889 1245.39 493.413
1991 0 83.0961 10.6142 882 83.8742 1244.69 491.701
1992 1 47.0731 9.98447 470 82.0489 1244.24 508.715
1993 0 46.0427 10.2079 470 81.7106 1243.46 506.236
1994 0 50.1271 11.0918 556 78.75 1245.37 506.518
1995 0 52.0874 11.4231 595 77.2034 1245.78 506.708
1996 0 53.1992 10.9964 585 78.5402 1245.51 505.781
1997 0 53.1022 10.4892 557 79.8043 1245.64 503.943
1998 0 53.0551 9.81999 521 74.7735 1246.27 503.507
1999 0 57.0469 11.2364 641 77.3775 1246.09 507.067
2000 0 58.0782 10.417 605 78.9157 1245.34 505.192
2001 0 60.0569 11.1894 672 77.311 1245.81 503.853
2002 0 63.0187 10.8222 682 78.3079 1245.23 503.013
2003 0 63.0432 10.9925 693 79.342 1244.9 499.622
2004 0 65.1071 11.0741 721 80.1165 1244.49 498.836
2005 0 67.0867 11.0752 743 81.2651 1245.35 496.244
2006 0 70.0491 11.3206 793 82.4477 1245.21 493.999
2007 0 73.0759 11.2623 823 83.4131 1245.44 493.253
2008 0 75.076 10.869 816 84.4559 1245.32 492.759
2009 0 74.0969 11.2825 836 86.9785 1245.57 492.487
2010 0 77.0361 11.3583 875 88.888 1245.07 490.946
2011 0 79.079 11.6845 924 90.1255 1244.95 489.141
2012 0 82.0428 11.7378 963 90.9761 1243.78 488.24
2013 0 82.0945 11.8157 970 92.5629 1244.53 487.927
2014 0 88.1269 11.8125 1041 92.0893 1244.3 486.33
2015 0 88.0664 11.8888 1047 92.808 1245.51 485.128
2016 0 91.0982 11.5809 1055 94.6133 1244.41 484.053
2017 0 95.261 12.1981 1162 92.5706 1245.76 481.294
2018 0 94.0792 11.9474 1124 94.903 1245.14 475.674
2019 0 98.1025 11.9569 1173 95.4382 1245.17 475.657
2020 0 103.079 12.0684 1244 94.9743 1244.61 473.761
2021 0 104.16 11.8856 1238 95.9249 1244.61 471.8
2022 0 108.155 12.14 1313 94.4745 1244 470.711
2023 0 111.081 12.4414 1382 94.5478 1244.19 468.03
2024 0 114.139 12.1957 1392 93.8549 1244.31 466.573
2025 0 117.168 12.0852 1416 93.733 1244.05 464.341
2026 0 120.224 12.1607 1462 93.6231 1244.62 461.686
2027 0 127.212 12.6246 1606 90.7995 1244.48 460.815
2028 0 128.171 12.6862 1626 91.8678 1245.11 457.772
2029 0 135.129 13.0394 1762 91.1226 1244.42 454.932
2030 0 138.25 12.9403 1789 90.5702 1244.98 453.051
2031 0 142.14 12.8676 1829 90.7813 1244.53 447.522
2032 0 153.166 13.4168 2055 89.3372 1244.69 445.763
2033 0 162.122 13.6132 2207 87.3493 1244.25 448.351
2034 0 162.122 13.6255 2209 162.657 1244.26 448.272
2035 1 84.0644 9.8377 827 84.8634 1245.06 487.187
2036 0 87.0646 11.3479 988 84.9119 1245.21 486.382
2037 0 90.0976 11.2323 1012 85.1947 1245.72 485.564
2038 0 95.215 12.0779 1150 87.7087 1245.49 485.185
2039 0 99.1855 12.6329 1253 86.6002 1245.11 483.698
2040 0 103.16 12.3983 1279 86.301 1245.31 483.319
2041 0 101.171 11.5251 1166 86.7864 1246 478.822
2042 0 104.24 11.3776 1186 86.7201 1245.48 477.476
2043 0 110.119 12.8498 1415 88.1852 1245.54 479.675
2044 0 115.195 12.5526 1446 89.0118 1244.47 478.564
2045 0 117.149 12.0274 1409 87.7722 1245.14 476.909
2046 0 117.182 11.768 1379 87.8557 1244.19 475.537
2047 0 121.157 11.2169 1359 88.2149 1244.69 475.77
2048 0 125.095 11.3194 1416 87.9972 1244.58 470.593
2049 0 129.251 11.0482 1428 88.0042 1244.85 468.408
2050 0 131.122 9.52548 1249 81.2226 1245.22 459.291
2051 1 66.11 7.97157 527 77.6736 1245.12 492.583
2052 0 74.0831 9.93478 736 82.8438 1245.53 495.121
2053 0 73.0273 9.40744 687 73.9549 1245.33 491.288
2054 0 78.1289 10.3803 811 74.8274 1245.09 495.614
2055 0 80.1282 10.6704 855 79.4573 1245.7 495.884
2056 0 81.0644 9.47395 768 81.9297 1244.92 495.413
2057 0 82.1166 8.95068 735 86.2449 1244.45 495.208
2058 0 86.1291 10.0314 864 83.4352 1245.43 493.383
2059 0 88.1083 9.27268 817 81.6952 1244.17 490.568
2060 0 92.1193 9.63967 888 82.9448 1245.48 486.849
2061 0 96.05 10.2238 982 82.1904 1244.72 487.276
2062 0 99.0781 9.63886 955 84.778 1245 486.029
2063 0 102.087 10.638 1086 84.9448 1244.85 483.308
2064 0 106.102 10.5182 1116 87.3978 1245.54 481.384
2065 1 57.0257 10.2235 583 80.199 1245.29 507.29
2066 0 58.0351 9.25302 537 79.6611 1245.1 507.16
2067 0 60.0164 9.54739 573 77.8307 1244.21 505.161
2068 0 61.0502 9.30381 568 78.4155 1245.42 503.241
2069 0 64.0311 10.3856 665 77.2797 1243.75 502.982
2070 0 64.1232 9.74685 625 80.248 1244.95 506.65
2071 0 62.0914 9.06728 563 83.1865 1244.08 504.771
2072 0 67.0754 8.97498 602 83.7209 1244.52 502.498
2073 0 70.1488 9.879 693 82.1501 1244.97 501.501
2074 0 72.0333 9.52337 686 83.1866 1245.19 499.319
2075 0 73.1228 9.79174 716 83.5391 1244.55 498.838
2076 0 76.0769 9.83215 748 83.3128 1244.8 497.467
2077 0 78.1253 9.59996 750 83.5693 1244.27 496.485
2078 0 81.0708 9.83091 797 83.2773 1244.79 495.316
2079 0 84.0953 10.8211 910 81.0758 1244.7 492.843
2080 0 84.0438 10.0543 845 85.5503 1245.22 491.181
2081 0 88.0594 10.6065 934 83.1991 1245.43 491.566
2082 0 92.1524 10.9601 1010 83.5119 1245.56 489.134
2083 0 95.0772 11.3381 1078 82.6688 1245.93 488.684
2084 0 98.123 11.5365 1132 83.0318 1246.02 486.442
2085 0 102.125 11.9559 1221 82.9689 1245.54 485.582
2086 0 104.126 11.342 1181 85.1812 1245.48 484.408
2087 0 106.14 11.5979 1231 86.303 1244.75 483.329
2088 0 109.195 12.1251 1324 91.5144 1245.6 480.077
2089 0 110.193 12.4599 1373 146.628 1245.58 479.264
2090 0 115.111 12.0753 1390 89.7439 1245.71 475.853
2091 0 118.137 11.7999 1394 88.5194 1245.47 474.699
2092 0 121.12 11.3854 1379 89.1856 1245.98 470.003
2093 0 123.224 11.1504 1374 90.8348 1245.09 466.707
2094 0 127.197 11.6198 1478 89.8911 1245.69 465.346
2095 0 131.344 11.6564 1531 90.6767 1245.5 461.985
2096 0 137.222 12.5636 1724 89.5273 1246 460.741
2097 0 139.259 11.7048 1630 90.6798 1244.95 456.917
2098 1 78.2458 10.7098 838 86.9606 1246.08 490.851
2099 0 81.2584 11.1988 910 88.1154 1244.6 488.415
2100 0 82.2371 12.2451 1007 93.5899 1245.32 485.984
2101 0 86.1169 12.8082 1103 91.8586 1245.23 485.571
2102 0 88.0635 13.3313 1174 87.7351 1244.94 487.699
2103 0 90.1787 13.44 1212 87.8746 1245.37 486.587
2104 0 93.0858 13.2781 1236 89.271 1245.19 483.372
2105 0 96.1279 13.3884 1287 88.9736 1245.04 483.733
2106 0 96.0486 12.223 1174 93.3944 1245.22 484.521
2107 0 98.1091 12.1701 1194 94.861 1245.7 481.64
2108 0 103.113 12.4621 1285 92.6693 1246.07 481.077
2109 0 104.095 12.3349 1284 94.197 1246.18 478.236
2110 0 108.037 12.7734 1380 92.4551 1245.91 478.377
2111 0 110.055 12.3847 1363 93.4182 1246.25 476.332
2112 0 113.067 12.3467 1396 94.0473 1245.99 474.128
2113 0 117.069 12.5823 1473 92.8364 1245.85 472.581
2114 0 117.08 12.5214 1466 93.8336 1245.78 470.621
2115 0 122.099 12.3752 1511 92.5811 1245.73 466.819
2116 0 123.101 12.112 1491 92.7934 1245.08 458.145
2117 0 130.105 12.513 1628 90.516 1246.32 455.502
2118 0 132.055 12.4418 1643 90.8582 1245.88 454.967
2119 0 137.062 12.0457 1651 91.3271 1246.36 453.05
2120 0 144.099 12.9217 1862 88.6128 1245.86 449.825
2121 0 148.139 12.8798 1908 89.001 1246.61 446.999
2122 1 83.0535 11.7635 977 89.9447 1247.85 484.301
2123 0 85.0495 12.3575 1051 89.7545 1246.7 484.516
2124 0 88.0884 12.0447 1061 89.2516 1246.51 484.012
2125 0 91.0751 12.605 1148 87.5496 1246.04 482.198
2126 0 95.0996 13.3544 1270 84.6898 1246.9 480.991
2127 0 96.0739 12.4696 1198 87.1327 1246.28 480.529
2128 0 100.041 13.2546 1326 85.3439 1246.18 479.011
2129 0 101.11 12.6298 1277 88.473 1245.1 475.447
2130 0 105.066 12.7254 1337 87.5423 1246.53 475.095
2131 0 107.101 13.0344 1396 87.2586 1246.62 472.275
2132 0 110.184 12.8966 1421 87.5278 1245.5 470.672
2133 0 114.169 12.8494 1467 86.8044 1245.45 468.838
2134 0 117.144 12.5742 1473 87.928 1245.75 467.353
2135 0 123.213 13.0018 1602 86.9451 1246.32 464.731
2136 0 124.201 13.2607 1647 87.0686 1245.56 462.139
2137 0 130.214 12.9326 1684 87.8314 1246.31 460.684
2138 1 71.0247 10.5738 751 86.0533 1247.6 492.561
2139 0 72.0434 11.4792 827 84.4389 1246.73 488.932
2140 0 75.0958 11.0925 833 85.497 1246.77 489.807
2141 0 79.1963 11.0232 873 85.4994 1245.93 489.991
2142 0 83.1232 11.4769 954 84.4675 1245.98 487.917
2143 0 81.2258 11.2895 917 84.9727 1245.51 485.932
2144 0 86.1919 11.718 1010 84.0594 1245.94 482.872
2145 0 89.3043 11.332 1012 84.3261 1245.36 482.476
2146 0 91.2412 11.8696 1083 83.2964 1246.16 480.329
2147 0 87.0663 11.6922 1018 83.4607 1246.1 480.348
2148 0 92.0898 12.01 1106 79.5099 1246.76 482.405
2149 0 96.0528 11.8997 1143 78.916 1246.53 482.731
2150 0 98.1578 11.94 1172 78.9505 1247.07 477.673
2151 0 101.207 12.6079 1276 76.9005 1246.77 476.245
2152 0 104.075 11.7416 1222 78.5205 1246.89 476.841
2153 0 106.124 11.8823 1261 78.2205 1245.7 475.477
2154 0 109.132 11.3441 1238 79.3465 1246.29 472.704
2155 0 108.141 11.5405 1248 80.3365 1245.71 468.296
2156 0 114.238 12.0537 1377 79.4626 1245.73 466.849
2157 1 60.0405 10.8593 652 80.4325 1246.93 486.11
2158 0 64.0959 11.8728 761 78.117 1246.09 490.725
2159 0 68.0505 11.6678 794 79.534 1247.64 492.137
2160 0 71.0551 11.7233 833 78.4382 1247.08 490.155
2161 0 71.0641 12.0314 855 78.2094 1246.33 488.726
2162 0 74.0383 11.5886 858 79.8287 1247.28 485.844
2163 0 75.076 11.6682 876 80.2603 1245.79 484.382
2164 0 76.0475 11.9794 911 80.6235 1245.94 482.794
2165 0 80.0523 12.6168 1010 78.8188 1246.66 483.371
2166 0 86.0801 12.895 1110 76.8351 1247.56 481.961
2167 0 90.0445 13.6599 1230 74.3496 1246.93 481.57
2168 0 92.0345 13.1472 1210 75.9083 1247.28 481.718
2169 0 94.0638 13.342 1255 76.4255 1247.23 480.117
2170 0 97.0695 13.2895 1290 76.2512 1247.77 478.727
2171 0 100.055 13.4026 1341 76.4086 1248.21 476.418
2172 0 102.039 13.3282 1360 77.064 1247.84 474.75
2173 0 102.056 13.5219 1380 76.3507 1248.37 473.264
2174 0 107.066 12.9079 1382 77.1064 1247.38 471.532
2175 0 107.145 12.3571 1324 79.1579 1247.93 470.329
2176 0 107.157 12.1224 1299 79.7537 1247.14 462.594
2177 0 116.182 12.162 1413 78.913 1247.5 462.074
2178 1 61.0215 10.2751 627 72.3301 1247.12 493.922
2179 0 64.0408 10.7588 689 71.4282 1248.12 494.097
2180 0 67.0597 10.5428 707 67.3734 1247.67 499.385
2181 0 67.0597 10.5428 707 123.716 1246.67 499.385
2182 0 70.0154 11.0547 774 71.4264 1247.12 498.221
2183 0 71.0632 10.5258 748 73.4011 1248.25 493.817
2184 0 73.0237 10.4487 763 73.1835 1246.45 494.1
2185 0 78.1215 11.2517 879 71.5131 1247.15 491.078
2186 0 79.0517 11.4482 905 72.1238 1246.39 490.571
2187 0 82.0744 11.5261 946 71.9894 1247.24 489.623
2188 0 83.0963 10.7466 893 73.9507 1247.45 488.249
2189 0 84.0869 11.1432 937 73.8228 1247.87 488.832
2190 0 88.0395 11.2563 991 73.8063 1247.84 487.438
2191 0 89.0385 11.0065 980 75.9755 1247.28 488.001
2192 0 93.0702 11.819 1100 75.1555 1247.54 484.98
2193 0 93.0702 11.8405 1102 122.727 1247.54 485.025
2194 0 99.0576 11.6801 1157 76.72 1247.09 479.603
2195 0 101.056 12.3595 1249 76.9992 1247.02 478.496
2196 1 57.0536 10.3411 590 77.3373 1246.93 503.597
2197 0 58.0318 11.218 651 73.7665 1246.46 502.206
2198 0 60.0264 11.245 675 74.24 1247.07 501.403
2199 0 60.0483 10.8912 654 75.3792 1246.96 500.555
2200 0 62.0619 11.843 735 73.5401 1247.66 500.714
2201 0 63.0296 11.0583 697 77.0947 1247.37 501.608
2202 0 64.0566 10.9122 699 78.3362 1247.19 501.552
2203 0 67.0736 11.3905 764 77.9424 1246.9 500.343
2204 0 70.0802 11.7865 826 79.5605 1247.41 499.476
2205 0 71.1118 11.2358 799 81.5582 1247.41 499.155
2206 0 74.1221 11.7239 869 81.9666 1247.44 496.929
2207 0 74.0828 11.4601 849 83.3592 1246.16 498.284
2208 0 77.1944 10.9205 843 85.2052 1246.38 497.58
2209 0 79.0867 11.2408 889 86.6423 1245.92 494.876
2210 0 78.0762 11.0917 866 87.9446 1246.83 493.073
2211 0 82.1715 11.0014 904 88.5243 1245.97 493.553
2212 0 84.1179 10.8063 909 90.0099 1247.13 491.365
2213 0 87.1264 11.2825 983 88.1963 1246.53 489.64
2214 0 90.1122 11.6854 1053 87.9639 1247.58 488.529
2215 0 90.0847 11.689 1053 88.8879 1247.09 486.765
2216 0 92.1593 11.9467 1101 88.5913 1246.87 485.602
2217 0 93.1124 12.3614 1151 88.6169 1246.91 479.214
2218 0 96.1129 12.5894 1210 88.2322 1246.45 476.722
2219 0 100.121 12.4949 1251 87.235 1247.45 474.612
2220 0 100.211 12.2941 1232 87.1615 1246.85 469.693
2221 0 105.096 12.4934 1313 86.9726 1246.62 469.593
2222 0 108.149 12.2331 1323 87.3681 1246.25 465.899
2223 0 117.207 12.0556 1413 86.5464 1246.72 466.27
2224 1 56.0344 9.01232 505 76.7822 1247.14 497.265
2225 0 65.0671 9.80527 638 81.2915 1247.82 500.158
2226 0 65.0605 9.91385 645 78.5442 1247.37 502.301
2227 0 68.0728 10.2978 701 77.8816 1247.67 501.872
2228 0 69.05 10.4851 724 79.0552 1248.35 501.528
2229 0 73.1208 10.8724 795 80.4 1247.4 499.995
2230 0 72.0338 10.8005 778 82.5424 1247.99 497.829
2231 0 76.0964 11.0912 844 83.4585 1247.76 497.039
2232 0 78.0403 10.9815 857 84.8868 1247.64 496.049
2233 0 83.0406 11.7412 975 85.3487 1246.29 494.465
2234 0 84.0581 11.9441 1004 91.8058 1247.05 493.711
2235 0 86.0826 11.489 989 94.6552 1247.02 490.527
2236 0 89.0631 11.5873 1032 94.9719 1246.94 489.358
2237 0 92.0507 11.4502 1054 95.2666 1246.49 490.139
2238 0 92.1164 12.126 1117 95.0922 1247.49 489.863
2239 0 95.0894 11.7153 1114 96.2325 1246.6 487.108
2240 0 99.0565 11.7408 1163 94.4067 1245.88 485.515
2241 0 101.101 11.7407 1187 94.6344 1245.71 484.484
2242 1 59.0451 10.0093 591 87.3096 1245.93 507.658
2243 0 61.077 9.85641 602 87.7641 1245.43 506.598
2244 0 62.1415 10.7336 667 87.4333 1245.28 506.234
2245 0 64.0911 11.7645 754 89.2692 1245.4 505.013
2246 0 66.0576 12.2923 812 91.6207 1244.09 503.225
2247 0 66.0157 11.573 764 92.3416 1243.85 503.285
2248 0 69.0517 11.7883 814 93.1511 1244.33 500.78
2249 0 71.0297 11.1925 795 96.3145 1244.81 499.725
2250 0 71.0647 11.6373 827 96.7763 1244.36 498.977
2251 0 74.0407 11.6422 862 97.9397 1245.6 498.849
2252 0 77.0274 12.3592 952 96.0882 1244.76 497.811
2253 0 78.0682 12.3994 968 98.7159 1245.4 497.327
2254 0 82.0703 12.6111 1035 98.3488 1245.08 494.754
2255 0 84.0882 12.5226 1053 99.1795 1245.47 494.518
2256 0 87.0378 12.3165 1072 100.166 1245.04 493.31
2257 0 88.0942 12.4639 1098 100.402 1245.81 492.64
2258 0 92.1001 12.3127 1134 100.345 1245.9 490.452
2259 0 96.1729 12.8519 1236 99.0372 1245.26 490.367
2260 0 95.1494 12.5592 1195 101.749 1245.68 488.039
2261 0 98.1427 12.0844 1186 100.411 1245.82 486.639
2262 0 99.0578 11.6498 1154 101.138 1245.32 481.797
2263 1 55.0212 9.65082 531 96.1036 1246.36 506.559
2264 0 60.096 11.3152 680 91.9147 1246.12 508.39
2265 0 62.0131 11.8201 733 93.9591 1245.34 504.252
2266 0 63.0319 11.5497 728 94.0604 1246.08 504.143
2267 0 62.0718 10.8262 672 84.8125 1246.11 506.893
2268 0 63.0689 10.4965 662 83.7704 1246.14 506.128
2269 0 65.0511 10.5456 686 84.1239 1246.32 503.631
2270 0 67.0445 11.1418 747 83.49 1244.84 504.194
2271 0 68.0756 9.29848 633 82.5166 1246.01 499.513
2272 0 71.051 10.2884 731 80.7606 1245.43 498.278
2273 0 71.0993 9.45157 672 82.1324 1246.36 498.173
2274 0 74.0764 9.01772 668 83.0464 1245.38 497.75
2275 0 78.0532 10.0829 787 80.7662 1245.97 496.539
2276 0 81.0636 9.30134 754 82.6897 1245.94 494.94
2277 0 84.0981 10.0121 842 81.8504 1245.62 494.47
2278 0 84.0981 9.85753 829 114.93 1245.62 494.591
2279 1 45.0292 8.83872 398 77.2136 1246.11 514.585
2280 0 46.0381 10.1872 469 75.6908 1246.5 512.102
2281 0 47.0457 9.77772 460 76.7478 1245.93 507.95
2282 0 47.0181 10.4641 492 85.0224 1246.16 507.516
2283 0 48.0434 10.4697 503 85.8429 1245.9 506.28
2284 0 51.0168 10.918 557 83.5458 1246.45 507.002
2285 0 55.0602 11.2422 619 81.9451 1246.38 507.444
2286 0 54.0943 10.8144 585 84.4957 1245.5 505.357
2287 0 57.0786 10.7571 614 84.4072 1245.69 504.637
2288 0 59.1947 11.2172 664 83.5075 1246.12 503.053
2289 0 57.0884 10.8954 622 85.8328 1245.99 500.976
2290 0 62.0206 11.6091 720 82.7181 1246.39 501.053
2291 0 66.083 11.0316 729 83.8903 1246.5 502
2292 0 66.1152 10.4363 690 85.6188 1246.19 499.145
2293 0 69.0917 10.8407 749 84.725 1246.92 498.338
2294 0 71.0712 11.7206 833 83.9148 1246.12 498.014
2295 0 75.1294 11.2073 842 84.3052 1246.76 497.43
2296 0 79.1012 12.1237 959 81.8279 1245.8 497.264
2297 0 81.0309 11.6375 943 82.8579 1246.1 497.59
2298 0 84.0985 11.9978 1009 82.7146 1245.13 495.561
2299 0 85.1148 12.0778 1028 83.2267 1245.58 494.613
2300 0 88.081 11.9776 1055 84.9384 1245.5 493.841
2301 0 90.043 12.072 1087 84.8988 1245.23 493.189
2302 0 93.0535 12.1865 1134 84.8624 1246.32 491.347
2303 0 96.0696 12.6991 1220 74.7984 1245.55 489.334
2304 0 98.0479 12.1165 1188 85.2618 1246.01 488.265
2305 0 104.055 12.3012 1280 83.3078 1245.94 486.721
2306 0 105.112 12.1108 1273 83.9301 1245.09 486.773
2307 0 105.118 12.0722 1269 130.361 1244.08 486.814
2308 0 104.088 11.7208 1220 131.74 1243.09 485.716
2309 0 115.122 11.0926 1277 86.52 1246.22 481.381
2310 0 117.108 11.3144 1325 86.6551 1245.9 481.832
2311 1 65.0331 10.9944 715 80.9804 1245.31 504.853
2312 0 66.0521 11.2184 741 80.8367 1245.87 504.513
2313 0 67.056 11.3487 761 80.3535 1244.73 502.536
2314 0 71.0462 11.3307 805 78.9925 1245.55 501.873
2315 0 76.0798 11.856 902 77.6962 1245.3 502.397
2316 0 77.0643 12.3793 954 78.5377 1245.89 499.878
2317 0 79.1026 12.0603 954 80.3197 1245.35 500.104
2318 0 80.1125 12.5199 1003 80.6999 1246.19 497.176
2319 0 83.047 11.7885 979 83.5843 1245.75 495.206
2320 0 86.079 11.8844 1023 83.8456 1246.15 492.128
2321 0 89.1217 12.6905 1131 83.3183 1245.15 491.191
2322 0 92.1422 12.3939 1142 84.817 1244.93 489.325
2323 0 94.1399 12.1734 1146 86.3272 1244.53 487.095
2324 0 95.1379 12.4346 1183 87.7202 1245.28 486.772
2325 0 98.1056 12.7006 1246 86.7681 1245.33 485.011
2326 0 102.106 12.6732 1294 87.3594 1245.36 481.879
2327 0 105.098 11.6653 1226 90.5962 1245.21 480.493
2328 0 110.181 12.5974 1388 88.8307 1244.97 478.513
2329 1 58.0621 9.74818 566 83.0601 1245.8 506.166
2330 0 60.094 10.2506 616 83.3247 1246.82 504.278
2331 0 61.0591 10.1377 619 84.4475 1247 499.924
2332 0 63.031 10.7407 677 87.031 1247.35 498.065
2333 0 65.0929 10.9689 714 86.9706 1246.08 496.136
2334 0 64.0724 10.4413 669 89.6173 1246.62 494.901
2335 0 70.1539 10.4912 736 88.0829 1246.41 493.984
2336 0 74.1587 10.4371 774 88.6395 1246.94 493.979
2337 0 76.1866 11.1043 846 88.3085 1246.44 493.161
2338 0 77.1183 10.4904 809 92.1236 1246.54 490.994
2339 0 82.2685 10.4657 861 93.1777 1247.12 491.142
2340 0 86.312 11.528 995 92.7055 1247.6 491.603
2341 0 87.1716 11.6093 1012 94.0761 1246.34 489.689
2342 0 91.0681 11.9251 1086 94.8904 1246.19 485.836
2343 0 93.0514 11.9934 1116 94.7428 1247.14 491.336
2344 0 96.158 11.6995 1125 97.1956 1247.68 488.282
2345 0 99.1701 12.0903 1199 97.6831 1247.49 487.262
2346 0 102.095 12.3316 1259 97.0445 1247.22 485.144
2347 0 104.093 11.2303 1169 99.308 1246.94 486.294
2348 0 107.068 12.0391 1289 97.806 1247.46 485.192
2349 0 110.072 11.5924 1276 98.6826 1247.33 484.4
2350 1 61.0178 10.374 633 90.5482 1247.42 511.498
2351 0 61.0595 11.6444 711 88.8467 1246.74 510.311
2352 0 64.0761 11.0962 711 88.4951 1246.79 507.736
2353 0 65.0569 12.174 792 87.072 1246.36 506.338
2354 0 66.1391 12.3376 816 86.239 1246.3 505.337
2355 0 69.1454 11.5843 801 85.8677 1245.15 504.167
2356 0 72.1118 11.2464 811 92.8915 1244.61 502.784
2357 0 75.069 10.8567 815 91.5436 1244.39 503.211
2358 0 76.0633 11.3327 862 92.5522 1244.64 500.498
2359 0 76.1345 11.3877 867 90.2653 1243.82 499.435
2360 0 79.1417 11.3594 899 89.7664 1244.36 499.941
2361 0 82.1537 11.1133 913 90.0022 1243.61 500.435
2362 0 86.1651 11.2459 969 90.0743 1243.82 498.731
2363 0 87.0654 11.1066 967 90.6101 1243.08 497.747
2364 0 92.1115 11.9529 1101 89.1362 1244.32 496.615
2365 0 93.1209 11.3938 1061 92.4533 1242.82 495.976
2366 0 97.0916 11.9475 1160 90.8595 1243.51 494.742
2367 0 98.0629 11.7476 1152 92.2448 1243.02 494.448
2368 0 102.063 11.679 1192 92.6451 1243.93 492.216
2369 0 104.049 12.4173 1292 92.0758 1244.16 489.297
2370 0 108.036 11.5054 1243 94.2671 1243.68 486.196
2371 0 109.025 11.6762 1273 95.5475 1243.86 484.542
2372 0 113.135 11.7824 1333 95.7787 1242.96 483.526
2373 1 63.0296 11.1376 702 91.3048 1243.32 507.415
2374 0 64.021 11.7618 753 92.498 1242.97 505.64
2375 0 69.0605 12.1198 837 91.9319 1243.91 502.59
2376 0 71.0491 12.5969 895 93.6134 1243.8 501.252
2377 0 74.103 12.3747 917 93.2017 1244.17 500.886
2378 0 75.061 12.3633 928 93.4418 1243.58 498.345
2379 0 78.0903 12.9722 1013 91.5578 1244.42 498.858
2380 0 81.0879 12.7763 1036 92.8311 1244.51 498.652
2381 0 83.1094 13.007 1081 92.3118 1244.59 496.627
2382 0 84.067 12.4306 1045 94.9981 1243.48 495.943
2383 0 86.126 13.0623 1125 93.9307 1243.63 493.392
2384 0 90.0762 13.1888 1188 94.569 1242.98 492.792
2385 0 94.0915 13.6782 1287 93.4336 1243.74 491.531
2386 0 94.2631 13.0698 1232 95.418 1243.45 490.21
2387 0 97.1862 13.397 1302 94.2104 1243.62 488.846
2388 0 99.1909 12.9851 1288 95.2088 1243.19 486.92
2389 0 105.168 13.6069 1431 92.7205 1242.85 484.996
2390 0 106.143 13.1143 1392 94.7579 1244.02 483.947
2391 1 60.0936 9.50185 571 89.0245 1244.16 508.87
2392 0 64.0513 10.0857 646 88.7508 1244.23 508.454
2393 0 64.0677 10.4421 669 90.9581 1244.2 505.801
2394 0 64.0804 11.2983 724 89.0981 1244.79 504.405
2395 0 66.0859 10.4864 693 90.7114 1244.42 504.532
2396 0 69.1776 11.4343 791 89.311 1244.16 502.013
2397 0 72.1935 11.206 809 90.2225 1244.25 500.87
2398 0 72.1506 11.9057 859 89.0745 1244.32 500.203
2399 0 73.0989 11.5186 842 90.1223 1245.54 498.9
2400 0 77.151 11.8728 916 89.3548 1244.59 496.781
2401 0 78.1349 12.1841 952 89.7143 1244.72 496.304
2402 0 81.1675 12.6405 1026 88.231 1244.42 496.222
2403 0 84.1819 11.3445 955 91.51 1245.32 493.244
2404 0 87.1686 11.908 1038 91.2447 1244.91 491.055
2405 0 89.1581 11.2385 1002 93.1657 1245.24 491.021
2406 0 92.2455 12.4342 1147 89.8928 1245.23 488.923
2407 0 95.1439 12.3497 1175 90.7651 1246.18 487.606
2408 0 96.0847 12.0623 1159 90.2761 1245.8 486.846
2409 0 100.134 12.0339 1205 88.6174 1246.84 485.475
2410 0 101.063 11.5374 1166 89.4528 1246.07 485.317
2411 0 103.231 11.2951 1166 93.1981 1246.41 480.268
2412 0 109.175 12.2555 1338 91.7698 1245.99 479.756
2413 0 111.218 11.3831 1266 93.9826 1246.12 478.147
2414 0 114.159 10.7744 1230 95.1496 1246.04 477.022
2415 0 118.16 11.2052 1324 94.065 1246.3 474.741
2416 0 121.1 10.8422 1313 93.9703 1245.92 472.179
2417 0 124.097 10.8141 1342 94.5745 1246.48 470.46
2418 0 128.116 10.912 1398 93.1223 1246.25 467.604
2419 0 132.158 10.0184 1324 91.2485 1246.36 465.366
2420 0 136.101 9.75748 1328 87.9895 1245.75 464.264
2421 0 140.108 8.79323 1232 89.8734 1246.38 460.558
2422 0 144.142 9.69186 1397 88.7015 1245.54 457.55
2423 0 149.161 9.78809 1460 90.2377 1246.57 455.301
2424 0 153.107 9.64687 1477 94.1137 1246.26 449.966
2425 0 160.239 10.3658 1661 94.1626 1246.83 449.914
2426 0 166.127 10.7629 1788 94.0565 1246.31 448.152
2427 0 171.143 11.0376 1889 94.7586 1246.42 443.037
2428 0 174.309 10.2462 1786 98.6254 1246.04 436.913
2429 0 180.248 10.6021 1911 99.3721 1245.63 435.522
2430 0 186.17 10.7805 2007 100.113 1246.03 433.423
2431 0 190.241 10.8967 2073 100.589 1245.48 431.235
2432 0 198.269 10.5009 2082 99.61 1246.35 425.121
2433 1 37.0156 7.40228 274 75.7518 1245.11 515.737
2434 0 41.0215 8.41023 345 75.0464 1245.79 515.267
2435 0 42.0121 9.49728 399 72.3033 1245.98 514.662
2436 1 214.324 9.65829 2070 109.777 1246.23 417.115
2437 0 223.298 9.93741 2219 108.9 1245.36 418.572
2438 0 232.438 10.1489 2359 106.72 1245.84 416.122
2439 1 29.0238 6.5119 189 77.5714 1245.85 520.561
2440 0 28.0134 4.17658 117 78.2222 1246.2 521.718
2441 0 23.0731 4.63744 107 79.5608 1247.39 516.692
2442 0 17.0036 3.41104 58 73.7586 1247.67 512.017
2443 1 55.0364 9.59365 528 65.9205 1247.44 504.953
2444 0 58.0196 9.96215 578 64.0727 1246.75 505.346
2445 0 60.0427 9.22677 554 65.6209 1247.6 503.91
2446 0 62.0646 10.2474 636 65.0126 1246.64 503
2447 0 64.1376 10.2904 660 65.3621 1247.53 502.264
2448 0 65.1065 10.0297 653 66.0704 1247.1 501.133
2449 0 67.0906 9.77782 656 73.3232 1246.84 498.273
2450 0 70.2271 10.7508 755 81.4689 1244.85 502.494
2451 0 71.175 10.692 761 82.3627 1244.88 501.018
2452 0 75.2309 11.4182 859 80.0175 1244.74 499.985
2453 0 75.1149 10.3308 776 80.3389 1246.58 497.558
2454 0 75.0804 9.56308 718 75.4902 1246.14 492.563
2455 0 80.2303 11.0432 886 84.0655 1245.94 498.237
2456 0 80.1745 10.8513 870 84.4828 1245.29 497.408
2457 0 81.1969 10.8255 879 84.4915 1246.2 496.749
2458 0 87.131 11.1786 974 83.8111 1246.05 495.512
2459 1 47.0504 9.50045 447 82.8054 1245.9 514.36
2460 0 47.1238 10.7377 506 81.8676 1246.21 513.498
2461 0 50.0846 10.642 533 71.546 1245.81 513.67
2462 0 44.0184 9.63235 424 84.6368 1247.6 463.672
2463 0 53.0488 10.7637 571 72.3205 1245.78 511.676
2464 0 54.0944 11.9975 649 74.0478 1245.99 510.712
2465 0 57.0342 12.1681 694 74.7752 1247.43 506.78
2466 0 58.0413 12.7323 739 74.9892 1247.73 508.777
2467 0 61.1072 13.0917 800 74.4112 1247.07 507.728
2468 0 62.0534 13.4078 832 74.6647 1246.67 506.254
2469 0 62.0475 12.7322 790 77.776 1246.13 505.687
2470 0 65.0459 12.791 832 77.0361 1246.91 505.228
2471 0 65.0459 12.2529 797 79.8206 1247.36 504.926
2472 0 66.0952 11.665 771 80.8249 1247.08 504.291
2473 0 68.0911 11.7196 798 80.9173 1247.26 504.846
2474 0 69.1238 12.1521 840 80.5048 1246.84 505.582
2475 0 71.0513 11.6958 831 82.1396 1246.71 502.898
2476 0 73.0482 11.4719 838 82.8067 1246.89 500.344
2477 0 74.0874 11.6214 861 82.8432 1246.68 501.174
2478 0 76.1571 11.6339 886 82.9413 1246.49 500.19
2479 0 81.0792 12.1486 985 81.2173 1245.88 499.505
2480 0 80.0902 11.7992 945 84.1302 1245.55 498.13
2481 0 82.133 12.3824 1017 83.8289 1246.17 496.324
2482 0 86.0999 12.892 1110 82.1928 1246.56 495.968
2483 0 88.0916 12.6686 1116 79.466 1246.12 493.79
2484 0 89.1096 11.9404 1064 83.0254 1246.74 493.961
2485 0 94.1586 12.5427 1181 82.4953 1245.66 492.107
2486 0 96.2255 12.1589 1170 83.5 1244.92 491.51
2487 0 100.14 12.7322 1275 82.1545 1245.49 488.609
2488 0 102.159 12.4806 1275 83.2361 1244.86 486.772
2489 0 104.203 12.5429 1307 83.1959 1245.17 485.718
2490 0 107.242 12.8495 1378 84.1248 1245.26 482.47
2491 1 61.17 10.6915 654 83.0917 1245.14 507.67
2492 0 64.1184 11.3852 730 82.1712 1245.32 506.732
2493 0 62.1104 10.9483 680 82.3838 1245.65 503.929
2494 0 62.1161 10.915 678 139.664 1246.65 504.028
2495 0 68.0878 11.5586 787 83.2706 1245.91 501.196
2496 0 71.1467 11.5817 824 83.2998 1245.19 501.123
2497 0 72.1381 11.2562 812 85.1539 1245.36 499.05
2498 0 73.0371 11.7475 858 84.6608 1245.16 497.727
2499 0 76.0719 11.8178 899 83.4917 1244.86 495.667
2500 0 79.0787 11.7099 926 83.4082 1245.58 495.173
2501 0 82.0818 12.0733 991 81.89 1245.72 494.628
2502 0 83.1173 12.3801 1029 81.3479 1246.3 493.066
2503 0 85.0972 11.7865 1003 83.1286 1246.09 490.522
2504 0 88.0742 12.2056 1075 81.1879 1245.54 488.498
2505 0 89.1637 11.6303 1037 82.4995 1246.14 487.305
2506 0 93.0521 11.5742 1077 81.5265 1245.85 487.818
2507 0 97.0196 11.7605 1141 80.8817 1245.87 485.227
2508 0 99.1148 10.9368 1084 82.0074 1246 481.208
2509 0 103.122 11.7337 1210 80.781 1245.42 480.18
2510 1 53.0305 9.27768 492 76.4573 1244.54 504.541
2511 0 54.0356 9.91939 536 75.6828 1244.83 502.94
2512 0 54.0707 10.4308 564 70.484 1245.28 503.289
2513 0 56.0295 10.3874 582 76.3969 1245.41 502.165
2514 0 57.0243 9.73269 555 78.4522 1245.42 500.193
2515 0 59.0431 10.179 601 75.8935 1244.27 501.642
2516 0 61.026 10.5693 645 75.2605 1245.11 497.453
2517 0 63.0291 10.5507 665 75.3353 1245.09 497.197
2518 0 66.0507 10.3405 683 75.1859 1244.73 494.95
2519 0 67.1021 10.3275 693 75.2742 1244.69 493.317
2520 0 69.0403 10.3418 714 74.6246 1244.9 492.94
2521 0 72.0452 11.1735 805 73.0857 1245.87 490.728
2522 0 74.0625 10.5452 781 73.2842 1246.34 489.316
2523 0 77.1075 10.5048 810 73.3173 1244.93 487.167
2524 0 81.0785 11.1744 906 70.6589 1245.15 487.157
2525 0 85.0555 11.6512 991 69.6418 1244.78 485.655
2526 0 89.061 10.7118 954 71.4895 1245.03 483.527
2527 0 90.1111 10.598 955 72.7508 1245.64 480.543
2528 0 94.1166 10.3807 977 73.6592 1245.26 482.657
2529 0 98.0949 10.8874 1068 71.7294 1244.93 479.965
2530 1 53.0587 9.63084 511 65.728 1245.62 503.133
2531 0 55.0539 10.3717 571 65.2294 1245.69 500.623
2532 0 56.1459 10.2412 575 66.1078 1245.74 499.332
2533 0 55.0981 9.63736 531 66.4595 1244.82 501.121
2534 0 54.0988 9.51962 515 65.8 1245.58 499.004
2535 0 55.1196 10.0509 554 65.9025 1245.09 497.547
2536 0 61.0315 10.0112 611 68.2488 1245.75 502.718
2537 0 61.1171 9.91539 606 69.297 1244.42 500.645
2538 0 63.0709 10.3851 655 67.2687 1244.69 496.008
2539 0 64.054 10.0228 642 68.4844 1244.37 494.941
2540 0 67.0398 10.7846 723 68.5754 1243.99 492.369
2541 0 68.1363 10.5524 719 68.9124 1244.21 490.228
2542 0 70.0327 10.1952 714 69.8655 1244.65 491.057
2543 0 76.082 11.3167 861 68.8223 1244.71 490.89
2544 0 75.0584 10.765 808 72.38 1244.23 489.616
2545 0 78.0857 10.8342 846 75.7128 1245.75 488.92
2546 0 86.1302 11.3433 977 75.1208 1245.01 488.078
2547 0 88.0918 11.7264 1033 75.9216 1245.29 487.228
2548 0 92.143 11.6124 1070 76.0523 1245.2 487.406
2549 0 93.0803 12.0004 1117 77.1038 1244.68 487.047
2550 0 99.0874 12.3225 1221 78.6142 1244.98 486.46
2551 0 99.1007 11.6346 1153 79.5594 1244.71 482.974
2552 0 104.15 12.0499 1255 78.5004 1244.98 483.458
2553 1 55.0808 9.58592 528 73.3352 1245.52 506.081
2554 0 58.1249 9.54841 555 73.2324 1246.54 506.717
2555 0 60.0945 10.8329 651 73.7204 1247.02 504.439
2556 0 61.1208 11.42 698 74.4814 1245.84 503.317
2557 0 65.1083 12.0108 782 73.0537 1245.14 502.478
2558 0 63.058 11.196 706 72.6374 1244.99 498.47
2559 0 66.0702 11.064 731 70.9398 1245.2 497.46
2560 0 62.0814 10.6634 662 74.0287 1244.74 493.036
2561 0 68.0437 11.7425 799 71.3317 1245.55 495.021
2562 0 71.0356 11.3464 806 73.536 1245.87 493.931
2563 0 73.0605 11.8806 868 72.47 1246.27 492.705
2564 0 75.0432 11.5134 864 73.5405 1245.67 491.302
2565 0 74.0987 12.038 892 74.0202 1245.63 489.807
2566 0 78.0385 11.2509 878 76.2597 1245.66 489.271
2567 0 83.0422 11.4279 949 75.4552 1245.16 489.347
2568 0 84.0988 11.9146 1002 75.5828 1245.1 486.807
2569 0 85.1956 11.5264 982 77.5163 1245.25 485.824
2570 0 89.0528 11.6336 1036 77.4102 1245.73 487.184
2571 0 90.1754 12.1985 1100 77.0618 1245.43 484.665
2572 0 92.0988 11.998 1105 78.2434 1245.5 482.708
2573 0 94.1402 12.3008 1158 78.6865 1245.17 482.184
2574 0 99.0634 12.7595 1264 78.2168 1245.82 480.74
2575 0 102.109 12.5943 1286 80.0886 1245.76 479.034
2576 0 105.09 12.3513 1298 82.396 1245.32 478.123
2577 0 107.123 12.0609 1292 87.1827 1245.27 474.607
2578 0 110.041 11.8138 1300 89.2062 1244.98 471.542
2579 0 112.098 11.6148 1302 91.1267 1245.04 470.208
2580 0 118.085 12.2539 1447 89.5232 1245.12 469.798
2581 0 121.098 11.9572 1448 91.7072 1244.96 467.778
2582 0 125.169 12.9984 1627 89.6767 1246.5 465.673
2583 0 130.141 13.7927 1795 90.4072 1246.2 465.211
2584 0 134.143 13.7763 1848 91.2614 1246.55 464.005
2585 0 137.154 13.4302 1842 93.1444 1246.4 463.402
2586 0 140.279 13.352 1873 96.6754 1246.93 460.509
2587 0 146.184 14.6049 2135 92.1124 1246.62 461.494
2588 0 149.182 13.8354 2064 95.6652 1246.48 458.292
2589 0 155.158 13.7795 2138 95.457 1246.41 455.419
2590 0 158.264 13.7618 2178 97.2576 1246.98 453.334
2591 0 162.143 13.4449 2180 98.3284 1246.92 451.466
2592 0 169.262 13.9665 2364 98.247 1247.27 446.184
2593 1 95.0942 10.7788 1025 94.5902 1246.64 483.57
2594 0 100.178 11.5994 1162 93.8021 1246.43 483.107
2595 0 103.122 11.8791 1225 92.8147 1246.28 481.014
2596 0 107.182 12.5954 1350 86.4682 1246.45 477.188
2597 0 111.172 12.782 1421 99.6263 1245.52 477.852
2598 0 112.236 12.5272 1406 100.942 1246.09 475.984
2599 0 116.17 12.6538 1470 101.932 1246.24 472.652
2600 0 122.132 12.7649 1559 101.666 1245.68 471.677
2601 0 124.187 12.5214 1555 102.304 1246.51 470.9
2602 0 128.246 12.8893 1653 102.584 1246.64 468.498
2603 0 132.226 12.8114 1694 101.486 1246.12 465.21
2604 0 136.196 13.1282 1788 100.914 1245.35 462.665
2605 0 138.185 12.5484 1734 103.03 1245.95 461.871
2606 0 143.17 12.9496 1854 101.737 1245.11 460.3
2607 0 146.191 12.6547 1850 103.731 1245.38 458.686
2608 0 152.235 13.223 2013 101.676 1245.03 455.846
2609 0 157.286 12.7983 2013 101.835 1246.08 453.983
2610 1 98.1979 10.6621 1047 97.5989 1245.38 484.718
2611 0 99.1156 11.3706 1127 98.8119 1245.73 480.619
2612 0 102.163 11.7753 1203 96.9684 1245.6 478.774
2613 0 103.101 11.2317 1158 92.0544 1246.11 478.099
2614 0 106.089 11.2736 1196 92.3252 1245.79 475.865
2615 0 111.152 11.5698 1286 94.979 1246.69 477.347
2616 0 112.122 11.318 1269 96.5737 1246.09 475.613
2617 0 118.17 11.8389 1399 96.2459 1246.77 474.455
2618 0 121.193 11.6674 1414 97.5389 1246.29 472.443
2619 0 125.132 11.6437 1457 97.7714 1246.61 469.706
2620 0 130.235 12.4084 1616 97.8484 1245.7 466.91
2621 0 135.258 12.6943 1717 96.5277 1246.33 465.134
2622 0 138.357 12.8508 1778 96.0579 1245.31 461.722
2623 1 76.1135 9.17051 698 94.9971 1246.93 492.282
2624 0 79.1326 10.6783 845 95.1929 1246.59 490.47
2625 0 81.0764 10.9033 884 93.0238 1247.05 489.101
2626 0 72.0732 9.6291 694 81.1888 1246.09 481.853
2627 0 74.0894 9.65051 715 82.4182 1246.52 480.445
2628 0 82.0448 9.90922 813 79.5375 1246.18 481.959
2629 0 83.0873 9.21922 766 81.4752 1246.34 482.957
2630 0 85.0623 9.64 820 81.6366 1245.56 478.194
2631 0 83.0879 9.48393 788 81.4949 1245.42 477.226
2632 1 98.0671 10.7274 1052 78.7719 1246.52 481.825
2633 0 96.0552 9.33838 897 80.2274 1247.08 483.313
2634 0 106.071 10.2667 1089 80.2755 1246.23 473.703
2635 0 108.107 11.1834 1209 79.0074 1246.23 475.602
2636 0 110.068 10.975 1208 79.644 1245.64 469.436
2637 0 114.088 11.5876 1322 78.9977 1246.04 470.508
2638 0 120.079 12.4419 1494 80.9799 1246.15 472.7
2639 0 124.108 12.747 1582 81.1915 1246.79 471.01
2640 0 127.096 12.6991 1614 80.7509 1246.65 468.608
2641 0 128.131 11.6678 1495 80.0401 1245.91 462.441
2642 0 134.154 12.9552 1738 82.7652 1247.35 465.623
2643 0 135.062 12.0093 1622 80.3742 1245.8 460.703
2644 0 136.051 11.3266 1541 86.0999 1246.55 460.199
2645 0 142.112 11.2869 1604 88.3878 1246.5 460.026
2646 0 145.128 11.0868 1609 88.2262 1246.36 454.093
2647 0 150.147 10.2899 1545 89.0654 1245.76 448.441
2648 1 88.2876 11.2473 993 83.8046 1246.17 485.733
2649 0 90.1741 11.4778 1035 83.1024 1245.74 486.813
2650 0 91.1139 9.68019 882 79.9093 1245.36 480.705
2651 0 96.1601 10.7321 1032 77.5465 1246.24 480.911
2652 0 97.1402 10.7577 1045 77.9962 1246.91 478.989
2653 0 101.139 10.8069 1093 78.3916 1246.69 477.618
2654 0 103.201 11.0174 1137 80.9481 1246.82 476.757
2655 0 106.217 11.1564 1185 80.7857 1246.29 474.636
2656 0 108.163 10.891 1178 81.0518 1246.53 472.671
2657 0 113.25 11.9293 1351 76.1414 1246.26 472.184
2658 0 116.315 11.4001 1326 78.3092 1246.38 469.845
2659 0 120.307 11.346 1365 78.9165 1246.37 468.148
2660 1 10.0015 5.69913 57 54.807 1243.54 526.333
2661 0 9.00071 4.11079 37 55.8649 1244.14 526.946
2662 0 10.0006 5.49966 55 59.3455 1244.09 523.964
2663 0 10.0011 4.59951 46 58 1243.02 524.804
2664 0 13.0005 6.4613 84 60.4762 1242.96 523.25
2665 1 142.491 13.3201 1898 85.4136 1246.54 457.386
2666 0 146.463 12.3103 1803 86.513 1245.88 452.108
2667 0 149.5 11.9598 1788 86.915 1245.45 452.273
2668 0 154.532 11.8616 1833 87.3661 1245.04 447.736
2669 0 159.556 11.9394 1905 88.105 1245.38 447.73
2670 0 165.556 12.2919 2035 86.0595 1245.78 445.102
2671 0 169.616 12.0271 2040 85.675 1245.06 445.102
2672 0 175.504 11.9143 2091 85.4395 1245.32 442.979
2673 0 180.718 11.6756 2110 84.8801 1246.66 438.457
2674 0 184.421 11.4249 2107 86.831 1245.81 433.985
2675 0 190.509 11.0493 2105 87.9278 1245.77 430.489
2676 0 195.458 10.8002 2111 87.1165 1245.3 429.39
2677 0 202.327 10.9279 2211 87.0972 1246.46 422.253
2678 0 208.321 11.7031 2438 86.313 1245.54 419.111
2679 0 217.36 12.7806 2778 84.4111 1246.14 412.377
2680 0 222.323 12.3919 2755 85.3147 1245.22 409.688
2681 0 230.436 11.8601 2733 87.5554 1245.88 413.198
2682 1 12.0008 6.41623 77 60.5714 1243 524.091
2683 0 14.0016 6.28502 88 58.0682 1243.38 525.818
2684 0 16.0014 5.7495 92 58.6196 1242.87 524.902
2685 0 13.001 5.15346 67 58.8657 1243.51 523.433
2686 0 14.0021 4.8564 68 60.3824 1242.88 523.912
2687 0 16.0291 8.11024 130 56.1538 1244 524.677
2688 1 285.474 13.4198 3831 87.9253 1245.32 382.221
2689 0 292.566 13.4021 3921 85.24 1245.13 380.847
2690 0 300.438 13.7133 4120 85.8544 1245.17 379.336
2691 0 310.224 14.2993 4436 86.3505 1245.52 374.254
2692 0 320.323 15.731 5039 83.8264 1244.73 368.926
2693 0 330.434 15.3404 5069 87.477 1245.38 359.044
2694 0 342.584 16.0428 5496 86.3506 1245.16 352.164
2695 0 352.526 15.3379 5407 87.8583 1244.5 347.003
2696 1 74.4728 8.33861 621 68.38 1244.76 496.638
2697 0 77.3899 9.48444 734 68.3692 1245.52 493.995
2698 0 82.2166 9.8277 808 69.2475 1244.68 493.812
2699 0 84.2118 10.6755 899 69.0645 1244.64 490.009
2700 0 86.0915 10.5353 907 71.4068 1245.72 492.835
2701 0 90.2004 10.4434 942 70.9671 1246.11 490.479
2702 0 92.1108 10.4331 961 71.5994 1245.14 488.845
2703 0 94.1742 10.247 965 73.742 1246.27 487.119
2704 0 94.1614 9.46248 891 75.633 1245.89 485.715
2705 0 100.117 10.2181 1023 76.0342 1245.95 483.388
2706 0 102.069 10.3656 1058 76.7032 1246.58 482.239
2707 0 103.078 10.2253 1054 77.6252 1246.59 478.72
2708 0 107.136 10.2954 1103 78.4044 1246.4 477.328
2709 0 113.201 13.0653 1479 72.0385 1246.07 470.836
2710 0 113.155 11.365 1286 78.4184 1246.25 470.757
2711 0 116.144 9.53986 1108 83.759 1246.16 473.124
2712 0 120.33 14.0281 1688 72.7364 1246.58 471.511
2713 0 123.178 13.7443 1693 74.2032 1246.62 469.2
2714 0 127.158 13.9983 1780 74.3781 1246.72 466.644
2715 0 130.191 13.726 1787 76.5255 1246.41 465.894
2716 0 134.136 14.6717 1968 75.4131 1247.55 464.035
2717 0 138.158 14.5485 2010 76.7527 1246.08 461.781
2718 0 142.17 13.9832 1988 78.4824 1246.61 459.662
2719 0 146.136 14.3223 2093 79.2045 1246.32 458.258
2720 0 149.234 14.2595 2128 80.0841 1246.46 454.297
2721 0 154.196 13.8979 2143 81.3598 1245.51 452.356
2722 0 154.196 13.8914 2142 154.501 1245.51 452.287
2723 0 161.154 13.5771 2188 84.3638 1246.29 447.902
2724 0 166.275 14.3858 2392 83.0715 1246.36 446.35
2725 0 170.245 14.0092 2385 85.4801 1246.09 441.461
2726 0 175.218 14.3364 2512 84.6481 1246.92 440.662
2727 0 180.126 14.4898 2610 85.023 1245.83 437.369
2728 0 184.276 14.7605 2720 85.518 1245.92 434.027
2729 0 191.275 15.0882 2886 84.4432 1245.46 431.887
2730 0 194.195 14.0477 2728 88.1034 1246.08 428.764
2731 0 202.219 16.0816 3252 82.8343 1245.1 424.366
2732 0 207.379 14.4373 2994 88.5795 1245.96 423.767
2733 0 212.258 14.3599 3048 88.6657 1245.54 417.908
2734 0 219.307 13.8938 3047 89.9442 1245.72 417.092
2735 0 225.286 14.1198 3181 90.8284 1246.29 413.368
2736 1 175.229 11.2082 1964 92.1161 1246.01 443.87
2737 0 181.19 12.1143 2195 90.7663 1245.7 439.959
2738 0 185.311 11.8719 2200 91.7177 1245.89 436.015
2739 0 187.185 11.0105 2061 92.0087 1246.7 431.681
2740 0 194.167 12.2163 2372 90.4199 1246.45 429.762
2741 0 199.195 11.8276 2356 94.3374 1246.84 425.823
2742 1 11.005 4.54339 50 58.32 1245.8 520
2743 0 10.0029 4.59868 46 55.3261 1244.17 519.674
2744 0 11.004 5.54343 61 52.541 1245.48 513.426
2745 0 9.00144 3.88827 35 55.6571 1244.11 520.257
2746 0 13.0482 4.82826 63 60.0317 1244.32 520.46
2747 0 11.0006 5.09062 56 52.8571 1245.38 519.518
2748 0 7 3.71429 26 52.7308 1247.65 517.769
2749 1 174.133 12.5938 2193 90.0219 1246.31 417.378
2750 0 180.264 12.6981 2289 89.0184 1246.22 412.924
2751 0 185.182 12.8198 2374 88.9297 1246.5 408.586
2752 0 190.195 13.2653 2523 88.0115 1246.04 405.103
2753 0 194.253 13.1117 2547 90.1512 1245.98 398.786
2754 0 199.208 12.8861 2567 89.3564 1246.74 396.182
2755 1 213.331 13.5751 2896 85.684 1246.17 398.183
2756 0 209.295 12.9721 2715 88.7941 1246.4 390.577
2757 0 215.204 12.8436 2764 87.9555 1245.95 389.178
2758 1 1 5 5 50 1244.8 514.6
2759 1 13.0053 5.92068 77 48.7403 1244.21 521.234
2760 0 14.0206 5.9912 84 53.369 1244.21 517.964
2761 0 13.0257 6.372 83 55.6024 1243.99 520.566
2762 0 15.0032 6.19866 93 56.086 1243.59 520.194
2763 0 286.39 14.9586 4284 79.4484 1246.04 379.267
2764 0 294.389 15.0957 4444 80.3279 1246.01 374.63
2765 0 303.445 15.3767 4666 80.4426 1245.65 369.509
2766 0 312.576 15.2379 4763 79.7019 1245.59 364.594
2767 1 15.0126 4.59615 69 48.7536 1244.45 520.87
2768 0 17.0252 6.51974 111 48.7838 1244.4 519.387
2769 0 17.0514 6.33378 108 47.7963 1244.92 521.528
2770 1 272.339 11.75 3200 85.6878 1245.96 389.34
2771 0 279.495 12.4582 3482 86.0155 1245.42 385.171
2772 0 287.365 12.1762 3499 88.8771 1245.92 380.914
2773 1 20.0057 6.94804 139 51.7194 1244.25 521.381
2774 0 19.0167 5.94216 113 49.9558 1245.04 522.717
2775 0 18.0185 5.82734 105 50.2 1244.27 521.086
2776 0 19.0318 5.56962 106 48.3396 1245.03 516.698
2777 0 12.0001 2.24999 27 49.3704 1245.59 521.037
2778 0 12.0034 4.66535 56 49.2679 1245.68 517.875
2779 0 9 1.22222 11 50.9091 1246.45 513.727
2780 0 17.0063 4.23373 72 52.5694 1244.86 519.347
2781 0 11.0115 2.99685 33 50.9091 1245.61 515.545
