time division length width area intensity CMx CMy
0 0 56.0424 13.7039 768 87.2943 1180.18 500.908
1 0 58.043 14.317 831 85.4043 1180.99 499.558
2 0 59.0881 14.2668 843 86.5006 1181.11 497.757
3 0 60.0264 13.744 825 87.617 1180.65 498.438
4 0 60.0386 13.9077 835 87.2599 1180.89 497.891
5 0 60.0386 13.9244 836 149.923 1180.9 497.923
6 0 65.0167 14.1041 917 85.301 1180.74 496.178
7 0 64.0571 14.409 923 85.3272 1180.85 496.349
8 0 67.0232 14.9202 1000 83.858 1180.92 495.605
9 0 69.0808 14.36 992 84.6946 1179.85 494.872
10 0 69.0808 14.3745 993 147.283 1178.86 494.894
11 0 73.0199 15.1466 1106 82.7794 1179.99 494.075
12 0 74.0643 14.9465 1107 82.5745 1180.68 494.759
13 0 77.0815 14.6079 1126 90.4707 1180.52 491.558
14 0 79.0625 14.6846 1161 91.205 1180.43 490.531
15 0 82.0691 14.3659 1179 91.1349 1180.68 490.12
16 0 83.0312 14.5126 1205 91.5759 1180.35 489.294
17 0 85.0667 14.6473 1246 90.9478 1179.95 488.5
18 0 87.0446 14.1537 1232 91.3799 1180.1 487.312
19 0 90.0393 14.9935 1350 87.8585 1179.35 487.168
20 0 92.0574 14.1216 1300 89.4638 1179.25 486.576
21 0 93.0313 14.006 1303 91.1381 1179.59 485.063
22 0 97.047 14.0138 1360 89.4875 1180.01 483.616
23 0 99.0971 14.1982 1407 87.8351 1179.29 483.452
24 0 102.12 14.3361 1464 87.7787 1179.71 480.861
25 0 106.273 14.4345 1534 86.4446 1178.85 478.92
26 0 108.105 14.0049 1514 86.965 1179.13 478.997
27 0 113.233 14.2714 1616 84.6089 1178.85 476.394
28 0 115.128 14.0105 1613 84.2697 1178.42 475.3
29 0 117.099 14.1077 1652 83.0145 1178.88 474.605
30 0 122.121 13.5849 1659 83.3297 1177.95 472.681
31 0 124.169 13.1031 1627 84.228 1178.31 470.385
32 0 127.185 14.0504 1787 82.2764 1177.52 470.236
33 0 128.136 13.3608 1712 84.9369 1178.65 467.534
34 0 133.164 13.8927 1850 83.7454 1177.72 465.49
35 0 137.125 13.659 1873 85.7731 1178.35 462.938
36 0 142.154 13.9286 1980 85.2434 1177.92 462.071
37 0 146.152 13.4244 1962 86.8828 1177.96 460.062
38 0 149.158 12.6778 1891 88.0962 1177.33 457.479
39 0 153.13 12.8257 1964 87.6584 1178.07 455.71
40 0 158.152 13.2657 2098 87.194 1177.37 452.291
41 0 161.247 12.9615 2090 87.0014 1177.69 452.413
42 0 161.247 12.9305 2085 160.121 1177.71 452.42
43 0 172.157 14.6669 2525 84.2329 1177.69 444.859
44 0 177.327 14.7129 2609 84.4178 1178.44 444.476
45 0 182.187 14.8144 2699 85.0256 1178.37 441.228
46 0 187.164 14.5487 2723 87.3698 1178.78 437.779
47 0 194.384 13.7769 2678 91.1546 1177.79 435.276
48 0 200.285 13.9851 2801 91.0236 1178.08 434.702
49 0 207.389 14.2438 2954 92.4563 1177.64 430.118
50 0 213.399 14.0019 2988 94.5914 1178.59 428.327
51 0 221.356 14.8765 3293 92.0793 1177.63 422.053
52 0 227.404 13.8564 3151 95.3256 1177.24 416.851
53 0 234.376 13.8794 3253 95.7498 1177.22 412.66
54 0 244.336 14.2509 3482 94.5304 1177.58 409.819
55 0 252.372 14.1735 3577 95.1297 1178.17 408.983
56 0 263.403 14.8821 3920 93.074 1178.84 405.359
57 0 272.425 14.2902 3893 94.9653 1178.53 404.778
58 0 275.334 15 4130 99.5644 1178.19 403.182
59 1 215.167 13.7243 2953 95.4606 1177.75 431.288
60 0 223.204 14.6324 3266 94.4565 1178.73 424.475
61 1 86.0376 12.5178 1077 91.0631 1179.15 487.252
62 0 89.0565 13.6542 1216 89.7377 1178.35 486.85
63 0 92.0835 13.8027 1271 91.0362 1177.47 484.883
64 0 96.0829 13.2386 1272 93.1698 1178.39 482.744
65 0 99.0372 13.5 1337 92.5385 1178.62 482.176
66 0 99.0372 13.4899 1336 166.013 1180.62 482.253
67 0 105.087 13.7791 1448 92.1747 1178.47 478.438
68 0 109.049 13.9938 1526 91.3316 1178.95 475.57
69 0 114.049 14.0115 1598 90.2879 1179.94 474.23
70 0 118.122 14.1294 1669 89.4326 1180.04 472.757
71 0 122.111 13.7416 1678 90.3302 1179.87 471.474
72 0 127.18 13.9724 1777 88.7017 1179.25 467.5
73 0 132.182 14.2077 1878 87.8008 1178.96 465.283
74 0 136.152 14.168 1929 88.6086 1179.78 462.963
75 1 57.0937 11.8227 675 84.0222 1180.25 502.45
76 0 59.1497 12.4937 739 82.7889 1179.13 500.221
77 0 59.0967 11.845 700 81.0614 1179.77 499.653
78 0 59.0506 11.8373 699 78.8469 1180.09 502.104
79 0 64.0108 12.4198 795 76.1409 1180.35 501.848
80 0 65.0226 12.1035 787 77.5832 1180.14 501.202
81 0 68.0252 12.2308 832 77.5192 1180.77 499.331
82 0 69.0634 11.8587 819 78.8132 1179.76 498.094
83 0 71.0814 12.5771 894 78.9362 1180.24 496.322
84 0 74.0663 12.6913 940 79.6915 1179.93 494.952
85 0 77.121 12.4609 961 80.1977 1179.59 494.952
86 0 81.0666 13.8281 1121 78.1597 1179.42 492.851
87 0 83.0742 12.4949 1038 82.1079 1179.61 491.284
88 0 84.0656 12.5021 1051 83.0152 1180.01 491.19
89 0 87.1335 13.1867 1149 83.0392 1180.31 490.359
90 1 46.0245 11.9502 550 86.3291 1180.01 509.202
91 0 47.0617 11.878 559 85.9016 1180.02 508.619
92 0 49.0427 12.275 602 82.51 1179.57 508.465
93 0 50.03 12.4725 624 81.9856 1179.46 507.232
94 0 52.0343 12.9338 673 86.8187 1179.97 505.634
95 0 54.077 12.9075 698 85.9298 1179.15 505.799
96 0 55.0495 12.952 713 86.1304 1178.8 504.857
97 0 56.054 12.7912 717 86.0446 1178.11 504.367
98 0 56.0547 12.2737 688 88.1526 1178.94 502.924
99 0 56.04 13.5439 759 85.1476 1179.4 502.34
100 0 58.0552 12.1608 706 78.3045 1178.07 503.608
101 0 60.0348 12.9758 779 77.8511 1179.39 501.746
102 0 61.0369 12.5662 767 78.9661 1178.65 501.137
103 0 63.0326 11.9462 753 79.9124 1179.53 501.741
104 0 62.0294 11.8815 737 81.4722 1179.21 501.703
105 0 65.0616 12.4344 809 80.6366 1179.83 499.276
106 0 65.0616 12.4344 809 148.468 1180.84 499.336
107 0 70.0374 11.8651 831 80.2262 1178.72 498.126
108 0 71.0468 12.2595 871 78.31 1178.11 496.403
109 0 74.0378 12.6827 939 78.2407 1178.85 494.716
110 0 76.0495 12.3998 943 77.6649 1179.3 493.561
111 0 77.0392 12.591 970 76.4443 1179.19 493.471
112 0 79.0294 12.8307 1014 76.7998 1179.24 491.795
113 0 82.0323 12.361 1014 77.998 1179.67 490.549
114 0 85.0651 12.99 1105 76.3285 1179.18 488.86
115 0 87.0555 13.2329 1152 75.7569 1178.36 489.212
116 0 91.0673 13.243 1206 75.4395 1178.44 486.796
117 0 93.1054 13.3182 1240 75.7064 1177.82 485.013
118 0 95.174 12.8081 1219 77.3519 1178.64 482.184
119 0 100.089 13.4181 1343 75.9211 1178.13 482.401
120 0 100.077 12.9401 1295 81.8 1179.1 478.918
121 0 105.228 13.1334 1382 79.212 1178.99 476.397
122 1 58.1356 11.8 686 75.9504 1178.64 500.618
123 0 61.0903 11.3602 694 76.5259 1178.71 498.99
124 0 61.0956 12.2431 748 75.869 1179.05 497.055
125 0 62.0467 12.3455 766 72.5483 1179.45 499.146
126 0 64.0406 12.5077 801 72.3371 1179.15 499.18
127 0 64.0544 12.2708 786 70.1908 1179.61 498.029
128 0 67.0644 11.6455 781 71.4763 1178.92 497.922
129 0 69.0224 12.5322 865 70.7653 1178.89 496.008
130 0 70.0248 12.1814 853 71.7526 1179.37 495.614
131 0 74.0489 12.9509 959 71.1012 1179.54 494.639
132 0 76.0912 13.0107 990 73.8172 1179.69 493.332
133 0 78.0484 12.646 987 73.9159 1179.07 492.416
134 0 82.0473 12.8097 1051 74.2664 1179.4 491.527
135 0 83.0777 13.2527 1101 74.2434 1179.3 490.142
136 0 89.0557 13.7891 1228 74.2028 1179.5 488.222
137 0 91.0925 13.6235 1241 80.6567 1178.99 486.148
138 0 93.0546 14.1745 1319 79.5163 1179.22 484.782
139 0 98.1002 14.3119 1404 78.1189 1179.01 481.697
140 0 101.129 14.3974 1456 77.6147 1179.13 481.852
141 1 52.0512 11.6424 606 78.3267 1179.39 505.627
142 0 53.0757 12.567 667 77.003 1179.68 503.739
143 0 55.1337 12.8234 707 77.1895 1178.15 501.706
144 0 58.1672 13.2377 770 75.7701 1177.92 502.618
145 0 58.088 12.395 720 71.1375 1177.96 505.311
146 0 59.0815 12.6266 746 70.9853 1178.48 505.056
147 0 59.0574 12.073 713 73.2903 1178.28 503.142
148 0 62.0371 12.8633 798 73.5777 1178.3 502.026
149 0 64.0212 12.4021 794 75.4232 1178.68 501.3
150 0 67.0354 12.5009 838 76.9308 1178.2 499.977
151 0 70.0751 12.8719 902 77.9767 1178.13 497.868
152 0 72.1525 13.8318 998 83.0912 1177.67 497.008
153 0 76.0406 13.9662 1062 83.0612 1177.75 495.406
154 0 78.0752 13.9737 1091 83.3171 1177.41 493.334
155 0 79.1229 13.3716 1058 85.0539 1176.8 492.518
156 0 83.0664 14.1092 1172 82.3814 1177.61 491.72
157 0 86.1141 14.5156 1250 81.0048 1177.1 490.826
158 0 88.0628 14.0241 1235 82.8494 1178.09 489.814
159 0 91.1315 14.1334 1288 83.1809 1178.29 487.901
160 0 95.1628 14.3859 1369 81.0022 1178.75 487.375
161 0 97.1492 14.2358 1383 81.859 1177.94 484.633
162 0 98.0854 13.8349 1357 83.1592 1177.56 484.439
163 0 101.145 13.5746 1373 84.2673 1177.86 482.775
164 0 105.254 13.4627 1417 85.0515 1177.89 480.529
165 1 56.0686 12.3955 695 79.8849 1177.77 504.102
166 0 57.04 12.1844 695 82.4101 1177.91 502.827
167 0 59.035 12.4841 737 84.099 1178.05 502.191
168 0 62.1223 12.749 792 82.5101 1178.72 501.338
169 0 63.0734 12.9056 814 82.3808 1178.72 500.305
170 0 66.0649 12.8661 850 85.8788 1179.01 499.586
171 0 68.0513 12.8726 876 85.1792 1178.73 497.277
172 0 71.0493 12.8221 911 83.8046 1177.87 496.472
173 0 73.1136 12.6926 928 84.4623 1177.44 494.605
174 0 75.0495 13.2712 996 83.1104 1177.54 492.588
175 0 78.0393 12.6218 985 82.8802 1177.73 492.525
176 0 80.0307 13.0825 1047 81.043 1178.57 492.633
177 0 82.0786 12.622 1036 82.36 1178.41 490.409
178 0 84.0656 12.3356 1037 81.5873 1178.52 488.823
179 0 88.049 11.982 1055 80.9175 1178.43 488.6
180 0 91.115 12.7641 1163 78.0017 1177.5 485.528
181 0 93.0802 12.0326 1120 78.1884 1177.52 484.579
182 0 96.043 11.8801 1141 77.8116 1176.96 482.39
183 0 98.0569 11.6463 1142 78.1725 1177.95 480.784
184 0 101.03 11.5906 1171 77.8967 1178.76 480.861
185 0 105.037 13.0526 1371 75.3917 1178.57 478.192
186 0 108.071 11.9551 1292 78.3406 1178.92 477.802
187 0 111.156 11.8032 1312 78.2409 1178.79 473.838
188 0 115.117 11.8662 1366 78.4605 1178.9 473.084
189 0 117.082 10.4542 1224 81.46 1178.44 466.32
190 0 123.155 11.3678 1400 80.5021 1177.8 463.331
191 0 127.084 11.4963 1461 81.4209 1177.72 461.433
192 1 65.1136 8.93822 582 77.3625 1177.33 494.692
193 0 67.0792 9.76457 655 77.2779 1178.14 493.686
194 0 70.0684 8.36326 586 80.3703 1178.16 491.974
195 0 76.0319 11.6398 885 75.0418 1178.55 493.548
196 0 78.0381 10.828 845 76.3538 1178.15 493.278
197 0 80.0861 11.3877 912 75.7544 1178.21 491.289
198 0 83.0653 10.9673 911 76.9693 1178.16 489.115
199 0 87.1303 11.5459 1006 76.3082 1177.31 486.197
200 0 89.1354 11.892 1060 76.4849 1176.99 485.415
201 0 93.1403 11.9282 1111 77.1044 1177.32 484.145
202 0 93.1403 11.8638 1105 134.101 1177.31 484.165
203 0 99.127 12.2469 1214 97.6252 1177.87 480.515
204 1 51.0685 10.5544 539 88.4787 1177.55 506.239
205 0 53.0476 11.2729 598 88.7291 1177.11 504.538
206 0 55.0356 11.1382 613 89.5008 1177.8 503.715
207 0 58.0407 10.8717 631 90.6466 1176.47 503.685
208 0 60.0953 11.8978 715 90.5594 1176.45 501.396
209 0 61.0646 11.8727 725 92.9807 1176.17 500.695
210 0 64.0687 12.2057 782 91.023 1176.74 499.427
211 0 65.0623 12.2037 794 91.5693 1176.75 498.135
212 0 68.1127 12.4059 845 92.6509 1176.87 497.576
213 0 71.0608 12.3556 878 92.8166 1177.53 496.76
214 0 71.0598 11.8914 845 94.2367 1177.35 494.685
215 0 76.1516 13.3943 1020 90.3608 1177.22 492.085
216 0 78.1613 12.1799 952 94.5105 1177.01 489.423
217 0 80.1518 12.2767 984 95.0427 1176.51 488.856
218 0 84.2085 13.1697 1109 93.0559 1176.41 485.827
219 0 85.2456 12.2939 1048 95.7977 1176.21 483.799
220 0 89.2291 12.3838 1105 97.5756 1176.65 482.86
221 0 90.2333 12.7226 1148 97.9068 1176.83 480.621
222 0 94.2146 12.7369 1200 97.995 1176.71 479.462
223 0 97.2794 13.0038 1265 98.2079 1177.08 478.6
224 0 99.1171 12.6013 1249 100.334 1176.59 476.066
225 0 102.26 13.1625 1346 98.7979 1176.37 475.261
226 0 106.311 13.0655 1389 98.5911 1175.71 473.551
227 1 52.1448 10.5284 549 92.8379 1175.93 501.488
228 0 54.186 11.0176 597 91.464 1175.73 501.779
229 0 56.0657 11.2725 632 94.0285 1176.75 501.214
230 0 60.0636 12.8197 770 89.5026 1176.55 500.744
231 0 60.0805 12.4167 746 92.4584 1176.43 499.34
232 0 63.0462 12.2133 770 92.1104 1177.27 499.155
233 0 65.089 12.1372 790 92.1886 1176.58 497.03
234 0 67.1067 12.3833 831 92.6185 1176.38 495.51
235 0 70.1614 12.4285 872 93.3888 1176.64 492.908
236 0 71.1243 12.7383 906 93.9614 1176.03 492.728
237 0 74.1293 12.3028 912 95.614 1176.31 491.556
238 0 76.1475 12.1737 927 95.6969 1175.52 491.229
239 0 79.1787 13.0717 1035 94.1353 1176.08 489.163
240 0 83.109 12.8747 1070 94.5832 1176.21 487.759
241 0 84.1443 13.1441 1106 95.4964 1176.81 487.592
242 0 88.1816 13.2681 1170 96.1658 1176.5 485.945
243 0 89.1804 12.7831 1140 98.2053 1176.03 484.469
244 0 93.1032 13.7804 1283 96.8137 1176.16 484.223
245 0 95.155 13.2626 1262 100.444 1176.45 482.126
246 0 99.1728 13.1689 1306 101.198 1176.69 481.265
247 0 102.161 13.2535 1354 100.806 1176.39 481.206
248 0 105.168 13.5593 1426 101.097 1176.64 479.378
249 0 109.192 13.5724 1482 102.337 1176.41 476.937
250 0 111.119 13.4091 1490 104.263 1176.4 474.619
251 0 115.088 13.9459 1605 103.384 1175.98 473.436
252 0 119.072 14.0168 1669 104.851 1176.63 472.853
253 1 62.0213 11.9636 742 103.794 1176.92 498.105
254 0 67.0317 13.0834 877 99.4299 1177.6 496.147
255 0 68.0758 12.868 876 100.911 1176.41 496.281
256 0 70.0668 12.7307 892 101.12 1176.78 494.14
257 0 73.1379 13.0302 953 100.554 1176.88 493.392
258 0 75.0836 12.9722 974 101.072 1176.38 490.985
259 0 79.1119 13.3735 1058 98.9244 1176.38 490.784
260 0 80.1654 13.3349 1069 99.6838 1176.43 488.715
261 0 83.1414 12.9057 1073 101.784 1176.04 487.904
262 0 87.1263 13.3714 1165 100.577 1175.5 485.124
263 0 91.0796 13.7133 1249 100.6 1175.96 483.616
264 0 92.1307 13.0575 1203 104.791 1175.6 482.5
265 0 94.0875 12.9348 1217 104.979 1175.5 480.448
266 0 98.057 13.0332 1278 105.469 1176.49 478.183
267 0 103.102 13.1617 1357 103.864 1175.92 477.015
268 0 105.132 13.231 1391 106.142 1176.33 474.676
269 1 56.0289 11.4405 641 99.7598 1175.73 501.886
270 0 57.0236 11.7846 672 100.732 1175.66 499.699
271 0 61.0282 11.9289 728 100.497 1175.53 499.967
272 0 63.0254 11.9158 751 101.28 1174.88 498.879
273 0 59.008 10.6596 629 93.3164 1175.84 499.897
274 0 64.0202 11.1371 713 91.3268 1176.26 499.426
275 0 63.0589 10.736 677 93.1994 1176.27 498.093
276 0 66.023 11.0265 728 92.7143 1176.54 496.799
277 0 67.0537 11.2149 752 93.5013 1176.85 496.739
278 0 71.0536 11.4843 816 93.8431 1176.56 493.359
279 0 73.0294 11.2831 824 94.517 1177.37 492.374
280 0 76.0188 11.3788 865 95.2717 1176.68 492.046
281 0 80.092 12.2984 985 92.6589 1176.56 490.172
282 0 82.0173 11.2537 923 94.3369 1176.25 490.58
283 0 82.0166 11.327 929 96.0635 1176.8 488.043
284 0 85.0531 11.0284 938 96.0437 1176.01 488.432
285 0 87.0195 11.2044 975 97.3733 1175.64 486.41
286 0 89.0512 11.2183 999 97.8909 1175.97 484.587
287 1 47.0277 10.2918 484 92.8698 1175.73 506.186
288 0 49.0117 10.7933 529 90.6257 1176.4 504.724
289 0 51.0201 11.5641 590 96.0644 1176.52 501.995
290 0 49.0156 10.4456 512 87.2012 1176.73 504.861
291 0 51.028 10.7588 549 86.9672 1176.06 504.399
292 0 51.061 10.3993 531 87.7815 1176.7 504.782
293 0 53.0293 9.74932 517 88.3675 1176.08 503.288
294 0 56.039 10.5284 590 86.083 1175.64 501.53
295 0 56.0227 10.1566 569 88.2425 1174.77 500.8
296 0 58.035 10.8038 627 85.748 1174.64 499.689
297 0 60.0766 10.8695 653 85.2236 1175.91 499.613
298 0 60.0821 10.7353 645 86.555 1176.15 498.498
299 0 62.1389 10.2834 639 86.8388 1175.87 498.457
300 0 65.0533 10.4376 679 86.0029 1175.87 497.252
301 0 67.1175 10.4891 704 85.3523 1176.32 497.003
302 0 68.0758 9.98886 680 86.8338 1175.87 496.072
303 0 68.1097 9.98389 680 88.5147 1176.48 495.531
304 0 73.1147 10.7092 783 85.834 1175.38 493.806
305 0 75.1384 10.6071 797 85.7955 1175.51 490.374
306 0 75.0884 9.3623 703 87.5391 1175.92 490.367
307 0 80.0864 11.1005 889 84.5343 1177.36 490.408
308 0 82.0589 10.8459 890 85.6202 1177.67 490.697
309 0 84.0756 10.669 897 86.1371 1177.29 489.761
310 0 86.0853 10.9659 944 85.0667 1176.33 486.439
311 0 88.0231 10.8835 958 86.2098 1176.53 486.527
312 0 92.0679 10.9702 1010 86.9446 1176.51 486.198
313 0 93.0601 10.8747 1012 87.33 1175.72 483.853
314 0 96.0855 11.3441 1090 87.1 1175.81 485.398
315 0 97.0542 10.3756 1007 90.2284 1175.93 481.195
316 0 101.032 11.9071 1203 88.744 1176.69 479.589
317 0 105.06 12.1455 1276 89.3566 1176.57 479.088
318 1 50.0776 9.64502 483 90.381 1175.91 509.176
319 0 53.0093 8.88524 471 91.017 1176.48 510.085
320 0 56.0091 9.83769 551 89.7967 1176.3 508.441
321 0 58.0967 9.77681 568 90.1109 1175.09 505.681
322 0 58.0602 10.8164 628 89.2787 1174.59 504.951
323 0 60.084 11.1677 671 87.7228 1174.44 505.274
324 0 62.0455 11.5238 715 86.9315 1174.42 505.81
325 0 63.068 10.9881 693 88.3737 1175.59 505.257
326 0 67.0893 12.1182 813 85.198 1176.4 502.394
327 0 68.0414 11.3901 775 88.4916 1175.04 501.948
328 0 70.0704 12.6872 889 86.6603 1175.68 502.782
329 0 72.0296 12.592 907 88.4267 1175.57 502.432
330 0 69.1148 11.3724 786 97.7252 1175.65 501.94
331 0 73.0593 12.0313 879 96.364 1175.13 500.341
332 0 76.0855 11.5659 880 95.825 1174.85 498.519
333 0 79.1486 11.1815 885 95.1062 1174.57 497.864
334 0 82.0842 11.9877 984 94.5478 1174.43 495.746
335 0 84.1231 11.1503 938 95.9232 1174.95 495.052
336 0 87.0574 11.8772 1034 93.4526 1174.61 493.026
337 0 89.0853 11.3038 1007 93.8123 1174.3 492.369
338 0 92.0958 11.2709 1038 92.9056 1174.79 489.776
339 0 95.0529 11.4883 1092 91.7216 1173.96 486.868
340 0 98.0417 12.1989 1196 89.6589 1174.05 484.032
341 0 105.114 11.968 1258 102.513 1173.64 483.42
342 0 105.087 11.4857 1207 103.73 1173.44 482.305
343 0 110.098 12.2436 1348 100.444 1173.59 480.641
344 0 111.144 12.1824 1354 100.727 1173.44 478.857
345 0 115.126 11.7958 1358 102.406 1173.48 478.158
346 0 121.188 12.3362 1495 98.8963 1172.95 477.316
347 0 125.193 12.0853 1513 98.4739 1173.33 474.096
348 0 128.157 12.1726 1560 99.791 1171.91 472.463
349 0 132.247 11.9171 1576 100.315 1171.97 468.859
350 0 136.127 12.5397 1707 95.6848 1172.58 470.194
351 0 140.186 12.034 1687 96.9052 1173.28 463.561
352 0 142.129 11.8695 1687 98.2134 1173.75 463.22
353 0 148.255 12.9034 1913 96.0774 1173.25 461.551
354 0 151.25 12.1587 1839 96.7689 1173.91 458.946
355 0 157.173 12.6294 1985 95.7375 1172.69 457.134
356 0 161.224 13.2858 2142 95.5976 1173.15 450.754
357 0 165.28 13.1474 2173 96.3884 1174.13 450.188
358 0 171.341 12.8749 2206 98.4982 1173.41 448.319
359 0 175.289 13.1041 2297 99.1228 1173.06 445.601
360 0 182.273 12.8598 2344 99.6668 1172.97 442.089
361 0 186.18 12.7726 2378 100.711 1173.69 439.266
362 0 194.326 12.8804 2503 99.505 1173.68 436.012
363 0 199.334 12.7324 2538 101.524 1173.89 434.567
364 1 104.172 12.9689 1351 104.551 1173.22 480.625
365 0 106.171 12.9508 1375 105.479 1174.18 477.151
366 0 108.157 12.3247 1333 106.134 1174.29 478.209
367 0 113.165 12.7424 1442 104.282 1174.51 475.334
368 0 117.21 12.9341 1516 100.93 1174.11 472.628
369 0 117.194 11.69 1370 100.931 1174.84 467.16
370 0 124.157 12.7097 1578 104.668 1174.37 466.871
371 0 130.199 13.0339 1697 96.2776 1173.53 469.084
372 1 70.1257 11.3083 793 100.038 1174.79 497.946
373 0 71.0714 12.0161 854 98.4895 1175.24 495.523
374 0 72.1597 12.1259 875 98.6891 1174.52 495.099
375 0 75.1217 12.1137 910 97.0945 1175.34 490.999
376 0 80.0896 13.385 1072 93.8713 1175.1 491.952
377 0 78.1138 11.7905 921 98.8317 1175.75 492.432
378 0 78.1138 11.8161 923 167.282 1175.76 492.353
379 0 82.0789 11.8423 972 99.7222 1174.65 489.812
380 0 87.1434 12.3819 1079 97.2576 1174.59 485.768
381 0 89.0212 12.0758 1075 99.4177 1175 484.49
382 0 90.0634 11.8916 1071 100.963 1174.68 482.892
383 0 93.065 12.0131 1118 101.733 1175.33 480.267
384 0 95.1076 12.3124 1171 101.377 1175.07 476.922
385 0 97.2093 12.2005 1186 100.88 1174.95 476.863
386 0 99.0726 12.3546 1224 101.842 1175.42 465.617
387 0 106.176 12.7524 1354 98.5185 1174.86 467.367
388 0 110.159 12.7271 1402 97.2889 1174.9 470.233
389 1 59.0644 9.26108 547 94.2687 1174.39 494.24
390 0 62.0488 10.0566 624 92.5801 1175.06 493.825
391 0 67.0308 10.8905 730 90.5411 1175.58 494.652
392 0 66.1044 11.4365 756 92.3333 1174.73 499.921
393 0 67.065 11.1683 749 92.7824 1174.64 498.065
394 0 70.079 11.2016 785 92.1783 1174.26 496.195
395 0 71.0466 11.8091 839 91.1323 1174.54 495.78
396 0 76.0663 11.9895 912 89.4474 1174.88 494.409
397 0 77.1016 11.4524 883 90.4575 1174.65 494.071
398 0 79.1214 11.4634 907 91.7409 1174.58 493.237
399 0 81.0692 11.5704 938 93.0661 1173.67 490.24
400 0 86.1091 11.4041 982 92.2882 1174.44 488.927
401 0 89.1192 11.6137 1035 92.0396 1173.33 486.591
402 0 92.1731 11.6628 1075 91.534 1174.22 485.795
403 0 94.1355 12.3545 1163 90.2373 1175.14 483.52
404 0 95.1292 11.2899 1074 91.4013 1175.27 483.931
405 0 101.18 12.3937 1254 90.2368 1174.33 480.427
406 1 54.0952 10.5739 572 88.0087 1175.11 502.476
407 0 55.0537 10.8621 598 88.5936 1174.68 501.662
408 0 58.0221 11.4612 665 89.7083 1176.13 502.301
409 0 60.0936 11.7483 706 88.1898 1176.25 500.576
410 0 59.1003 10.3891 614 82.1336 1175.4 502.941
411 0 58.0433 9.7858 568 83.0687 1176.22 502.989
412 0 60.0809 10.4859 630 81.4397 1176.33 501.894
413 0 65.1005 11.1059 723 79.8257 1175.95 499.651
414 0 65.0831 10.9552 713 80.8471 1175.96 499.252
415 0 68.0883 11.6466 793 80.5599 1175.95 497.571
416 0 70.0602 11.3046 792 82.1793 1175.68 497.419
417 0 73.1111 11.4483 837 81.3859 1175.38 495.55
418 0 75.108 11.3304 851 81.7145 1175.07 494.907
419 0 77.1814 11.4924 887 81.7339 1175.81 493.425
420 0 80.227 11.9411 958 81.8612 1176.03 491.367
421 0 82.1438 11.5651 950 82.8621 1176.09 490.572
422 0 85.1426 11.5923 987 82.2888 1175.31 488.779
423 0 87.1272 11.5119 1003 83.7308 1175.52 486.717
424 0 91.2215 11.7626 1073 82.6384 1175.48 485.348
425 1 46.0835 10.3074 475 87.7579 1175.66 508.762
426 0 47.0931 11.6578 549 83.7596 1174.88 506.974
427 0 47.076 11.4921 541 76.6987 1174.89 508.714
428 0 49.2344 11.4351 563 76.1705 1174.39 507.89
429 0 51.064 11.4562 585 75.4034 1173.5 507.554
430 0 53.1717 10.5695 562 77.1139 1175.22 505.813
431 0 53.1736 11.2274 597 76.5762 1175.1 505.596
432 0 53.152 11.2131 596 75.8725 1174.11 503.418
433 0 57.0376 11.5012 656 74.8933 1175.2 504.465
434 0 58.0606 11.7119 680 75.6691 1174.79 502.074
435 0 59.0726 12.2053 721 74.7282 1174.76 502.104
436 0 61.0359 11.3048 690 75.3014 1174 503.377
437 0 63.063 11.2427 709 74.1128 1174.24 500.537
438 0 65.0725 11.9713 779 74.8768 1173.75 499.112
439 0 68.1378 12.0198 819 84.2479 1173.75 497.999
440 0 69.0768 11.5379 797 87.4391 1173.67 495.02
441 0 71.0388 11.4304 812 87.7463 1174.49 495.798
442 0 74.1124 11.9818 888 87.2061 1174.51 492.91
443 0 77.0983 11.4529 883 86.9139 1174.24 492.456
444 0 78.0572 11.799 921 86.987 1174.58 491.746
445 0 80.1208 11.5451 925 87.9438 1173.61 492.228
446 0 84.0898 11.7612 989 87.4024 1174.13 489.963
447 0 84.0898 11.8326 995 144.909 1175.15 489.878
448 0 88.1576 11.8424 1044 89.1906 1174.56 487.466
449 0 93.1359 12.412 1156 88.2111 1174.19 487.473
450 0 95.0393 12.0687 1147 91.0035 1174.94 484.586
451 0 97.1003 11.9464 1160 91.5879 1174.5 483.214
452 0 100.161 12.3801 1240 90.3355 1174.25 482.229
453 0 104.179 12.3825 1290 90.8062 1174.62 480.15
454 0 107.179 13.1836 1413 90.966 1174.1 478.137
455 0 110.186 13.7676 1517 88.7515 1173.9 476.216
456 0 112.16 13.5699 1522 89.2884 1174.63 475.315
457 1 61.091 10.7053 654 90.7492 1174.49 501.087
458 0 64.1073 11.4184 732 89.2842 1174.33 498.333
459 0 66.0945 11.6349 769 87.8778 1175.1 499.821
460 0 68.0201 11.8641 807 88.2181 1176.12 496.906
461 0 71.0565 11.8497 842 83.6496 1175.09 495.759
462 0 73.0965 12.5177 915 82.7519 1174.44 494.537
463 0 76.1228 12.9265 984 80.2124 1174.55 492.331
464 0 80.0812 13.0368 1044 78.932 1174.08 492.205
465 0 81.063 13.0269 1056 80.4773 1174.29 490.926
466 0 83.0505 13.4256 1115 80.2377 1174.8 491.358
467 0 86.1348 12.4108 1069 83.5978 1174.25 488.544
468 0 89.1411 13.3945 1194 82.1064 1175.26 487.025
469 0 90.1133 12.4954 1126 85.1634 1175.56 488.058
470 0 92.0672 12.5017 1151 84.5395 1175.3 487.01
471 0 95.1323 12.9924 1236 84.2443 1174.91 483.703
472 0 97.104 13.1817 1280 83.1953 1174.64 483.281
473 0 102.115 13.3869 1367 83.5567 1174.7 480.276
474 0 103.102 12.8513 1325 84.6657 1175.19 480.426
475 0 107.114 13.4903 1445 84.7391 1174.71 478.215
476 0 113.144 13.9999 1584 83.6414 1175.17 477.058
477 0 115.176 13.4229 1546 87.5259 1175.41 474.147
478 0 118.065 13.3993 1582 89.1922 1175.37 472.741
479 0 121.18 13.3273 1615 88.9814 1175.47 470.894
480 0 125.224 12.817 1605 89.2461 1174.91 468.701
481 1 68.0851 11.3534 773 92.0246 1175.85 497.673
482 0 69.0697 12.2485 846 91.4669 1174.89 496.462
483 0 72.0879 12.5125 902 88.5931 1174.11 495.18
484 0 75.0844 12.6258 948 85.7447 1174.2 493.937
485 0 76.1061 12.3643 941 86.8013 1174.28 493.147
486 0 78.173 12.6642 990 86.8616 1174.61 492.556
487 0 82.0741 12.7446 1046 85.6625 1174.97 491.548
488 0 85.1343 12.4862 1063 86.7498 1174.55 488.72
489 0 86.0789 13.081 1126 86.7256 1174.3 488.164
490 0 88.12 12.4603 1098 89.9335 1174.76 486.929
491 0 92.0867 12.8357 1182 88.8579 1175.24 485.795
492 0 94.1259 13.1526 1238 87.6543 1174.35 484.389
493 0 96.2613 12.7881 1231 88.8952 1174.4 483.673
494 0 100.264 12.5768 1261 99.0825 1173.84 480.821
495 0 104.129 12.7438 1327 98.4152 1174.28 479.745
496 0 108.145 11.836 1280 98.5 1174.19 479.132
497 0 112.181 12.7829 1434 93.9693 1174.26 476.913
498 1 60.0753 10.8031 649 92.0385 1174.21 501.672
499 0 62.0608 10.8603 674 89.3131 1174.94 500.731
500 0 65.1548 11.3576 740 81.273 1173.84 500.286
501 0 66.094 11.9981 793 80.9433 1174.63 499.26
502 0 67.0166 11.9075 798 84.6441 1173.67 498.801
503 0 71.0245 11.9255 847 83.4664 1174.36 497.535
504 0 72.0623 12.6557 912 81.5307 1174.54 495.656
505 0 74.0679 12.2185 905 83.7116 1174.77 495.067
506 0 78.0581 12.2985 960 81.7583 1175.01 494.34
507 0 77.0621 11.2766 869 87.3383 1175.36 493.735
508 0 80.0509 11.6426 932 85.8283 1175.31 493.896
509 0 81.0637 11.7809 955 88.0932 1174.97 489.734
510 0 82.0786 11.1113 912 89.7862 1174.2 490.421
511 0 85.1024 11.4685 976 88.4539 1174.58 489.141
512 0 90.0328 12.14 1093 86.548 1174.21 488.69
513 0 91.1524 11.6179 1059 89.0066 1174.09 487.654
514 0 96.0752 12.0218 1155 87.929 1173.82 486.083
515 0 100.102 12.2575 1227 86.9576 1173.8 484.672
516 0 101.095 11.7118 1184 89.0726 1173.87 484.041
517 0 106.122 12.4008 1316 89.3351 1173.46 482.298
518 0 109.125 11.7572 1283 90.6781 1173.69 480.899
519 0 112.046 12.3521 1384 90.3894 1173.86 477.761
520 0 113.09 11.5218 1303 92.2264 1174.29 476.662
521 0 116.118 12.117 1407 91.1777 1173.51 475.708
522 0 121.138 12.5311 1518 90.1845 1173.78 474.324
523 0 122.06 12.4037 1514 91.0317 1173.2 470.92
524 0 128.149 11.9782 1535 90.9831 1173.42 470.872
525 0 134.141 13.1578 1765 89.4538 1173.97 467.498
526 0 137.125 12.4922 1713 92.4688 1173.61 465.609
527 0 139.118 12.7949 1780 94.3157 1173.83 463.163
528 0 143.183 13.179 1887 92.5851 1172.73 459.737
529 1 75.0815 10.5352 791 90.5537 1172.48 493.947
530 0 76.113 11.1676 850 90.4788 1171.94 491.18
531 0 82.0325 12.6657 1039 92.9846 1172.19 493.205
532 0 80.1081 11.6093 930 89.9688 1173.62 496.644
533 0 83.1341 11.4394 951 90.6351 1173.65 495.185
534 0 85.1461 12.0616 1027 89.5823 1173.85 492.987
535 0 87.1072 11.9508 1041 89.0989 1174.12 492.305
536 0 90.0805 11.8006 1063 92.3086 1175 493.414
537 0 96.1403 11.3064 1087 125.672 1174.43 490.64
538 0 96.1259 12.3796 1190 88.9319 1174.59 490.438
539 0 98.1343 12.4319 1220 89.9574 1173.43 487.692
540 0 101.128 13.0033 1315 90.0563 1173.59 486.607
541 0 103.178 12.2216 1261 91.3624 1173.44 487.225
542 0 109.23 13.6593 1492 89.75 1173.55 483.02
543 0 108.206 12.393 1341 94.9746 1173.67 481.63
544 0 112.14 12.7786 1433 92.5359 1172.76 478.579
545 0 114.21 12.4595 1423 93.9663 1173.75 479.637
546 0 119.185 12.8708 1534 90.38 1173.79 477.624
547 0 120.231 12.5758 1512 91.4954 1173.54 475.786
548 0 126.136 12.7561 1609 91.0205 1173.85 473.481
549 0 129.199 12.1441 1569 92.8993 1173.45 468.361
550 0 134.248 13.2441 1778 94.8886 1173.25 464.323
551 0 138.183 12.9321 1787 92.9384 1172.97 463.769
552 1 72.1639 11.3769 821 96.8855 1172.6 496.239
553 0 74.0681 12.421 920 93.7717 1173.33 494.228
554 0 78.0567 12.5422 979 93.4627 1173.76 494.189
555 0 81.1285 13.3985 1087 91.8822 1173.87 493.625
556 0 79.0561 12.8896 1019 97.5211 1172.92 492.029
557 0 82.095 13.326 1094 97.34 1173.35 491.475
558 0 84.0626 13.1331 1104 97.7953 1173.57 490.284
559 0 85.0731 12.5186 1065 94.3268 1173.48 493.721
560 0 88.1151 12.4383 1096 95.5484 1173.28 492.326
561 0 88.0748 12.4667 1098 96.8124 1173.05 491.076
562 0 91.1009 12.7112 1158 96.5717 1173.29 490.643
563 0 94.1385 13.1827 1241 97.029 1172.18 488.057
564 0 94.1257 12.2921 1157 101.954 1173.14 485.711
565 0 99.0475 13.2058 1308 99.0038 1171.94 485.485
566 0 99.1 13.3098 1319 98.8264 1172.83 485.36
567 0 102.083 13.1657 1344 101.957 1172.27 482.933
568 0 103.065 13.0015 1340 103.079 1172.36 481.024
569 0 108.112 13.0605 1412 101.364 1171.62 481.303
570 0 113.143 13.2664 1501 99.97 1171.78 479.165
571 0 116.124 12.6416 1468 100.687 1171.22 478.33
572 0 121.081 12.5288 1517 99.8016 1171.47 474.67
573 0 124.052 12.4544 1545 100.15 1172.18 473.319
574 0 128.11 12.9108 1654 97.815 1172.56 472.351
575 1 72.0759 11.7238 845 99.4071 1172.73 499.388
576 0 73.131 12.2383 895 99.3106 1172.26 497.739
577 0 75.1928 12.1155 911 99.7881 1172.38 492.18
578 0 77.0492 12.6023 971 102.629 1171.33 494.009
579 0 81.0609 12.3981 1005 102.004 1171.35 492.537
580 0 86.1825 13.7383 1184 101.259 1171.59 493.492
581 0 88.1886 13.3918 1181 101.437 1171.75 493.215
582 0 90.2084 13.3469 1204 102.841 1172.4 491.372
583 0 94.2152 13.8194 1302 100.456 1172.68 490.477
584 0 92.2143 13.3927 1235 168.527 1173.73 489.325
585 0 93.035 12.3932 1153 99.9861 1172.14 488.923
586 0 98.0901 12.0909 1186 100.417 1171.47 487.606
587 0 100.076 11.871 1188 100.884 1171.51 487.262
588 0 103.073 12.6512 1304 102.913 1171.54 483.783
589 0 106.112 12.8166 1360 100.923 1171.8 481.652
590 0 110.104 13.2875 1463 98.7341 1171.66 480.946
591 0 114.083 12.9993 1483 99.1072 1171.93 480.407
592 0 118.145 13.5088 1596 98.5852 1172.57 477.632
593 0 122.119 13.1511 1606 99.6856 1172.77 475.115
594 1 66.1058 10.2865 680 101.124 1172.31 500.218
595 0 70.0653 10.9041 764 99.3442 1172.1 498.488
596 0 71.0445 11.7954 838 99.1874 1171.81 496.887
597 0 75.0497 12.4451 934 97.3897 1171.31 495.237
598 0 79.072 12.4317 983 100.747 1171.48 496.538
599 0 82.1367 13.0879 1075 98.4186 1172.25 495.82
600 0 83.0355 12.597 1046 97.2964 1172.88 493.926
601 0 86.1049 12.6706 1091 97.4363 1171.96 493.045
602 0 84.0879 11.5118 968 85.0568 1172.77 494.546
603 0 90.0673 11.7801 1061 83.4515 1172.41 493.224
604 0 92.0469 11.7657 1083 84.217 1171.65 492.164
605 0 95.1007 12.0714 1148 84.5392 1171.34 489.975
606 0 96.0779 11.1576 1072 86.2313 1172.26 489.584
607 0 99.2266 11.6098 1152 84.6797 1171.5 488.718
608 0 103.215 11.8393 1222 85.7488 1171.8 485.618
609 0 103.116 11.2882 1164 87.5198 1171.6 483.18
610 0 105.087 10.8482 1140 87.4675 1172.51 484.429
611 0 112.27 11.8019 1325 85.0257 1172.58 482.003
612 0 114.163 12.0267 1373 84.0095 1172.31 480.16
613 0 117.12 11.6888 1369 80.7027 1172.16 477.456
614 0 120.096 11.3743 1366 83.2145 1170.84 472.58
615 0 123.135 11.4996 1416 83.5339 1171.72 471.703
616 0 130.142 12.1943 1587 88.1953 1171.13 465.8
617 1 71.0893 10.4938 746 87.7131 1172.06 502.509
618 0 73.1908 10.9987 805 88.4646 1171.59 500.222
619 0 72.1071 9.99902 721 83.8086 1171.55 495.413
620 0 75.0331 10.8352 813 81.8733 1172.35 493.656
621 0 82.0701 11.3805 934 78.3512 1172.45 495.418
622 0 83.0856 11.3738 945 79.2878 1172.69 493.623
623 0 84.0623 11.551 971 80.965 1172.16 491.911
624 0 87.0556 12.1417 1057 79.9111 1170.47 491.131
625 0 91.073 12.4186 1131 79.4138 1171.42 489.499
626 0 92.0492 11.7654 1083 81.6113 1171.94 489.535
627 0 95.0864 11.4948 1093 83.043 1172.18 488.266
628 0 98.1103 12.2006 1197 83.3417 1172.6 486.368
629 0 101.125 11.995 1213 83.6348 1172.51 484.754
630 0 104.234 12.1746 1269 84.6304 1172.74 484.51
631 0 107.11 12.0531 1291 86.038 1172.01 483.574
632 0 110.066 12.2109 1344 86.1577 1172.05 480.34
633 0 113.074 11.7976 1334 86.512 1172.4 478.514
634 0 116.12 12.2545 1423 87.345 1172.78 477.008
635 0 119.074 12.2613 1460 88.0253 1172.5 474.857
636 0 124.156 12.1702 1511 87.4189 1172.55 474.076
637 0 127.22 12.0342 1531 89.6773 1172.84 471.824
638 0 131.288 12.8268 1684 88.2583 1172.72 470.254
639 0 136.19 12.2109 1663 90.9561 1172.85 466.469
640 1 76.1142 11.3382 863 80.0985 1173.25 499.175
641 0 78.0528 11.5179 899 79.2725 1173.17 498.423
642 0 79.0358 10.8432 857 81.4002 1174.03 495.865
643 0 82.0802 11.1842 918 82.1928 1172.55 494.602
644 0 86.1708 11.454 987 82.1104 1173.33 492.491
645 0 87.1101 11.3534 989 84.3893 1173.57 491.261
646 0 92.1156 11.7244 1080 84.9676 1173.6 489.381
647 0 95.188 12.0183 1144 87.3112 1173.84 487.751
648 0 98.1495 11.7779 1156 90.9516 1173.96 487.235
649 0 99.0985 11.867 1176 92.2542 1174.17 483.993
650 0 103.236 11.6432 1202 92.4933 1173.98 481.957
651 0 106.363 12.0155 1278 92.0743 1173.91 478.563
652 0 108.236 11.8999 1288 93.83 1173.06 474.926
653 0 112.162 11.8846 1333 93.9445 1173.46 472.818
654 0 113.24 12.1335 1374 95.3333 1172.92 472.606
655 0 115.26 11.4871 1324 98.2213 1172.89 470.542
656 0 121.377 12.5807 1527 95.1631 1172.54 470.226
657 0 124.341 11.9027 1480 96.3905 1173.1 468.806
658 0 128.381 11.9877 1539 97.7329 1173.11 464.35
659 0 131.301 12.003 1576 98.0013 1173.15 464.03
660 1 73.3431 11.0304 809 93.6947 1173.86 492.21
661 0 76.1487 11.4119 869 92.0104 1174.35 491.243
662 0 76.1997 11.4174 870 93.9678 1174.27 490.702
663 0 81.3877 12.2377 996 90.2821 1173.41 489.989
664 0 82.2172 12.0534 991 94.4722 1174.29 489.166
665 0 85.1615 11.8481 1009 89.2755 1173.16 486.388
666 0 88.1244 12.1533 1071 87.0878 1173.17 488.05
667 0 91.2624 11.7244 1070 88.6888 1172.81 488.521
668 0 94.2131 11.9092 1122 89.6203 1173.42 486.84
669 0 96.1107 12.7041 1221 89.7559 1173.14 485.445
670 0 98.1013 12.5483 1231 90.0885 1173.89 482.981
671 0 100.091 12.2489 1226 92.6941 1174.18 483.43
672 0 103.106 12.5501 1294 92.8362 1174.07 482.41
673 0 107.234 12.5799 1349 93.5671 1173.74 480.54
674 0 109.222 12.5067 1366 98.8455 1173.55 477.551
675 0 114.181 12.4276 1419 100.542 1173.71 474.545
676 0 116.085 12.7579 1481 100.293 1173.25 472.321
677 0 119.161 12.6887 1512 101.949 1173.54 470.847
678 0 122.378 13.2704 1624 100.256 1173.07 466.408
679 0 128.233 13.4676 1727 98.3202 1173.58 465.997
680 0 132.28 13.1615 1741 100.748 1173.02 462.575
681 0 136.28 13.3035 1813 100.321 1173.64 459.359
682 1 73.1498 10.8271 792 93.5682 1173.62 493.65
683 0 77.0746 10.8337 835 90.8503 1173.91 496.246
684 0 78.059 12.055 941 90.0021 1174.03 495.532
685 0 79.0942 11.657 922 92.09 1173.73 494.572
686 0 83.0796 11.7237 974 93.9825 1173.75 493.86
687 0 86.1013 11.7188 1009 94.8949 1174.28 491.791
688 0 88.1126 11.769 1037 94.7445 1173.72 491.624
689 0 91.1888 11.9313 1088 94.0726 1174.33 491.192
690 0 93.1003 11.493 1070 94.857 1174.19 490.042
691 0 97.1055 11.9046 1156 93.2682 1174.9 488.678
692 0 100.086 11.9997 1201 93.249 1174.73 486.315
693 0 101.146 11.8838 1202 93.3777 1174.51 486.595
694 0 105.129 12.1851 1281 93.0398 1173.6 483.365
695 0 109.297 11.6929 1278 93.6103 1174.01 478.67
696 0 112.231 11.512 1292 93.3615 1173.62 477.282
697 0 117.383 11.7904 1384 91.5744 1173.42 475.853
698 0 121.341 12.2382 1485 90.0202 1173.14 475.261
699 1 63.1704 10.4163 658 84.0638 1172.87 503.977
700 0 65.2952 10.4602 683 82.5783 1173.26 499.722
701 0 68.1875 10.9991 750 78.876 1172.58 499.955
702 0 69.0677 11.467 792 78.274 1173.33 501.04
703 0 72.2362 11.6424 841 78.3056 1173.11 499.277
704 0 73.0393 11.528 842 80.5974 1173.33 499.658
705 0 76.0635 11.5956 882 82.5204 1173.39 499.066
706 0 77.1904 11.6077 896 88.6674 1173.03 496.999
707 0 79.0903 11.0254 872 95.4771 1173.14 496.684
708 0 82.104 12.2771 1008 87.4365 1173.95 493.603
709 0 85.2189 11.2416 958 89.9614 1173.94 492.186
710 0 88.1261 12.4935 1101 87.8846 1174.31 488.776
711 0 90.1393 11.338 1022 91.1712 1174.21 485.939
712 0 93.1855 12.2873 1145 88.855 1173.56 484.439
713 0 94.1183 12.0487 1134 90.3501 1173.92 485.128
714 0 96.1728 12.0304 1157 90.9948 1174.01 482.83
715 0 99.2423 12.3435 1225 90.4049 1173.18 483.236
716 0 103.176 12.5804 1298 90.3043 1173.11 481.202
717 0 106.179 12.7144 1350 90.6185 1173.05 478.712
718 0 108.246 12.1575 1316 92.6778 1173.76 478.429
719 0 111.149 12.5597 1396 92.9799 1174.38 476.161
720 0 114.184 12.2346 1397 93.7459 1174.07 475.262
721 0 116.194 12.3586 1436 95.4192 1173.12 471.953
722 0 119.258 11.3367 1352 97.6213 1174.24 471.402
723 0 124.194 12.1987 1515 93.868 1172.35 471.199
724 0 127.189 11.7306 1492 94.3526 1172.68 468.111
725 1 68.0867 10.6776 727 85.2352 1172.33 499.454
726 0 73.0952 11.574 846 84.2364 1172.19 501.532
727 0 71.103 11.4622 815 86.946 1172.56 500.632
728 0 74.1022 11.8215 876 89.2443 1171.82 500.518
729 0 74.1327 11.4524 849 91.3074 1172.48 498.668
730 0 79.0532 11.9793 947 86.7265 1171.7 499.834
731 0 79.1057 11.3772 900 90.4856 1172.39 497.782
732 0 82.0732 11.6603 957 90.4493 1171.54 498.201
733 0 84.0552 11.5281 969 90.2735 1172.11 494.694
734 0 88.0369 11.4384 1007 89.4727 1171.83 493.895
735 0 90.0874 11.7885 1062 89.5443 1171.82 493.609
736 0 92.0739 11.0998 1022 91.184 1172.03 490.751
737 0 94.0972 11.435 1076 90.9721 1172.37 488.822
738 0 99.1813 11.6554 1156 90.3261 1173.26 486.178
739 0 103.256 11.7669 1215 91.1786 1173.29 482.64
740 0 105.177 11.6185 1222 92.3003 1172.91 478.668
741 0 110.212 12.1765 1342 91.2466 1172.37 476.709
742 1 60.1088 9.28317 558 89.5233 1172.42 501.927
743 0 62.0633 10.7632 668 89.9925 1173.56 502.109
744 0 61.1119 10.0144 612 86.3971 1171.69 499.812
745 0 56.1225 9.63963 541 85.2736 1171.63 496.168
746 0 64.1177 11.1514 715 85.5273 1171.55 502.031
747 0 64.1251 9.77777 627 83.185 1171.38 503.539
748 0 67.1048 10.506 705 82.6922 1171.84 501.702
749 0 69.0662 10.6999 739 83.5129 1171.81 501.336
750 0 71.083 10.7339 763 83.6199 1172.45 500.347
751 0 73.1112 10.8191 791 85.4008 1171.43 497
752 0 76.1395 11.1506 849 85.8351 1171.8 497.81
753 0 77.0566 11.5759 892 85.5482 1171.52 496.88
754 0 79.0563 11.106 878 87.8907 1171.25 494.056
755 0 82.0585 11.1993 919 89.6834 1172.29 492.887
756 0 85.0683 11.3203 963 87.7591 1172.06 491.707
757 0 87.0636 10.8426 944 90.5106 1173.21 490.778
758 0 87.0655 10.785 939 91.2598 1173.12 491.012
759 0 89.093 10.663 950 92.9221 1173.47 487.688
760 0 92.1194 10.5624 973 92.8109 1172.72 487.815
761 0 96.059 11.2119 1077 90.8784 1172.59 485.343
762 0 98.0457 11.1377 1092 92.4258 1172.27 483.368
763 0 101.148 11.3201 1145 92.3231 1171.64 483.793
764 0 102.198 10.6363 1087 94.7139 1172.4 479.427
765 0 102.198 10.695 1093 135.659 1172.41 479.511
766 1 54.125 10.5497 571 91.9037 1174.43 492.105
767 0 57.0061 9.17446 523 78.2524 1174.17 496.985
768 0 59.0267 9.38559 554 88.6751 1174.81 497.016
769 0 67.0562 11.1101 745 97.2054 1173.62 501.2
770 0 68.0493 11.0508 752 97.6024 1172.84 501.532
771 0 71.0662 11.7074 832 96.2272 1172.93 499.196
772 0 73.0563 11.5801 846 97.5662 1172.54 500.128
773 0 75.0615 12.1234 910 97.2747 1172.27 499.286
774 0 76.1014 11.2482 856 100.336 1173.01 499.461
775 0 78.0854 11.8332 924 100.282 1173.24 496.633
776 0 78.0906 11.1793 873 103.79 1173.59 496.013
777 0 81.059 11.6458 944 103.52 1173.06 493.323
778 0 82.0714 11.5144 945 148.913 1172.07 493.326
779 0 88.1269 11.699 1031 103.154 1173.24 491.876
780 0 88.1067 11.872 1046 105.556 1173.36 490.734
781 0 90.1025 11.5757 1043 106.258 1171.82 489.693
782 0 93.1329 11.6178 1082 107.322 1171.96 488.043
783 0 96.0901 11.739 1128 105.316 1172.29 487.762
784 0 98.1033 11.6306 1141 105.378 1171.9 484.046
785 0 103.044 10.9759 1131 108.116 1172.77 482.991
786 0 106.126 11.1942 1188 104.894 1172.86 482.947
787 1 56.0491 10.2589 575 99.6261 1173.99 508.581
788 0 57.0358 10.8002 616 98.2532 1173.19 505.726
789 0 57.021 11.2765 643 93.3764 1174.12 505.128
790 0 61.0286 11.978 731 89.8071 1174.12 504.561
791 0 62.0757 12.5492 779 90.4724 1174.01 503.997
792 0 64.047 12.2722 786 102.029 1172.62 501.906
793 0 68.0168 12.3205 838 102.031 1173.45 501.395
794 0 70.0335 12.1656 852 103.36 1173.44 499.209
795 0 71.024 12.4183 882 103.96 1174.19 497.617
796 0 74.0735 12.7306 943 102.972 1173.62 497.862
797 0 75.0384 12.4736 936 104.493 1174.16 497.388
798 0 79.0712 12.6974 1004 103.404 1174.24 496.489
799 0 80.0162 12.9474 1036 104.07 1174.22 495.266
800 0 82.0576 12.5765 1032 105.27 1173.43 496.243
801 0 86.048 12.6209 1086 105.936 1173.21 492.805
802 0 86.0802 12.3489 1063 107.259 1173.01 493.049
803 0 88.1477 12.8307 1131 107.447 1172.61 492.07
804 0 92.0694 13.0336 1200 107.314 1173.17 490.835
805 0 93.0682 12.6789 1180 109.097 1173.73 489.722
806 0 96.0782 12.8749 1237 106.168 1173.99 489.487
807 0 98.135 12.5134 1228 105.866 1173.69 488.497
808 0 101.176 12.2558 1240 96.3202 1173.24 485.562
809 0 103.198 12.0448 1243 98.1319 1173.54 484.221
810 0 106.14 12.7756 1356 97.66 1172.95 483.956
811 0 109.306 12.0579 1318 99.1472 1172.93 482.394
812 0 114.189 12.6107 1440 106.211 1172.99 480.872
813 0 118.21 12.0549 1425 109.733 1172.65 478.436
814 1 61.1 11.0638 676 106.441 1173.11 506.138
815 0 64.1534 12.0648 774 104.366 1173.38 503.317
816 0 65.0421 12.023 782 103.41 1173.83 505.311
817 0 67.0635 12.4807 837 94.9558 1174.39 504.407
818 0 69.0989 11.7513 812 97.447 1173.92 502.655
819 0 71.13 12.7091 904 95.5188 1174.17 502.332
820 0 72.1356 12.7676 921 95.1064 1173.64 501.599
821 0 75.108 12.1292 911 96.5027 1173.43 499.643
822 0 78.0612 12.3365 963 96.811 1173.39 497.579
823 0 81.1072 12.6992 1030 95.6689 1172.93 497.929
824 0 81.1114 12.563 1019 97.3798 1172.84 496.26
825 0 85.2162 12.967 1105 94.4751 1173.21 497.53
826 0 84.2121 13.2404 1115 125.056 1173.19 497.721
827 0 91.1972 13.2241 1206 93.4801 1172.81 496.086
828 0 92.1538 13.076 1205 94.0581 1172.75 492.836
829 0 95.2326 13.5143 1287 91.8609 1172.9 492.769
830 0 95.2046 12.5309 1193 95.8139 1172.86 494.589
831 0 99.2009 12.4696 1237 96.1593 1172.89 490.943
832 0 100.246 12.609 1264 94.9565 1172.89 490.712
833 0 105.151 12.0493 1267 95.9558 1172.27 490.421
834 0 107.082 12.4671 1335 97.0352 1172.98 488.924
835 0 111.283 12.913 1437 96.3347 1172.33 488.02
836 0 115.163 13.1987 1520 96.2388 1172.94 484.726
837 0 118.216 13.2892 1571 97.7295 1171.92 482.446
838 0 119.267 12.8451 1532 97.6012 1171.83 481.013
839 0 125.145 12.7452 1595 96.1781 1171.28 480.369
840 0 126.058 12.7005 1601 96.0481 1171.78 476.28
841 0 134.149 13.6043 1825 95.3173 1171.65 473.27
842 1 77.0984 12.0236 927 95.4822 1171.51 502.324
843 0 80.2405 12.4127 996 94.989 1171.59 498.915
844 0 81.2369 12.9375 1051 92.6518 1171.82 498.069
845 0 84.1075 13.1261 1104 91.2473 1171.87 495.4
846 0 82.0886 12.3403 1013 94.0158 1170.89 494.869
847 0 86.1948 12.4717 1075 93.7228 1171.47 493.532
848 0 89.0797 12.5506 1118 93.5501 1170.63 491.665
849 0 91.1053 12.2935 1120 93.9795 1171.82 489.318
850 0 93.2048 12.0595 1124 94.2313 1171.24 488.274
851 0 98.1403 12.5331 1230 93.335 1172.04 485.726
852 0 99.196 12.813 1271 92.9371 1172.22 484.339
853 0 103.166 12.8628 1327 92.6654 1172 481.343
854 0 105.067 12.9251 1358 94.2246 1171.64 476.515
855 0 107.083 12.7285 1363 96.1607 1171.68 469.941
856 0 109.098 13.0433 1423 95.1602 1171.08 466.556
857 0 112.118 11.9785 1343 95.5182 1171.03 472.047
858 0 118.163 13.2444 1565 92.2562 1171.15 466.401
859 0 124.095 13.2157 1640 91.1878 1171.3 464.776
860 0 126.148 13.2781 1675 91.2866 1171.93 465.967
861 0 132.131 13.4336 1775 90.5234 1171.49 463.713
862 0 135.193 13.3069 1799 91.7799 1172.39 460.884
863 0 142.24 14.3068 2035 88.7631 1172.29 459.951
864 0 144.13 13.467 1941 91.4333 1172.41 456.321
865 0 149.177 13.3533 1992 92.9302 1171.68 455.648
866 0 153.17 13.6058 2084 95.4012 1172.34 448.735
867 0 158.161 13.8467 2190 94.2479 1171.59 446.434
868 0 164.19 13.6854 2247 94.2679 1171.47 444.396
869 0 169.186 13.098 2216 95.8849 1172.07 442.079
870 0 173.2 13.5277 2343 97.318 1171.76 439.274
871 0 180.3 13.6162 2455 96.688 1171.67 436.909
872 0 185.277 13.5257 2506 96.2718 1172.27 436.826
873 0 189.246 12.7559 2414 98.0278 1172.37 433.053
874 0 194.3 12.5064 2430 99.3691 1172.87 430.434
875 0 202.278 13.1156 2653 98.1459 1172.89 426.23
876 0 208.264 12.8539 2677 97.8685 1172.7 428.609
877 0 216.204 12.849 2778 97.4374 1171.78 425.473
878 0 224.202 13.7777 3089 94.8679 1171.61 421.306
879 1 175.211 13.0471 2286 93.7454 1171.89 447.191
880 0 181.134 13.294 2408 93.5893 1171.73 443.722
881 0 184.142 12.9628 2387 94.2396 1172.13 441.18
882 0 189.229 12.7412 2411 94.1904 1172.38 438.305
883 0 195.253 12.6502 2470 93.964 1172.81 437.62
884 0 202.221 13.1688 2663 92.2452 1173.07 436.023
885 0 209.417 13.2893 2783 90.5986 1171.52 428.623
886 0 216.338 12.9289 2797 91.0393 1172.77 426.782
887 0 223.422 13.9199 3110 90.944 1171.46 422.707
888 0 231.443 13.8824 3213 90.5107 1170.99 417.782
889 0 237.511 13.612 3233 92.5837 1171.54 413.713
890 0 246.481 13.6481 3364 93.1953 1172.01 407.623
891 0 246.475 13.6687 3369 164.679 1173 407.517
892 1 287.501 7.62084 2191 96.1063 1171.67 439.473
893 0 284.324 7.64974 2175 96.2276 1172.59 437.774
894 0 285.492 17.0477 4867 84.7249 1171.79 381.189
895 0 289.366 13.6505 3950 93.3433 1171.54 388.347
896 0 298.458 16.0826 4800 87.7602 1171.06 380.865
897 0 308.279 16.3067 5027 87.1247 1171.81 375.948
898 0 318.268 16.794 5345 86.6776 1171.26 369.24
899 1 250.258 13.9816 3499 92.3784 1171.24 412.124
900 0 256.3 13.5466 3472 95.515 1171.23 406.048
901 0 260.408 13.3905 3487 95.8027 1171.72 402.157
902 0 268.357 13.497 3622 95.6044 1172.9 399.749
903 0 278.294 14.977 4168 93.0413 1172.24 394.914
904 0 285.344 13.9796 3989 94.8774 1173.44 392.291
905 0 293.236 13.808 4049 95.8405 1173.2 384.541
906 1 229.316 12.7858 2932 96.3018 1172.88 418.271
907 0 237.283 13.3048 3157 95.1397 1172.69 403.512
908 0 246.256 13.9367 3432 93.1874 1172.84 402.892
909 0 255.298 14.2892 3648 92.7697 1173.48 400.855
910 0 262.339 15.2322 3996 91.7377 1173.64 398.085
911 0 270.342 14.4188 3898 94.5493 1173.61 388.575
912 0 280.432 14.5133 4070 94.9435 1172.41 383.524
913 1 303.475 21.7053 6587 78.0308 1173.03 360.516
914 0 308.338 19.9522 6152 81.7653 1173.02 359.63
915 0 312.397 15.4515 4827 93.063 1172.68 365.881
916 0 324.309 15.8676 5146 93.104 1171.91 365.646
917 0 329.62 16.0276 5283 91.7448 1171.7 354.561
918 0 339.335 15.9371 5408 93.2147 1172.32 348.843
919 0 351.162 16.3828 5753 91.6513 1172.15 344.252
920 0 360.39 15.6136 5627 95.2643 1172.12 338.409
921 0 369.354 15.1968 5613 97.8103 1172.38 334.14
922 0 380.328 15.9783 6077 94.8776 1172.57 331.792
923 1 198.332 9.08074 1801 96.0411 1171.62 446.714
924 0 200.271 10.2411 2051 94.3896 1172.12 444.905
925 0 200.288 11.4235 2288 94.4406 1171.01 438.834
926 0 201.279 12.515 2519 91.8245 1171.03 435.286
927 0 207.251 12.4969 2590 91.3143 1171.82 422.893
928 0 213.301 13.0192 2777 87.2632 1171.65 425.59
929 0 222.298 13.4144 2982 86.438 1172.11 423.428
930 0 227.25 13.3686 3038 87.8667 1171.77 420.546
931 1 66.1644 8.41842 557 74.6679 1171.08 505.792
932 0 67.1619 9.38031 630 74.5127 1170.63 504.235
933 0 67.1794 9.25879 622 75.4807 1170.2 504.474
934 0 69.1632 10.5258 728 72.4712 1170.04 505.674
935 0 67.2209 10.4134 700 74.4971 1170.58 504.77
936 0 70.185 10.9852 771 74.773 1170.03 501.925
937 0 72.2133 11.7568 849 74.914 1170.45 503.351
938 0 74.1188 11.4681 850 75.9965 1170.82 502.444
939 0 74.0738 11.232 832 78.8846 1171.16 502.493
940 0 79.0862 12.8973 1020 71.2667 1170.03 498.076
941 0 80.1146 11.7082 938 73.8998 1169.88 498.931
942 0 81.121 12.0807 980 75.0806 1170.68 499.404
943 0 82.0685 11.9412 980 76.8939 1169.15 499.622
944 0 87.114 12.7764 1113 75.3702 1169.63 497.909
945 0 89.0803 12.326 1098 86.7423 1170.36 495.641
946 0 92.1407 12.8716 1186 86.8027 1169.28 493.176
947 0 95.1031 12.9544 1232 85.9894 1169.83 492.55
948 0 98.1369 13.0022 1276 85.8292 1170.24 490.191
949 1 53.0358 11.068 587 81.753 1169.79 510.842
950 0 54.0852 11.3525 614 86.5961 1169.55 509.062
951 0 56.1001 12.549 704 87.2841 1171.26 508.615
952 0 55.1581 12.0381 664 87.1235 1171.13 512.267
953 0 60.1255 13.056 785 93.856 1169.49 510.98
954 0 61.1142 12.9921 794 95.7998 1170.06 509.766
955 0 59.0131 11.9804 707 79.5191 1169.64 512.298
956 0 58.131 11.3881 662 79.8112 1170.55 512.447
957 0 62.0365 12.4765 774 77.9083 1171.29 510.286
958 0 64.0512 12.8023 820 78.739 1171.74 508.937
959 0 64.0276 11.62 744 81.2608 1170.78 507.988
960 0 65.0797 11.7241 763 80.8519 1171.85 507.094
961 0 67.0654 11.9734 803 80.6339 1170.83 506.956
962 0 70.0663 12.5595 880 78.892 1171.59 505.351
963 0 71.0838 11.9858 852 80.1455 1170.47 505.485
964 0 73.0671 12.0164 878 79.3144 1171.32 504.205
965 0 75.1179 12.5403 942 80.1019 1171.24 503.121
966 0 77.0869 12.8945 994 80.0724 1171.31 500.902
967 0 80.1273 12.5051 1002 80.8762 1171.34 499.765
968 0 82.0556 12.7231 1044 81.6561 1173.29 499.407
969 0 82.0556 12.6865 1041 147.391 1175.29 499.506
970 0 88.1267 12.4707 1099 83.2575 1172 494.644
971 0 89.1009 13.1649 1173 82.8875 1172.85 492.402
972 0 92.0604 13.1001 1206 82.3872 1173.27 492.171
973 0 97.2635 13.047 1269 83.6115 1172.45 488.093
974 0 100.211 13.6912 1372 87.5743 1171.7 487.864
975 0 103.127 13.2749 1369 90.0015 1171.71 485.709
976 1 59.0527 11.7861 696 89.2198 1171.11 509.03
977 0 61.0633 12.397 757 80.1347 1171.82 508.007
978 0 62.0714 12.7917 794 78.5617 1171.93 506.858
979 0 62.0641 12.2132 758 89.0198 1173.01 507.36
980 0 65.0466 12.8831 838 88.9714 1173.45 506.307
981 0 65.0305 11.6561 758 90.9749 1172.19 506.121
982 0 66.0985 11.6947 773 83.6261 1172.54 503.811
983 0 70.0389 12.5645 880 81.1341 1171.81 503.39
984 0 71.1194 12.1345 863 82.5307 1172.33 500.721
985 0 73.0888 11.9033 870 82.3023 1172.97 499.731
986 0 76.054 11.4918 874 83.5892 1171.96 499.502
987 0 79.1194 12.6138 998 81.8146 1173.38 497.826
988 0 81.0587 12.6328 1024 82.2559 1173.72 496.773
989 0 83.1494 11.762 978 82.9622 1172.88 494.229
990 0 87.0671 11.7266 1021 77.7238 1172.68 492.132
991 0 89.1468 11.8008 1052 79.385 1172.13 489.143
992 0 93.1567 12.0657 1124 79.5374 1172.08 489.387
993 0 94.163 12.1173 1141 80.1288 1172.68 488.012
994 0 98.2352 12.8264 1260 83.0238 1172.52 489.675
995 0 101.048 12.8454 1298 84.2111 1172.79 486.6
996 0 104.154 12.5871 1311 86.7902 1173.58 484.522
997 1 61.079 11.788 720 80.8917 1173.62 508.081
998 0 62.143 11.7793 732 82.8169 1173.74 507.486
999 0 65.1775 12.3049 802 91.6733 1173.44 505.239
1000 0 68.1107 12.3622 842 89.8884 1173.24 503.483
1001 0 69.1221 12.3549 854 90.3173 1172.06 503.081
1002 0 71.2121 12.3153 877 89.6659 1172.25 502.339
1003 0 73.1223 12.7047 929 87.6082 1172.46 500.221
1004 0 77.1029 12.7881 986 86.2617 1173.04 499.143
1005 0 77.111 12.5404 967 88.8428 1174.47 497.652
1006 0 80.1455 12.2902 985 88.0487 1173.61 498.183
1007 0 82.1693 11.7927 969 89.4438 1174.53 496.484
1008 0 83.152 12.4711 1037 88.3173 1174.08 494.646
1009 0 87.1167 11.7773 1026 88.7183 1174.42 492.798
1010 0 90.1188 12.6389 1139 86.8762 1173.69 491.249
1011 0 92.0873 12.0538 1110 87.736 1172.7 488.419
1012 0 95.1516 12.2752 1168 86.3964 1171.78 486.968
1013 0 98.0623 11.5539 1133 87.4563 1172.08 485.129
1014 0 101.174 11.5346 1167 87.9803 1172.33 485.453
1015 0 105.149 12.4395 1308 85.8662 1172.39 481.886
1016 0 109.104 12.0069 1310 84.7344 1174.62 481.78
1017 0 110.07 11.6471 1282 86.8487 1173.57 480.463
1018 1 62.1775 10.277 639 79.8842 1174.46 507.304
1019 0 61.2008 10.7351 657 82.4627 1174.57 505.234
1020 0 64.1104 10.6691 684 75.133 1174.46 504.06
1021 0 66.0701 10.9278 722 75.1316 1174.27 505.255
1022 0 67.0444 10.9331 733 75.7381 1174.51 503.81
1023 0 70.053 10.8061 757 75.7873 1174.64 502.919
1024 0 74.0696 11.5297 854 75.1194 1174.29 499.272
1025 0 76.0386 11.3758 865 77.1387 1173.18 496.413
1026 0 78.052 10.8646 848 80 1173.59 496.338
1027 0 79.0855 10.7226 848 81.112 1173.43 495.236
1028 0 86.07 11.4442 985 78.5594 1172.82 492.031
1029 0 87.0855 11.2648 981 79.1723 1172.92 489.891
1030 0 91.1033 11.4266 1041 78.9914 1172.88 488.246
1031 0 95.1286 11.8366 1126 78.7869 1174.47 487.331
1032 0 97.2319 11.3234 1101 80.7684 1173.92 483.272
1033 0 100.142 10.9844 1100 81.4773 1173.34 483.557
1034 0 104.12 11.2275 1169 80.6818 1173.96 482.544
1035 0 108.132 11.8559 1282 80.0289 1172.84 479.572
1036 0 108.128 11.6344 1258 81.0604 1173.52 478.697
1037 1 55.0216 10.2505 564 72.2713 1174.22 508.261
1038 0 57.0854 10.3004 588 72.4354 1173.03 508.022
1039 0 58.0754 10.2625 596 73.1829 1173.51 507.159
1040 0 60.0512 10.1913 612 73.5245 1173.45 506.221
1041 0 63.1447 10.4205 658 73.6094 1173.78 504.523
1042 0 63.0474 10.1194 638 74.8072 1173.6 504.011
1043 0 66.0896 10.6976 707 74.3932 1173.61 504.371
1044 0 66.0796 10.1544 671 76.6602 1174.18 501.343
1045 0 69.0616 10.8888 752 77.0133 1173.77 501.207
1046 0 73.0787 11.6176 849 81.8422 1173.71 496.516
1047 0 74.102 11.0388 818 82.8472 1172.87 496.922
1048 0 77.1025 10.3239 796 84.1093 1173.12 497.279
1049 0 79.1147 10.9335 865 83.163 1173.61 494.164
1050 0 83.1235 11.4288 950 81.0937 1174.14 493.632
1051 0 86.1056 11.1027 956 80.1632 1173.65 492.551
1052 0 87.0189 9.94037 865 82.1434 1174.35 490.499
1053 0 93.0762 12.3447 1149 77.141 1174.91 490.864
1054 0 94.0612 11.3756 1070 82.9813 1174.63 490.21
1055 0 97.2548 11.5778 1126 85.1403 1173.68 485.02
1056 0 102.307 11.9346 1221 84.8419 1174.05 484.916
1057 0 103.25 12.5812 1299 76.8776 1174.4 485.36
1058 1 57.0618 11.1458 636 85.2547 1173.53 505.563
1059 0 60.0824 11.5508 694 85.3069 1173.49 504.84
1060 0 61.0905 12.1787 744 86.9314 1173.38 505.254
1061 0 61.0905 12.1787 744 147.156 1173.39 505.309
1062 0 65.119 12.9609 844 96.6185 1173.42 503.847
1063 0 64.0661 12.1437 778 89.8226 1172.5 505.296
1064 0 67.0904 11.7155 786 91.2557 1173.14 504.303
1065 0 69.0664 12.1912 842 91.1924 1173.2 503.312
1066 0 69.0993 11.9972 829 94.3462 1173.01 501.314
1067 0 73.086 12.0269 879 95.0046 1172.7 499.231
1068 0 75.066 12.2426 919 95.8172 1172.46 498.515
1069 0 77.045 12.5122 964 95.4201 1172.56 498.81
1070 0 81.1046 12.4777 1012 95.9358 1172.38 496.321
1071 0 83.0729 12.6636 1052 97.1112 1172.81 495.707
1072 0 86.0586 12.5263 1078 99.1002 1172.93 493.842
1073 0 91.0587 13.1564 1198 96.1436 1173.43 492.124
1074 0 91.1067 12.4469 1134 99.306 1172.87 492.079
1075 0 95.0818 12.4524 1184 99.4797 1173.4 490.079
1076 0 100.101 12.9369 1295 97.2888 1173.9 489.205
1077 0 103.091 12.3968 1278 100.721 1174.54 486.984
1078 1 58.0968 12.0144 698 101.931 1173.39 508.135
1079 0 59.129 12.7856 756 99.8466 1173.52 507.587
1080 0 60.137 12.854 773 99.511 1173.03 504.904
1081 0 60.137 12.8872 775 150.914 1173.03 504.881
1082 0 59.0509 12.7686 754 98.2851 1173.08 506.513
1083 0 64.0802 12.8901 826 96.3959 1173.08 505.752
1084 0 64.1196 12.5859 807 98.3668 1172.92 503.502
1085 0 65.0979 12.2892 800 100.251 1173.8 503.762
1086 0 68.1704 12.7768 871 97.5339 1173.8 500.998
1087 0 70.099 13.1528 922 96.7733 1173.95 500.286
1088 0 73.0406 12.4588 910 98.3934 1173.41 498.298
1089 0 75.1023 12.4896 938 109.47 1172.8 497.467
1090 0 79.0702 12.9126 1021 107.487 1172.36 496.769
1091 0 80.0917 13.0351 1044 108.201 1172.37 494.459
1092 0 82.0921 12.7174 1044 109.913 1173.28 491.993
1093 0 87.0806 13.1028 1141 107.33 1173.61 488.879
1094 0 91.1042 13.5998 1239 104.031 1173.75 488.396
1095 0 92.0707 13.5548 1248 105.269 1173.95 488.606
1096 0 96.1319 14.4177 1386 104.789 1172.86 485.425
1097 0 99.1768 13.9145 1380 104.42 1173.23 485.537
1098 0 98.0343 13.2607 1300 104.06 1172.82 484.806
1099 0 102.078 12.9411 1321 103.917 1174.26 485.715
1100 0 108.107 13.8845 1501 99.2738 1174.09 481.811
1101 0 110.105 13.4327 1479 103.087 1173.03 471.904
1102 0 114.076 13.0351 1487 99.9919 1173.89 470.123
1103 0 119.112 13.0969 1560 101.529 1173.19 470.012
1104 0 122.128 13.273 1621 100.08 1173.46 471.584
1105 0 121.093 12.5358 1518 102.322 1173.45 470.453
1106 0 130.086 13.1221 1707 99.3638 1173.18 472.83
1107 1 71.0435 12.7246 904 100.586 1173.69 499.966
1108 0 72.1014 12.5934 908 101.906 1173.01 496.953
1109 0 74.0782 12.3653 916 102.782 1173.44 497.087
1110 0 77.0524 13.3675 1030 101.455 1172.55 495.622
1111 0 80.0787 12.7125 1018 104.566 1173 494.024
1112 0 82.0904 12.5593 1031 105.288 1172.9 493.151
1113 0 86.1322 13.7811 1187 102.856 1173.04 489.281
1114 0 86.1544 13.8472 1193 159.394 1173.05 489.243
1115 0 89.079 13.1344 1170 108.296 1173.76 487.746
1116 0 92.1476 12.99 1197 109.35 1173.06 484.754
1117 0 93.1679 13.2556 1235 110.44 1173.27 482.194
1118 0 98.1879 13.4945 1325 108.653 1172.62 481.907
1119 0 96.1034 12.9964 1249 112.503 1172.14 476.408
1120 0 103.205 13.0808 1350 110.612 1172.93 477.288
1121 0 109.257 13.5095 1476 109.207 1173.19 477.64
1122 0 113.12 13.5166 1529 107.307 1173.26 475.318
1123 0 115.119 13.2298 1523 108.229 1172.67 474.098
1124 0 124.268 13.5513 1684 107.903 1173.45 472.046
1125 1 66.0913 11.4236 755 104.506 1172.41 495.399
1126 0 67.1919 11.4002 766 106.736 1173.25 495.621
1127 0 73.1512 12.6997 929 105.844 1172.24 495.843
1128 0 73.0894 11.9306 872 106.72 1172.36 498.984
1129 0 76.0734 11.9621 910 107.071 1172.11 496.371
1130 0 81.0438 12.265 994 105.637 1172.03 495.892
1131 0 83.1175 12.753 1060 106.518 1171.6 493.995
1132 0 85.1269 12.8279 1092 107.482 1172.55 492.869
1133 0 88.0804 12.341 1087 108.489 1171.88 491.648
1134 0 90.0961 12.7641 1150 107.542 1172.62 489.912
1135 0 94.046 12.7278 1197 107.41 1172.23 487.501
1136 0 96.0971 12.529 1204 108.906 1173.1 487.869
1137 0 97.0704 12.6918 1232 109.752 1172.33 485.7
1138 0 100.103 12.4772 1249 110.154 1172.9 483.062
1139 0 103.108 12.8894 1329 109.932 1171.91 483.157
1140 0 108.108 13.2553 1433 108.1 1172.3 480.976
1141 0 110.169 13.2615 1461 107.878 1171.85 480.471
1142 0 113.072 12.6468 1430 108.378 1171.04 476.935
1143 0 118.096 12.9894 1534 106.968 1171.78 475.186
1144 0 122.108 13.226 1615 106.448 1171.48 473.087
1145 0 125.161 12.9033 1615 109.313 1171.9 468.387
1146 0 132.114 13.1931 1743 106.139 1172.18 467.862
1147 1 70.2008 10.3703 728 104.299 1171.81 498.227
1148 0 76.1095 12.1273 923 99.8364 1171.95 497.048
1149 0 79.1669 11.8863 941 89.7875 1172.09 495.965
1150 0 80.1885 12.1963 978 89.7178 1171.63 494.669
1151 0 79.1681 11.1661 884 88.7523 1170.88 497.831
1152 0 81.1712 11.5558 938 88.9008 1170.69 494.648
1153 0 85.1685 11.671 994 89.3954 1170.53 493.725
1154 0 88.1078 11.781 1038 89.2148 1170.62 491.263
1155 0 92.1848 11.759 1084 90.1836 1170.11 489.493
1156 0 94.2242 11.9715 1128 90.992 1171.34 487.363
1157 0 96.2148 11.3912 1096 93.8987 1170.79 486.021
1158 0 102.208 12.5333 1281 91.4778 1171.22 484.695
1159 0 104.254 12.0955 1261 94.6241 1171.59 482.095
1160 0 107.2 12.8358 1376 94.5669 1171.31 482.586
1161 0 110.266 12.7237 1403 94.7042 1171.51 481.226
1162 0 112.18 12.7028 1425 95.8933 1171.03 478.494
1163 0 117.21 12.9256 1515 96.1366 1170.89 476.269
1164 0 119.125 12.6086 1502 97.5739 1170.68 474.618
1165 0 122.2 12.6433 1545 97.5508 1171.33 473.904
1166 0 124.152 12.1141 1504 98.859 1171.25 471.965
1167 0 128.202 12.0669 1547 100.487 1171.55 470.878
1168 0 134.145 12.3374 1655 100.556 1171.6 469.25
1169 0 139.09 12.5386 1744 99.6061 1171.87 467.722
1170 0 141.152 12.7522 1800 101.47 1172.09 466.245
1171 0 142.209 12.116 1723 99.863 1172.39 454.405
1172 0 137.1 12.4799 1711 102.288 1171.92 449.546
1173 1 168.071 6.08077 1022 113.514 1172.32 457.022
1174 0 162.173 8.28746 1344 108.533 1172.22 450.968
1175 0 158.105 9.24703 1462 110.54 1171.75 445.93
1176 0 164.236 12.2629 2014 103.803 1171.21 437.193
1177 0 167.225 12.2111 2042 104.941 1170.5 437.204
1178 0 169.156 12.255 2073 107.377 1170.79 432.319
1179 0 177.172 13.0043 2304 104.81 1171.69 428.922
1180 0 178.19 13.0927 2333 105.837 1170.85 424.787
1181 0 186.19 13.1855 2455 105.268 1172.29 423.063
1182 0 191.164 13.1928 2522 105.686 1171.89 417.731
1183 0 200.199 13.8562 2774 103.64 1171.11 416.828
1184 0 207.296 13.4012 2778 104.059 1171.72 413.864
1185 0 209.206 13.8859 2905 104.248 1170.77 408.138
1186 0 211.249 12.8143 2707 108.85 1170.95 406.852
1187 0 223.188 12.9667 2894 108.57 1170 401.168
1188 0 230.273 13.1018 3017 108.485 1170.62 395.996
1189 1 319.193 7.63488 2437 116.303 1170.26 401.615
1190 1 350.46 25.9545 9096 76.5779 1169.26 327.79
1191 0 349.303 22.4762 7851 85.6709 1170.69 331.037
1192 0 341.27 10.0331 3424 116.237 1170.76 378.716
1193 1 327.312 8.16653 2673 117.186 1171.24 386.795
1194 1 63.0479 8.89799 561 86.9715 1169.54 505.308
1195 0 66.072 9.15668 605 84.886 1169.47 505.661
1196 0 67.0442 8.94932 600 85.5033 1169.58 504.525
1197 0 68.0667 9.00588 613 85.6215 1170.33 502.444
1198 0 72.0601 9.70024 699 86.5937 1169.5 501.411
1199 0 72.1228 9.52542 687 83.2664 1169.99 500.182
1200 0 76.1131 9.64354 734 82.2534 1170.9 499.259
1201 0 76.1108 8.18544 623 85.1862 1171.23 496.016
1202 0 80.103 8.7762 703 83.5491 1171.29 495.893
1203 0 79.1131 7.97593 631 82.1062 1170.52 491.395
1204 0 83.1335 7.7586 645 83.6202 1170.91 494.265
1205 0 85.0662 8.464 720 84.1444 1171.06 493.056
1206 1 64.056 7.55589 484 83.6198 1171.63 475.961
1207 0 91.0824 8.58563 782 84.3657 1170.78 491.21
1208 0 92.0921 8.37205 771 83.7549 1170.39 490.903
1209 0 95.0965 7.89724 751 84.4141 1170.67 488.69
1210 0 101.214 9.06002 917 84.0829 1170.29 486.231
1211 1 60.0697 8.90631 535 81.2953 1170.51 506.89
1212 0 62.0357 9.04318 561 87.6702 1169.96 502.882
1213 0 64.1915 9.37818 602 90.7674 1173.5 500.223
1214 0 68.0829 10.7075 729 88.7696 1171.01 505.599
1215 0 72.1989 11.1082 802 88.5636 1170.84 503.633
1216 0 73.1383 11.1159 813 88.3026 1170.32 504.117
1217 0 75.1258 10.8618 816 89.8726 1170.8 501.211
1218 0 77.1836 11.7123 904 87.9635 1171.13 500.073
1219 0 80.1471 11.8906 953 86.872 1171.07 501.172
1220 0 82.1953 11.8255 972 89.7253 1172.04 498.691
1221 0 84.2321 11.5514 973 90.5951 1172.66 498.592
1222 0 84.2635 12.1168 1021 90.2537 1171.48 496.898
1223 0 86.2474 11.7221 1011 92.4036 1171.49 494.559
1224 0 87.3158 12.3116 1075 91.3507 1172.15 492.138
1225 0 89.2889 11.9948 1071 93.0859 1171.93 488.193
1226 0 90.0938 11.5324 1039 88.3706 1171.4 492.298
1227 0 92.0597 11.6772 1075 87.2698 1170.9 491.13
1228 0 94.0894 11.8079 1111 80.3069 1172.38 490.349
1229 0 95.083 11.7581 1118 79.6342 1172.06 490.267
1230 0 97.0786 12.4538 1209 79.1787 1172.86 488.1
1231 0 100.092 11.4295 1144 81.9974 1172.45 487.212
1232 0 103.107 12.1718 1255 80.1554 1172.79 486.135
1233 0 104.062 12.0601 1255 84.3068 1173.05 483.334
1234 0 107.098 12.0264 1288 83.0559 1172.73 483.609
1235 0 110.082 11.8366 1303 83.9724 1171.79 479.623
1236 0 111.172 11.9634 1330 83.697 1171.87 480.32
1237 0 115.174 11.2265 1293 85.5777 1172.38 478.295
1238 0 121.191 11.2962 1369 85.2491 1171.6 475.963
1239 0 123.273 11.6895 1441 84.5725 1172.7 473.772
1240 0 126.241 11.6206 1467 85.5085 1172.84 468.36
1241 0 131.21 11.6455 1528 84.2055 1173.02 470.382
1242 0 134.149 11.6289 1560 83.9449 1172.12 470.438
1243 0 138.172 12.2601 1694 84.245 1173.25 465.814
1244 0 143.273 12.3261 1766 83.7531 1171.92 463.472
1245 0 145.202 11.6045 1685 85.3377 1172.77 460.48
1246 0 150.185 11.2927 1696 86.7188 1171.55 456.69
1247 0 150.188 11.2393 1688 141.08 1170.53 456.562
1248 0 160.253 12.0622 1933 89.6275 1171.23 453.345
1249 0 163.243 11.7555 1919 86.7181 1171.95 452.873
1250 0 168.224 12.5131 2105 86.9606 1171.86 450.449
1251 0 172.232 12.3322 2124 88.9374 1172.55 448.327
1252 0 178.296 13.2645 2365 87.1619 1172.88 443.913
1253 0 182.298 12.5235 2283 88.9457 1172.95 441.947
1254 0 188.35 13.2572 2497 89.2547 1173.12 442.365
1255 0 193.416 13.5821 2627 88.6848 1173.24 437.411
1256 0 193.416 13.5821 2627 166.681 1174.23 437.665
1257 0 201.213 12.9266 2601 91.1057 1172.46 432.273
1258 0 207.162 13.5643 2810 86.8082 1172.97 431.455
1259 0 211.191 13.0735 2761 89.2401 1172.24 427.828
1260 0 218.239 14.2825 3117 90.069 1172.92 425.583
1261 0 224.276 14.0675 3155 93.5287 1172.47 419.976
1262 0 228.305 13.7842 3147 95.9657 1172.68 413.673
1263 0 235.206 14.7445 3468 87.5092 1172.58 412.866
1264 1 167.221 10.7463 1797 92.0618 1172.9 448.431
1265 0 170.158 11.1132 1891 92.9995 1172.01 443.333
1266 0 178.311 12.6353 2253 94.0692 1171.74 445.533
1267 0 183.25 12.1746 2231 94.9431 1171.48 440.733
1268 0 189.332 12.5705 2380 94.9294 1171.54 436.773
1269 0 195.33 12.7886 2498 100.134 1171.2 433.065
1270 0 200.383 12.2316 2451 102.366 1172.01 430.642
1271 0 204.248 12.6317 2580 105.895 1172 425.928
1272 1 139.136 9.83926 1369 101.042 1172.33 460.917
1273 0 146.163 10.6867 1562 99.1741 1173.35 458.552
1274 0 148.091 11.054 1637 95.0513 1172.08 458.526
1275 0 153.095 10.8886 1667 99.2675 1172.07 454.019
1276 0 158.189 10.93 1729 99.7374 1171.58 453.625
1277 0 161.154 11.1198 1792 100.802 1171.81 450.376
1278 0 164.197 10.9929 1805 101.928 1170.93 448.012
1279 0 169.228 10.9438 1852 103.349 1171.65 444.454
1280 0 177.183 11.2652 1996 101.337 1171.61 442.916
1281 0 181.225 11.9078 2158 101.881 1172.09 440.043
1282 0 186.159 11.5063 2142 103.543 1172.88 438.476
1283 0 192.185 11.8479 2277 104.038 1172.73 436.863
1284 0 192.186 11.8011 2268 156.315 1171.74 436.832
1285 1 34.1641 7.90302 270 77.7926 1171.27 516.211
1286 0 37.052 9.98596 370 84.1378 1174.84 519.392
1287 0 38.0426 10.278 391 84.8824 1174.19 519.946
1288 0 38.0323 9.86004 375 89.68 1174.99 520.04
1289 0 38.052 10.1177 385 92.3896 1175.16 520.403
1290 0 39.0845 10.7459 420 92.6286 1174.36 520.976
1291 0 33.0323 8.44627 279 92.3656 1175.4 521.52
1292 0 36.0658 9.7322 351 88.6553 1172.81 523.268
1293 0 36.0593 9.01294 325 92.7969 1173.55 524.04
1294 0 35.1371 9.42024 331 93.5378 1172.63 523.822
1295 0 34.0094 9.11511 310 95.7258 1172.13 523.952
1296 0 35.0336 9.41952 330 96.3818 1171.33 523.209
1297 0 35.0221 9.42261 330 96.9 1172.27 523.545
1298 0 38.0329 9.62324 366 94.5137 1171.01 523.142
1299 0 37.0331 9.61303 356 135.346 1170.01 522.933
1300 0 38.0142 9.70691 369 97.0298 1171.76 523.799
1301 0 37.008 10.0519 372 97.1425 1172.2 524.581
1302 0 38.023 10.3621 394 96.3934 1172.46 522.396
1303 0 36.0284 9.88111 356 98.2163 1171.6 522.994
1304 0 37.0378 9.3958 348 98.9224 1171.79 522.744
1305 0 39.0162 10.1752 397 95.33 1171.48 523.355
1306 0 37.0296 10.3431 383 96.7494 1172.45 522.256
