time division length width area intensity CMx CMy
0 0 63.0109 14.1563 892 92.0067 954.777 499.12
1 0 66.0336 14.4169 952 90.3718 955.618 496.849
2 0 67.0365 14.2907 958 91.5699 955.713 496.263
3 0 69.0715 15.1003 1043 89.0527 955.184 494.971
4 0 72.0226 14.5788 1050 88.4152 955.366 494.213
5 0 72.0226 14.6065 1052 154.343 955.376 494.157
6 0 75.0075 14.3852 1079 88.5885 955.177 492.751
7 0 78.0711 14.0257 1095 90.7543 955.319 491.729
8 0 82.1582 14.7764 1214 88.6359 955.258 489.829
9 0 83.0506 14.7621 1226 89.4527 954.297 488.613
10 0 83.0506 14.7621 1226 152.945 953.3 488.662
11 0 90.1105 14.8928 1342 88.0902 954.475 486.385
12 0 90.0742 14.81 1334 88.9093 955.152 484.873
13 0 94.1192 14.9916 1411 87.8186 955.004 484.702
14 0 99.077 14.4332 1430 89.5762 954.774 482.566
15 0 101.116 14.6367 1480 88.8946 954.964 480.987
16 0 106.188 14.4367 1533 88.925 954.658 478.992
17 0 109.152 14.8875 1625 87.5822 954.363 477.859
18 0 114.113 14.3016 1632 88.9547 954.347 475.641
19 1 60.0193 12.6959 762 92.4738 953.626 501.678
20 0 63.0491 13.1802 831 90.4007 953.687 500.646
21 0 64.022 13.5578 868 90.4977 953.969 500.506
22 0 65.0373 12.5005 813 85.7663 954.514 500.445
23 0 67.0323 12.9639 869 85.4592 953.849 499.13
24 0 68.048 12.6822 863 87.0035 954.556 497.559
25 0 72.0793 13.0273 939 86.0085 953.772 497.027
26 0 77.0247 13.3074 1025 86.1785 953.996 496.384
27 0 78.0858 12.704 992 87.373 953.693 494.931
28 0 80.0362 13.1815 1055 86.7545 953.294 494.362
29 0 83.0534 12.9916 1079 86.7702 953.675 491.395
30 0 86.05 12.76 1098 87.112 952.891 490.812
31 0 89.0646 13.1702 1173 86.1483 953.066 489.956
32 0 90.0519 12.6927 1143 87.9318 952.383 487.85
33 0 95.0971 12.7028 1208 88.5132 953.468 485.973
34 0 100.047 14.1433 1415 86.7498 952.506 484.329
35 0 102.081 12.4901 1275 91.8039 953.053 482.794
36 1 51.0301 12.8944 658 86.9422 952.588 508.629
37 0 52.0049 13.3641 695 90.7986 952.722 505.351
38 0 53.0261 12.5976 668 87.1946 951.859 506.379
39 0 55.0302 12.6113 694 86.9899 952.467 505.056
40 0 59.1051 12.8923 762 85.4685 951.974 503.459
41 0 59.0865 12.8456 759 86.0488 952.21 503.261
42 0 59.0865 12.9133 763 147.506 952.19 503.245
43 0 62.0436 12.4267 771 87.6835 952.405 501.332
44 0 65.0397 12.7153 827 87.5175 953.203 499.693
45 0 68.0393 13.0219 886 87.5203 953.126 496.438
46 0 69.027 12.908 891 90.2705 953.308 496.129
47 0 72.0303 13.3 958 90.119 952.386 493.934
48 0 73.0556 13.4966 986 91.3185 952.944 492.554
49 0 76.0292 13.2975 1011 91.0524 952.431 491.215
50 0 80.1518 13.6616 1095 91.4758 953.594 488.931
51 0 82.0573 13.5271 1110 92.8991 952.646 485.257
52 0 85.0577 13.3791 1138 92.2364 952.315 486.626
53 0 88.1471 13.2052 1164 92.7594 952.285 484.235
54 0 88.0642 12.7293 1121 94.7288 952.833 483.217
55 0 93.1326 13.4754 1255 92.4805 953.36 482.506
56 0 95.0868 13.861 1318 91.9264 954.077 479.949
57 0 97.1574 13.4421 1306 92.4541 953.801 481.005
58 0 100.088 14.1976 1421 97.1872 953.05 478.551
59 0 105.074 13.2669 1394 91.7432 952.41 475.808
60 0 108.072 12.8432 1388 92.5922 953.551 474.197
61 0 113.111 14.057 1590 90.0465 953.62 471.909
62 0 118.118 13.9606 1649 89.0358 953.026 470.198
63 1 62.0362 11.2354 697 88.3558 952.659 498.756
64 0 59.0507 11.3123 668 86.7829 953.165 494.861
65 0 61.055 11.547 705 86.0043 953.282 493.759
66 0 61.055 11.5142 703 132.209 954.279 493.636
67 0 68.0261 12.1571 827 82.7485 953.233 497.256
68 0 71.0514 12.1039 860 82.4 953.599 495.444
69 0 71.05 11.8508 842 84.0226 954.653 494.89
70 0 77.0507 12.5112 964 82.3226 954.65 494.21
71 0 77.0313 12.4754 961 83.3413 954.536 493.548
72 0 82.1192 12.3966 1018 82.4096 953.898 492.242
73 0 84.0603 12.9074 1085 81.3475 953.57 489.816
74 0 85.0212 12.5733 1069 82.3424 954.339 488.789
75 0 88.0891 12.3625 1089 83.5785 954.568 484.998
76 0 93.0598 13.0239 1212 81.1015 953.734 483.606
77 0 94.0804 12.5956 1185 82.2354 954.3 482.192
78 1 48.1161 10.3915 500 81.508 954.568 504.132
79 0 52.0491 11.2586 586 80.8208 955.13 503.515
80 0 54.0273 11.124 601 78.4143 954.659 504.604
81 0 56.0083 12.2125 684 79.8202 954.598 503.211
82 0 58.0132 11.7559 682 79.7947 953.718 502.877
83 0 60.0263 11.8781 713 79.5133 954.258 500.498
84 0 62.0337 12.0418 747 79.5395 953.968 500.853
85 0 64.0201 12.3399 790 79.0608 953.528 498.816
86 0 64.0222 11.7147 750 80.9307 953.552 499.337
87 0 66.036 11.2514 743 82.3499 953.497 498.093
88 0 70.0743 12.4011 869 79.1772 953.826 496.318
89 0 73.035 12.3229 900 79.3189 954.141 494.723
90 0 75.0477 12.1656 913 80.0986 954.153 495.145
91 0 77.0668 12.288 947 80.7455 953.353 493.665
92 0 79.0732 11.5463 913 82.5476 954.598 491.826
93 0 82.042 11.8354 971 81.3285 954.414 490.789
94 0 84.0619 11.7651 989 81.0698 954.18 489.54
95 0 87.0606 12.3362 1074 79.8743 953.322 488.458
96 0 90.0628 12.1471 1094 79.2441 953.024 486.596
97 0 92.0831 11.9023 1096 79.4462 952.382 485.53
98 0 95.0614 11.4137 1085 79.1806 953.299 484.509
99 1 47.0217 9.63384 453 74.713 953.634 507.318
100 0 50.0305 9.63413 482 74.7469 952.568 506.958
101 0 50.0063 9.85876 493 74.8763 954.053 506.649
102 0 53.0196 10.8262 574 74.6202 953.141 504.418
103 0 55.0739 11.185 616 73.513 954.406 504.813
104 0 57.0241 11.5741 660 82.0591 953.223 502.136
105 0 60.0142 11.7306 704 82.4062 954.114 501.625
106 0 60.0142 12.1305 728 138.297 955.115 501.29
107 0 64.0522 11.756 753 83.5671 952.983 499.154
108 0 66.0575 11.9744 791 83.0809 952.358 496.932
109 0 68.0253 12.2748 835 83.8395 953.126 495.726
110 0 68.1007 12.0704 822 85.5438 954.3 494.692
111 0 72.032 11.842 853 85.9672 954.272 493.933
112 0 76.0913 12.5113 952 85.563 954.244 494.222
113 0 76.0797 12.6184 960 87.1708 954.716 493.329
114 0 78.0592 12.6442 987 88.2725 954.262 490.612
115 0 81.0567 12.7565 1034 88.5619 953.324 491.311
116 0 81.0408 12.9688 1051 89.431 953.446 489.919
117 0 84.1124 13.3155 1120 88.7598 952.61 488.102
118 0 85.0581 13.72 1167 89.0154 953.277 487.163
119 0 89.1588 13.2124 1178 90.27 953.062 485.27
120 0 91.0574 13.0357 1187 92.5737 954.001 484.238
121 0 91.0936 13.2172 1204 90.9527 953.833 485.223
122 0 94.0841 13.1053 1233 91.8889 953.844 481.491
123 0 97.0379 13.2113 1282 91.9275 953.86 481.923
124 0 100.04 13.5346 1354 93.5783 954.343 478.807
125 0 104.111 13.5144 1407 93.4549 953.518 478.595
126 0 106.128 13.1162 1392 95.0115 953.836 474.506
127 0 109.173 13.3916 1462 94.2305 953.724 473.549
128 0 113.133 13.4266 1519 93.923 953.074 473.54
129 0 114.111 13.3818 1527 96.0157 953.116 469.831
130 0 118.152 13.1864 1558 96.9082 953.935 468.138
131 0 121.217 13.7357 1665 96.624 953.965 464.954
132 0 123.18 13.8415 1705 97.2387 954.146 463.996
133 0 128.23 14.0372 1800 96.9711 953.604 461.593
134 0 129.225 14.0762 1819 98.5311 953.735 458.228
135 0 135.184 15.0683 2037 96.0407 953.561 455.966
136 0 137.089 14.4943 1987 97.8722 954.035 449.603
137 0 143.13 14.8187 2121 95.6888 953.597 448.643
138 0 145.223 13.2899 1930 99.7995 953.726 447.769
139 0 148.144 13.5544 2008 99.6434 953.455 443.155
140 1 74.0824 11.2307 832 97.0781 953.478 481.845
141 0 79.052 11.8277 935 95.4513 953.4 480.432
142 0 84.115 12.471 1049 93.3956 954.241 484.652
143 0 85.1096 12.9833 1105 93.8434 953.31 487.555
144 0 89.1585 13.0442 1163 93.6655 953.009 483.655
145 0 91.1211 12.884 1174 94.1431 952.713 483.76
146 0 95.0679 12.6331 1201 92.8102 953.329 482.76
147 0 98.1196 12.7803 1254 92.2313 953.116 479.998
148 0 100.122 12.4448 1246 93.0634 953.094 476.689
149 0 101.041 12.2722 1240 92.3081 953.398 474.898
150 0 102.173 12.0775 1234 93.4514 953.004 470.637
151 0 109.101 12.5481 1369 90.6048 952.798 468.31
152 0 110.057 11.7212 1290 92.1256 952.126 461.455
153 1 64.0811 10.3151 661 83.3404 952.852 493.97
154 0 70.1464 11.2764 791 87.3919 952.387 494.295
155 0 70.0626 11.1615 782 84.5985 951.871 497.256
156 0 74.0444 11.7902 873 83.5613 952.935 496.186
157 0 76.0847 11.7632 895 83.752 952.543 494.363
158 0 77.1324 11.0978 856 85.3318 953.338 493.784
159 0 81.1382 11.5482 937 84.6862 953.289 492.624
160 0 85.211 11.5009 980 84.3469 953.348 489.773
161 0 86.2018 11.1251 959 85.4797 952.767 488.903
162 0 89.1255 10.8274 965 87.4031 952.303 487.457
163 1 49.0922 9.69604 476 86.2605 952.876 508.359
164 0 47.0891 10.1297 477 87.6813 953.092 506.371
165 0 51.2151 11.2662 577 83.6967 951.978 504.697
166 0 53.044 11.0851 588 85.5051 953.512 504.503
167 0 55.0687 11.0952 611 85.5499 953.475 503.985
168 0 56.0494 10.8833 610 85.5082 954.093 503.349
169 0 58.0473 10.9566 636 85.4686 953.887 502.657
170 0 59.0359 11.9927 708 83.8333 954.388 502.492
171 0 60.1132 11.3453 682 83.9692 953.809 502.33
172 0 63.0805 11.8896 750 81.752 952.968 500.219
173 0 64.0412 10.9929 704 82.3239 952.53 500.053
174 0 66.0191 11.5573 763 80.9463 952.725 498.49
175 0 69.0415 11.341 783 80.719 952.828 497.848
176 0 69.0511 11.9911 828 80.1872 953.528 497.231
177 0 72.0436 11.3404 817 82.0159 953.487 496.245
178 0 74.0908 11.7558 871 80.6785 953.493 495.269
179 1 38.0966 9.9484 379 80.7599 952.063 512.39
180 0 39.0205 9.86662 385 80.0468 951.052 512.33
181 0 40.042 11.1633 447 78.1119 951.152 511.606
182 0 42.0861 11.2151 472 77.339 950.689 510.398
183 0 42.1152 10.3525 436 80.3624 951.729 511.009
184 0 43.0648 11.0995 478 71.7636 952.762 509.619
185 0 45.0577 11.452 516 70.4264 952.705 509.291
186 0 46.0463 10.6632 491 72.4338 952.961 508.572
187 0 46.0335 11.3179 521 70.9175 952.996 509.033
188 0 49.022 11.0767 543 70.7366 953.219 506.525
189 0 49.0444 11.5202 565 70.7345 952.747 506.053
190 0 52.0626 11.2749 587 70.2624 952.905 504.426
191 0 54.0396 11.2325 607 70.1285 952.753 503.621
192 0 56.022 11.5133 645 69.1845 952.278 504.377
193 0 57.028 11.9766 683 68.7438 952.896 502.264
194 0 59.049 11.6683 689 69.9071 952.732 502.287
195 0 59.0679 12.1047 715 70.7678 953.267 501.564
196 0 62.0582 12.2949 763 70.1914 952.813 500.19
197 0 60.0271 11.7614 706 72.0368 952.984 498.865
198 0 66.0415 12.3862 818 69.621 952.884 497.968
199 0 69.0518 12.1793 841 70.4697 952.239 498.397
200 0 71.1051 12.2776 873 83.0229 951.667 496.142
201 0 73.1099 12.3239 901 83.212 951.967 494.992
202 0 73.1099 12.3376 902 139.194 952.96 495.1
203 0 77.0804 12.9086 995 105.964 952.432 491.963
204 0 81.1136 12.8092 1039 105.642 952.073 491.781
205 0 84.1407 13.1684 1108 104.412 951.453 491.793
206 0 87.082 13.16 1146 104.402 952.138 489.943
207 0 89.1027 13.4003 1194 104.014 950.76 488.337
208 0 90.134 12.7921 1153 105.275 950.788 487.728
209 0 94.1329 13.1304 1236 103.157 950.207 485
210 0 97.1522 12.9899 1262 103.023 950.796 483.266
211 0 100.13 12.5637 1258 103.99 950.854 481.577
212 0 103.094 12.8038 1320 103.949 951.03 480.033
213 1 52.1096 10.8617 566 102.049 952.067 507.288
214 0 54.1302 11.9896 649 100.254 951.473 503.83
215 0 56.0876 11.7851 661 100.489 951.48 503.663
216 0 58.094 12.015 698 99.2751 952.182 502.553
217 0 58.1596 12.6892 738 87.6531 951.622 503.309
218 0 62.1067 12.6556 786 85.4262 951.634 502.517
219 0 60.1384 12.0389 724 87.8591 951.507 500.298
220 0 63.0307 12.2004 769 85.4447 951.099 499.319
221 0 65.039 12.4541 810 85.0358 951.34 498.2
222 0 65.0793 11.3093 736 87.1304 951.221 499.071
223 0 68.0488 11.7122 797 86.5734 951.645 497.375
224 0 71.0756 11.5511 821 87.0256 951.173 496.363
225 0 73.0627 11.3875 832 86.9363 950.93 494.992
226 0 75.0372 11.4743 861 86.3914 950.269 493.504
227 0 77.0263 11.7752 907 86.1742 951.045 492.885
228 0 78.0502 11.3389 885 87.504 950.568 491.129
229 0 81.0891 11.5305 935 86.4952 951.261 490.927
230 0 83.1051 11.8284 983 85.7243 951.206 488.604
231 0 86.0677 11.7814 1014 86.7268 951.178 487.385
232 0 90.0344 12.0732 1087 85.1941 952.006 486.755
233 0 92.1244 12.2118 1125 84.5822 951.57 486.035
234 0 96.1403 11.9825 1152 85.0625 951.55 482.939
235 0 98.0696 11.5326 1131 86.252 951.752 480.839
236 0 101.1 11.9684 1210 87.1686 950.993 479.688
237 0 103.079 11.9616 1233 87.8427 951.446 478.678
238 0 107.071 12.3563 1323 88.2252 950.577 476.171
239 0 109.064 11.9196 1300 89.9546 951.058 473.944
240 0 113.114 12.3327 1395 89.9039 951.263 471.943
241 0 115.107 12.0931 1392 91.9971 951.881 470.46
242 0 122.093 12.7362 1555 90.6939 951.407 469.789
243 1 58.0542 10.9725 637 84.5149 951.201 500.664
244 0 60.0549 10.9566 658 85.5502 951.363 500.52
245 0 63.0617 11.2588 710 88.3972 951.354 500.039
246 0 64.0557 11.4276 732 93.6503 951.454 497.432
247 0 67.0417 11.8135 792 92.6944 951.008 497.961
248 0 71.0723 13.3104 946 89.945 951.378 496.896
249 0 71.0287 11.3757 808 85.2475 951.41 496.406
250 0 71.1169 11.5725 823 85.9137 951.469 496.985
251 0 75.0727 11.8951 893 85.8768 950.941 494.969
252 0 77.1442 11.7054 903 87.5426 951.625 494.135
253 0 77.0896 11.3245 873 89.3448 952.106 492.263
254 0 82.0461 12.3101 1010 85.5297 952.656 490.152
255 0 86.0358 12.1577 1046 85.2467 951.631 491.142
256 0 89.1883 12.4568 1111 85.7471 952.024 488.139
257 0 91.0676 12.5182 1140 86.7851 952.088 487.126
258 0 94.1097 12.1241 1141 87.0482 951.522 485.076
259 0 96.1104 11.3827 1094 88.2971 951.537 483.708
260 0 99.1448 11.3874 1129 88.4712 951.684 482.134
261 0 102.266 11.9591 1223 89.6231 951.295 478.769
262 1 58.1828 10.7592 626 90.5591 950.652 500.81
263 0 59.1787 10.7809 638 91.7633 951.06 500.288
264 0 60.2051 12.0588 726 91.8953 950.842 499.423
265 0 63.0757 11.5575 729 85.8944 950.307 497.103
266 0 63.0864 11.08 699 83.0844 951.156 497.082
267 0 67.183 11.2975 759 81.9829 950.598 495.523
268 0 69.0771 11.3931 787 82.507 951.058 494.662
269 0 71.1101 11.6158 826 81.5847 950.766 495.151
270 0 71.164 11.2135 798 83.4474 950.772 492.878
271 0 75.1028 11.1714 839 83.4541 950.451 492.787
272 0 76.1078 10.853 826 84.4734 949.83 491.276
273 0 77.0912 10.3514 798 86.1504 950.224 490.165
274 0 82.1129 11.0701 909 84.8878 950.595 488.652
275 0 83.1476 11.0166 916 84.4902 950.46 488.998
276 0 86.0966 11.0341 950 85.2453 950.847 485.633
277 0 88.0862 11.0233 971 85.9743 950.994 485.867
278 0 92.0547 11.4497 1054 86.3615 950.726 482.998
279 0 94.1065 10.775 1014 87.6598 951.466 481.532
280 0 97.1415 11.1796 1086 88.8361 950.926 480.286
281 0 99.0875 10.8288 1073 89.466 950.685 477.02
282 0 104.231 10.6878 1114 89.947 950.453 476.192
283 1 56.2179 10.2103 574 81.2004 950.826 504.605
284 0 56.134 10.1186 568 83.1919 950.09 503.482
285 0 58.0971 10.5685 614 83.4951 949.894 501.933
286 0 58.1616 11.1758 650 83.1138 950.105 500.795
287 0 62.0824 11.0015 683 81.6032 950.053 500.028
288 0 59.076 9.64859 570 85.3632 950.484 499.163
289 0 62.0127 9.57869 594 85.5269 950.768 499.433
290 0 64.0738 10.2694 658 84.2249 951.225 496.813
291 0 66.0531 9.94654 657 85.1431 950.384 496.338
292 0 68.0646 10.1374 690 85.7087 951.045 497.39
293 0 70.0746 10.5459 739 85.6631 950.806 494.467
294 0 72.0496 10.5483 760 85.7092 950.222 493.759
295 0 74.0452 10.5881 784 87.0995 949.574 491.492
296 0 77.0677 10.3545 798 86.7594 949.569 492.558
297 0 80.0591 10.5797 847 86.5643 950.836 490.864
298 0 82.081 10.2703 843 87.6762 951.291 488.794
299 0 85.0692 10.4503 889 88.5264 951.153 487.507
300 0 89.0442 10.1747 906 89.9161 951.073 486.241
301 1 46.0518 10.0973 465 83.4839 952.006 507.637
302 0 48.0471 10.2608 493 82.5842 951.45 508.185
303 0 50.0249 9.87508 494 83.0607 951.729 507.334
304 0 50.0385 10.2921 515 83.6874 949.693 506.489
305 0 53.034 11.4078 605 81.5256 950.208 505.96
306 0 55.018 11.0327 607 80.6227 951.547 505.102
307 0 56.0198 10.9247 612 80.8268 951.925 504.507
308 0 58.038 11.079 643 80.3313 951.899 504.075
309 0 59.0581 11.5479 682 80.044 952.221 502.062
310 0 61.0093 11.3589 693 79.2193 951.955 501.962
311 0 63.0646 11.8608 748 78.3142 951.652 501.452
312 0 64.0131 12.1069 775 79.4387 950.879 501.386
313 0 65.0365 11.7472 764 79.6374 950.486 500.571
314 0 68.0593 11.8279 805 78.5652 950.605 499.955
315 0 73.0824 11.7128 856 89.4521 951.324 498.672
316 0 74.0466 11.3172 838 90.037 951.967 496.525
317 0 77.1609 11.8454 914 88.9081 951.839 495.9
318 0 80.0936 11.2993 905 90.684 951.293 494.998
319 0 81.0651 11.608 941 89.4357 951.777 493.334
320 1 41.0347 10.5764 434 81.4332 951.546 515.009
321 0 43.0615 10.8682 468 78.312 951.175 514.265
322 0 44.0891 10.6375 469 76.2814 950.593 513.979
323 0 45.1082 11.284 509 73.2102 949.045 512.723
324 0 45.0328 11.5027 518 75.251 948.558 513.386
325 0 47.0218 11.3564 534 75.5861 949.423 513.255
326 0 47.0763 10.9185 514 77.1595 949.737 512.105
327 0 50.0502 11.7882 590 74.7407 949.381 511.992
328 0 49.0294 10.1572 498 78.4036 949.797 512.743
329 0 49.054 10.4171 511 79.5362 949.671 512.691
330 0 50.1009 10.7982 541 79.9464 949.529 511.46
331 0 52.0294 11.0322 574 79.3868 949.058 510.671
332 0 53.0555 10.9508 581 79.833 948.861 509.279
333 0 55.0246 10.668 587 79.787 948.731 507.874
334 0 57.0699 10.2681 586 81.2884 948.648 506.169
335 0 58.0592 10.386 603 81.6949 949.168 506.37
336 0 59.0646 10.6155 627 82.2871 948.944 505.809
337 0 63.0458 11.2458 709 80.0677 948.85 503.299
338 0 64.0251 11.0894 710 81.3113 949.503 502.707
339 0 66.0664 11.4884 759 82.5678 948.635 500.166
340 0 69.0655 11.1054 767 83.8527 948.738 499.894
341 0 71.121 10.7423 764 86.466 948.579 499.887
342 0 73.0387 11.3775 831 86.7762 947.807 499.446
343 0 75.055 11.4716 861 88.194 947.965 496.705
344 0 78.1027 11.7025 914 87.8731 947.966 497.488
345 0 81.1026 11.9232 967 89.8542 948.127 496.542
346 0 81.063 11.0038 892 93.8397 947.802 492.532
347 0 86.1056 12.0085 1034 92.0696 948.074 493.311
348 1 46.0753 10.9603 505 95.6733 946.899 512.905
349 0 47.1635 11.2375 530 97.5528 946.843 510.923
350 0 48.1348 11.6755 562 99.8897 947.135 511.785
351 0 48.0596 11.3193 544 99.7904 947.403 510.097
352 0 46.0082 10.4981 483 96.3892 947.917 512.033
353 0 48.0488 11.5091 553 94.5877 947.483 511.541
354 0 51.0152 11.7416 599 93.4057 948.2 510.948
355 0 50.0508 10.849 543 96.7366 947.446 510.28
356 0 52.0111 11.0746 576 95.7292 947.972 510.229
357 0 53.0114 10.9033 578 96.91 948.986 509.926
358 0 56.0176 10.7823 604 97.0331 948.159 508.046
359 0 59.0715 11.4945 679 94.7158 947.866 507.974
360 0 58.0288 10.8394 629 96.965 947.738 506.316
361 0 62.0329 11.3972 707 95.024 948.47 504.876
362 0 64.0277 11.4794 735 92.415 948.318 505.45
363 0 66.0155 11.9517 789 92.2117 948.297 504.266
364 0 68.0448 11.9186 811 92.9396 947.914 503.217
365 0 70.0557 12.0618 845 91.7195 948.66 501.671
366 0 74.0304 11.1306 824 92.2743 949.092 501.192
367 0 75.054 11.4984 863 91.5968 949.235 498.966
368 0 79.092 12.1251 959 89.3097 948.778 500.11
369 0 81.0813 11.9633 970 90.4825 949.265 496.785
370 0 82.1266 11.8232 971 91.4398 948.445 495.615
371 0 83.0715 10.2201 849 94.7962 947.598 494.813
372 1 48.0131 10.8512 521 91.2687 948.77 510.004
373 0 48.0108 11.6224 558 85.6183 948.459 511.134
374 0 49.0093 11.9365 585 83.9641 948.508 510.593
375 0 52.0444 12.1819 634 89.6341 948.544 508.538
376 0 53.051 12.177 646 89.9582 948.285 507.125
377 0 56.0088 12.2481 686 89.4329 948.746 506.35
378 0 56.0088 12.3016 689 134.004 948.758 506.406
379 0 59.0311 12.4002 732 87.8388 948.022 504.835
380 0 56.0368 11.314 634 84.1987 948.506 506.726
381 0 58.0507 11.6105 674 84.184 948.347 504.592
382 0 60.0318 11.4106 685 84.7883 948.315 504.035
383 0 61.0479 11.0733 676 85.3935 949.379 503.055
384 0 65.0182 11.9505 777 83.4054 949.904 502.789
385 0 68.0423 11.7427 799 82.7835 949.982 499.998
386 0 69.0232 11.5034 794 84.6033 950.33 499.545
387 0 72.0202 11.8717 855 84.7181 950.092 497.908
388 0 75.0704 11.8555 890 85.8528 948.843 496.937
389 0 78.0366 11.7253 915 86.5792 948.363 494.162
390 0 81.0504 11.5237 934 87.1231 948.737 492.542
391 1 42.1466 10.7007 451 89.3725 949.339 510.665
392 0 39.1042 9.51306 372 85.8656 950.132 505.245
393 0 44.0196 11.9038 524 87.8798 949.242 509.468
394 0 47.0093 11.8062 555 87.3658 948.514 508.932
395 0 48.0214 11.6407 559 87.1699 949.145 508.497
396 0 49.0355 11.6242 570 88.2825 950.29 507.832
397 0 48.0652 12.2334 588 88.1548 949.833 507.257
398 0 51.0508 12.0468 615 88.3024 950.304 507.034
399 0 47.1459 11.3902 537 84.5717 948.518 508.438
400 0 49.0651 10.8224 531 84.2825 949.461 508.985
401 0 51.0936 10.8624 555 84.0649 948.272 505.841
402 0 50.1001 10.6986 536 84.6269 949.151 506.297
403 0 54.0456 11.2683 609 82.5665 949.92 505.008
404 0 56.0678 11.3969 639 82.0438 950.086 505.515
405 0 56.08 10.5742 593 85.199 949.158 505.418
406 0 58.069 11.538 670 83.6313 949.761 503.167
407 0 60.0369 11.1098 667 83.5877 949.786 502.108
408 0 62.1694 10.6805 664 83.5 949.151 502.404
409 0 62.0706 11.5997 720 82.2986 949.526 499.264
410 0 65.0909 11.2919 735 81.6884 948.807 499.273
411 0 68.0607 11.3722 774 80.9703 949.698 497.609
412 0 69.032 11.7627 812 81.8214 949.621 495.073
413 0 72.1024 11.9275 860 81.4965 949.409 494.713
414 0 73.0337 11.1729 816 82.8824 949.476 494.765
415 0 76.0562 12.425 945 80.5048 949.661 491.898
416 0 77.0552 11.2906 870 83.3632 949.362 494.156
417 0 80.0886 11.1751 895 83.7363 949.294 490.134
418 0 81.1028 11.7135 950 83.2021 948.877 490.692
419 0 85.1204 11.9125 1014 83.9724 949.941 489.727
420 0 89.1121 12.2318 1090 86.0688 950.12 486.786
421 0 90.1041 12.4967 1126 86.238 949.98 486.664
422 0 93.0919 12.1278 1129 87.3136 949.324 482.688
423 1 48.0886 9.62806 463 86.6436 949.255 507.788
424 0 51.067 10.7506 549 85.0055 949.24 506.772
425 0 52.1257 11.549 602 84.0781 949.543 506.807
426 0 54.0528 11.7848 637 80.9168 948.995 505.033
427 0 54.0634 11.3201 612 82.7794 948.964 504.578
428 0 52.029 10.9362 569 85.0598 948.097 504.998
429 0 55.0626 10.9148 601 83.4343 947.527 505.268
430 0 58.043 11.0263 640 83.1812 949.186 504.523
431 0 59.0516 11.2783 666 83.7988 949.134 503.817
432 0 60.0505 11.5569 694 84.4236 948.833 502.585
433 0 61.0584 11.3662 694 86.0749 949.339 502.388
434 0 63.1015 11.2517 710 86.7099 949.448 501.586
435 0 66.0392 11.8869 785 85.4675 949.154 499.6
436 0 67.0386 11.7395 787 86.3024 948.395 498.919
437 0 69.0467 11.1519 770 86.2494 948.736 498.683
438 0 74.0442 12.2494 907 86.2547 948.026 496.244
439 0 75.0985 12.9297 971 85.2338 948.434 494.973
440 0 77.074 12.1701 938 88.3038 948.268 493.36
441 0 80.0318 13.1823 1055 86.7327 949.233 492.949
442 0 82.0699 12.3675 1015 89.3399 949.272 492.236
443 0 84.0372 12.4707 1048 88.9218 948.921 492.14
444 0 86.0499 12.6555 1089 90.4013 949.309 489.268
445 0 89.0635 13.4062 1194 88.1357 948.443 488.104
446 0 91.091 13.0199 1186 89.8862 948.993 485.179
447 0 91.0858 12.9658 1181 136.06 949.998 485.163
448 0 96.1298 13.2009 1269 90.8613 949.474 481.626
449 0 98.1238 13.7785 1352 90.0555 949.176 481.789
450 0 103.11 13.9851 1442 89.7094 949.918 479.344
451 0 105.092 13.4929 1418 89.4288 949.351 476.18
452 0 107.143 13.4026 1436 90.555 949.359 474.324
453 0 111.131 13.8396 1538 88.8303 949.704 472.108
454 0 112.161 13.3291 1495 92.2013 949.302 468.785
455 1 60.0893 10.9004 655 90.5298 949.253 499.386
456 0 63.133 12.2757 775 88.6787 949.932 499.186
457 0 63.0484 12.419 783 85.9183 949.807 500.303
458 0 66.0504 12.6267 834 85.0875 950.267 500.278
459 0 68.0469 12.2122 831 85.8123 950.262 499.278
460 0 71.0087 12.5337 890 85.5921 950.006 498.588
461 0 72.0656 13.0576 941 85.5462 950.564 496.086
462 0 75.0798 12.813 962 86.1715 949.919 494.029
463 0 76.0702 12.8303 976 86.2029 950.173 493.679
464 0 79.1027 13.0084 1029 85.5131 949.464 492.576
465 0 80.1528 12.4886 1001 88.0649 949.647 491.534
466 0 82.0459 12.7733 1048 88.4695 950.049 491.087
467 0 83.0615 12.3402 1025 90.5834 949.624 489.642
468 0 86.0834 12.4879 1075 91.2409 950.566 488.264
469 0 89.0541 12.4419 1108 101.133 950.232 485.98
470 0 92.0885 12.3468 1137 100.07 949.791 485.513
471 0 94.14 12.8744 1212 99.8853 948.707 482.08
472 0 97.0895 13.0292 1265 98.1549 949.004 482.296
473 0 99.0925 12.9374 1282 99.4087 949.434 480.381
474 0 103.144 13.6314 1406 96.3329 949.807 480.177
475 0 105.182 13.5005 1420 97.1761 949.365 479.196
476 0 107.106 12.8938 1381 98.7219 949.917 478.582
477 0 110.142 12.4204 1368 98.9006 949.922 476.932
478 0 112.168 12.8111 1437 99.6186 949.741 476.287
479 0 116.137 12.666 1471 99.8742 949.839 473.196
480 0 118.131 12.4015 1465 99.3461 949.248 473.399
481 1 65.0488 11.1455 725 90.6634 950.043 500.612
482 0 65.073 11.4026 742 87.1509 948.504 501.27
483 0 68.0392 11.8755 808 87.8552 948.01 498.603
484 0 69.1353 12.1356 839 88.3516 948.348 498.187
485 0 70.0754 12.772 895 93.2425 948.135 497.168
486 0 72.1102 11.9955 865 96.9156 948.142 495.602
487 0 73.1105 11.8861 869 96.8976 948.408 494.948
488 0 76.0884 12.3803 942 97.1284 948.013 493.251
489 0 78.08 12.3719 966 98.1398 947.956 492.32
490 0 80.0937 12.7476 1021 99.2351 948.374 490.932
491 0 83.0655 13.1703 1094 98.6051 948.894 490.555
492 0 85.144 12.978 1105 98.7303 947.924 490.026
493 0 85.0788 12.8116 1090 99.8147 947.949 490.177
494 0 87.102 12.4337 1083 99.9815 947.67 489.665
495 0 87.1016 12.3878 1079 149.04 946.682 489.74
496 0 94.0705 13.1922 1241 100.517 948.118 487.537
497 0 95.0905 12.8719 1224 101.582 948.56 484.596
498 0 99.1136 12.9044 1279 100.526 948.158 484.16
499 0 102.148 12.149 1241 103.015 948.962 482.991
500 0 105.114 13.3379 1402 99.4301 948.146 482.048
501 0 106.099 13.0445 1384 101.476 949.099 480.638
502 0 108.104 13.191 1426 100.876 947.822 479.074
503 0 111.121 13.5168 1502 99.275 948.058 478.23
504 0 112.138 12.8235 1438 99.0556 947.638 477.588
505 0 116.121 13.1242 1524 99.3898 948.255 474.803
506 0 120.068 13.5173 1623 97.4738 948.522 473.914
507 0 123.135 14.212 1750 96.1303 948.901 472.644
508 0 126.221 13.6586 1724 95.4385 948.862 471.026
509 0 127.117 12.7127 1616 97.0978 948.643 466.955
510 1 69.0569 10.8461 749 88.5741 948.005 501.19
511 0 70.0542 11.5339 808 85.3329 948.395 499.379
512 0 70.0397 11.3079 792 85.8826 948.131 500.516
513 0 74.0468 12.249 907 85.6725 947.988 497.144
514 0 76.076 12.8293 976 86.7285 947.918 496.376
515 0 77.082 12.9602 999 86.8989 947.906 495.326
516 0 78.0898 11.9094 930 87.5301 947.909 495.345
517 0 80.0501 11.8801 951 87.224 947.549 496.553
518 0 81.0589 11.8556 961 87.6743 947.7 495.106
519 0 85.069 12.4722 1061 86.4354 947.874 493.564
520 0 87.0487 13.0961 1140 84.9632 948.337 492.425
521 0 88.0288 12.8367 1130 89.362 947.622 491.582
522 0 90.1071 12.6405 1139 89.4258 948.03 490.155
523 0 93.1167 12.7582 1188 89.8342 947.664 488.834
524 0 97.0934 13.1008 1272 90.037 948.031 487.88
525 0 99.2192 13.6566 1355 89.1262 948.492 486.08
526 0 101.181 13.3918 1355 90.9948 947.978 484.967
527 0 104.168 13.8526 1443 91.8184 948.958 483.217
528 0 105.177 13.0923 1377 94.0102 947.744 481.894
529 0 110.184 13.6862 1508 91.5033 947.401 481.213
530 0 112.155 13.7043 1537 92.5797 947.13 478.845
531 0 113.153 13.442 1521 93.5569 947.418 477.911
532 0 116.173 13.7295 1595 93.5912 947.481 476.818
533 0 120.126 13.4276 1613 94.7179 947.549 474.602
534 0 124.113 13.3911 1662 94.9603 947.747 472.688
535 0 127.186 13.0832 1664 96.0198 948.091 471.316
536 0 129.178 14.0117 1810 98.7702 949.032 470.163
537 0 133.176 14.1016 1878 119.42 948.37 469.42
538 0 136.192 14.1198 1923 95.4919 948.597 467.697
539 0 142.241 13.8638 1972 95.2287 947.415 465.369
540 0 145.244 14.3207 2080 94.9721 947.565 463.77
541 0 148.211 14.2297 2109 95.2527 947.441 461.023
542 0 152.174 13.8329 2105 96.2114 947.696 459.936
543 0 154.184 13.1336 2025 100.431 947.924 457.617
544 1 79.1128 11.7554 930 91.943 947.402 497.971
545 0 77.1692 11.3128 873 95.5109 948.536 495.928
546 0 81.1322 11.9435 969 94.0114 948.462 495.559
547 0 83.0661 11.8099 981 93.8094 948.138 491.36
548 0 84.0375 11.7924 991 94.8174 948.612 489.983
549 0 85.0483 12.2401 1041 88.2757 948.269 493.162
550 0 86.0829 11.698 1007 89.8868 948.111 492.769
551 0 89.1215 12.0959 1078 89.2746 947.981 492.188
552 0 90.0862 12.7544 1149 89.1967 946.854 488.221
553 0 94.0348 11.7297 1103 89.8504 947.691 488.736
554 0 96.0367 11.9017 1143 89.7559 948.096 489.046
555 0 98.0405 12.4234 1218 89.3522 948.438 485.786
556 0 100.069 12.2815 1229 89.7836 948.045 486.127
557 0 103.086 12.1647 1254 90.7344 948.258 483.005
558 0 106.078 12.2362 1298 89.9006 947.949 481.543
559 0 107.098 11.8769 1272 91.5157 948.024 479.915
560 0 112.121 12.1654 1364 91.1591 947.82 476.842
561 0 113.07 12.4171 1404 91.6524 947.631 475.266
562 0 117.08 12.0088 1406 93.569 947.957 472.262
563 0 123.07 12.7163 1565 92.2486 947.047 471.861
564 0 124.178 12.5062 1553 94.4404 948.088 470.107
565 0 129.099 12.7731 1649 92.9588 947.645 470.098
566 0 130.101 12.6518 1646 94.0778 948.401 466.552
567 0 133.113 12.3128 1639 96.2538 947.761 463.6
568 0 136.071 12.6552 1722 96.3223 947.939 461.082
569 0 142.149 13.5914 1932 92.7924 947.056 464.272
570 0 146.227 13.4243 1963 93.9129 947.064 460.878
571 0 150.058 13.768 2066 93.3408 946.573 458.68
572 0 155.094 13.8496 2148 92.4581 946.913 456.151
573 0 158.128 13.3373 2109 94.8127 947.588 454.537
574 0 161.055 13.5606 2184 94.1854 947.017 453.379
575 0 164.171 13.3763 2196 96.3934 947.791 448.714
576 0 170.138 13.395 2279 96.6656 947.183 445.242
577 0 172.149 13.773 2371 99.6411 946.907 443.2
578 0 177.144 13.6274 2414 100.758 946.463 437.197
579 0 180.194 13.6187 2454 100.562 946.479 433.84
580 0 185.254 13.4896 2499 99.9344 946.177 433.185
581 0 190.177 13.4664 2561 98.3503 946.332 431.247
582 0 194.216 13.5159 2625 98.128 946.842 428.372
583 0 200.231 13.4045 2684 97.7019 947.249 424.382
584 0 200.231 13.4245 2688 157.854 947.253 424.198
585 1 232.254 10.2862 2389 104.231 946.983 423.521
586 1 59.0468 10.7711 636 87.5377 947.387 505.483
587 0 60.0844 11.5005 691 86.5557 946.634 508.181
588 0 63.2002 11.25 711 87.4613 945.875 506.196
589 0 63.1172 11.7718 743 88.3607 946.456 506.086
590 0 65.0397 11.4392 744 88.2513 946.716 504.882
591 0 69.0767 12.2038 843 85.8743 947.074 504.681
592 0 68.0366 11.729 798 87.8446 947.48 503.729
593 0 68.0909 11.4259 778 82.5964 946.868 504.021
594 0 69.0676 11.5684 799 82.8598 946.698 503.596
595 0 71.0761 11.3259 805 83.1044 946.575 503.373
596 0 73.0702 11.14 814 83.9889 946.47 502.176
597 0 74.091 11.7828 873 83.795 946.18 500.206
598 0 74.0757 10.7188 794 86.893 944.981 499.194
599 0 77.0969 11.1159 857 86.8355 945.846 498.45
600 0 79.0814 11.014 871 86.2319 946.348 496.302
601 0 79.0637 10.5105 831 87.4212 945.811 495.664
602 0 83.0536 10.7882 896 85.5279 946.225 494.775
603 0 85.0811 10.9895 935 84.2567 945.801 493.586
604 0 90.1335 11.2389 1013 84.3228 945.156 494.007
605 0 91.1246 10.5679 963 87.4652 944.677 491.062
606 1 51.0144 10.2324 522 87.91 945.188 509.282
607 0 52.01 10.2865 535 85.5421 944.598 507.247
608 0 55.0414 10.9917 605 87.4314 945.16 509.998
609 0 51.0537 10.4792 535 84.385 945.222 510.673
610 0 54.0314 10.8455 586 84.1314 945.927 510.759
611 0 56.0973 10.8205 607 82.9769 946.084 511.023
612 0 57.0191 10.7332 612 83.7549 945.663 511.747
613 0 56.0779 10.5389 591 86.5804 945.672 509.54
614 0 59.078 10.8501 641 86.3775 944.502 508.927
615 0 61.0981 11.146 681 86.0529 945.407 507.496
616 0 61.0431 10.6482 650 87.8523 944.858 507.783
617 0 62.0342 11.0906 688 87.4913 945.475 506.576
618 0 63.0258 10.4878 661 89.41 945.245 505.52
619 0 65.0519 11.5907 754 87.1578 945.385 504.049
620 0 67.0339 11.7105 785 88.0777 946.397 502.032
621 0 69.0485 11.5571 798 87.906 946.168 502.624
622 0 70.0615 11.7754 825 86.6412 947.422 499.308
623 0 73.0566 11.6759 853 87.5111 946.751 499.163
624 0 76.0826 12.9596 986 84.284 945.072 499.408
625 0 77.0867 12.5054 964 86.6286 945.801 497.798
626 0 78.1348 12.5552 981 87.792 946.151 496.03
627 0 81.1081 13.1306 1065 87.6976 946.218 495.546
628 0 83.1126 13.3674 1111 88.0612 946.831 494.666
629 0 85.1668 12.4462 1060 89.9981 946.843 489.89
630 0 89.0898 13.8849 1237 85.8278 947.125 489.576
631 0 89.1517 12.7535 1137 90.0607 946.398 489.388
632 0 92.1101 12.4525 1147 90.6783 946.386 487.61
633 0 95.1302 12.6879 1207 89.0953 946.704 486.828
634 0 97.2301 12.7944 1244 89.7355 947.202 484.169
635 0 99.1623 12.5955 1249 89.3491 946.87 482.827
636 1 52.0823 11.2322 585 89.1778 946.696 501.897
637 0 53.0754 10.3438 549 90.5173 947.271 499.366
638 0 54.0637 10.9131 590 90.6254 947.229 497.125
639 0 55.0782 11.8922 655 89.6092 947.131 499.427
640 0 57.0155 12.0494 687 89.1543 946.665 501.926
641 0 59.0226 12.9442 764 86.0445 947.211 506.154
642 0 60.046 12.6903 762 86.3268 948.067 505.906
643 0 63.0413 12.4046 782 86.2762 946.722 504.283
644 0 63.0572 12.7345 803 87.6289 947.152 502.565
645 0 66.0434 12.5069 826 87.1211 947.281 502.735
646 0 71.0851 12.3233 876 86.9212 947.703 501.231
647 0 70.0371 13.0788 916 86.2849 947.89 498.86
648 0 70.0475 12.9912 910 86.6198 947.831 497.553
649 0 70.0233 12.1674 852 89.8333 948.053 495.697
650 0 72.0474 12.5195 902 88.5543 947.916 494.929
651 0 73.0396 12.6096 921 89.0304 948.113 493.526
652 0 75.0764 12.747 957 89.1024 947.26 492.099
653 0 79.0261 12.7806 1010 87.8752 947.816 490.728
654 0 80.0914 12.8603 1030 88.9563 947.226 489.622
655 0 82.0409 12.6035 1034 89.9265 947.507 488.791
656 0 84.0504 13.1945 1109 89.3408 947.294 487.454
657 0 85.049 13.0278 1108 89.7274 947.782 486.542
658 0 87.1096 13.064 1138 91.3313 947.855 481.289
659 0 90.0658 13.0349 1174 91.2504 947.766 480.635
660 0 93.0637 13.4854 1255 92.494 948.355 481.66
661 0 94.0795 13.0528 1228 93.7321 948.984 478.239
662 0 98.0662 14.1027 1383 90.4404 948.806 472.096
663 0 99.0833 13.2818 1316 93.177 948.001 470.783
664 0 100.104 13.5459 1356 93.2441 948.823 467.752
665 0 103.063 13.3898 1380 93.6384 947.608 466.039
666 0 103.089 12.7754 1317 96.1033 947.502 467.455
667 0 105.058 12.7929 1344 96.8385 947.158 466.496
668 0 105.1 12.5309 1317 98.2771 947.717 464.083
669 0 113.093 13.2545 1499 93.543 947.582 465.04
670 0 118.051 13.24 1563 93.1561 948.313 463.202
671 0 120.09 12.8071 1538 93.5956 948.494 462.91
672 0 124.155 13.3462 1657 91.5208 948.37 461.35
673 1 67.035 10.0545 674 86.1202 947.917 496.184
674 0 73.0164 12.5862 919 90.1338 947.751 497.986
675 0 75.0319 12.3148 924 88.3766 947.579 496.379
676 0 76.0936 12.8263 976 86.542 946.946 495.719
677 0 75.0648 11.5367 866 86.9088 947.508 496.745
678 0 78.0506 12.2997 960 85.6167 947.368 495.272
679 0 81.076 12.4081 1006 85.8757 947.937 495.527
680 0 83.0556 13.3766 1111 85.7102 947.292 492.957
681 0 84.0468 12.7786 1074 87.5372 947.912 490.924
682 0 88.0733 12.9211 1138 88.5773 947.855 490.19
683 0 87.0397 12.9251 1125 90.4302 947.926 489.454
684 0 91.1211 13.0266 1187 91.1087 947.965 488.308
685 0 95.0651 12.9911 1235 90.7336 947.518 488.968
686 0 96.0956 13.3097 1279 92.1806 947.664 486.11
687 0 98.0583 13.4206 1316 91.921 948.266 486.817
688 0 102.075 13.5685 1385 90.7401 947.734 485.253
689 0 104.079 13.0766 1361 91.5672 948.323 483.724
690 0 108.168 13.1185 1419 91.098 948.182 482.13
691 0 111.099 13.0785 1453 89.8032 948.924 484.183
692 1 57.097 11.6118 663 87.4178 948.181 509.824
693 0 58.0901 11.4822 667 83.7511 948.022 509.735
694 0 58.033 11.235 652 85.954 947.029 508.577
695 0 60.0159 12.3634 742 86.2534 947.772 508.41
696 0 62.0806 12.4999 776 86.2577 947.369 507.749
697 0 62.1056 12.1084 752 88.1569 947.31 506.795
698 0 63.0428 12.7057 801 86.7366 946.869 507.25
699 0 64.0429 12.5072 801 87.407 946.72 507.3
700 0 66.0736 12.5618 830 86.894 947.396 504.807
701 0 69.0853 12.6365 873 86.1432 946.856 504.152
702 0 69.206 12.7301 881 86.7753 947.198 505.227
703 0 70.0892 12.1131 849 88.6455 946.82 503.155
704 0 72.1245 11.8268 853 89.3763 947.302 503.025
705 0 73.1472 12.5227 916 89.5142 947.211 502.798
706 0 75.0613 12.9094 969 88.8029 946.892 502.382
707 0 74.0854 11.4463 848 91.875 947.126 503.936
708 0 76.0593 12.5823 957 86.0794 947.496 502.182
709 0 75.0314 11.5152 864 89.147 947.303 503.481
710 0 78.0612 11.6703 911 88.7805 947.485 502.011
711 0 80.0476 12.0803 967 89.122 947.479 500.401
712 0 82.0478 11.7492 964 89.3568 947.028 499.637
713 0 84.068 12.1092 1018 88.8517 947.205 499.751
714 0 84.0761 12.1081 1018 89.1935 947.267 498.782
715 0 88.0631 12.4797 1099 88.6943 946.573 498.268
716 0 90.0521 12.6371 1138 89.0791 946.423 496.547
717 0 90.1039 11.8086 1064 92.2923 946.327 494.125
718 0 92.0433 11.6576 1073 92.0885 947.193 494.998
719 0 95.0729 12.0329 1144 92.2098 947.719 494.515
720 0 98.0549 11.8301 1160 92.2733 947.379 493.294
721 0 101.039 12.1142 1224 93.6732 946.573 491.727
722 0 103.047 12.2954 1267 92.3457 947.848 492.639
723 0 105.03 12.6154 1325 91.9691 946.093 489.421
724 0 107.083 12.0747 1293 92.8747 946.533 488.52
725 0 110.135 11.8127 1301 93.774 945.66 488.399
726 0 113.102 12.3871 1401 94.4218 946.202 486.237
727 0 116.1 12.2826 1426 92.8387 946.694 485.309
728 0 119.088 12.2682 1461 92.9685 946.418 481.207
729 1 61.0433 10.9922 671 87.9627 946.674 509.787
730 0 62.0526 11.5869 719 86.2893 946.848 507.939
731 0 67.0174 11.6984 784 80.1582 948.143 507.031
732 0 65.0257 10.765 700 82.3329 946.603 510.567
733 0 64.1211 10.2151 655 83.6198 946.835 509.824
734 0 66.0627 10.0511 664 83.2169 946.596 508.042
735 0 70.1008 10.9271 766 81.6253 946.593 507.074
736 0 70.0715 10.4893 735 82.2286 946.91 505.253
737 0 73.0683 10.8529 793 80.9811 947.325 505.422
738 0 75.0498 11.1659 838 79.716 947.419 504.368
739 0 77.0495 11.0319 850 80.2871 947.212 504.212
740 0 78.0726 11.1819 873 79.6724 946.65 501.313
741 0 81.0748 11.0392 895 80.7441 945.983 499.213
742 0 84.0749 12.0369 1012 78.0376 945.772 498.078
743 0 87.0528 11.2231 977 79.8936 946.743 495.845
744 0 88.1421 11.8445 1044 78.8084 946.214 493.788
745 0 91.1165 11.4798 1046 79.8413 946.242 493.582
746 0 93.0826 11.3877 1060 80.9708 946.433 490.725
747 0 95.05 12.0253 1143 82.2231 946.455 489.179
748 0 99.0933 12.3015 1219 82.4422 946.742 488.323
749 0 102.076 12.04 1229 93.4215 946.467 486.288
750 0 105.09 12.6273 1327 91.4069 947.121 486.419
751 1 57.0184 11.5051 656 89.6296 946.223 509.526
752 0 58.0189 11.6169 674 90.141 946.51 507.868
753 0 60.0934 12.5139 752 87.7354 946.758 507.001
754 0 61.0489 12.0068 733 84.0205 946.524 506.177
755 0 63.0633 13.0187 821 82.6066 947.306 506.337
756 0 64.0694 13.064 837 80.9116 946.846 505.513
757 0 65.0844 12.9678 844 82.1374 948.079 504.731
758 0 67.0868 12.6403 848 81.8762 947.962 504.743
759 0 69.072 12.9864 897 81.9666 948.291 503.15
760 0 70.0388 12.9785 909 82.3201 947.606 503.088
761 0 76.043 12.6113 959 81.7049 947.401 502.112
762 0 75.1448 13.0282 979 82.7967 947.102 499.223
763 0 75.0845 12.7989 961 83.7752 946.611 499.677
764 0 78.0474 12.9793 1013 83.1886 947.262 498.879
765 0 78.0474 12.9409 1010 130.027 948.242 498.846
766 0 83.0531 12.9194 1073 83.2376 947.942 496.633
767 0 84.1001 12.4376 1046 83.7964 947.62 496.153
768 0 86.0883 13.2887 1144 82.4825 948.094 494.667
769 0 88.1167 12.8353 1131 84.2502 948.484 494.713
770 0 90.1738 12.7753 1152 84.9418 947.664 493.086
771 0 93.1735 12.9865 1210 83.8504 947.773 490.892
772 0 97.0832 12.7622 1239 84.7611 947.345 490.634
773 0 98.1187 13.0454 1280 84.5344 947.045 491.029
774 0 102.067 13.0012 1327 84.7249 947.746 488.285
775 1 51.1183 11.9527 611 92.2242 947.89 510.997
776 0 51.1446 13.061 668 88.0329 948.308 506.207
777 0 54.0569 12.9678 701 86.8645 947.485 505.996
778 0 54.0569 12.9678 701 122.889 946.485 505.996
779 0 53.044 12.0278 638 88.4389 948.071 509.555
780 0 54.0379 11.8435 640 90.0359 948.214 509.947
781 0 56.057 11.4705 643 88.5941 946.613 509.404
782 0 57.0506 11.0253 629 90.8394 946.943 508.461
783 0 59.0459 12.2616 724 87.6105 947.243 505.477
784 0 62.0244 11.7212 727 85.4264 947.114 505.948
785 0 62.0836 11.9516 742 86.9609 947.981 505.282
786 0 64.041 12.6638 811 84.4032 947.819 504.771
787 0 67.0401 12.0525 808 85.2104 949.024 503.209
788 0 70.0234 12.9528 907 83.065 948.355 502.062
789 0 71.0448 11.908 846 84.8085 948.779 503.032
790 0 74.0534 12.8826 954 82.9539 948.433 499.611
791 0 76.0275 13.5477 1030 81.9553 948.692 500.33
792 0 81.0953 13.6136 1104 80.5335 948.25 497.041
793 0 81.0504 12.0912 980 84.5918 948.77 498.354
794 0 83.1125 12.5011 1039 84.4033 948.99 496.555
795 0 85.1785 13.1371 1119 83.4325 949.604 493.725
796 0 88.0561 12.9122 1137 83.8646 949.045 493.409
797 1 46.0425 12.6405 582 89.1065 949.462 513.225
798 0 48.0461 13.5495 651 86.5545 949.659 512.972
799 0 49.022 13.4837 661 87.2632 949.487 512.327
800 0 50.0299 12.7124 636 87.162 948.662 513.813
801 0 51.0174 13.8384 706 84.9377 948.239 512.489
802 0 51.0752 13.9598 713 84.3885 948.161 512.363
803 0 53.0124 13.261 703 85.5491 947.731 512.196
804 0 55.0805 13.9977 771 83.7497 948.326 512.235
805 0 55.0322 13.8646 763 84.2503 948.89 510.509
806 0 59.0611 14.6458 865 80.4208 949.015 506.067
807 0 59.0517 14.7498 871 80.9908 948.842 506.852
808 0 60.0644 14.1681 851 83.4336 948.258 505.206
809 0 62.1272 14.5025 901 81.6715 948.732 505.054
810 0 64.117 14.224 912 83.1414 948.014 504.15
811 0 65.1178 14.7886 963 81.6916 947.948 502.992
812 0 65.1268 14.1416 921 84.1922 948.239 503.295
813 0 67.0562 13.5707 910 87.1352 947.925 502.462
814 0 71.1569 13.7724 980 85.9969 948.359 502.392
815 0 72.0413 14.8248 1068 84.0318 948.373 501.687
816 0 74.0915 15.8318 1173 81.7417 948.482 499.654
817 0 75.1098 14.4455 1085 84.8359 948.675 500.457
818 0 75.0624 13.602 1021 87.4006 948.262 500.695
819 0 78.062 13.7967 1077 86.9443 948.399 498.172
820 0 80.1844 13.6311 1093 86.2644 948.066 497.751
821 0 81.1001 13.2922 1078 88.0111 947.73 495.233
822 0 84.0804 12.714 1069 88.4219 947.546 494.966
823 0 87.0579 13.4278 1169 86.5766 947.193 492.814
824 0 89.1291 13.4412 1198 86.2613 947.004 492.789
825 0 91.1144 12.9837 1183 85.7253 947.406 492.041
826 0 91.1144 13.0605 1190 142.87 947.391 491.938
827 0 98.13 13.7267 1347 82.7379 946.973 489.115
828 1 53.0616 12.4195 659 89.2534 946.816 510.361
829 0 52.1113 12.7612 665 88.9654 947.156 511.538
830 0 54.0571 14.2257 769 86.1652 947.079 511.427
831 0 56.0632 14.5372 815 83.2393 947.221 509.865
832 0 58.0488 13.9021 807 84.798 947.29 508.876
833 0 59.1402 14.6939 869 83.748 946.734 508.291
834 0 59.0636 14.1542 836 87.2787 947.524 506.981
835 0 61.1312 14.3626 878 88.0991 946.796 506.76
836 0 63.0268 14.2003 895 89.6771 947.469 505.143
837 0 66.0953 14.3278 947 89.3347 946.487 504.912
838 0 67.0554 14.7341 988 89.5455 946.285 502.508
839 0 68.0333 14.39 979 91.5434 945.674 500.114
840 0 70.0742 14.6131 1024 91.2432 946.195 500.94
841 0 71.0524 14.4682 1028 93.3268 946.25 498.177
842 0 75.0564 13.763 1033 94.3814 946.526 498.058
843 0 74.1207 14.9891 1111 92.9982 946.47 496.5
844 0 76.0981 14.8624 1131 91.5871 946.852 496.37
845 0 79.0724 14.8598 1175 91.737 946.965 494.475
846 0 81.0674 15.1356 1227 90.7221 945.9 491.487
847 0 83.1068 14.8724 1236 92.1254 946.377 489.831
848 0 83.1787 14.4869 1205 93.7552 945.701 492.374
849 0 85.0339 13.9827 1189 95.6686 946.677 487.429
850 0 88.1025 14.1653 1248 94.1178 946.231 487.137
851 0 91.0725 14.3402 1306 92.3806 946.848 486.018
852 0 92.1064 13.973 1287 93.1391 947.101 487.016
853 0 94.0784 14.2966 1345 92.4446 946.737 483.65
854 0 99.199 14.4659 1435 89.869 946.431 481.957
855 0 102.126 13.7183 1401 90.6331 946.393 479.415
856 1 50.0874 12.9773 650 97.9754 945.792 503.017
857 0 52.0584 13.5041 703 96.7582 945.984 503.43
858 0 53.1591 13.8076 734 96.8747 945.898 503.503
859 0 55.0418 13.844 762 95.6588 946.035 501.888
860 0 59.0994 14.2303 841 92.9572 946.667 501.501
861 0 58.0438 13.9722 811 94.5684 946.313 500.171
862 0 61.1047 14.1888 867 93.7878 947.186 499.059
863 0 64.2113 14.4367 927 92.3506 946.906 498.177
864 0 66.1144 14.611 966 92.2091 946.842 497.232
865 0 69.3449 14.5072 1006 92.7962 946.168 497.7
866 0 68.0586 14.1496 963 96.6729 946.766 495.078
867 0 74.1918 14.9612 1110 92.9919 946.076 495.09
868 0 73.1388 15.2587 1116 93.4498 945.921 493.462
869 0 78.3034 15.606 1222 91.0663 946.688 492.722
870 0 79.2618 15.1775 1203 92.7914 946.368 492.388
871 0 81.159 15.1308 1228 94.3966 946.324 489.718
872 0 86.2255 15.5174 1338 92.1704 946.732 489.866
873 0 88.1362 15.6576 1380 91.5225 946.906 489.345
874 0 92.1637 15.1578 1397 93.1238 947.407 488.268
875 0 94.1234 15.0016 1412 94.3959 947.478 488.269
876 0 96.1189 15.564 1496 92.9599 947.342 485.637
877 1 55.0271 12.7028 699 94.3891 946.422 505.821
878 0 55.0933 12.3064 678 94.9395 946.407 506.18
879 0 58.0356 12.8197 744 94.2675 946.538 507.848
880 0 60.0414 13.3908 804 93.1953 946.48 506.858
881 0 61.0763 13.2949 812 93.1084 946.92 507.597
882 0 63.0962 13.4081 846 92.9208 947.098 505.472
883 0 65.1951 13.5286 882 91.6168 947.431 505.649
884 0 65.0472 13.0213 847 94.7025 947.662 503.353
885 0 66.0363 13.326 880 93.8955 946.326 502.203
886 0 67.0474 13.5725 910 92.5835 947.489 502.344
887 0 69.0407 13.0068 898 94.3953 946.226 501.077
888 0 71.0189 13.1796 936 93.6752 945.7 500.105
889 0 74.0444 13.3704 990 93.7444 946.291 498.615
890 0 78.0293 13.354 1042 93.0749 946.638 496.419
891 0 78.0293 13.354 1042 160.981 946.638 496.305
892 0 80.057 12.8409 1028 94.1012 946.16 495.287
893 1 43.0212 10.5762 455 81.0286 947.009 515.89
894 0 46.0203 10.8865 501 79.5469 946.477 515.667
895 0 46.0234 10.864 500 80.698 946.284 513.624
896 0 48.0521 11.4043 548 80.9069 945.819 511.781
897 0 49.0752 12.491 613 80.5383 946.61 511.114
898 0 51.1293 11.4025 583 82.4871 946.148 510.029
899 0 52.0522 11.5653 602 83.0698 946.158 510.462
900 0 52.0218 11.9757 623 84.8475 946.143 509.3
901 0 54.0495 12.5071 676 85.818 946.53 507.895
902 0 55.051 12.2614 675 86.1422 947.582 507.363
903 0 55.0454 11.7176 645 88.431 947.016 507.002
904 0 59.0701 11.9011 703 87.1693 948.344 506.154
905 0 59.0965 12.2342 723 86.7994 947.881 504.635
906 0 62.0861 11.9995 745 86.8591 947.42 503.687
907 0 61.0691 12.1502 742 89.0108 947.253 500.606
908 0 64.0373 11.7744 754 88.6737 947.414 502.462
909 0 65.0748 11.8172 769 89.2601 948.074 501.564
910 0 68.052 12.0643 821 89.3069 948.289 500.457
911 0 69.0546 11.7154 809 90.0396 948.344 498.985
912 0 70.0382 11.3795 797 90.921 947.225 498.56
913 0 74.0506 11.6137 860 90.236 948.091 498.096
914 1 37.0227 10.318 382 87.2382 947.555 515.327
915 0 40.0426 11.3379 454 84.9648 947.383 514.154
916 0 40.05 10.9363 438 87.4315 946.58 513.242
917 0 42.0504 11.4862 483 85.6667 946.41 513.903
918 0 43.0125 10.9968 473 87.2875 947.072 512.831
919 0 42.0499 11.3675 478 85.9686 946.904 512.08
920 0 46.0189 11.756 541 88.9815 946.939 510.998
921 0 46.0821 11.3927 525 89.8324 947.274 511.621
922 0 45.0333 11.7247 528 89.2311 947.6 510.659
923 0 47.0254 11.4832 540 90.9315 946.335 510.843
924 0 49.0255 11.5858 568 88.3134 946.872 509.512
925 0 50.0341 12.2117 611 87.6514 945.681 508.655
926 0 52.041 11.5294 600 86.985 945.748 509.675
927 0 52.0404 11.6064 604 90.394 946.687 507.177
928 0 52.0146 11.0738 576 90.2639 946.076 506.106
929 0 55.0284 11.4668 631 88.1252 946.525 506.366
930 0 56.1057 11.4783 644 88.4193 946.141 506.088
931 0 57.0236 11.8197 674 87.8991 946.082 505.289
932 0 59.0404 11.7039 691 87.5384 945.533 504.622
933 0 58.0479 11.301 656 89.9238 945.055 503.893
934 0 60.028 11.6279 698 89.0788 944.914 501.907
935 0 62.0841 11.5327 716 88.9679 945.077 502.715
936 0 63.0799 12.0165 758 88.0185 944.554 502.765
937 0 66.0379 11.4934 759 88.5916 944.784 501.953
938 0 68.0576 10.7997 735 89.7184 944.552 501.17
939 0 70.0893 11.0431 774 89.5724 944.889 500.244
940 0 71.0831 10.748 764 88.9319 944.907 501.236
941 0 73.1163 11.5022 841 87.3496 944.561 500.904
942 0 75.1536 11.0574 831 88.5909 944.49 500.183
943 0 75.1113 11.0103 827 90.2201 943.186 497.045
944 0 80.0587 11.8288 947 87.5913 943.541 497.407
945 0 82.054 11.3584 932 88.824 943.948 496.098
946 0 84.0932 11.1186 935 90.123 943.56 494.27
947 0 86.0763 10.8973 938 90.7601 944.271 493.311
948 0 89.1513 10.8131 964 91.8413 944.253 491.391
949 1 131.201 11.3718 1492 90.7634 944.982 473.41
950 1 92.0698 10.8939 1003 97.984 944.408 489.412
951 1 46.0503 9.70678 447 91.9776 944.935 513.483
952 0 47.0516 9.4577 445 93.7281 944.791 512.915
953 0 47.0659 9.41233 443 93.4289 943.567 510.731
954 0 45.0366 9.25913 417 84.5324 945.113 513.681
955 0 46.0517 9.18533 423 74.4657 944.428 513.456
956 0 48.0122 8.99771 432 74.3982 945.079 513.428
957 0 49.0447 8.88986 436 75.0092 945.713 511.443
958 0 53.0531 9.46222 502 74.3267 946.187 510.024
959 0 52.0217 9.1308 475 75.6821 945.105 507.221
960 0 53.0541 8.6704 460 76.6044 946.061 507.639
961 0 55.0416 9.26572 510 76 945.259 507.802
962 0 56.0938 9.48412 532 75.6936 945.759 506.729
963 0 56.0508 9.22378 517 76.3366 945.284 507.033
964 0 59.1076 9.69418 573 75.7243 946.115 505.747
965 0 60.0329 9.26158 556 78.2788 945.799 504.295
966 0 61.1144 9.99764 611 78.2782 945.997 504.277
967 0 62.0382 9.42967 585 79.6872 945.46 503.301
968 0 65.0743 10.3113 671 78.5738 947.003 503.641
969 0 65.07 10.2812 669 122.12 948.01 503.531
970 0 70.0452 10.4361 731 79.5732 945.975 499.941
971 0 72.059 10.8661 783 80.9898 946.06 499.231
972 0 72.1484 11.019 795 80.8528 946.431 498.935
973 0 73.0752 11.0434 807 80.8724 945.61 496.933
974 0 75.0506 10.8727 816 81.3346 945.055 497.925
975 0 79.1605 10.7503 851 81.3748 945.068 496.732
976 0 79.1289 11.3233 896 82.1797 945.743 494.628
977 0 81.2145 10.7616 874 83.4828 946.291 494.637
978 0 83.1907 11.4436 952 82.5179 946.286 494.432
979 0 84.1871 11.0825 933 91.1608 947.284 495.224
980 0 86.2341 11.0977 957 94.1912 947.845 492.642
981 0 89.1269 11.7585 1048 92.7987 946.572 491.656
982 0 91.1012 10.9439 997 87.2237 946.96 490.663
983 0 94.1389 11.6105 1093 86.2196 946.169 489.199
984 0 97.2033 12.1292 1179 85.8643 946.952 486.717
985 1 54.0992 9.81529 531 83.983 947.07 507.554
986 0 56.0984 10.4103 584 82.7654 945.923 508.147
987 0 58.095 11.1542 648 81.8272 947.65 507.424
988 0 53.0586 10.0455 533 73.1726 947.572 509.049
989 0 55.1268 9.90443 546 73.0476 947.284 508.861
990 0 57.0256 9.96044 568 73.1496 946.988 508.717
991 0 57.0559 9.70977 554 74.1805 946.594 508.625
992 0 59.0253 10.6056 626 73.9089 946.896 507.82
993 0 58.0793 10.0036 581 75.7608 947.499 507.427
994 0 59.0263 10.148 599 76.7379 947.242 506.175
995 0 63.026 10.9796 692 75.3801 947.626 505.358
996 0 62.0713 10.4074 646 77.1734 948.531 505.139
997 0 65.1051 10.8286 705 77.373 948.216 503.599
998 0 66.0671 10.9131 721 78.3093 948.363 502.394
999 0 67.043 11.3658 762 77.9488 948.235 502.987
1000 0 69.0565 10.8607 750 78.2453 947.968 502.491
1001 0 70.0511 10.5923 742 80.1307 946.813 501.113
1002 0 72.0446 11.1042 800 80.275 947.13 499.359
1003 0 73.0524 11.1427 814 79.6155 947.305 500.034
1004 0 76.0494 11.4925 874 80.3398 947.804 497.868
1005 0 75.1023 10.7853 810 82.6 949.27 498.37
1006 0 80.0886 11.6871 936 79.6731 948.503 497.669
1007 0 80.0808 10.9514 877 82.7868 949.503 495.519
1008 0 83.0715 11.5082 956 81.841 949.141 494.44
1009 0 85.1104 12.4897 1063 79.8297 949.501 493.446
1010 0 88.0848 12.1133 1067 82.2437 948.73 491.285
1011 0 90.0981 12.0757 1088 81.5147 948.266 490.94
1012 0 92.1271 12.1354 1118 82.8292 947.378 488.831
1013 0 95.1463 11.9605 1138 82.9991 947.52 486.647
1014 0 97.2193 12.3741 1203 84.0291 947.413 485.973
1015 0 100.096 12.9276 1294 90.1569 947.398 484.331
1016 0 102.229 12.9709 1326 89.5588 948.931 481.908
1017 1 56.1013 10.3206 579 86.9413 948.366 505.864
1018 0 58.1083 10.4288 606 88.0231 949.672 506.206
1019 0 59.0792 10.6298 628 88.8646 949.059 506.209
1020 0 58.0506 10.1463 589 78.0798 949.898 505.971
1021 0 57.0223 9.90841 565 78.8071 949.811 506.687
1022 0 61.0479 9.8611 602 78.6777 950.007 506.377
1023 0 60.0298 9.49529 570 80.2807 950.054 505.932
1024 0 62.0564 9.53971 592 79.9916 949.716 505.309
1025 0 64.0374 10.4626 670 79.3597 948.787 503.072
1026 0 66.1007 10.5445 697 80.3314 949.131 502.214
1027 0 68.0501 10.7862 734 80.406 948.941 501.887
1028 0 70.0226 10.5537 739 80.6698 948.59 500.057
1029 0 72.0887 10.6813 770 80.8117 948.801 497.992
1030 0 73.055 10.7727 787 81.4435 948.733 496.539
1031 0 76.097 10.7757 820 83.0939 950.363 495.338
1032 0 77.0992 10.9988 848 85.4092 949.664 493.623
1033 0 80.0993 11.4857 920 83.7348 949.196 492.843
1034 0 82.1383 11.2493 924 83.921 949.613 492.722
1035 0 85.2012 11.0797 944 83.1504 947.91 488.285
1036 0 89.4693 11.8588 1061 80.8652 948.416 487.09
1037 1 45.1959 9.33713 422 76.2891 947.517 509.057
1038 0 48.2588 10.2157 493 74.8621 946.576 508.578
1039 0 47.235 9.88674 467 77.3769 947.019 506.056
1040 0 50.2246 9.796 492 79.2378 947.211 505.965
1041 0 51.2144 10.7587 551 84.8584 947.701 505.642
1042 0 51.0303 10.6995 546 77.826 947.084 508.896
1043 0 50.0574 10.7876 540 81.1167 946.941 509.211
1044 0 51.0809 11.0217 563 81.1616 947.538 509.515
1045 0 53.0681 10.9105 579 84.1589 947.026 506.884
1046 0 51.0585 11.1245 568 84.5863 947.343 506.271
1047 0 53.1059 11.091 589 85.0543 946.297 506.795
1048 0 56.0865 11.2148 629 83.4897 946.526 506.892
1049 0 56.0797 10.3603 581 84.9518 947.219 506.131
1050 0 58.088 11.035 641 83.8424 947.839 504.162
1051 0 62.1068 11.448 711 81.5021 946.755 504.219
1052 0 62.1067 11.7862 732 81.153 947.676 503.094
1053 0 62.12 11.4134 709 82.1114 948.206 502.141
1054 0 64.0775 11.8138 757 84.21 947.819 501.103
1055 0 67.1603 11.3311 761 85.6754 947.874 501.147
1056 0 66.0657 11.8972 786 85.4415 948.192 501.616
1057 0 69.1361 12.0776 835 77.2946 948.71 500.756
1058 0 70.0852 11.4717 804 86.3632 947.514 500.813
1059 0 70.0608 11.1903 784 87.9298 947.23 498.617
1060 0 72.0896 11.8186 852 87.1362 946.778 497.11
1061 0 74.0665 12.0972 896 86.9542 946.647 497.969
1062 0 74.054 11.8832 880 88.1205 947.332 497.745
1063 0 76.0706 11.6471 886 88.0632 946.754 495.965
1064 0 78.0967 11.7931 921 87.6265 947.371 493.66
1065 0 76.1008 11.2614 857 90.2906 947.336 493.363
1066 0 80.1432 11.8663 951 88.2198 947.264 492.501
1067 0 82.0861 12.426 1020 86.8755 947.162 490.212
1068 0 85.1659 12.2467 1043 87.4401 947.242 488.978
1069 0 86.2123 12.3648 1066 88.3921 947.49 486.603
1070 0 87.1901 12.2491 1068 88.7968 947.125 484.027
1071 0 90.1608 11.8566 1069 89.9495 947.48 484.326
1072 0 90.1607 12.3114 1110 90.3216 947.468 481.159
1073 0 93.18 12.492 1164 87.8299 948.062 478.989
1074 0 96.3139 12.8642 1239 87.4342 947.513 477.252
1075 0 98.1198 12.6172 1238 87.8021 947.872 477.522
1076 1 51.0942 9.37484 479 84.3215 948.349 500.645
1077 0 52.0838 9.46551 493 84.785 949.266 496.761
1078 0 52.1123 10.3431 539 82.6902 947.98 497.273
1079 0 53.0943 9.77506 519 85.1676 948.318 498.871
1080 0 60.0788 11.668 701 84.4037 947.736 505.708
1081 0 61.0648 11.1848 683 84.4905 947.587 505.612
1082 0 64.0523 11.9121 763 81.8388 947.022 503.802
1083 0 65.087 12.153 791 82.1454 946.877 503.307
1084 0 65.0775 11.2174 730 85.0877 946.867 501.821
1085 0 67.0639 11.0343 740 86.2676 947.622 502.059
1086 0 68.0399 12.4486 847 83.2255 947.793 500.582
1087 0 69.0445 11.8474 818 85.2298 947.852 500.609
1088 0 69.0769 11.6102 802 87.3192 947.158 499.807
1089 0 71.1272 11.6833 831 98.3718 946.728 499.842
1090 0 74.0956 12.3084 912 97.4748 946.222 498.007
1091 0 74.0461 12.1141 897 98.8818 946.21 497.707
1092 0 77.0528 12.2513 944 97.3612 947.186 496.918
1093 0 78.0814 12.1028 945 97.8381 947.476 497.254
1094 0 79.0436 12.3603 977 98.3449 947.729 495.622
1095 0 81.0959 12.2941 997 98.6319 947.936 497.124
1096 0 83.0832 12.7824 1062 98.0452 946.884 494.297
1098 0 85.1578 13.0111 1108 98.8511 947.481 493.394
1099 0 86.101 12.4389 1071 100.272 947.039 493.715
1100 0 88.2003 12.517 1104 99.8496 948.554 494.999
1101 0 89.1348 12.1838 1086 100.599 948.56 491.637
1102 0 90.2112 11.8943 1073 100.105 947.642 488.094
1103 0 91.1372 11.9819 1092 96.5403 948.669 485.447
1104 0 91.1397 11.3123 1031 97.0776 948.249 481.713
1105 0 98.2634 12.2019 1199 95.6355 947.973 483.026
1106 1 54.1548 9.93448 538 90.6617 947.613 508.768
1107 0 56.1199 11.1547 626 87.4744 947.984 510.891
1108 0 56.167 11.2165 630 82.9 948.821 507.979
1109 0 55.077 10.8757 599 81.8815 947.479 511.21
1110 0 56.0814 11.0375 619 82.3263 946.567 511.435
1111 0 56.0744 10.6822 599 84.5576 947.164 508.633
1112 0 59.0704 10.496 620 82.871 947.068 508.569
1113 0 60.0778 10.7527 646 82.2988 947.149 507.415
1114 0 60.0778 10.6529 640 126.086 947.117 507.425
1115 0 66.0848 11.5458 763 79.4587 948.001 505.418
1116 0 68.0888 11.2647 767 80.352 947.27 503.69
1117 0 69.0625 11.0914 766 81.06 947.453 503.871
1118 0 70.0578 11.1908 784 81.6633 946.754 502.971
1119 0 70.0914 11.1854 784 82.4605 946.37 502.547
1120 0 71.069 10.9612 779 83.3325 947.103 501.865
1121 0 75.1063 11.3972 856 81.1414 947.376 500.581
1122 0 76.0557 11.3207 861 80.1487 947.346 500.661
1123 0 78.0615 11.6319 908 80.7401 946.874 500.305
1124 0 80.0532 11.1301 891 82.3019 947.644 498.53
1125 0 80.0326 10.4957 840 83.9857 946.692 498.725
1126 0 83.0698 11.5325 958 82.3152 947.588 496.782
1127 0 85.0376 11.3009 961 82.9376 946.75 495.606
1128 0 86.1363 10.9826 946 84.2558 946.987 492.718
1129 0 90.0467 11.2053 1009 82.2666 946.615 492.891
1130 0 95.1354 11.2471 1070 81.9168 946.471 490.478
1131 1 48.0044 9.89493 475 80.8863 945.632 515.728
1132 0 50.0721 10.5648 529 82.0113 946.645 513.157
1133 0 52.0219 11.2068 583 77.6021 946.007 513.581
1134 0 51.0073 11.4101 582 78.9759 948.137 512.935
1135 0 53.0327 10.9178 579 79.6235 947.594 512.211
1136 0 54.0388 11.7138 633 78.8294 948.365 512.202
1137 0 56.0302 11.4224 640 79.2281 947.598 511.636
1138 0 57.032 11.5199 657 80.2953 948.788 510.857
1139 0 55.0516 11.5891 638 80.268 947.632 510.864
1140 0 58.0486 11.4731 666 80.2072 947.851 511.215
1141 0 58.0605 11.9703 695 79.7309 947.306 509.555
1142 0 61.0408 12.0084 733 78.7885 946.366 508.903
1143 0 61.0274 11.3228 691 80.7627 947.126 508.194
1144 0 64.0321 12.1502 778 78.6208 946.88 507.488
1145 0 63.059 11.1007 700 81.2671 947.264 507.531
1146 0 66.0548 11.5964 766 81.111 947.492 506.141
1147 0 67.0336 11.4719 769 81.2146 947.263 505.62
1148 0 70.052 11.5914 812 81.1626 947.293 504.294
1149 0 71.047 11.7528 835 71.6467 947.146 504.358
1150 0 73.0751 12.2614 896 71.0926 946.59 504.11
1151 0 75.0802 11.5876 870 72.2862 946.226 503.144
1152 0 77.0387 11.6175 895 71.276 945.941 502.87
1153 0 76.0312 11.7057 890 73.3303 945.734 500.945
1154 0 81.069 12.3105 998 71.4178 945.625 500.21
1155 0 79.0488 11.2968 893 75.8735 945.615 502.324
1156 0 80.0473 10.6812 855 76.9404 946.785 500.752
1157 0 85.0398 11.3947 969 76.4045 946.422 498.915
1158 0 86.0348 10.9839 945 77.3841 946.662 498.923
1159 0 88.0926 11.136 981 78.1366 947.112 498.545
1160 1 46.0644 10.5504 486 80.5 946.056 515.889
1161 0 42.044 8.87167 373 77.1019 945.635 512.761
1162 0 42.1241 9.78063 412 74.4223 945.784 505.024
1163 0 45.0938 9.64656 435 75.6667 945.697 508.837
1164 0 48.0695 9.15341 440 75.5795 944.616 516.895
1165 0 50.0314 10.0337 502 73.9721 945.187 515.153
1166 0 50.0439 9.77142 489 75.728 944.779 514.607
1167 0 52.0789 10.4841 546 73.8407 945.357 513.599
1168 0 52.0495 10.9319 569 73.7504 944.863 513.357
1169 0 54.0829 10.8537 587 73.1704 945.363 513.886
1170 0 54.0748 10.2451 554 74.4783 945.491 512.751
1171 0 55.053 9.7179 535 74.7065 945.869 512.692
1172 0 55.0528 9.53631 525 75.1638 945.528 511.697
1173 0 59.0473 10.9234 645 72.3643 945.85 509.978
1174 0 59.0623 10.7852 637 72.7614 945.898 508.631
1175 0 60.0408 10.1431 609 73.6141 945.406 509.296
1176 0 61.0882 10.1001 617 74.1912 945.138 505.519
1177 0 61.0603 10.0393 613 73.7325 944.424 505.845
1178 0 64.0412 10.4776 671 73.3681 944.753 504.836
1179 0 65.0639 10.2207 665 73.1865 945.58 505.635
1180 0 68.0582 10.6967 728 72.5934 944.838 504.529
1181 0 69.0744 10.3367 714 73.9888 946.214 504.497
1182 0 71.0506 10.4151 740 73.9784 946.026 502.866
1183 0 72.0652 11.1843 806 75.2605 944.923 500.639
1184 0 74.0628 11.2067 830 75.4108 945.61 499.578
1185 0 77.1098 11.5549 891 74.6712 944.593 498.975
1186 0 78.0892 11.5381 901 73.6504 945.05 497.649
1187 0 81.0928 11.271 914 74.2123 944.185 495.897
1188 0 84.0534 11.3261 952 74.0294 944.773 495.55
1189 0 85.0405 10.8889 926 74.9168 944.347 495.515
1190 0 90.1229 11.0516 996 74.8132 945.262 495.278
1191 0 88.0584 10.1751 896 77.7768 945.579 491.208
1192 0 93.0229 10.75 1000 76.518 945.101 491.142
1193 0 93.1137 11.3195 1054 77.0607 945.59 488.452
1194 0 96.1005 10.1352 974 79.0267 945.108 490.743
1195 0 99.0809 11.0819 1098 77.7532 944.742 488.736
1196 1 53.0114 10.262 544 77.739 946.347 512.085
1197 0 53.0669 10.6281 564 80.367 946.294 510.316
1198 0 55.0734 10.8946 600 79.9783 945.813 510.307
1199 0 54.0402 9.23387 499 72.4248 945.088 512.425
1200 0 53.0476 9.72711 516 73.1822 946.004 511.793
1201 0 54.0365 10.1413 548 72.9617 945.723 512.077
1202 0 55.0628 8.49938 468 73.9274 945.524 511.209
1203 0 57.1538 9.18574 525 73.7695 944.507 508.371
1204 0 61.0882 10.0347 613 70.6574 945.08 508.455
1205 0 64.1263 10.1362 650 69.9923 945.238 509.651
1206 0 65.0956 10.523 685 69.7197 945.09 511.012
1207 0 67.1026 10.2977 691 69.6179 944.806 511.505
1208 0 68.0733 11.1057 756 68.8294 945.701 509.468
1209 0 68.1075 10.4394 711 71.0183 946.065 509.582
1210 0 72.0829 11.2787 813 69.2903 945.768 507.616
1211 0 70.0624 10.8617 761 70.8646 946.327 507.556
1212 0 75.0603 11.0045 826 71.0133 946.557 506.323
1213 0 76.1214 11.0613 842 71.3135 947.398 507.062
1214 0 79.099 11.1759 884 71.6866 946.545 503.839
1215 0 80.0754 11.2769 903 72.4662 946.176 502.989
1216 0 81.1408 10.833 879 72.727 945.66 502.188
1217 0 83.0748 10.942 909 72.4852 946.09 500.072
1218 0 86.107 11.0212 949 72.705 946.29 498.174
1219 0 89.0433 11.9156 1061 72.1329 946.471 496.787
1220 0 91.0796 11.8138 1076 73.5809 947.17 497.603
1221 0 94.0751 12.0755 1136 73.206 947.988 491.727
1222 0 96.1752 12.1757 1171 74.655 946.448 490.232
1223 1 50.1144 10.1967 511 78.1918 947.288 511.354
1224 0 53.0607 11.157 592 75.2449 947.591 510.731
1225 0 56.1259 11.4208 641 69.6552 945.608 512.732
1226 0 56.1421 11.7737 661 70.5598 946.107 510.549
1227 0 58.0955 11.8254 687 69.936 945.454 511.118
1228 0 58.0705 11.6582 677 71.5022 946.009 510.75
1229 0 60.1226 12.3248 741 69.8853 946.004 509.296
1230 0 60.0476 11.9072 715 72.2699 946.687 509.203
1231 0 62.0938 11.2572 699 74.3162 946.492 508.325
1232 0 63.0555 11.6088 732 73.7295 946.806 507.52
1233 0 66.11 12.0254 795 73.7384 947.215 507.23
1234 0 67.0941 12.0875 811 73.7287 946.887 505.359
1235 0 66.0754 12.3193 814 75.6413 945.891 505.944
1236 0 70.1636 12.2713 861 75.4727 946.166 506.849
1237 0 70.0359 12.1938 854 77.0035 946.71 504.704
1238 0 73.0862 12.9436 946 75.5032 945.938 502.091
1239 0 75.0427 13.1259 985 76.6071 947.257 500.637
1240 0 76.0663 12.6863 965 78.5917 947.5 499.939
1241 0 78.0572 12.7343 994 79.161 947.533 500.073
1242 0 79.1334 12.4473 985 80.7218 946.634 499.978
1243 0 80.1877 12.3211 988 82.9119 947.849 496.691
1244 0 83.0461 12.0656 1002 84.0738 946.766 497.101
1245 0 82.0412 11.9818 983 85.8515 947.318 494.604
1246 0 87.1309 12.5099 1090 84.3404 946.061 494.48
1247 0 89.0922 12.2682 1093 85.1134 946.163 492.63
1248 0 91.1068 12.3591 1126 89.9831 945.846 490.684
1249 0 93.1179 12.7473 1187 86.4086 946.666 489.803
1250 0 95.1434 12.4654 1186 88.0152 946.567 488.453
1251 0 100.293 13.3209 1336 85.378 947.403 487.037
1252 0 100.227 12.5914 1262 87.088 947.882 486.242
1253 1 53.1625 10.9852 584 91.0565 947.728 508.539
1254 0 56.1922 11.5674 650 90.1662 947.655 509.214
1255 0 56.1064 11.5851 650 90.0446 947.345 508.603
1256 0 59.1183 12.2128 722 85.91 945.838 507.512
1257 0 60.0802 11.5512 694 88.9481 947.033 508.671
1258 0 63.1084 11.4248 721 87.9501 946.944 507.449
1259 0 64.0758 12.0482 772 86.8122 946.267 506.617
1260 0 62.0839 11.6616 724 89.5401 946.97 506.489
1261 0 63.0695 11.8599 748 88.234 946.683 506.1
1262 0 67.0914 12.3861 831 85.0301 947.243 504.939
1263 0 68.0906 12.1015 824 84.8859 946.823 503.745
1264 0 70.2684 12.3669 869 85.9574 947.191 502.443
1265 0 72.2886 12.2149 883 86.427 946.342 501.689
1266 0 73.2263 12.5775 921 86.025 946.253 502.556
1267 0 75.1621 12.4265 934 86.8951 946.029 499.215
1268 0 77.1598 12.5713 970 86.5959 946.145 498.56
1269 0 76.2063 12.6499 964 87.7448 945.786 498.199
1270 0 79.1209 12.6136 998 87.5541 946.557 496.431
1271 0 82.2093 12.8209 1054 87.2562 946.448 494.733
1272 0 82.238 12.6462 1040 88.5519 946.424 493.83
1273 0 87.1425 13.541 1180 84.3627 947.686 495.204
1274 0 86.1807 13.4021 1155 86.4961 947.023 493.467
1275 0 92.1772 13.5174 1246 84.9591 947.018 492.147
1276 0 93.1884 13.1561 1226 86.2618 946.621 491.051
1277 0 96.1004 13.1321 1262 85.7235 946.675 488.647
1278 1 51.0318 11.0715 565 82.3894 945.694 513.602
1279 0 51.0322 11.6593 595 82.0034 946.455 513.136
1280 0 54.0333 11.4004 616 77.6997 946.208 511.971
1281 0 52.0249 10.8794 566 73.1219 947.048 511.108
1282 0 56.042 11.2594 631 70.3708 948.539 511.306
1283 0 56.0554 11.0962 622 71.2379 948.667 510.67
1284 0 56.0554 11.0248 618 121.982 948.668 510.688
1285 0 59.0593 11.8525 700 69.6714 948.614 508.76
1286 0 59.0408 11.1787 660 71.2121 948.97 507.662
1287 0 60.0407 11.5588 694 70.8184 948.313 508.641
1288 0 61.0776 12.0011 733 69.6385 948.7 508.186
1289 0 60.0296 11.2111 673 73.058 948.675 508.508
1290 0 63.0443 11.024 695 73.1554 948.502 508.701
1291 0 63.0205 10.6156 669 74.1883 948.708 507.988
1292 0 65.0508 10.4534 680 73.3721 947.587 507.597
1293 0 67.0778 11.0469 741 72.9055 948.552 505.977
1294 0 69.1083 11.2722 779 72.2696 947.651 504.417
1295 0 71.0727 11.7204 833 71.5246 947.738 503.952
1296 0 73.062 11.6887 854 71.1323 947.42 503.842
1297 0 73.0959 11.2045 819 72.5507 948.181 501.302
1298 0 77.072 11.872 915 70.6382 947.597 500.155
1299 0 77.072 11.8461 913 128.317 947.6 500.187
1300 0 79.0488 11.4613 906 73.4338 947.775 498.14
1301 0 80.0574 11.0046 881 74.6424 947.099 498.18
1302 0 83.0761 10.8455 901 74.4828 947.338 497.817
1303 0 84.0589 10.9447 920 75.1152 946.313 497.23
1304 0 88.0569 11.3449 999 73.971 946.539 495.396
1305 0 89.0551 11.4985 1024 74.5449 946.088 495.394
1306 0 92.1646 11.4469 1055 74.4246 946.749 494.358
1307 0 93.0748 11.8292 1101 73.9401 946.691 492.257
1308 0 95.042 11.5633 1099 75.1556 946.676 490.244
1309 0 100.104 12.5969 1261 73.4163 947.273 489.947
1310 0 101.137 12.2507 1239 74.0775 946.968 488.216
1311 0 103.064 12.0023 1237 75.5473 947.104 487.348
1312 0 106.103 11.7245 1244 76.5305 946.344 484.871
1313 0 108.094 11.6935 1264 80.049 946.522 483.115
1314 0 112.137 11.9407 1339 76.2061 945.961 480.729
1315 1 59.0551 10.9728 648 73.7207 946.179 510.286
1316 0 57.0703 10.2505 585 75.3983 945.48 508.797
1317 0 59.0835 11.2553 665 72.3128 946.256 509.465
1318 0 63.0684 12.098 763 78.7549 946.831 507.799
1319 0 65.0506 11.6371 757 79.4927 947.037 505.641
1320 0 67.0415 11.9031 798 78.5 946.88 505.019
1321 0 68.0517 11.2415 765 79.3948 948.055 504.184
1322 0 69.0466 11.7457 811 79.3699 947.165 503.705
1323 0 72.06 11.9484 861 78.7201 946.886 502.822
1324 0 73.0587 11.525 842 80.0534 948.221 501.887
1325 0 75.0664 11.6697 876 79.9646 948.546 500.708
1326 0 75.107 11.4104 857 81.4189 947.242 499.968
1327 0 77.1306 11.487 886 81.588 948.872 499.085
1328 0 79.1253 11.2859 893 81.5834 947.522 498.209
1329 0 80.1437 11.7289 940 82.5426 946.358 497.703
1330 0 82.1661 12.4747 1025 82.5239 946.621 496.325
1331 0 85.1937 12.0079 1023 83.6061 946.101 495.05
1332 0 86.1161 12.2277 1053 83.9582 946.427 494.991
1333 0 90.1618 11.7788 1062 84.4388 946.724 494.26
1334 0 90.1701 11.5116 1038 84.9894 947.283 493
1335 0 92.1286 12.0375 1109 84.1776 946.384 491.466
1336 0 93.1894 11.9649 1115 75.7049 947.229 491.748
1337 0 95.1206 11.6063 1104 76.3841 946.803 490.383
1338 0 97.1411 11.8076 1147 76.6783 946.916 487.65
1339 0 98.16 10.9108 1071 79.9178 945.934 488.483
1340 0 98.1654 10.8388 1064 122.858 943.95 488.377
1341 0 103.248 11.1092 1147 79.3034 946.405 485.376
1342 1 53.0848 9.88984 525 78.1029 946.307 512.15
1343 0 51.1066 8.92253 456 81.5263 946.25 512.75
1344 0 54.0349 10.1046 546 82.804 946.76 511.548
1345 0 55.0812 10.312 568 79.4701 947.259 506.731
1346 0 60.1455 11.4389 688 82.2485 946.423 507.195
1347 0 59.1295 11.2465 665 84.6992 947.808 508.525
1348 0 62.1085 11.8341 735 83.1578 947.588 507.484
1349 0 63.0887 11.7929 744 84.0336 947.548 506.901
1350 0 64.0649 11.1762 716 86.2472 946.524 506.27
1351 0 65.0591 11.113 723 76.704 946.768 508.232
1352 0 67.0882 11.388 764 75.8652 946.31 507.465
1353 0 68.0807 11.2513 766 80.1697 945.898 505.691
1354 0 67.1236 10.9053 732 80.8292 946.122 506.072
1355 0 69.148 11.2368 777 80.4723 946.08 507.23
1356 0 72.1163 12.0639 870 80.5851 945.78 503.892
1357 0 72.1106 11.524 831 83.0698 945.247 503.483
1358 0 73.0995 11.0261 806 84.7556 946.567 503.458
1359 0 79.126 12.1831 964 80.7656 945.984 502.405
1360 0 77.0561 10.8622 837 84.1398 945.972 501.166
1361 0 81.1111 11.0466 896 83.26 945.372 500.204
1362 0 83.112 11.6108 965 82.4539 946.648 500.659
1363 0 84.1113 11.7701 990 82.195 946.273 500.014
1364 0 85.0442 11.6528 991 84.0091 946.302 497.878
1365 0 87.0801 10.8061 941 85.6536 947.155 498.82
1366 0 90.0558 11.9815 1079 84.3772 946.397 497.264
1367 0 93.0524 11.7353 1092 85.5842 946.564 496.91
1368 0 93.113 11.8566 1104 86.6911 945.86 495.768
1369 0 94.1271 11.6969 1101 89.6966 945.54 493.268
1370 0 99.1733 13.0277 1292 89.5194 945.24 492.645
1371 0 98.1493 12.97 1273 90.3558 945.953 492.165
1372 0 103.167 14.1614 1461 87.5168 945.587 491.338
1373 0 104.112 12.7075 1323 90.9017 946.148 490.267
1374 0 106.167 13.2716 1409 90.1774 945.753 488.618
1375 0 109.139 12.8185 1399 90.2974 945.866 487.775
1376 0 111.101 12.7091 1412 89.4639 945.317 484.984
1377 0 110.126 12.5311 1380 83.7993 945.222 482.057
1378 0 112.381 12.2174 1373 89.6089 945.929 484.622
1379 0 114.279 12.9158 1476 85.0169 945.961 483.134
1380 0 114.271 12.6279 1443 86.7928 945.487 480.202
1381 0 116.225 12.9921 1510 88.7139 945.381 482.544
1382 1 58.2293 9.68584 564 80.9539 945.062 505.539
1383 0 61.1314 10.3711 634 77.0016 944.566 506.885
1384 0 64.0447 10.68 684 79.6886 945.107 512.322
1385 0 65.058 11.6204 756 75.4246 945.508 512.844
1386 0 66.0942 11.0902 733 75.8131 945.9 512.233
1387 0 69.0828 11.9567 826 72.9104 945.557 510.817
1388 0 71.0954 11.8292 841 71.264 945.854 510.847
1389 0 72.1183 11.1484 804 71.3371 944.632 509.614
1390 0 72.1183 11.1899 807 140.846 943.625 509.537
1391 0 76.0647 11.3587 864 72.2431 944.646 507.014
1392 0 76.1015 11.3664 865 72.4624 945.857 505.243
1393 0 78.0281 11.7265 915 72.3552 944.898 506.842
1394 0 79.1134 11.6289 920 73.338 945.486 505.473
1395 0 82.0538 11.3828 934 74.273 945.652 503.831
1396 0 84.1085 11.4376 962 75.2931 945.638 502.804
1397 0 87.065 12.6457 1101 73.5831 945.759 501.983
1398 0 89.0564 12.0598 1074 76.2812 945.326 500.51
1399 0 91.1149 11.491 1047 76.5253 945.556 499.117
1400 0 91.0459 11.939 1087 76.2512 944.266 496.544
1401 0 94.0868 12.244 1152 77.6866 944.977 495.929
1402 0 96.0972 12.529 1204 76.7982 944.836 494.403
1403 0 98.242 12.1129 1190 79.4706 944.475 494.224
1404 0 100.073 11.6015 1161 79.1309 944.699 490.792
1405 0 103.119 12.8396 1324 80.6579 944.921 492.498
1406 0 103.101 10.8438 1118 81.5894 945.847 489.246
1407 1 57.0534 9.903 565 72.7274 945.527 512.91
1408 0 58.0573 11.7642 683 75.3675 945.796 515.357
1409 0 59.0497 11.3294 669 76.9268 945.664 515.265
1410 0 60.0723 11.5694 695 77.8518 945.485 514.817
1411 0 60.0558 11.5226 692 79.6012 945.238 512.394
1412 0 63.1198 11.296 713 79.547 945.973 511.411
1413 0 64.1413 11.2564 722 80.9848 945.38 511.839
1414 0 66.0592 11.9892 792 80.4962 944.701 510.543
1415 0 67.0948 11.67 783 81.2184 945.566 510.069
1416 0 68.0864 11.7498 800 82.505 944.47 509.52
1417 0 71.0879 11.8164 840 82.731 945.418 507.869
1418 0 71.1113 11.6156 826 84.2978 944.528 508.22
1419 0 72.1807 12.1501 877 84.1642 944.894 506.604
1420 0 73.0287 11.0505 807 88.3544 945.379 506.98
1421 0 75.0258 11.3028 848 86.8137 945.711 508.098
1422 0 78.1227 11.5587 903 86.7198 945.577 505.192
1423 0 80.0809 11.7132 938 87.4392 945.26 502.903
1424 0 80.0763 11.3142 906 88.9547 945.958 504.451
1425 0 82.1092 12.6174 1036 88.0405 944.992 501.638
1426 0 86.1176 11.9836 1032 89.0242 945.405 500.364
1427 0 86.088 12.2201 1052 89.3156 945.102 500.468
1428 1 49.1267 9.97421 490 89.7714 946.043 518.331
1429 0 52.0625 11.1981 583 86.295 945.501 518.386
1430 0 50.0833 10.8419 543 89.512 945.956 518.643
1431 0 53.0823 11.3597 603 88.335 945.77 516.791
1432 0 54.052 11.8034 638 91.9592 946.334 514.47
1433 0 55.1345 12.1884 672 89.2485 945.368 514.205
1434 0 56.0522 12.2386 686 84.7813 945.437 514.281
1435 0 57.0537 11.831 675 84.9244 944.998 514.41
1436 0 57.029 11.9413 681 85.6505 945.198 512.524
1437 0 58.0975 11.6356 676 85.5118 945.331 511.686
1438 0 60.0371 11.8094 709 82.9915 945.441 510.999
1439 0 61.0595 11.9064 727 83.7166 944.762 511.026
1440 0 62.0625 12.4068 770 83.626 945.982 510.761
1441 0 64.0404 12.539 803 83.4832 945.88 509.225
1442 0 65.0335 11.8708 772 85.1244 946.439 508.263
1443 0 66.0324 12.0547 796 86.1709 946.41 507.985
1444 0 65.0363 11.5935 754 88.0159 945.028 507.477
1445 0 69.0961 12.2293 845 86.1763 944.729 506.109
1446 0 69.0803 12.0005 829 88.9228 944.531 506.96
1447 0 72.06 12.6978 915 86.2688 945.037 503.762
1448 0 75.0909 13.2107 992 84.5585 944.303 502.665
1449 0 75.0796 11.9606 898 89.0245 944.895 503.239
1450 0 76.0252 12.1407 923 89.5092 945.492 502.598
1451 0 78.0593 12.2343 955 89.3267 944.726 500.762
1452 0 81.0372 12.5868 1020 87.6843 946.149 499.398
1453 0 83.062 12.1957 1013 88.5341 945.592 497.667
1454 0 85.0938 11.8575 1009 88.7334 945.697 497.834
1455 0 87.0621 11.7158 1020 88.8226 946.343 497.089
1456 1 48.0244 10.9736 527 86.9753 946.71 516.841
1457 0 49.0629 11.6993 574 86.1463 946.254 516.477
1458 0 49.0632 11.5565 567 85.1834 946.393 515.947
1459 0 51.0165 12.643 645 81.1892 945.837 516.499
1460 0 49.0609 11.8832 583 85.3105 947.055 515.678
1461 0 52.0518 12.5836 655 83.0229 946.551 512.74
1462 0 55.0386 12.6093 694 81.9467 946.84 513.236
1463 0 54.0224 12.2912 664 84.4337 946.708 512.765
1464 0 57.0162 12.8209 731 82.2175 946.702 512.207
1465 0 54.0238 12.0317 650 86.7846 947.597 511.582
1466 0 57.0392 12.4301 709 84.1227 944.951 510.536
1467 0 57.0438 12.0083 685 85.9036 945.19 510.707
1468 0 59.0566 13.0214 769 83.6476 945.273 509.623
1469 0 61.0788 12.8195 783 83.8582 944.73 509.564
1470 0 63.0302 13.5491 854 82.7002 944.663 509.326
1471 0 64.0447 13.9278 892 82.6951 944.296 507.91
1472 0 64.0458 13.9431 893 135.355 943.305 507.905
1473 0 66.0584 12.9431 855 86.069 944.987 506.414
1474 0 68.0325 13.567 923 84.0152 945.97 505.718
1475 0 71.0322 13.2616 942 84.5223 944.972 504
1476 0 71.0252 13.7979 980 84.3286 945.52 503.097
1477 0 74.0406 13.263 982 86.2189 945.456 501.83
1478 0 74.029 13.8324 1024 85.7207 945.652 500.374
1479 0 77.0495 14.1208 1088 85.2316 945.359 499.574
1480 0 77.0594 13.6907 1055 86.418 945.586 498.299
1481 0 80.0993 14.3072 1146 84.3944 945.178 496.738
1482 0 82.0454 14.0776 1155 86.0909 944.913 495.492
1483 0 85.043 13.8048 1174 86.3978 944.918 493.998
1484 0 86.0921 13.8224 1190 86.4353 945.488 493.172
1485 0 89.0881 13.7168 1222 88.1088 944.567 491.025
1486 0 90.0663 13.5789 1223 89.4579 946.984 487.368
1487 0 89.0617 13.3615 1190 91.563 946.265 486.578
1488 0 92.0484 12.9388 1191 91.0638 946.332 485.573
1489 1 47.0449 10.3943 489 89.2229 947.243 510.329
1490 0 47.0153 11.1666 525 88.0762 947.063 508.762
1491 0 48.0203 11.5993 557 88.4057 946.634 506.303
1492 0 52.1006 12.3799 645 88.5457 946.014 509.321
1493 0 55.1012 12.2865 677 86.1521 947.04 509.227
1494 0 56.0284 12.4937 700 85.36 945.763 509.487
1495 0 56.069 12.6273 708 84.4054 945.89 509.778
1496 0 59.0318 12.5187 739 83.9946 946.819 508.978
1497 0 60.0907 12.8972 775 83.911 946.043 508.255
1498 0 62.1201 12.6046 783 84.2056 945.429 507.179
1499 0 63.0678 12.8433 810 85.5469 945.493 506.232
1500 0 65.0446 13.314 866 84.7933 945.84 504.789
1501 0 67.1051 13.6055 913 85.1128 946.549 503.61
1502 0 68.0765 13.4995 919 84.1382 946.753 502.739
1503 0 71.033 13.726 975 84.5108 945.878 501.589
1504 0 73.1182 13.6628 999 85.2332 946.793 499.973
1505 0 73.0705 13.7812 1007 86.8093 945.63 497.914
1506 0 76.0688 13.4746 1025 88.0673 945.769 498.314
1507 0 76.1043 14.1911 1080 87.8537 945.373 498.313
1508 0 81.1657 14.2425 1156 86.9619 945.847 496.61
1509 0 81.0835 14.0349 1138 88.6547 946.278 496.272
1510 0 84.079 14.189 1193 87.5775 946.163 495.62
1511 0 85.1471 14.2107 1210 87.6405 945.612 494.945
1512 0 86.0827 13.8704 1194 88.593 945.59 492.456
1513 0 88.1014 14.2109 1252 87.8259 945.42 491.811
1514 0 91.2178 14.5915 1331 85.9444 945.852 490.121
1515 0 93.0761 14.1497 1317 88.041 946.224 487.674
1516 0 94.1239 14.8634 1399 87.7484 945.744 487.132
1517 0 99.2215 13.9788 1387 88.9928 946.208 486.882
1518 0 100.114 14.0839 1410 90.0135 946.376 486.44
1519 0 101.167 13.7594 1392 89.7134 946.155 481.734
1520 1 51.0587 10.2431 523 89.4838 945.862 506.382
1521 0 53.0998 11.2807 599 93.7279 945.529 507.498
1522 0 56.0297 11.5474 647 90.6151 945.337 507.798
1523 0 57.032 11.9056 679 87.9838 945.636 509.035
1524 0 58.0286 12.1147 703 87.2845 944.532 508.599
1525 0 60.0877 12.2488 736 87.0788 945.113 506.663
1526 0 61.0558 12.4804 762 87.8228 945.772 507.308
1527 0 61.0849 12.1307 741 89.6491 945.325 507.167
1528 0 64.0395 11.8052 756 90.828 945.964 505.603
1529 0 66.1006 12.2389 809 90.1162 945.98 504.858
1530 0 67.0517 12.0951 811 91.3909 946.467 504.584
1531 0 67.0517 12.0504 808 146.024 946.467 504.661
1532 0 71.0772 12.395 881 90.8479 946.814 504.59
1533 0 72.0295 12.4394 896 91.0569 946.022 504.095
1534 0 73.0736 12.6995 928 91.4461 945.871 501.402
1535 0 75.0684 13.0548 980 91.6918 944.511 500.207
1536 0 78.0782 13.1663 1028 89.5846 945.287 500.29
1537 0 79.0606 13.0027 1028 91.8366 944.938 499.65
1538 0 81.0652 13.3596 1083 91.398 945.583 498.828
1539 0 83.0685 13.5551 1126 90.8242 945.552 497.866
1540 0 84.0726 13.5716 1141 91.9255 945.74 497.216
1541 0 87.0408 13.8556 1206 90.9793 946.153 495.768
1542 0 87.0408 13.9015 1210 156.745 946.155 495.788
1543 0 91.0898 13.58 1237 92.0259 946.485 493.538
1544 0 93.0476 14.0681 1309 91.2979 945.97 492.841
1545 0 95.098 13.5965 1293 92.8933 945.906 490.347
1546 0 96.0559 13.8045 1326 93.276 945.392 490.189
1547 0 99.1073 13.2886 1317 95.8117 945.86 490.967
1548 0 103.177 14.1893 1464 92.4447 945.569 487.314
1549 0 103.137 13.5256 1395 93.2631 945.73 481.216
1550 1 55.0445 10.5914 583 89.5609 945.25 505.134
1551 0 56.0833 10.1813 571 89.9282 945.855 505.334
1552 0 57.0651 10.9173 623 88.7095 945.971 502.185
1553 0 58.1604 10.9353 636 88.5629 946.228 501.561
1554 0 59.0739 10.8339 640 89.9984 946.255 501.262
1555 0 61.0789 11.6734 713 87.8177 945.735 500.182
1556 0 65.081 11.14 725 89.0745 946.262 501.083
1557 0 65.0724 11.4488 745 88.0201 946.309 500.14
1558 0 68.033 11.5973 789 88.038 946.897 499.309
1559 0 68.0267 11.7895 802 89.3666 946.893 497.796
1560 0 69.0481 11.9192 823 88.6671 947.429 498.069
1561 0 70.0492 11.8774 832 88.9651 945.988 496.675
1562 0 75.0858 11.8531 890 87.8854 946.636 496.107
1563 0 76.0662 11.9238 907 89.8897 945.971 495.545
1564 0 77.1006 12.2567 945 88.4772 946.159 495.239
1565 0 78.0594 11.7859 920 89.8228 946.867 493.492
1566 0 81.0654 11.5216 934 90.742 946.826 491.904
1567 0 82.0356 11.6169 953 90.2896 947.724 491.714
1568 0 85.0774 11.1781 951 90.938 947.302 489.933
1569 0 89.0323 11.4004 1015 89.1399 947.443 490.3
1570 0 89.0371 11.1639 994 91.2666 946.736 486.995
1571 0 95.0661 12.5386 1192 96.4992 946.649 490.142
1572 0 99.0504 13.2054 1308 92.3784 946.635 490.268
1573 0 97.0449 12.1284 1177 96.644 946.848 487.104
1574 0 102.07 12.364 1262 94.3661 946.437 485.705
1575 1 54.023 10.9028 589 87.9711 947.238 510.638
1576 0 56.0361 10.9929 616 88.1055 947.11 510.276
1577 0 55.1187 11.194 617 82.7472 946.279 510.447
1578 0 57.0787 12.1061 691 81.4588 946.253 507.755
1579 0 60.0873 11.8328 711 89.0703 947.378 508.754
1580 0 61.0206 13.0939 799 86.4093 947.766 507.715
1581 0 61.0599 12.0374 735 89.6789 946.982 507.083
1582 0 63.0758 12.1441 766 89.1606 947.106 506.437
1583 0 66.0706 12.4715 824 86.7561 946.325 507.023
1584 0 68.0332 12.6997 864 87.1574 946.284 506.093
1585 0 68.0512 12.7845 870 87.331 946.806 505.454
1586 0 69.0986 12.2868 849 88.7632 947.033 504.265
1587 0 72.0492 13.2548 955 87.0848 946.866 503.441
1588 0 72.0554 12.31 887 90.8501 946.412 502.487
1589 0 75.0554 12.9504 972 88.68 947.142 501.534
1590 0 75.0621 12.8027 961 90.333 946.393 501.135
1591 0 77.1247 12.992 1002 90.001 946.266 500.122
1592 0 80.0736 12.8007 1025 88.961 945.428 499.448
1593 0 79.1257 12.9035 1021 90.8061 945.631 498.231
1594 0 82.0728 12.8301 1053 91.4084 945.744 496.863
1595 0 84.0677 12.6446 1063 91.9868 946.355 495.089
1596 0 86.1631 12.1282 1045 93.9502 946.008 494.25
1597 0 87.1586 12.7928 1115 91.8422 945.812 492.752
1598 0 89.1487 12.7988 1141 92.128 946.12 491.38
1599 0 91.1663 11.8794 1083 93.8246 946.177 491.574
1600 1 49.0245 10.097 495 90.8808 947.091 514.139
1601 0 50.0731 10.7043 536 89.4291 946.509 512.192
1602 0 49.0409 11.1336 546 85.1996 946.753 512.341
1603 0 50.101 11.896 596 80.5755 944.948 508.669
1604 0 53.0845 11.6041 616 76.8604 944.609 509.409
1605 0 53.1 12.0151 638 77.5329 944.237 509.707
1606 0 55.1812 11.5981 640 78.2641 945.117 507.923
1607 0 55.0423 11.9363 657 79.2359 946.096 509.545
1608 0 55.0973 11.5069 634 79.4085 946.615 508.573
1609 0 58.1008 11.2735 655 80.0916 945.751 507.893
1610 0 59.0759 11.9676 707 78.1683 946.301 508.294
1611 0 61.0742 12.5585 767 77.219 946.116 506.699
1612 0 60.0622 12.1041 727 79.7043 945.51 504.527
1613 0 62.0964 12.5128 777 77.9678 944.709 501.875
1614 0 62.0806 12.1616 755 79.5285 944.93 501.199
1615 0 67.0692 12.0025 805 78.195 944.827 500.804
1616 0 66.0648 12.2153 807 79.083 945.931 499.773
1617 0 68.0439 10.8753 740 82.2068 945.623 497.801
1618 0 70.1194 12.0937 848 80.0283 945.354 498.572
1619 0 68.1573 12.1044 825 81.4145 946.333 497.257
1620 0 72.0847 12.2217 881 86.0499 945.492 495.936
1621 0 75.1187 11.4086 857 86.3827 945.25 494.075
1622 0 77.0616 13.0285 1004 83.0229 944.687 493.106
1623 0 82.1651 13.0591 1073 82.2367 944.534 493.203
1624 0 82.0512 13.1869 1082 82.6664 946.073 492.558
1625 0 85.1684 13.5027 1150 81.4191 945.435 491.788
1626 0 87.068 13.1736 1147 81.8745 946.078 491.214
1627 0 88.1334 13.4228 1183 81.519 946.046 490.597
1628 0 90.1466 12.7792 1152 82.6398 946.228 487.246
1629 0 91.0423 12.9281 1177 83.22 945.672 486.833
1630 0 93.075 13.7523 1280 83.5078 945.47 485.941
1631 0 96.1391 13.8861 1335 83.1566 944.676 484.444
1632 0 97.1129 13.4586 1307 83.3374 945.064 485.13
1633 0 100.196 13.1443 1317 83.2339 944.745 482.984
1634 0 103.12 13.5667 1399 81.2209 944.763 483.089
1635 0 104.075 12.8561 1338 82.0852 945.244 480.851
1636 0 108.099 12.7846 1382 81.7258 945.294 479.816
1637 0 109.085 12.4032 1353 83.4752 945.876 477.164
1638 1 59.1032 10.7101 633 78.2022 944.458 503.021
1639 0 62.0837 10.7275 666 77.6441 944.841 503.653
1640 0 58.0515 10.7663 625 76.5456 945.595 498.677
1641 0 60.0811 10.5191 632 74.875 944.646 496.177
1642 0 63.078 10.273 648 70.466 944.562 499.369
1643 0 66.0718 10.8972 720 69.6375 944.485 498.499
1644 0 68.2413 10.9904 750 69.4867 944.74 498.576
1645 0 69.1867 10.9559 758 69.9631 944.58 496.565
1646 0 71.0922 11.5202 819 68.6557 945.536 495.689
1647 0 71.135 10.712 762 71.2218 945.303 493.388
1648 0 77.122 11.0345 851 70.7145 945.844 493.635
1649 0 77.0746 11.4435 882 71.2744 945.174 492.383
1650 0 80.0687 12.0646 966 70.9358 945.536 491.403
1651 0 84.0828 11.9763 1007 71.7428 945.318 491.788
1652 0 86.1379 11.9808 1032 72.1541 944.747 491.117
1653 0 89.0877 12.6617 1128 77.5975 944.626 492.272
1654 0 91.0817 12.8237 1168 78.5274 945.282 490.062
1655 0 93.1428 12.4111 1156 80.1713 944.704 489.725
1656 0 95.0936 12.5981 1198 80.4157 944.947 488.388
1657 0 97.1069 12.7797 1241 81.581 944.803 486.156
1658 0 98.1022 12.6297 1239 82.9225 944.446 484.238
1659 0 102.187 12.8098 1309 82.8304 945.84 485.471
1660 0 107.195 13.3961 1436 81.1017 945.448 484.187
1661 1 56.1091 10.8717 610 84.2902 945.818 507.111
1662 0 59.1175 11.198 662 82.0529 944.971 505.308
1663 0 60.1343 11.8235 711 81.6399 945.082 506.526
1664 0 62.0769 11.2602 699 83.1488 944.369 504.2
1665 0 61.0372 12.435 759 74.7194 945.196 505.73
1666 0 62.0543 11.3449 704 76.7727 945.062 506.536
1667 0 64.0583 10.7714 690 76.8058 945.054 506.654
1668 0 65.0644 11.3272 737 76.0298 945.137 504.722
1669 0 67.0671 11.5109 772 76.0402 945.367 502.707
1670 0 70.0716 11.6452 816 75.6005 944.963 501.93
1671 0 73.0638 12.2085 892 73.4944 944.884 500.351
1672 0 74.1234 11.7372 870 73.6115 945.202 498.493
1673 0 75.0893 11.2533 845 74.3621 945.446 498.472
1674 0 79.0826 12.0127 950 72.9316 945.362 498.095
1675 0 80.0476 12.1927 976 72.0666 945.165 496.642
1676 0 83.0593 12.2202 1015 71.867 944.919 495.255
1677 0 84.0703 12.442 1046 72.761 944.697 495.612
1678 0 86.1744 12.5095 1078 72.552 944.38 495.19
1679 0 89.041 12.6571 1127 74.268 944.524 493.875
1680 0 90.0491 12.16 1095 76.4018 944.802 492.115
1681 0 92.0881 12.184 1122 77.0847 944.311 490.572
1682 0 95.0169 12.4188 1180 77.1754 945.68 488.859
1683 0 97.1062 12.543 1218 76.9565 944.832 488.205
1684 0 99.1206 12.3587 1225 78.4024 945.258 485.18
1685 0 103.113 13.0246 1343 78.0454 945.643 484.261
1686 1 56.0131 10.3547 580 79.1448 945.416 510.74
1687 0 57.0436 9.88718 564 82.9858 946.229 507.583
1688 0 58.1391 11.5069 669 78.9537 946.082 506.067
1689 0 59.0143 11.5565 682 74.9164 945.922 507.085
1690 0 62.0365 11.7995 732 73.959 944.952 506.65
1691 0 65.0404 12.5461 816 72.3174 945.853 506.135
1692 0 67.1029 12.2797 824 72.2306 945.449 506.017
1693 0 68.1018 12.2317 833 73.3385 946.016 504.765
1694 0 67.0395 12.6194 846 74.052 945.518 505.116
1695 0 69.0498 12.4403 859 74.6135 946.439 503.427
1696 0 71.0605 12.8763 915 74.2634 945.22 501.964
1697 0 74.0737 12.2446 907 75.5204 946.03 500.462
1698 0 76.0395 12.7302 968 75.3512 945.607 500.787
1699 0 78.088 12.7164 993 76.4572 945.619 498.157
1700 0 79.0497 13.2195 1045 76.3588 945.944 498.144
1701 0 81.0552 12.0782 979 79.0644 946.247 496.374
1702 0 84.0529 13.1227 1103 77.8667 945.951 496.228
1703 0 86.0618 13.5949 1170 78.2214 945.203 494.729
1704 0 88.0596 14.1836 1249 77.6141 945.679 493.681
1705 0 89.0738 13.6292 1214 80.3105 946.102 492.754
1706 0 92.0756 13.9559 1285 79.993 945.072 492.868
1707 0 94.0756 13.5636 1276 82.46 944.879 491.821
1708 0 95.0387 13.7839 1310 83.0084 945.369 491.36
1709 0 97.0995 13.8827 1348 83.2737 945.467 490.702
1710 0 99.0877 13.9573 1383 83.919 945.65 490.967
1711 0 101.045 13.8651 1401 85.1006 945.69 488.783
1712 0 103.023 14.6278 1507 84.6841 946.163 487.453
1713 0 104.033 14.2455 1482 86.1849 945.522 486.332
1714 0 106.181 14.0515 1492 86.0121 946.44 483.861
1715 0 109.068 13.9912 1526 85.4987 945.948 481.758
1716 0 110.108 14.395 1585 84.8845 946.226 480.314
1717 0 114.072 13.5616 1547 86.5747 945.126 478.813
1718 0 117.102 13.6889 1603 86.1584 946.11 477.594
1719 0 121.108 13.6738 1656 86.846 944.946 477.022
1720 1 73.0274 11.6942 854 86.9403 945.975 503.523
1721 0 73.0275 12.7212 929 90.0926 946.201 502.553
1722 0 73.0501 11.6769 853 84.6682 946.178 504.374
1723 0 75.0372 13.0469 979 83.2196 946.228 502.165
1724 0 77.0358 11.9425 920 84.9967 946.014 502.778
1725 0 78.0509 11.9153 930 86.5097 945.484 501.319
1726 0 81.1326 12.2639 995 86.1005 945.296 499.631
1727 0 84.0738 12.5961 1059 84.8669 945.3 498.909
1728 0 85.049 12.24 1041 87.5802 944.99 496.272
1729 0 87.04 12.5689 1094 87.9872 945.403 496.148
1730 0 89.0309 12.6922 1130 87.723 944.782 494.922
1731 0 90.0909 12.6539 1140 87.9579 944.822 494.807
1732 0 93.1094 13.1566 1225 87.8057 945.385 492.778
1733 0 95.0998 13.06 1242 88.4638 946.005 491.435
1734 0 96.0423 12.6507 1215 90.079 946.335 490.711
1735 0 99.0745 12.9095 1279 89.5575 945.688 488.784
1736 0 101.059 12.933 1307 88.4927 947.039 488.711
1737 0 103.097 12.464 1285 89.1743 945.944 485.569
1738 0 105.075 11.9724 1258 90.4762 946.644 485.074
1739 0 109.1 12.6214 1377 88.0806 946.958 484.269
1740 0 112.144 11.7884 1322 89.4614 947.495 482.101
1741 0 116.18 12.6269 1467 88.195 945.746 479.14
1742 1 64.0928 11.2961 724 83.8025 946.217 507.102
1743 0 66.059 11.2021 740 84.6405 945.341 506.52
1744 0 67.0214 11.8619 795 85.0226 946.468 505.65
1745 0 68.0427 11.9925 816 80.8284 945.855 504.699
1746 0 69.0454 11.9487 825 81.7067 945.836 504.107
1747 0 72.1157 12.8266 925 79.9459 946.596 503.803
1748 0 74.0376 12.2505 907 81.7233 946.072 503.542
1749 0 75.0357 12.0743 906 82.6622 945.893 502.341
1750 0 76.0723 12.1726 926 82.6436 945.447 498.956
1751 0 79.034 12.3365 975 81.4277 945.455 499.78
1752 0 77.0762 11.1059 856 85.8575 945.398 501.229
1753 0 78.0544 10.6849 834 87.7674 945.486 498.992
1754 0 80.1157 10.4973 841 87.1581 944.508 500.766
1755 0 82.0635 11.0646 908 86.4504 945.622 499.825
1756 0 85.0425 10.8534 923 85.9263 945.364 497.505
1757 0 87.0726 11.4732 999 84.6707 945.747 496.531
1758 0 87.0883 10.9774 956 85.9132 945.583 496.208
1759 0 91.1006 11.5586 1053 84.4463 945.816 492.063
1760 0 92.1203 10.7902 994 85.7374 945.895 492.693
1761 0 93.0568 11.2082 1043 86.2454 946.39 490.434
1762 0 97.0218 11.6263 1128 84.5505 945.488 490.556
1763 0 99.0689 11.709 1160 84.5103 946.121 488.722
1764 0 101.064 11.5174 1164 84.8763 945.566 488.077
1765 0 104.05 11.85 1233 84.9562 946.032 486.463
1766 0 104.053 11.8786 1236 85.2379 944.79 485.248
1767 0 109.093 12.2739 1339 84.4922 944.979 483.965
1768 0 108.049 11.0505 1194 87.8995 944.897 481.719
1769 0 111.068 11.1283 1236 87.7443 944.723 481.684
1770 0 113.151 11.8514 1341 86.8322 945.276 479.581
1771 0 115.071 11.3929 1311 88.2418 945.262 477.43
1772 0 119.083 11.6725 1390 87.9245 946.188 476.204
1773 0 124.083 11.9678 1485 87.5212 945.316 475.067
1774 0 125.055 12.5704 1572 88.2258 945.816 473.352
1775 0 130.076 13.0001 1691 87.932 945.187 472.903
1776 0 132.071 12.6977 1677 91.037 945.782 470.16
1777 0 133.087 12.9614 1725 90.1194 944.486 468.388
1778 0 136.092 12.881 1753 90.085 945.07 466.895
1779 0 140.08 12.1859 1707 91.8635 944.775 464.944
1780 0 145.113 13.2862 1928 89.3973 945.402 464.176
1781 0 149.151 13.597 2028 89.6395 945.343 461.141
1782 0 152.124 13.1735 2004 91.73 945.837 460.362
1783 0 159.133 14.1266 2248 96.919 945.4 453.687
1784 1 86.1105 11.973 1031 93.4054 946.593 489.834
1785 0 91.1035 12.5571 1144 91.7535 946.519 488.42
1786 0 93.0618 12.6905 1181 93.5411 946.437 486.384
1787 0 95.0771 12.7791 1215 93.0946 946.078 485.366
1788 0 95.0566 12.582 1196 94.2726 946.492 484.186
1789 0 100.071 13.0308 1304 91.161 945.528 483.705
1790 0 102.095 12.8213 1309 91.8976 945.726 482.612
1791 0 105.102 12.721 1337 88.5243 945.312 481.766
1792 0 108.127 12.1801 1317 91.6644 945.615 479.989
1793 0 111.075 12.082 1342 86.6788 945.53 480.682
1794 0 112.042 11.4779 1286 87.4953 945.104 478.294
1795 0 114.066 11.8002 1346 86.4339 945.233 478.386
1796 0 119.089 12.1926 1452 84.2011 945.348 475.833
1797 0 119.12 11.4507 1364 85.3116 945.978 474.108
1798 0 124.095 12.1842 1512 82.4478 946.124 473.141
1799 1 66.0597 10.5813 699 84.0014 945.499 497.305
1800 0 67.0297 11.9648 802 81.4913 944.83 493.218
1801 0 70.0967 10.7708 755 72.7907 945.226 497.845
1802 0 74.0589 11.5719 857 70.8611 945.141 496.816
1803 0 76.1243 10.6011 807 72.2007 944.962 495.634
1804 0 77.1558 12.0276 928 74.6832 944.705 501.54
1805 0 79.0908 12.0115 950 74.8347 945.076 500.003
1806 0 82.083 12.1462 997 73.8014 945.5 500.083
1807 0 84.0969 11.5224 969 75.7926 945.682 497.745
1808 0 88.177 12.044 1062 74.7429 945.21 496.089
1809 0 90.1532 11.6025 1046 75.5392 945.547 496.796
1810 0 92.0688 12.8925 1187 79.2848 945.147 492.292
1811 0 94.1564 12.3624 1164 75.4167 945.429 491.646
1812 0 97.1613 12.7932 1243 74.3958 944.658 492.187
1813 0 96.1312 11.2867 1085 78.3622 944.795 491.112
1814 0 100.133 12.3735 1239 76.2744 945.136 490.201
1815 0 102.149 11.7769 1203 77.7997 944.686 488.422
1816 0 106.139 12.135 1288 76.6522 945.376 484.719
1817 0 107.191 12.2025 1308 77.2737 945.442 485.725
1818 0 109.069 11.8091 1288 78.2912 945.364 484.231
1819 1 62.0646 11.0047 683 78.448 945.067 507.911
1820 0 63.0994 11.0461 697 81.0373 945.294 506.595
1821 0 64.0331 11.9313 764 75.2513 945.699 504.903
1822 0 66.1135 11.4954 760 73.9645 944.843 504.391
1823 0 68.1701 11.6033 791 73.5512 945.258 502.78
1824 0 71.1012 12.5314 891 71.8653 944.948 501.187
1825 0 71.122 11.881 845 73.7302 944.706 499.627
1826 0 73.0722 11.906 870 73.469 944.9 500.432
1827 0 73.1378 11.6629 853 74.4127 944.748 498.256
1828 0 77.1416 11.0706 854 66.9614 944.812 496.344
1829 0 77.096 10.7917 832 68.5589 945.323 495.843
1830 0 78.1901 10.6919 836 69.8696 945.545 493.705
1831 0 82.0806 10.977 901 70.6404 945.516 492.899
1832 0 83.0914 10.8796 904 72.9613 945.091 490.975
1833 0 86.0589 12.7006 1093 70.5901 945.511 494.03
1834 0 89.0913 11.6846 1041 73.2017 945.676 491.869
1835 0 92.0772 11.6858 1076 78.1756 945.531 488.855
1836 0 93.0672 12.2707 1142 81.049 945.088 487.812
1837 0 94.1204 12.5796 1184 81.9113 944.904 486.891
1838 0 98.1384 12.5435 1231 82.1089 945.315 486.134
1839 0 101.082 12.851 1299 83.0139 945.43 485.81
1840 0 102.092 12.3026 1256 85.6282 945.076 484.895
1841 0 105.15 12.1255 1275 86.04 945.57 484.394
1842 0 107.145 12.4784 1337 82.9484 945.175 481.965
1843 0 111.096 12.7188 1413 81.7084 945.565 482.428
1844 0 113.15 12.6557 1432 82.6955 945.914 480.443
1845 0 115.131 13.2284 1523 82.457 946.078 478.598
1846 0 116.1 12.3773 1437 84.1698 946.308 475.418
1847 0 118.141 12.3581 1460 84.1678 946.017 473.353
1848 0 122.25 12.9161 1579 81.6548 945.946 472.004
1849 1 67.1438 10.753 722 74.0222 946.485 501.278
1850 0 68.1796 11.1764 762 73.1168 946.106 500.978
1851 0 69.0821 10.9435 756 71.84 946.078 500.364
1852 0 69.0468 11.1663 771 72.4112 946.218 501.258
1853 0 73.2003 11.1338 815 69.9031 945.714 496.941
1854 0 75.0968 10.7994 811 69.8471 945.234 496.513
1855 0 76.1452 11.2811 859 69.2957 945.669 496.166
1856 0 79.0685 11.5217 911 69.3644 945.855 497.022
1857 0 80.0808 11.1762 895 70.219 946.488 495.202
1858 0 81.0806 11.6181 942 69.9798 946.712 493.413
1859 0 84.0513 11.2907 949 70.2497 946.162 493.11
1860 0 84.0307 12.2574 1030 76.2223 946.535 492.399
1861 0 86.0373 11.0301 949 71.8356 945.965 489.85
1862 0 90.0559 11.1486 1004 70.6175 946.818 490.511
1863 0 91.1354 11.0056 1003 71.8824 946.401 487.459
1864 0 92.1491 11.0256 1016 72.1919 946.089 484.737
1865 0 92.0613 10.5799 974 73.0205 946.785 483.799
1866 0 95.0718 10.8655 1033 72.8044 946.65 480.593
1867 0 99.099 10.3533 1026 76.3207 946.914 480.059
1868 0 101.115 10.582 1070 76.0477 947.287 478.46
1869 0 103.103 10.7466 1108 75.4323 947.174 476.833
1870 0 106.181 11.3014 1200 74.6725 946.807 473.783
1871 0 108.125 11.1168 1202 74.4035 947.503 475.122
1872 0 110.061 10.9575 1206 75.9254 946.561 472.352
1873 0 114.069 11.5544 1318 75.3225 947.001 468.304
1874 0 115.103 10.912 1256 76.7723 946.842 466.318
1875 0 119.049 11.281 1343 76.8362 946.914 465.961
1876 1 57.0419 9.1161 520 65.3827 946.06 502.008
1877 0 56.0436 9.88517 554 75.4603 946.155 499.049
1878 0 61.0684 11.3479 693 72.1703 945.794 498.302
1879 0 61.0914 10.2797 628 73.828 946.686 498.06
1880 0 63.0447 10.8494 684 73.1184 946.294 496.892
1881 0 64.0504 11.0226 706 72.2082 945.84 496.749
1882 0 66.083 11.5461 763 70.08 946.108 496.008
1883 0 67.1459 10.5889 711 72.7004 946.383 494.315
1884 0 67.1017 10.7002 718 72.8496 945.531 493.387
1885 0 68.076 10.9877 748 72.8997 946.082 491.969
1886 0 70.0509 11.7771 825 71.3442 946.103 492.364
1887 0 73.0816 11.0288 806 64.438 945.854 491.306
1888 0 73.1013 10.2461 749 66.2096 946.539 489.192
1889 0 78.0715 10.6057 828 66.5628 946.692 489.883
1890 0 80.1178 10.6343 852 67.7829 946.614 487.332
1891 0 80.1159 10.4598 838 70.4976 946.963 486.852
1892 0 83.0467 10.2593 852 71.7254 946.64 487.279
1893 0 88.097 12.577 1108 76.1742 947.7 492.585
1894 0 89.1003 12.6823 1130 77.7478 946.956 490.912
1895 0 93.0854 12.9129 1202 78.1215 947.292 489.686
1896 0 96.1434 13.0846 1258 78.8164 946.649 489.017
1897 0 97.0773 12.6909 1232 80.3896 947.423 487.458
1898 0 100.082 13.1992 1321 79.6525 946.139 485.357
1899 0 100.127 12.1046 1212 83.6122 946.388 484.521
1900 0 106.168 13.3656 1419 80.833 946.815 484.149
1901 0 108.163 13.1376 1421 82.0816 946.919 482.799
1902 0 109.139 13.3499 1457 82.3246 946.539 480.623
1903 1 59.0727 10.6818 631 88.8051 946.414 503.124
1904 0 57.0561 10.9892 627 89.6013 945.866 494.065
1905 0 60.0266 11.4283 686 87.7289 945.803 494.452
1906 0 61.0367 11.1408 680 89.9191 946.254 494.015
1907 0 64.0521 11.0223 706 89.9802 945.473 494.674
1908 0 65.0907 11.507 749 90.8158 945.292 498.462
1909 0 69.0578 11.7148 809 90.3066 945.755 498.986
1910 0 70.0902 12.3698 867 90.6182 946.09 498.322
1911 0 73.098 12.9278 945 88.0455 946.047 499.598
1912 0 73.1045 12.106 885 92.2588 946.372 497.001
1913 0 75.1243 12.8054 962 90.474 945.307 495.909
1914 0 75.1199 12.7796 960 91.2469 945.144 495.411
1915 0 80.1957 12.8685 1032 90.4903 945.087 495.187
1916 0 80.1756 12.9715 1040 92.2317 944.923 493.481
1917 0 82.1382 12.8077 1052 93.8812 945.444 491.566
1918 0 83.1902 13.2708 1104 93.3795 945.855 491.333
1919 0 86.1004 13.1126 1129 93.8663 945.122 490.291
1920 0 87.1445 13.862 1208 91.8228 946.383 490.175
1921 0 88.0741 13.6703 1204 93.5814 945.927 488.909
1922 0 92.1502 13.695 1262 92.3597 946.277 487.902
1923 0 93.097 13.6417 1270 92.1134 945.283 485.561
1924 0 95.0775 13.4732 1281 91.8033 945.862 483.15
1925 0 96.1009 12.9239 1242 90.4597 945.106 482.949
1926 0 101.154 13.6326 1379 90.657 945.757 480.893
1927 0 101.154 13.6425 1380 145.305 945.762 480.92
1928 1 56.1236 10.5481 592 88.4578 945.775 504.174
1929 0 58.1897 11.3938 663 88.6078 945.231 503.149
1930 0 59.2572 11.4923 681 90.9207 945.178 502.423
1931 0 59.0237 11.6394 687 79.5837 945.501 509.1
1932 0 62.043 11.6371 722 79.7064 945.017 508.652
1933 0 62.0403 11.9922 744 80.1519 945.272 509.238
1934 0 63.046 11.9278 752 81.4481 945.415 508.634
1935 0 64.0551 11.9897 768 83.2695 945.715 508.714
1936 0 67.0432 12.0967 811 81.1862 944.858 506.088
1937 0 69.0566 12.859 888 79.0101 944.766 505.446
1938 0 70.0418 12.1071 848 81.395 945.1 506.41
1939 0 72.0455 11.9647 862 81.1148 945.652 504.298
1940 0 75.0271 12.6088 946 78.5888 945.661 504.148
1941 0 75.0663 12.2958 923 79.8375 944.289 503.152
1942 0 78.0999 12.5992 984 79.7022 944.81 501.844
1943 0 78.0136 12.1389 947 81.1964 943.939 501.127
1944 0 81.0621 12.1018 981 81.0459 944.169 499.721
1945 0 84.039 12.6608 1064 79.5648 943.733 498.611
1946 0 85.0318 12.4071 1055 80.0654 944.763 498.777
1947 0 88.0458 12.1868 1073 80.0708 945.108 496.31
1948 0 90.0712 12.3347 1111 79.5266 944.92 495.571
1949 0 92.0256 12.6487 1164 78.9218 944.594 494.276
1950 0 93.0353 12.4469 1158 79.3601 945.2 491.062
1951 0 95.0609 11.9713 1138 80.8708 944.705 490.781
1952 0 98.0273 12.2415 1200 80.1517 944.909 489.658
1953 0 100.048 12.1841 1219 79.4389 944.462 487.485
1954 0 102.044 12.181 1243 79.0909 944.545 486.004
1955 0 107.058 12.1429 1300 77.5523 943.666 486.132
1956 0 108.131 12.938 1399 76.7727 944.511 485.271
1957 0 110.095 12.7344 1402 78.8766 943.648 481.934
1958 0 114.069 11.7473 1340 80.1545 944.907 480.171
1959 1 61.1364 10.8446 663 73.9155 944.421 508.413
1960 0 62.0485 10.6368 660 75.6136 944.674 506.459
1961 0 65.0952 12.5816 819 77.1429 945.044 504.137
1962 0 67.0467 12.3645 829 73.7587 944.419 505.577
1963 0 68.0107 12.0128 817 76.1138 944.466 504.42
1964 0 68.0647 10.4606 712 79.0492 945.188 500.758
1965 0 69.0826 10.6394 735 79.2122 944.278 498.32
1966 0 72.0279 10.3987 749 79.3805 943.944 498.565
1967 0 75.0246 10.9164 819 79.0232 943.526 498.256
1968 0 78.0285 11.6111 906 78.1479 943.879 498.097
1969 0 78.0419 11.4426 893 79.2228 943.636 497.152
1970 0 79.0301 10.5403 833 81.5654 944.115 496.601
1971 0 82.0341 11.3489 931 80.5166 944.759 494.393
1972 0 83.0538 11.4263 949 79.8999 944.018 492.953
1973 0 87.0342 10.9153 950 79.2663 944.785 492.057
1974 0 87.0767 11.4267 995 79.5206 944.314 490.863
1975 0 90.0683 10.9806 989 80.1112 944.159 489.606
1976 0 92.0604 12.1659 1120 78.8554 944.03 488.066
1977 0 96.0386 11.8494 1138 79.6608 944.237 489.673
1978 0 97.1024 11.7608 1142 80.9895 943.68 486.81
1979 0 99.0462 11.3684 1126 81.8774 944.525 483.683
1980 0 102.13 11.27 1151 82.4388 943.846 482.692
1981 0 104.192 11.4021 1188 81.6591 944.039 480.866
1982 0 109.136 11.8476 1293 80.8933 944.237 481.073
1983 0 111.164 11.5415 1283 82.2268 944.251 477.911
1984 1 60.0976 9.36809 563 77.8046 945.036 508.02
1985 0 64.0632 10.5209 674 78.8427 944.319 504.393
1986 0 66.0673 11.3975 753 79.9788 944.618 506.406
1987 0 65.0633 10.9893 715 76.5762 945.055 507.622
1988 0 68.0244 11.5694 787 76.3253 945.062 505.479
1989 0 69.0747 10.7854 745 78.7315 944.655 505.031
1990 0 72.0275 11.329 816 77.8995 944.868 504.98
1991 0 73.0187 10.915 797 79.7578 944.225 501.987
1992 0 76.0948 11.1834 851 79.698 944.129 501.927
1993 0 79.044 11.6264 919 78.555 943.544 500.664
1994 0 80.0234 10.9968 880 81.1057 944.269 497.995
1995 0 82.0569 11.5408 947 80.5565 944.619 496.929
1996 0 83.1112 11.7072 973 80.9609 944.266 493.734
1997 0 85.1087 11.7614 1001 81.8232 944.548 494.744
1998 0 87.0914 11.7922 1027 82.3135 945.138 494.744
1999 0 90.0802 11.8117 1064 83.4267 944.607 493.829
2000 0 91.0854 11.846 1079 84.7275 944.115 491.688
2001 0 94.0783 12.6597 1191 83.0344 945.031 491.57
2002 0 96.2223 12.5854 1211 83.3196 944.252 491.125
2003 0 99.161 13.11 1300 82.6154 943.555 488.993
2004 0 100.21 12.5736 1260 85.004 943.129 488.151
2005 0 103.142 12.9142 1332 84.6246 944.094 486.671
2006 0 105.111 13.0338 1370 85.0825 943.936 485.282
2007 0 107.246 12.7184 1364 86.0418 944.348 484.62
2008 0 110.086 12.6174 1389 86.5875 944.355 482.772
2009 0 111.105 12.4747 1386 87.7612 944.49 481.042
2010 0 113.157 12.275 1389 89.2923 944.099 478.892
2011 0 118.193 12.3612 1461 88.9897 944.504 476.515
2012 0 120.152 12.7256 1529 89.0294 943.369 476.183
2013 0 124.161 12.9348 1606 88.7161 944.058 473.251
2014 0 127.068 13.4102 1704 87.4988 943.864 473.492
2015 1 71.0795 11.1143 790 81.5937 945.439 504.181
2016 0 72.1226 11.9796 864 84.6736 944.185 503.139
2017 0 74.083 11.9461 885 86.4565 944.745 504.139
2018 0 77.1508 11.4581 884 81.1968 943.969 502.889
2019 0 79.0711 12.0904 956 80.3337 943.957 502.219
2020 0 79.0681 11.977 947 81.5723 943.697 500.662
2021 0 82.0851 12.3165 1011 80.55 943.58 499.899
2022 0 84.0483 12.4571 1047 80.0745 942.936 498.661
2023 0 85.0486 12.4047 1055 81.1393 943.362 497.26
2024 0 88.0854 12.6355 1113 78.8697 943.469 497.367
2025 0 89.1386 12.3852 1104 79.452 943.256 496.981
2026 0 90.1109 12.4402 1121 80.4764 943.869 494.852
2027 0 92.1446 12.5346 1155 80.5307 943.756 494.106
2028 0 94.0674 12.491 1175 81.9626 944.589 493.648
2029 0 97.0851 12.3603 1200 82.6683 943.794 492.365
2030 0 98.0662 12.7873 1254 81.9059 944.561 491.108
2031 0 99.0954 12.7857 1267 81.6188 944.135 489.498
2032 0 102.071 12.4619 1272 83.2398 944.245 489.777
2033 0 103.065 12.4485 1283 83.7631 943.838 488.739
2034 0 104.104 12.2281 1273 85.6418 943.625 486.98
2035 0 108.132 12.8731 1392 82.7148 944.378 487.757
2036 0 109.099 12.5116 1365 85.0212 943.543 484.544
2037 0 110.094 11.9443 1315 85.835 944.979 484.463
2038 0 113.158 12.3279 1395 84.2609 944.899 484.034
2039 0 116.109 12.2558 1423 83.7112 944.718 482.649
2040 0 117.129 13.1308 1538 81.6671 945.277 479.897
2041 0 119.142 13.0265 1552 82.3041 945.508 477.209
2042 0 123.099 13.022 1603 81.975 945.056 476.852
2043 0 125.103 12.6936 1588 82.8797 945.089 476.139
2044 0 130.161 12.3693 1610 83.0267 943.981 473.991
2045 0 132.22 12.1918 1612 83.4225 944.81 472.36
2046 0 136.153 13.0442 1776 81.9302 944.271 471.561
2047 0 139.181 12.5735 1750 83.072 944.675 468.294
2048 0 141.127 12.4781 1761 83.159 944.595 468.2
2049 0 144.187 13.1635 1898 81.5163 944.875 468.322
2050 0 148.177 13.1735 1952 82.1624 944.753 466.287
2051 0 152.163 12.8152 1950 83.9867 944.779 462.214
2052 0 154.203 12.1658 1876 85.8587 945.013 461.093
2053 0 158.137 12.1477 1921 86.6158 944.649 459.81
2054 0 161.241 12.7263 2052 86.3426 944.735 457.215
2055 0 166.179 12.655 2103 86.6282 944.224 453.598
2056 0 170.21 13.0897 2228 86.0525 944.03 452.307
2057 0 176.189 12.5377 2209 87.4228 943.392 451.555
2058 1 94.1433 12.2473 1153 85.2064 944.363 489.062
2059 0 95.1638 12.799 1218 85.624 943.162 487.031
2060 0 96.1237 11.7973 1134 86.7337 944.334 483.586
2061 0 98.123 12.5862 1235 83.4696 944.187 481.926
2062 0 101.068 12.7636 1290 86.945 944.891 486.475
2063 0 101.066 12.4473 1258 84.6518 944.736 489.618
2064 0 104.059 12.3199 1282 84.4594 945.293 487.149
2065 0 107.131 12.5733 1347 85.0386 944.852 486.439
2066 0 107.068 11.8243 1266 86.124 945.426 487.593
2067 0 112.038 12.6654 1419 85.0789 944.497 484.427
2068 0 114.104 12.6726 1446 84.1625 945.566 484.88
2069 0 117.094 13.0408 1527 84.0432 943.905 482.399
2070 0 119.066 13.0684 1556 84.4017 945.166 481.694
2071 0 124.072 12.8554 1595 83.9618 944.036 478.571
2072 0 127.156 12.2762 1561 85.7559 943.932 476.603
2073 1 70.101 10.813 758 85.1952 943.801 497.29
2074 0 72.0652 11.7255 845 83.4367 944.075 492.531
2075 0 75.06 11.7906 885 83.0056 943.48 494.27
2076 0 75.0729 11.6287 873 84.3792 944.38 491.971
2077 0 75.1717 11.3074 850 86.8659 943.914 490.009
2078 0 81.0937 12.4177 1007 87.5223 944.041 496.02
2079 0 82.0823 13.2063 1084 86.5913 943.944 493.977
2080 0 85.0478 13.369 1137 86.8285 944.465 491.96
2081 0 88.0498 12.9132 1137 86.4784 943.354 492.131
2082 0 88.0465 12.9931 1144 86.9869 943.573 490.691
2083 0 91.0456 13.0155 1185 86.5004 943.916 489.684
2084 0 94.0517 12.9716 1220 86.8279 944.153 488.133
2085 0 96.0687 13.3654 1284 85.7586 943.707 486.755
2086 0 98.0714 13.1231 1287 88.2587 944.575 486.094
2087 0 101.118 13.2618 1341 88.2237 943.709 484.069
2088 0 102.185 12.7612 1304 90.0199 944.186 483.195
2089 0 105.193 13.366 1406 88.4189 944.084 480.716
2090 0 109.17 13.5934 1484 86.4926 944.584 477.487
2091 0 110.089 12.6171 1389 88.3888 944.313 478.781
2092 0 111.132 12.8046 1423 88.0928 945.211 477.025
2093 0 114.13 12.7924 1460 87.6932 944.666 477.235
2094 0 118.174 12.1515 1436 87.0752 944.96 472.971
2095 0 121.22 11.9287 1446 87.5456 944.831 470.355
2096 0 125.254 11.5206 1443 81.9397 945.401 467.89
2097 1 67.1331 10.5611 709 74.7913 944.347 496.382
2098 0 71.2824 11.2931 805 73.7205 945.407 499.154
2099 0 72.13 11.8397 854 72.5 943.765 497.249
2100 0 75.0467 11.3662 853 71.211 944.637 500.2
2101 0 76.0385 11.0207 838 71.4916 944.562 498.339
2102 0 77.0393 10.9425 843 72.7011 945.229 496.858
2103 0 80.0548 11.3172 906 70.9018 945.479 495.854
2104 0 79.0801 11.2924 893 71.701 945.22 493.063
2105 0 83.0879 11.9392 992 71.376 945.042 493.029
2106 0 84.0439 11.7082 984 72.2978 945.122 493.058
2107 0 88.0784 12.4548 1097 71.2379 945.567 493.142
2108 0 91.0724 11.8697 1081 72.8871 945.961 490.641
2109 0 93.0553 12.455 1159 72.9827 945.912 489.104
2110 0 94.0854 11.9572 1125 74.7609 945.833 489.372
2111 0 97.0528 12.5705 1220 75.1377 945.844 486.15
2113 0 98.1081 12.9143 1267 75.2265 944.782 485.707
2114 0 100.038 12.3953 1240 77.2911 944.817 483.639
2115 0 101.067 12.2493 1238 78.2092 944.814 485.035
2116 0 103.105 11.9587 1233 78.9943 944.905 482.451
2117 0 109.08 12.2754 1339 78.0232 944.23 480.531
2118 0 109.073 11.8086 1288 79.8967 945.446 479.206
2119 0 117.084 13.563 1588 79.6285 945.395 476.872
2120 1 62.0164 11.3841 706 74.7932 945.162 506.763
2121 0 64.0957 11.7793 755 77.5788 946.178 503.2
2122 0 66.1983 12.1302 803 80.797 946.326 497.818
2123 0 66.0989 11.6795 772 79.351 945.373 498.306
2124 0 69.0408 11.9205 823 77.4119 944.701 501.125
2125 0 71.065 12.0453 856 77.2453 944.287 501.05
2126 0 72.0412 11.7988 850 78.1906 945.011 499.887
2127 0 74.0366 12.2237 905 78.5392 944.564 498.636
2128 0 76.0285 12.6532 962 77.6549 944.473 498.677
2129 0 78.0887 12.8828 1006 77.8966 943.116 496.197
2130 0 81.0744 12.581 1020 79.7353 944.785 495.016
2131 0 83.178 12.5754 1046 79.4684 944.74 493.756
2132 0 83.0619 12.9783 1078 81.3423 944.552 493.313
2133 0 85.1347 12.8032 1090 82.411 944.653 492.782
2134 0 87.0656 12.7031 1106 83.953 944.986 493.756
2135 0 90.1458 13.0122 1173 82.815 945.361 491.292
2136 0 94.2125 13.5014 1272 81.93 944.623 488.656
2137 0 95.152 13.242 1260 83.7302 945.186 487.324
2138 0 98.1821 12.3648 1214 84.8007 945.635 486.035
2139 0 99.1817 12.9258 1282 83.8026 945.049 483.948
2140 0 102.152 13.2744 1356 83.3945 945.365 483.409
2141 0 102.064 12.5706 1283 85.4154 944.542 480.753
2142 0 107.242 12.924 1386 83.8514 944.65 479.533
2143 0 109.204 13.0124 1421 83.6341 944.151 477.763
2144 0 110.221 12.3933 1366 86.0725 944.526 475.779
2145 0 114.262 12.6289 1443 84.7478 944.115 473.744
2146 1 62.2222 11.4429 712 76.5421 944.906 501.456
2147 0 64.0837 10.7203 687 78.0378 944.648 502.266
2148 0 65.1149 11.0267 718 79.5348 945.162 499.276
2149 0 67.1794 11.4618 770 78.7636 944.761 499.682
2150 0 68.1321 11.6392 793 78.3594 945.429 496.997
2151 0 70.1148 11.6808 819 79.1832 945.074 495.838
2152 0 70.0842 11.1009 778 80.4576 945.308 499.158
2153 0 72.1615 11.1832 807 81.8327 944.729 497.746
2154 0 78.0788 12.116 946 79.9355 945.034 495.17
2155 0 78.0517 11.0696 864 83.1539 944.647 492.96
2156 0 82.0874 11.8654 974 82.8665 945.034 494.107
2157 0 82.0973 11.596 952 85.166 945.967 491.314
2158 0 85.1301 12.6512 1077 82.5292 945.316 490.325
2159 0 88.1082 12.2804 1082 83.5453 946.96 489.958
2160 0 87.1274 11.6152 1012 86.8785 946.403 487.522
2161 0 91.1813 12.1516 1108 85.9828 945.683 485.896
2162 0 92.1441 12.0246 1108 86.1408 945.811 486.124
2163 0 96.1675 12.2183 1175 85.2664 945.322 482.877
2164 0 97.1466 12.2598 1191 86.7422 945.43 481.181
2165 0 102.223 11.9445 1221 86.4603 945.878 482.02
2166 0 106.153 12.1146 1286 86.7481 946.327 480.47
2167 0 108.128 11.8655 1283 87.1941 946.183 477.162
2168 0 111.159 12.1087 1346 86.7533 946.388 476.414
2169 1 61.2173 9.94816 609 81.8144 946.018 502.048
2170 0 63.1539 11.4641 724 83.4365 946.627 499.942
2171 0 66.1634 12.3029 814 86.0209 947.101 497.08
2172 0 67.2298 11.8251 795 87.5836 946.524 496.967
2173 0 68.126 11.9191 812 90.048 947.443 496.703
2174 0 71.181 12.4471 886 88.0734 946.139 496.676
2175 0 73.1791 12.3669 905 87.158 947.194 495.925
2176 0 75.0797 11.934 896 85.0904 946.477 497.581
2177 0 76.0982 11.8268 900 86.3522 946.938 495.704
2178 0 77.0625 11.9903 924 86.8571 946.221 495.235
2179 0 82.0633 13.0631 1072 83.3265 947.272 495.673
2180 0 85.1246 12.981 1105 84.7937 946.721 494.238
2181 0 85.1246 13.0397 1110 157.387 945.719 494.142
2182 0 88.0363 13.6648 1203 79.739 946.687 493.116
2183 0 90.0809 12.8662 1159 83.2088 946.899 491.682
2184 0 93.042 13.2413 1232 82.9489 945.985 489.915
2185 0 94.1005 13.6025 1280 83.8055 946.036 488.906
2186 0 97.1168 13.5301 1314 85.3052 945.905 487.525
2187 0 98.1054 13.883 1362 85.5521 946.343 486.881
2188 0 101.203 13.547 1371 88.5485 946.02 485.147
2189 0 103.133 13.6717 1410 89.7262 946.35 484.549
2190 0 105.249 13.8434 1457 90.4921 946.327 482.076
2191 0 107.369 13.57 1457 91.2615 946.18 481.387
2192 0 111.321 14.6963 1636 88.7848 946.563 480.159
2193 0 114.399 15.3236 1753 89.0839 946.028 475.11
2194 0 116.287 13.9912 1627 94.3608 945.723 473.539
2195 0 117.164 13.8353 1621 95.4004 946.075 473.002
2196 0 120.183 14.3614 1726 93.117 945.82 473.473
2197 1 65.053 11.237 731 89.3625 945.424 502.105
2198 0 69.1076 12.6035 871 85.3662 945.753 500.984
2199 0 70.0804 12.8852 903 85.8339 946.157 499.251
2200 0 69.179 12.3448 854 87.2974 946.818 500.663
2201 0 73.1286 12.3618 904 87.1914 946.408 498.39
2202 0 76.078 12.8684 979 87.9877 946.199 497.054
2203 0 78.0383 12.6092 984 88.0691 945.934 496.22
2204 0 80.0699 13.4507 1077 86.0269 946.421 495.663
2205 0 81.0714 13.0872 1061 87.0594 946.623 494.502
2206 0 83.0546 13.5212 1123 86.195 946.565 493.305
2207 0 84.1133 12.9468 1089 90.494 945.679 486.676
2208 0 86.1171 13.0984 1128 89.8324 945.83 486.883
2209 0 89.1226 13.6553 1217 89.507 945.393 485.802
2210 0 91.0991 13.6006 1239 89.1622 946.352 484.386
2211 0 92.22 13.175 1215 90.9737 945.592 484.172
2212 0 95.1642 13.566 1291 90.7351 946.569 482.056
2213 0 97.0748 13.1033 1272 90.1368 945.913 480.847
2214 0 100.076 13.6597 1367 87.5179 946.909 478.808
2215 0 100.068 13.271 1328 87.4661 946.254 475.647
2216 0 104.072 13.5483 1410 85.8348 945.984 474.874
2217 0 105.087 13.132 1380 87.2725 946.009 472.82
2218 0 107.133 12.9558 1388 86.8026 945.506 472.091
2219 0 108.041 13.3005 1437 85.6514 946.742 470.371
2220 1 60.0254 10.6622 640 86.3359 946.25 496.395
2221 0 63.0301 11.677 736 85.5462 946.226 494.356
2222 0 66.0468 12.3094 813 83.2054 945.927 495.299
2223 0 69.0512 12.9469 894 83.6734 946.404 501.629
2224 0 70.0454 12.4062 869 85.748 945.58 502.742
2225 0 71.0836 12.4923 888 85.9831 945.598 501.055
2226 0 74.0541 12.2343 906 85.1137 945.404 501.588
2227 0 75.0404 12.46 935 85.216 945.712 498.942
2228 0 78.0374 12.494 975 84.6113 946.402 499.133
2229 0 79.0412 12.5757 994 84.9084 945.404 497.743
2230 0 82.0164 11.5709 949 86.1602 945.969 496.9
2231 0 83.0381 12.5605 1043 84.8667 945.891 495.449
2232 0 84.045 13.1001 1101 83.7866 945.829 493.887
2233 0 85.0533 12.451 1059 84.6714 944.538 492.567
2234 0 88.0252 13.2689 1168 82.6781 945.273 492.092
2235 0 90.0756 12.6005 1135 83.1031 945.31 490.155
2236 0 94.053 12.1315 1141 82.05 945.186 488.183
2237 0 92.0332 11.9848 1103 82.942 944.875 486.611
2238 0 93.0794 12.3336 1148 81.9233 945.831 484.456
2239 0 95.068 12.0335 1144 82.7832 945.008 481.916
2240 0 96.118 12.443 1196 80.765 944.375 481.44
2241 0 98.0806 11.6843 1146 81.4651 944.691 480.547
2242 0 101.051 12.5085 1264 80.4446 944.892 478.831
2243 0 103.062 11.8375 1220 80.991 944.26 477.108
2244 0 105.059 11.6791 1227 81.185 944.3 473.606
2245 0 106.116 11.6099 1232 80.1802 944.232 470.56
2246 0 108.081 11.3248 1224 81.4739 943.571 469.284
2247 0 111.053 11.9312 1325 79.8853 944.122 467.043
2248 0 112.092 11.5976 1300 80.4492 944.554 463.896
2249 0 117.06 11.524 1349 80.5337 944.882 463.991
2250 0 122.096 11.1306 1359 79.7962 944.456 462.272
2251 1 76.091 12.3011 936 76.5994 945.697 500.261
2252 0 77.0681 11.691 901 73.5094 944.825 498.663
2253 0 78.1656 11.2709 881 75.2247 945.481 498.047
2254 0 79.07 11.5214 911 75.292 944.928 497.026
2255 0 82.041 12.1646 998 73.8958 945.188 495.847
2256 0 86.043 11.5989 998 75.0431 944.744 494.18
2257 0 89.0989 12.0428 1073 75.2833 945.351 492.258
2258 0 87.157 11.485 1001 77.3427 945.223 488.149
2259 0 92.1251 11.7992 1087 77.5474 945.019 488.166
2260 0 93.0372 11.5438 1074 77.7952 944.926 488.673
2261 0 100.038 13.3249 1333 74.7944 945.15 489.379
2262 0 104.079 13.2111 1375 75.1615 944.831 486.065
2263 0 105.097 12.5789 1322 77.1354 945.961 486.672
2264 0 109.072 13.624 1486 75.8425 945.321 484.375
2265 0 109.093 12.8239 1399 78.4746 945.264 482.307
2266 0 114.097 12.6647 1445 79.0069 945.552 480.807
2267 0 115.09 12.9117 1486 82.6494 945.205 478.649
2268 0 119.192 12.4756 1487 83.3073 945.179 477.71
2269 0 122.103 12.211 1491 83.4588 945.528 474.704
2270 0 128.09 13.9043 1781 78.475 944.257 475.628
2271 0 130.129 12.9641 1687 81.4126 945.503 472.928
2272 0 134.136 12.9123 1732 81.9538 944.871 471.269
2273 0 136.116 13.224 1800 81.8744 945.791 470.099
2274 0 140.097 12.5056 1752 83.2997 944.821 467.796
2275 0 145.106 12.9147 1874 81.8741 945.248 465.49
2276 0 151.157 13.529 2045 80.9746 945.388 463.466
2277 1 90.0864 11.489 1035 78.8251 945.217 496.114
2278 0 90.0864 11.5556 1041 150.256 945.232 496.093
2279 0 98.1403 12.3293 1210 77.1587 945.288 493.851
2280 0 100.102 12.4773 1249 80.8999 945.665 487.453
2281 0 104.222 12.9819 1353 81.0436 945.279 489.182
2282 0 104.085 12.4897 1300 87.5154 945.345 487.918
2283 0 107.105 13.342 1429 85.3464 944.861 486.307
2284 0 111.12 13.238 1471 85.9035 945.703 483.986
2285 0 114.083 13.0343 1487 84.6954 945.726 484.005
2286 0 117.102 13.2876 1556 85.2976 944.692 480.677
2287 0 119.134 12.9518 1543 86.4336 944.789 479.627
2288 0 124.204 13.196 1639 85.2447 945.057 475.929
2289 0 127.108 12.9653 1648 84.9332 944.993 474.438
2290 0 129.148 13.0936 1691 85.1248 945.478 470.506
2291 0 132.139 12.7971 1691 85.466 945.574 470.931
2292 0 134.12 12.2427 1642 85.5761 945.278 470.229
2293 0 139.095 12.7323 1771 84.6448 945.905 467.59
2294 0 143.159 12.2032 1747 85.1723 945.142 467.46
2295 0 146.104 13.1344 1919 82.9838 945.734 464.78
2296 0 147.086 12.4009 1824 84.3421 944.873 462.238
2297 0 154.163 13.0706 2015 82.3176 945.187 460.257
2298 0 155.299 13.5931 2111 81.1213 944.084 456.065
2299 0 160.21 12.5959 2018 82.0813 944.7 454.622
2300 0 161.148 12.8267 2067 82.4044 944.63 453.461
2301 0 167.247 13.2917 2223 80.4665 944.461 451.679
2302 0 167.085 12.5026 2089 81.8133 945.418 446.59
2303 0 171.123 13.125 2246 73.1095 944.652 444.318
2304 0 177.21 12.2962 2179 81.7751 944.927 443.095
2305 0 183.145 12.2253 2239 80.7856 944.784 440.662
2306 0 186.148 12.6942 2363 80.5019 944.226 436.252
2307 0 192.192 12.5135 2405 81.0283 944.236 435.468
2308 0 198.169 12.2168 2421 81.05 944.674 435.565
2309 0 200.124 12.5622 2514 82.08 945.187 426.365
2310 0 208.173 12.0957 2518 82.3499 945.099 429.944
2311 0 209.195 12.4764 2610 82.9038 944.011 418.286
2312 0 217.22 12.95 2813 81.4227 944.591 419.187
2313 0 222.194 12.7816 2840 82.8859 943.478 411.873
2314 1 54.1021 8.61335 466 64.5236 945.154 507.288
2315 0 58.1006 11.1186 646 69.1347 945.266 511.265
2316 0 59.1411 11.3458 671 69.4113 945.596 510.201
2317 0 60.2066 11.6266 700 72.2357 944.691 509.763
2318 0 62.1438 10.878 676 71.4586 945.389 511.257
2319 0 62.1234 10.9621 681 73.2159 944.924 507.692
2320 0 65.1751 10.863 708 73.2571 945.233 506.315
2321 0 65.1407 10.9302 712 73.6685 944.174 507.003
2322 0 67.1101 10.7435 721 74.2677 943.954 505.814
2323 0 68.1213 10.951 746 74.9558 943.503 503.496
2324 0 70.106 12.0674 846 72.2884 944.281 504.496
2325 0 72.1001 11.6921 843 72.0154 944.454 504.604
2326 0 74.0954 11.8091 875 71.7737 944.511 502.376
2327 0 74.1713 11.8779 881 72.4472 944.369 500.64
2328 0 76.0554 11.4785 873 72.9576 944.061 499.385
2329 0 78.1298 11.7113 915 73.0153 944.557 496.28
2330 0 82.174 12.3032 1011 70.9753 945.747 497.004
2331 0 84.0722 11.1809 940 73.333 946.085 494.964
2332 0 84.0978 11.1656 939 73.6177 946.725 494.904
2333 0 88.1516 11.6844 1030 72.6845 945.759 491.788
2334 0 90.1104 11.1197 1002 73.2994 946.282 490.909
2335 0 90.1019 10.244 923 65.4886 946.412 492.916
2336 0 91.1799 10.7261 978 65.7658 946.478 493.642
2337 0 92.1252 10.0515 926 66.5518 946.044 493.901
2338 0 95.0549 10.4887 997 67.8114 946.612 489.116
2339 0 98.048 10.0359 984 69.3974 947.303 488.107
2340 0 102.118 10.7817 1101 69.4759 947.83 489.445
2341 0 102.123 10.8301 1106 70.651 946.732 487.231
2342 0 106.095 10.7922 1145 70.3528 946.61 486.47
2343 0 106.114 9.83849 1044 70.932 946.723 485.925
2344 1 49.1487 9.58316 471 64.1338 947.085 512.779
2345 0 49.2033 9.51155 468 66.6624 946.524 512.397
2346 0 52.1073 10.6511 555 65.2595 946.061 514.831
2347 0 55.0865 11.5818 638 68.8918 945.1 513.981
2348 0 55.1343 11.8438 653 69.317 945.78 514.334
2349 0 55.1001 11.9238 657 69.8813 945.618 514.37
2350 0 58.215 12.5397 730 67.5151 945.744 513.008
2351 0 58.2062 12.3355 718 68.0808 945.078 511.526
2352 0 59.2402 12.2046 723 68.8299 945.116 511.794
2353 0 61.2683 12.7146 779 67.8049 944.585 511.226
2354 0 62.2077 12.8923 802 67.3878 944.642 510.385
2355 0 63.1725 12.4738 788 67.9366 944.487 511.143
2356 0 62.128 12.7157 790 68.9494 944.433 510.389
2357 0 64.1871 11.9494 767 71.2973 943.935 510.849
2358 0 66.1407 11.8082 781 71.4866 944.197 510.699
2359 0 67.0848 12.3277 827 71.1983 943.443 510.33
2360 0 68.095 11.6749 795 73.005 943.96 510.146
2361 0 69.1262 11.7756 814 74.1916 943.13 511.029
2362 0 71.0957 12.4058 882 73.5771 943.296 508.313
2363 0 73.1337 12.4977 914 73.4584 942.605 509.419
2364 0 77.0611 12.5225 965 73.7492 943.788 508.037
2365 0 76.1234 11.9674 911 77.3425 942.382 508.136
2366 0 78.1785 12.1517 950 77.4947 942.459 507.266
2367 0 80.0794 13.0745 1047 75.7488 941.994 505.446
2368 0 83.0966 13.4783 1120 74.6643 942.996 504.57
2369 0 84.0449 13.8973 1168 74.5985 943.094 502.739
2370 0 86.1862 13.2968 1146 76.1457 942.45 501.496
2371 0 86.1306 13.2938 1145 77.8742 942.728 500.46
2372 0 89.1477 13.3711 1192 78.182 941.923 497.488
2373 0 92.0847 13.5419 1247 78.3031 942.286 494.264
2374 0 94.1485 13.2557 1248 78.7404 941.812 494.438
2375 0 95.199 13.6556 1300 79.1615 942.475 491.078
2376 0 97.1627 13.1944 1282 79.8058 942.579 492.311
2377 0 98.2174 12.8491 1262 80.8019 943.176 492.362
2378 0 103.199 13.3723 1380 82.1906 942.536 487
2379 0 107.31 13.6148 1461 81.9096 943.39 483.654
2380 0 110.215 12.9475 1427 83.513 943.418 484.382
2381 0 114.264 13.3551 1526 82.2654 943.307 481.892
2382 1 62.1686 11.2275 698 81.967 941.936 505.544
2383 0 64.0559 12.692 813 78.5068 942.819 505.857
2384 0 66.2183 12.5041 828 78.82 942.274 502.246
2385 0 64.1643 12.0004 770 76.6532 943.466 507.04
2386 0 69.0669 12.4951 863 73.8656 943.107 507.152
2387 0 69.3183 12.3921 859 74.4203 942.981 504.644
2388 0 72.1703 12.4289 897 74.5307 942.658 502.137
2389 0 72.1208 12.1324 875 75.3943 942.377 501.273
2390 0 73.1323 12.3065 900 75.5022 943.52 502.026
2391 0 77.1551 12.2351 944 74.9301 943.871 500.26
2392 0 78.2307 12.2203 956 75.7929 943.966 499.98
2393 0 82.3017 12.5271 1031 76.3608 943.639 496.468
2394 0 81.263 12.6749 1030 77.0437 944.333 492.998
2395 0 84.1402 12.6812 1067 78.493 944.154 490.082
2396 0 85.1684 11.988 1021 79.8805 943.984 489.006
2397 0 89.3029 12.9447 1156 78.2016 944.133 486.282
2398 0 92.1516 13.1848 1215 77.8642 944.174 485.609
2399 0 92.0926 12.4006 1142 80.7312 945.545 484.951
2400 0 97.0797 12.9687 1259 79.4448 944.443 483.705
2401 0 98.1269 12.3514 1212 81.8193 944.664 483.298
2402 0 101.121 12.7867 1293 79.9915 944.475 484.333
2403 0 104.054 13.3392 1388 80.0742 944.846 481.452
2404 0 105.114 12.6148 1326 83.0415 944.4 481.43
2405 0 108.074 12.9448 1399 83.1651 944.4 481.697
2406 0 112.048 13.2711 1487 82.4983 944.361 479.457
2407 0 116.044 13.5811 1576 81.6891 945.35 478.114
2408 0 117.074 12.9235 1513 82.041 945.748 478.145
2409 0 121.112 12.9055 1563 80.7786 946.576 474.668
2410 0 124.051 13.0349 1617 80.444 945.65 473.545
2411 0 125.15 13.0084 1628 81.2359 946.228 472.668
2412 0 130.04 12.6423 1644 82.1144 945.657 472.552
2413 0 135.066 13.0159 1758 81.6888 945.788 469.405
2414 0 137.088 12.8385 1760 83.3 945.719 466.893
2415 0 141.12 13.8534 1955 81.1622 945.492 462.057
2416 0 144.09 12.8392 1850 83.3384 944.836 464.085
2417 0 148.124 13.3942 1984 83.495 945.159 461.621
2418 0 153.132 13.0018 1991 84.2803 945.078 461.23
2419 0 158.124 12.9455 2047 83.7841 945.261 457.38
2420 1 84.0509 12.3378 1037 85.4812 944.878 492.187
2421 0 87.1239 12.6487 1102 85.2477 945.572 490.794
2422 0 88.0754 13.4203 1182 84.1633 944.845 488.964
2423 0 93.0948 13.4487 1252 84.1246 945.747 487.986
2424 0 93.1133 13.3386 1242 85.7504 945.099 486.554
2425 0 96.1041 13.964 1342 84.2541 945.726 486.396
2426 0 99.1385 14.4142 1429 83.3947 945.218 483.735
2427 0 100.037 14.0148 1402 85.1113 945.26 482.782
2428 0 102.131 14.2856 1459 84.4949 944.74 483.303
2429 0 104.091 13.8533 1442 86.4418 944.313 483.223
2430 0 107.095 13.2592 1420 87.7127 944.747 481.342
2431 0 109.093 13.0256 1421 88.1063 944.555 481.09
2432 0 113.09 12.9454 1464 87.9474 945.418 478.913
2433 0 115.058 13.2281 1522 87.0637 944.731 477.928
2434 0 119.075 13.5209 1610 86.9242 945.698 474.171
2435 0 123.201 13.3522 1645 86.8207 945.491 473.699
2436 0 125.093 13.5419 1694 86.2143 945.557 470.136
2437 0 131.071 13.8704 1818 85.1848 944.723 468.172
2438 0 135.185 13.6998 1852 84.7527 945.035 466.676
2439 0 138.117 14.2561 1969 84.3098 944.489 464.049
2440 0 141.167 14.0826 1988 85.1459 945.081 463.833
2441 0 143.134 13.6376 1952 86.9764 944.993 461.868
2442 0 150.133 13.4947 2026 86.96 945.563 460.157
2443 0 153.182 13.9703 2140 86.5785 945.537 457.962
2444 0 161.21 14.1803 2286 85.6557 944.742 456.389
2445 0 163.138 14.1107 2302 87.2402 945.593 454.499
2446 0 169.127 14.2201 2405 88.1518 944.691 452.506
2447 0 171.183 14.2187 2434 90.5123 945.5 447.716
2448 0 179.186 14.8561 2662 89.3355 945.129 446.594
2449 0 181.173 14.3233 2595 91.8921 944.903 443.586
2450 0 188.231 14.514 2732 93.0102 944.096 441.786
2451 0 193.155 14.8948 2877 92.3205 944.096 437.869
2452 0 197.268 14.4119 2843 93.6177 943.763 434.411
2453 0 201.18 14.3652 2890 93.9547 944.405 431.184
2454 0 207.222 14.5737 3020 93.2331 944.411 431.783
2455 0 213.185 14.6868 3131 91.953 944.969 430.571
2456 0 217.188 14.6647 3185 92.9472 944.087 425.733
2457 0 223.221 14.694 3280 93.0034 945.144 422.914
2458 0 231.22 14.6743 3393 93.6269 944.559 417.625
2459 1 177.182 12.5295 2220 96.2532 945.438 448.117
2460 0 183.157 13.6441 2499 93.6503 945.93 444.451
2461 0 189.278 13.7839 2609 94.1257 944.934 442.066
2462 0 195.167 14.3364 2798 94.1269 945.844 438.553
2463 0 199.256 14.0523 2800 95.8082 944.953 435.625
2464 0 205.304 14.1936 2914 95.9619 945.422 431.532
2465 0 209.177 14.0981 2949 98.5927 944.997 427.619
2466 0 216.188 14.4134 3116 98.4624 945.405 426.425
2467 0 221.186 13.717 3034 100.533 944.748 423.129
2468 0 229.156 13.8028 3163 100.981 944.295 418.351
2469 0 234.141 13.5047 3162 102.702 943.76 415.874
2470 0 242.186 14.0305 3398 101.209 944.498 411.98
2471 0 246.162 13.6211 3353 102.89 944.977 408.019
2472 1 63.0394 10.7552 678 91.0472 944.633 498.279
2473 0 67.0645 11.3622 762 88.7139 945.05 499.154
2474 0 68.0687 12.7665 869 85.8424 945.033 498.886
2475 0 68.0686 12.3993 844 88.0213 945.165 497.547
2476 0 68.0914 12.2189 832 89.1442 945.005 496.852
2477 0 71.0666 12.4812 887 87.9414 944.862 496.611
2478 0 71.0568 12.2015 867 88.8835 944.804 496.188
2479 0 76.1186 12.4148 945 87.0868 944.26 496.197
2480 0 77.0958 12.6077 972 86.6718 943.89 497.372
2481 0 77.0481 12.5246 965 88.1658 944.513 494.712
2482 0 78.0517 12.3892 967 87.1148 944.949 494.553
2483 0 81.1102 12.3166 999 83.2673 944.578 493.06
2484 0 84.0636 12.1813 1024 85.5498 945.216 492.013
2485 0 87.1293 12.6594 1103 85.5295 944.822 489.492
2486 0 90.0566 12.5366 1129 85.7272 944.004 487.631
2487 0 92.0938 13.2365 1219 83.9467 944.773 486.859
2488 0 96.0749 12.2092 1173 86.1125 944.19 485.764
2489 0 102.245 12.4701 1275 84.9263 944.417 488.217
2490 0 106.144 12.5301 1330 83.7068 944.684 485.358
2491 1 56.0416 11.8662 665 85.203 944.962 509.349
2492 0 58.1466 12.1933 709 84.2652 944.801 510.041
2493 0 59.1223 11.9583 707 84.9378 945.282 509.639
2494 0 61.1631 12.0007 734 85.139 944.737 505.368
2495 0 61.1139 12.0594 737 86.1642 944.896 501.613
2496 0 64.1862 12.6663 813 82.2066 944.631 502.688
2497 0 64.2118 12.6768 814 82.7555 944.74 501.703
2498 0 67.1525 13.2534 890 78.3483 944.564 502.716
2499 0 68.0985 13.3043 906 78.1832 944.109 500.38
2500 0 69.1802 12.9372 895 79.0715 944.672 498.396
2501 0 70.0796 12.7141 891 79.5982 944.983 499.557
2502 0 73.0383 13.4998 986 77.3185 945.475 498.405
2503 0 72.0619 12.6974 915 79.6754 945.243 497.259
2504 0 77.0596 13.6128 1049 76.6578 944.651 496.311
2505 0 78.1099 13.3914 1046 77.3929 945.278 496.215
2506 0 80.0634 13.6017 1089 77.2709 944.812 496.952
2507 0 81.1159 13.6348 1106 77.8345 944.973 494.839
2508 0 83.0871 13.1428 1092 78.0925 945.219 494.643
2509 0 87.1372 13.1976 1150 78.0904 944.517 493.506
2510 0 89.1784 13.4674 1201 78.2123 944.193 491.958
2511 0 89.0664 12.9005 1149 80.2567 944.377 491.09
2512 0 91.0704 12.408 1130 81.4788 944.499 490.066
2513 0 94.1382 12.8747 1212 80.014 944.17 488.497
2514 0 97.1033 12.9862 1261 80.0563 944.62 488.169
2515 0 100.068 13.5109 1352 77.6191 943.507 486.544
2516 0 103.098 13.5211 1394 77.8321 944.16 483.044
2517 0 105.143 13.5625 1426 77.3282 944.215 482.265
2518 0 109.114 13.0689 1426 77.7707 943.794 478.656
2519 0 110.103 13.5055 1487 77.3645 943.766 479.948
2520 0 113.121 12.4999 1414 79.3027 943.858 479.32
2521 1 66.0531 12.5959 832 81.482 944.748 501.218
2522 0 68.0604 12.9885 884 80.5023 945.201 500.322
2523 0 70.0744 12.8292 899 79.7442 943.779 497.93
2524 0 72.1016 13.1204 946 79.1512 944.067 498.57
2525 0 73.0475 13.3201 973 78.8664 943.822 495.602
2526 0 76.0987 14.0081 1066 77.6717 944.231 493.679
2527 0 79.1118 14.2204 1125 76.9636 945.052 493.221
2528 0 81.0628 13.5697 1100 78.7291 944.693 493.175
2529 0 81.1214 13.7818 1118 78.1333 944.505 490.955
2530 0 85.0826 14.0452 1195 76.8695 944.965 489.883
2531 0 87.1264 13.9223 1213 78.0379 944.97 488.303
2532 0 89.0771 13.943 1242 77.7399 945.043 486.553
2533 0 90.0369 13.0724 1177 80.4554 944.157 485.893
2534 0 91.0384 13.5767 1236 79.2921 944.84 484.924
2535 0 95.0942 13.6286 1296 78.723 944.347 482.613
2536 0 96.0555 13.3464 1282 78.4938 944.791 482.381
2537 0 101.094 13.4132 1356 77.3097 943.468 480.098
2538 0 101.067 13.595 1374 77.2948 944.003 477.612
2539 0 103.159 13.2999 1372 77.4555 943.725 477.093
2540 0 107.142 13.4867 1445 77.0042 943.471 474.09
2541 0 111.127 13.3181 1480 76.7061 943.653 473.507
2542 0 113.084 13.2026 1493 76.353 943.925 472.953
2543 0 116.153 13.2326 1537 77.1165 944.055 470.407
2544 0 119.1 13.2326 1576 78.2475 943.638 469.848
2545 0 122.067 13.0338 1591 79.0666 944.898 467.493
2546 0 126.081 13.1185 1654 79.6088 944.015 467.022
2547 0 131.16 13.4035 1758 80.9465 944.28 464.658
2548 1 72.0331 13.2023 951 85.2829 944.461 489.837
2549 0 74.071 13.5141 1001 85.0949 944.059 486.751
2550 0 79.1472 13.7086 1085 83.4866 944.321 486.631
2551 0 77.0221 12.3861 954 87.8595 944.048 487.873
2552 0 78.0828 13.4601 1051 86.2055 944.418 486.237
2553 0 81.071 12.9639 1051 87.4481 944.973 485.142
2554 0 85.0444 13.4636 1145 86.262 945.991 484.767
2555 0 88.086 13.2938 1171 87.0051 946.693 482.486
2556 0 93.0818 13.7621 1281 85.1312 945.335 483.376
2557 0 96.077 13.5829 1305 84.5824 944.64 483.152
2558 0 99.1068 13.5409 1342 87.9002 944.007 479.379
2559 0 102.071 13.9315 1422 85.5021 944.224 478.501
2560 0 103.059 13.6815 1410 87.0589 943.745 475.56
2561 0 106.088 13.6208 1445 88.0561 944.642 475.365
2562 0 109.13 14.0566 1534 88.5326 944.883 473.486
2563 0 112.118 14.0923 1580 89.4614 945.295 471.273
2564 0 117.163 13.7842 1615 89.8923 944.573 470.553
2565 0 121.05 14.4238 1746 89.2784 944.632 467.987
2566 1 64.0165 11.9813 767 96.3807 944.694 493.11
2567 0 66.0416 12.8707 850 95.1506 944.481 492.7
2568 0 66.1247 12.7789 845 97.1195 944.388 490.151
2569 0 68.0881 13.7469 936 94.8771 944.564 490.315
2570 0 72.125 13.3241 961 95.309 945.014 489.335
2571 0 73.1115 13.6367 997 95.2508 944.756 488.856
2572 0 74.1763 13.6162 1010 96.4475 944.809 487.609
2573 0 72.0737 13.1532 948 100.48 944.416 485.658
2574 0 76.1297 13.7003 1043 97.9214 945.104 485.48
2575 0 79.1311 13.3955 1060 98.5472 945.039 485.325
2576 0 80.1003 13.2833 1064 99.9633 944.612 484.093
2577 0 83.0252 13.1526 1092 100.972 944.547 482.948
2578 0 86.2666 13.5278 1167 99.4105 944.054 482.067
2579 0 86.1901 13.4702 1161 101.489 944.183 479.715
2580 0 87.0834 14.021 1221 99.6691 944.448 478.609
2581 0 91.0822 13.5592 1235 100.233 944.18 479.439
2582 0 91.1262 13.8489 1262 100.067 945.796 477.807
2583 0 90.0793 13.2661 1195 104.004 945.495 477.762
2584 0 94.0628 13.2677 1248 102.007 945.718 474.292
2585 0 96.0796 13.7386 1320 101.299 945.721 472.978
2586 0 100.116 13.9938 1401 100.243 946.163 471.819
2587 0 103.129 13.8952 1433 100.137 945.859 471.742
2588 0 107.159 14.2218 1524 99.4692 945.811 470.29
2589 0 109.149 14.6222 1596 98.8377 945.637 468.807
2590 0 112.038 13.8792 1555 101.678 946.114 468.039
2591 0 113.1 13.7842 1559 103.107 946.105 465.997
2592 0 115.152 13.582 1564 104.238 946.609 465.043
2593 0 120.174 13.4389 1615 103.97 946.118 463.938
2594 0 123.052 13.6771 1683 103.708 945.851 462.037
2595 0 127.161 13.589 1728 103.321 945.71 460.657
2596 0 130.106 13.8733 1805 95.8338 945.862 458.9
2597 0 135.059 13.4681 1819 104.7 944.803 455.69
2598 1 79.1741 11.1147 880 104.548 945.434 484.378
2599 0 81.1259 12.5854 1021 101.701 945.458 482.188
2600 0 82.0758 12.0864 992 104.459 945.097 478.466
2601 0 84.1282 12.4572 1048 102.813 945.778 479.064
2602 0 87.1256 12.855 1120 100.896 945.855 480.11
2603 0 87.0993 13.2033 1150 100.955 945.285 478.551
2604 0 89.0832 12.7184 1133 103.086 944.518 476.701
2605 0 90.065 12.8463 1157 103.634 945.197 475.463
2606 0 94.0588 12.8856 1212 103.777 944.386 473.506
2607 0 94.0514 12.6527 1190 106.705 944.492 471.856
2608 0 96.0306 12.4335 1194 107.116 944.241 470.987
2609 0 98.0498 12.6772 1243 106.606 945.203 470.314
2610 0 102.05 12.5331 1279 106.33 944.357 468.5
2611 0 103.034 13.2092 1361 107.137 944.77 465.04
2612 0 106.059 12.6817 1345 107.994 944.697 464.03
2613 0 111.067 12.8931 1432 106.115 945.545 463.353
2614 0 114.036 13.0923 1493 106.121 945.093 462.323
2615 0 118.075 13.1188 1549 105.953 945.472 460.717
2616 0 124.182 13.4963 1676 104.603 944.885 458.742
2617 0 128.073 13.711 1756 104.452 945.852 455.174
2618 0 132.06 13.8876 1834 105 945.164 455.784
2619 0 138.102 13.1786 1820 107.89 945.364 454.343
2620 0 143.211 13.1414 1882 107.264 944.422 451.699
2621 0 146.127 13.6936 2001 106.196 944.956 452.073
2622 0 147.094 13.9434 2051 106.105 944.064 447.777
2623 0 152.123 13.3051 2024 108.914 945.471 446.693
2624 1 90.0651 11.847 1067 103.994 944.978 475.659
2625 0 91.0382 11.8741 1081 104.816 945.599 473.361
2626 0 94.0898 11.946 1124 104.247 945.165 471.84
2627 0 97.1013 11.2357 1091 106.681 945.446 470.412
2628 0 100.099 12.2179 1223 103.401 944.927 470.083
2629 0 102.06 11.3855 1162 106.797 945.187 467.508
2630 0 101.066 11.8636 1199 106.549 944.595 467.606
2631 0 108.063 11.7709 1272 103.932 944.472 467.2
2632 0 109.059 12.3787 1350 103.939 945.058 466.326
2633 0 112.062 12.5199 1403 103.072 945.647 464.408
2634 0 116.168 11.8536 1377 105.384 945.159 460.797
2635 0 118.069 11.7558 1388 105.741 944.758 458.856
2636 0 123.157 12.5206 1542 104.07 944.441 458.368
2637 0 127.107 12.2259 1554 104.909 944.869 457.774
2638 0 131.159 12.8165 1681 102.706 944.602 456.14
2639 0 134.068 12.2848 1647 104.375 945.224 453.537
2640 0 143.246 13.2639 1900 101.616 945.052 457.803
2641 0 144.101 12.7896 1843 104.165 944.543 455.932
2642 0 148.098 12.8158 1898 103.954 945.649 454.137
2643 0 151.121 12.6521 1912 104.36 944.21 451.488
2644 0 154.153 12.2151 1883 105.647 944.765 446.948
2645 0 156.133 11.2596 1758 107.792 944.721 443.42
2646 0 166.212 13.0135 2163 101.183 944.603 443.018
2647 0 167.181 12.3638 2067 103.36 944.218 441.481
2648 0 171.153 12.5618 2150 102.937 944.578 435.173
2649 0 176.123 12.2982 2166 104.181 944.218 435.087
2650 0 180.137 12.1241 2184 103.713 943.924 432.801
2651 0 182.153 11.3421 2066 106.589 944.744 428.586
2652 0 188.086 11.8457 2228 104.491 945.406 426.788
2653 0 191.179 11.8266 2261 104.6 945.24 423.065
2654 1 34.0229 4.11488 140 65.2357 945.093 517.629
2655 0 34.0058 2.47017 84 64.4881 944.667 515.571
2656 0 34.0374 2.9967 102 63.5588 944.765 511.941
2657 0 39.0078 5.02464 196 61.7245 944.806 513.459
2658 0 41.0727 4.99115 205 60.2293 945.429 511.795
2659 0 40.0208 6.59657 264 57.6515 945.776 510.761
2660 0 38.0536 6.20178 236 57.4195 945.771 512.051
2661 0 40.019 5.34746 214 57.4813 946.089 508.953
2662 0 41.035 6.62849 272 59.5257 946.57 510.408
2663 0 39.0267 5.58592 218 58.7248 946.427 507.968
2664 0 41.0273 7.21471 296 59.6791 946.155 511.635
2665 0 43.0446 6.01702 259 58.8649 947.154 508.232
2666 1 28.036 5.88528 165 61.7515 946.897 514.624
2667 0 24.0262 4.95292 119 63.605 946.58 514.605
2668 0 29.0418 6.88664 200 60.635 946.205 513.75
2669 0 32.0463 6.14736 197 63.9239 946.482 516.939
2670 0 31.046 7.15067 222 63.3604 946.694 518.473
2671 0 34.0317 6.87595 234 63.765 946.056 517.466
2672 0 27.0059 5.81354 157 66.5541 944.268 522.701
