time division length width area intensity CMx CMy
0 0 63.0373 17.2596 1088 114.249 1371.77 487.205
1 0 64.0302 16.7889 1075 114.127 1372.05 485.289
2 0 65.0758 16.7804 1092 112.089 1371.67 484.924
3 0 65.0353 16.5295 1075 113.546 1371.79 484.114
4 0 69.0501 17.567 1213 106.369 1372.3 483.886
5 0 69.0723 17.4165 1203 106.694 1372.93 483.194
6 0 71.0552 17.0994 1215 105.123 1372.62 482.212
7 0 72.0382 17.2964 1246 104.45 1373.03 481.473
8 0 75.0364 17.898 1343 99.5838 1373.19 481.921
9 0 76.064 16.9068 1286 102.03 1372.46 481.413
10 0 77.0516 16.8459 1298 101.3 1371.75 481.386
11 0 81.0439 18.6319 1510 93.5258 1372.46 479.711
12 0 81.0607 17.4684 1416 96.964 1372.34 478.761
13 0 84.0694 17.6402 1483 95.2461 1371.83 476.745
14 0 85.0345 17.3812 1478 96.3633 1370.91 475.433
15 0 89.1518 18.0479 1609 91.527 1371.98 476.063
16 0 90.0812 17.8617 1609 92.0758 1371.8 474.828
17 0 92.0644 17.5855 1619 92.2755 1371.61 473.614
18 0 94.1324 17.1567 1615 92.9387 1371.47 472.12
19 1 48.0422 12.6764 609 98.9409 1370.84 496.874
20 0 50.0224 13.6339 682 96.6408 1370.67 496.537
21 0 52.0108 13.8817 722 94.0208 1369.63 495.769
22 0 54.0166 14.5881 788 91.7741 1369.78 494.363
23 0 55.0507 14.2778 786 91.43 1370.01 493.235
24 0 56.0244 14.5294 814 91.4251 1369.77 492.947
25 0 56.0554 14.8781 834 91.518 1370.08 492.031
26 0 59.0429 14.9891 885 90.0565 1369.99 492.37
27 0 65.0927 13.4424 875 91.16 1370.31 491.375
28 0 64.1431 14.8262 951 89.3407 1370.15 489.24
29 0 66.0368 14.4162 952 89.5441 1370.18 488.23
30 0 68.076 14.9539 1018 88.6935 1370.09 487.348
31 0 69.0795 14.6498 1012 90.1581 1369.61 487.026
32 0 71.0403 15.1745 1078 89.3692 1369.55 485.45
33 0 75.0694 14.6265 1098 89.8807 1369.6 484.621
34 0 78.1282 15.3466 1199 88.5613 1369.52 483.028
35 0 79.0999 15.3856 1217 88.9154 1369.58 482.329
36 0 81.1356 14.901 1209 89.7353 1369.12 481.069
37 0 84.1533 15.1509 1275 88.6227 1369.42 479.387
38 0 87.1975 14.8972 1299 88.7868 1369.28 478.515
39 0 90.2993 15.9027 1436 87.5223 1370.07 475.726
40 0 92.1473 15.345 1414 88.9972 1369.94 473.479
41 0 95.2813 15.2286 1451 88.3225 1369.37 472.994
42 0 98.2075 14.9887 1472 88.5666 1369.53 472.785
43 0 100.122 14.7421 1476 89.3686 1369.4 470.401
44 0 104.055 14.6941 1529 88.5736 1369.1 468.218
45 0 108.086 15.793 1707 85.8986 1369.83 466.903
46 0 111.113 15.5878 1732 87.6259 1369.12 465.707
47 0 116.07 15.6285 1814 86.9564 1369.92 462.452
48 1 63.0624 13.0189 821 86.2034 1369.71 489.118
49 0 66.0643 13.5928 898 88.392 1369.93 487.184
50 0 67.0388 13.4101 899 89.6185 1370.02 486.194
51 0 71.1703 13.6152 969 89.0877 1370.2 483.678
52 0 74.0834 13.7008 1015 88.8335 1369.6 484.4
53 0 74.0377 13.4391 995 90.8583 1369.76 482.32
54 0 78.0798 13.9729 1091 89.1256 1369.55 482.052
55 0 80.0639 13.7515 1101 89.7729 1370.42 480.476
56 0 83.102 14.2476 1184 87.8716 1370.05 478.766
57 0 85.063 14.0132 1192 88.6921 1370.84 478.008
58 0 88.1199 13.9923 1233 87.7705 1371.46 477.292
59 0 90.0653 13.5568 1221 88.4611 1370.22 474.703
60 0 94.0756 13.9888 1316 86.3511 1370.78 474.785
61 0 97.1591 14.255 1385 87.8874 1371.59 473.75
62 0 100.051 14.0429 1405 88.7708 1370.81 471.821
63 0 103.054 14.0509 1448 90.4351 1370.52 470.482
64 0 105.053 14.1262 1484 91.0148 1370.5 470.27
65 0 109.063 14.2304 1552 91.6488 1371.42 467.862
66 0 114.037 14.3374 1635 90.8373 1371.44 465.495
67 0 114.065 13.6501 1557 94.5395 1371.17 463.195
68 0 119.13 14.0518 1674 93.2121 1370.99 460.692
69 0 123.102 13.696 1686 93.8582 1371.41 460.006
70 0 128.076 13.9996 1793 94.1115 1371.51 457.646
71 0 132.072 13.9243 1839 94.0413 1371.8 457.295
72 0 137.087 13.7212 1881 94.7251 1371.46 453.031
73 0 143.098 14.6543 2097 91.8851 1371.19 450.866
74 0 145.052 13.7744 1998 95.1807 1370.65 446.865
75 0 152.118 13.7524 2092 95.7036 1371.29 446.225
76 0 157.117 13.6968 2152 95.2505 1370.7 442.996
77 0 161.102 14.1401 2278 96.1536 1371.08 440.327
78 0 165.192 13.8809 2293 97.3642 1370.97 434.669
79 0 172.272 14.0824 2426 96.5157 1370.87 430.781
80 0 178.189 13.9065 2478 97.3688 1371.58 429.054
81 0 184.184 13.8991 2560 97.4852 1371.2 425.18
82 0 191.247 15.7649 3015 92.9522 1371.19 419.786
83 0 195.337 14.2574 2785 96.5731 1370.69 421.105
84 0 202.199 14.0357 2838 97.2555 1371.14 414.034
85 0 208.36 14.163 2951 94.7364 1370.97 412.541
86 0 214.189 14.3332 3070 93.0932 1371.08 409.951
87 0 222.272 15.0581 3347 90.9982 1371.74 405.345
88 0 229.342 14.8076 3396 89.732 1371.56 402.645
89 0 238.406 14.8402 3538 89.212 1370.86 401.125
90 0 238.406 14.836 3537 159.511 1369.85 401.286
91 0 396.095 27.3596 10837 65.0021 1369.85 297.156
92 0 393.61 25.4516 10018 69.4644 1370.29 291.595
93 0 385.662 13.8956 5359 94.3506 1370.99 328.472
94 0 383.335 9.71475 3724 98.5798 1371.36 354.961
95 0 387.467 9.79697 3796 98.1154 1371.16 356.337
96 0 389.467 8.92245 3475 96.6141 1371.02 374.521
97 0 413.535 27.9202 11546 63.732 1369.53 290.281
98 0 413.515 25.5057 10547 68.7352 1369.98 285.358
99 1 335.382 14.801 4964 90.2933 1370.13 351.887
100 0 348.509 15.5089 5405 88.2537 1370.38 341.177
101 0 398.626 24.0551 9589 68.046 1369.71 301.861
102 1 168.289 11.0108 1853 83.0988 1370.03 444.124
103 1 100.209 11.8054 1183 77.8335 1370.41 469.173
104 0 103.191 11.3479 1171 78.5295 1370.55 466.845
105 0 106.124 10.8835 1155 78.5991 1370.68 466.334
106 0 110.166 11.1468 1228 78.4984 1370.58 465.884
107 0 115.152 12.1839 1403 77.2281 1370.67 464.046
108 0 117.095 11.6059 1359 79.3017 1370.65 459.401
109 0 121.112 12.0385 1458 77.4396 1370.33 458.49
110 0 126.132 11.591 1462 78.5055 1370.66 455.841
111 0 131.146 11.9943 1573 77.0114 1369.97 454.825
112 0 134.11 11.3936 1528 78.7749 1370.82 450.688
113 0 138.175 11.5361 1594 79.9987 1370.59 448.494
114 0 141.171 11.1567 1575 83.3994 1370.93 440.114
115 0 147.082 12.0137 1767 82.6723 1370.32 438.01
116 0 153.151 11.5376 1767 84.8223 1370.93 436.333
117 0 158.169 12.0251 1902 87.8375 1371.13 436.27
118 0 162.222 11.7 1898 84.3335 1370.74 434.097
119 0 169.204 13.1261 2221 85.7753 1370.81 433.559
120 0 175.341 12.6496 2218 84.6389 1370.35 431.332
121 0 182.215 12.1011 2205 85.6141 1369.98 427.017
122 0 187.374 12.6965 2379 86.5982 1370.27 422.275
123 0 192.353 12.4667 2398 85.53 1371.14 418.757
124 0 198.401 12.7116 2522 87.3664 1371.96 415.812
125 0 197.377 12.4128 2450 160.767 1372.99 415.007
126 1 156.384 11.7084 1831 85.3501 1371.27 437.786
127 0 159.404 12.6283 2013 86.1232 1371.08 432.991
128 0 164.343 12.5408 2061 85.9573 1370.75 432.786
129 0 169.282 13.3387 2258 85.5633 1370.62 428.969
130 0 173.343 12.7724 2214 85.813 1370.04 427.673
131 0 179.303 13.2346 2373 84.662 1370.25 427.09
132 0 184.227 13.3965 2468 83.9899 1370.72 423.022
133 0 188.208 12.2949 2314 83.9836 1370.79 414.401
134 0 194.193 12.6627 2459 83.292 1370.83 410.576
135 0 201.251 12.8496 2586 82.3047 1371.09 412.072
136 0 207.337 12.4677 2585 83.2151 1371.4 408.167
137 0 214.182 12.3306 2641 84.1322 1370.76 407.111
138 0 223.282 13.315 2973 82.5876 1370.26 402.314
139 0 229.195 12.5134 2868 84.7151 1369.88 398.614
140 0 236.213 13.1746 3112 83.8422 1369.41 396.408
141 0 246.268 13.3067 3277 83.3988 1369.76 394.296
142 0 254.196 12.9821 3300 84.2097 1369.86 390.429
143 0 263.286 13.5062 3556 84.3737 1369.98 378.073
144 0 269.43 13.1463 3542 84.535 1370.2 378.962
145 0 276.561 12.9375 3578 85.2937 1370.05 372.958
146 0 277.346 12.7819 3545 86.6322 1370.31 367.403
147 0 286.42 13.0787 3746 85.326 1369.66 360.43
148 1 79.1432 10.9169 864 66.2627 1368.89 477.912
149 0 81.1264 11.402 925 67.5351 1368.75 478.212
150 0 83.1332 11.7402 976 68.8402 1369.37 476.647
151 0 86.1277 10.8444 934 64.5664 1368.94 477.95
152 0 88.1081 10.7709 949 64.7408 1368.91 476.907
153 0 92.1792 11.5536 1065 65.6178 1369.11 473.703
154 0 93.1143 11.6738 1087 66.966 1369.23 473.655
155 0 92.1492 9.74507 898 72.647 1369.06 474.153
156 0 97.3164 11.2006 1090 69.978 1369.43 469.615
157 0 100.114 11.1873 1120 69.8 1369.23 467.734
158 0 99.3022 10.745 1067 73.6898 1369.55 463.821
159 0 102.262 10.3851 1062 70.5085 1369.81 463.75
160 1 64.1605 10.801 693 68.2496 1369.04 488.012
161 0 63.0497 10.119 638 60.6881 1369.93 486.091
162 0 62.0526 8.26718 513 61.9903 1370.84 489.458
163 0 63.0609 9.32432 588 61.2976 1369.71 490.063
164 0 66.0412 9.08524 600 61.2717 1369.62 486.107
165 0 66.0866 7.89873 522 57.636 1370.5 483.092
166 0 70.1475 8.85278 621 57.6345 1370.13 480.024
167 0 72.0663 9.43575 680 56.8632 1370.06 481.415
168 0 72.0663 9.36637 675 123.28 1371.07 481.304
169 0 76.1269 9.01127 686 58.0073 1370.99 479.568
170 0 78.1129 9.51187 743 58.218 1370.7 477.332
171 0 81.1383 9.00931 731 58.922 1371.18 471.56
172 0 81.1383 9.00931 731 125.598 1372.18 471.665
173 1 45.0757 8.87396 400 60.0875 1371.92 495.645
174 0 48.1113 9.54039 459 61.1111 1371.54 495.895
175 0 51.3266 11.534 592 60.0372 1370.02 492.576
176 0 51.3795 10.763 553 60.1447 1369.08 490.505
177 0 52.3229 11.429 598 61.6706 1369.36 487.667
178 0 54.0663 11.9298 645 58.2248 1371.03 493.515
179 0 54.0738 11.8912 643 56.2597 1370.84 491.944
180 0 56.103 11.6928 656 55.7043 1371.57 491.349
181 0 57.0504 11.4636 654 56.0428 1371.7 489.706
182 0 58.0831 11.363 660 55.8727 1370.55 489.555
183 0 59.0547 11.7687 695 55.2014 1370.95 491.387
184 0 61.086 11.3774 695 55.9338 1369.4 488.763
185 0 62.0977 11.2726 700 56.0729 1369.66 488.056
186 0 63.0499 11.4988 725 55.7103 1369.67 487.054
187 0 63.0566 10.4668 660 57.3121 1369.73 487.033
188 0 63.1049 10.6648 673 58.422 1370.31 487.138
189 0 64.0814 10.6583 683 58.4246 1370.93 487.394
190 0 65.1198 10.0277 653 60.0214 1370.57 484.743
191 0 67.0604 10.7962 724 59.8743 1370.5 483.407
192 0 70.0631 11.0044 771 58.6472 1369.15 481.869
193 0 72.0653 10.6847 770 60.2896 1369.31 481.469
194 0 75.138 10.5539 793 60.4224 1369.13 480.032
195 0 77.0506 10.837 835 60.2838 1369.23 480.147
196 0 82.0593 11.8329 971 58.9701 1368.91 478.747
197 0 85.0571 11.3924 969 59.3891 1368.85 477.698
198 0 88.0285 11.7348 1033 59.4105 1369.45 474.99
199 1 45.0336 9.4596 426 59.3052 1368.96 497.643
200 0 47.0305 10.9291 514 58.8249 1368.72 495.004
201 0 49.0242 11.4025 559 56.4723 1369.01 494.632
202 0 50.0583 11.3867 570 71.5561 1369.04 494.011
203 0 53.0364 11.5015 610 69.1607 1368.87 492.531
204 0 52.0188 11.1114 578 70.2924 1369.47 493.083
205 0 54.0564 11.1365 602 69.8339 1368.96 492.341
206 0 55.0724 11.4758 632 69.7089 1369.5 491.473
207 0 57.0435 11.5351 658 69.1413 1369.25 490.144
208 0 60.0274 11.2449 675 69.5674 1369 490.059
209 0 60.027 11.2783 677 110.455 1369.01 490.043
210 0 59.0537 10.9731 648 73.5818 1369.08 489.218
211 0 60.0947 11.1324 669 73.6278 1369.07 489.777
212 0 63.0685 11.5906 731 72.4473 1369.48 487.803
213 0 63.0402 10.8502 684 74.6506 1369.04 487.893
214 0 64.0522 11.1784 716 74.6941 1369.16 486.362
215 0 68.0942 11.5869 789 72.9265 1369.01 484.684
216 0 68.0872 11.5147 784 73.9834 1368.85 483.477
217 0 73.085 11.6029 848 73.9092 1369.94 481.754
218 0 72.0793 11.5428 832 106.418 1370.94 481.398
219 0 76.1064 11.1423 848 75.8101 1368.8 479.529
220 0 79.0906 11.5943 917 75.5714 1368.75 479.516
221 0 81.026 10.3917 842 75.5499 1369.11 476.487
222 0 81.0912 11.037 895 76.9765 1368.59 476.476
223 0 85.0492 10.6997 910 77.6011 1368.77 477.316
224 0 89.0255 11.244 1001 77.7213 1369.06 473.12
225 0 90.0776 10.5132 947 79.3083 1368.86 473.687
226 0 94.0387 10.6446 1001 78.3357 1368.98 470.966
227 1 47.033 9.69533 456 78.2018 1368.02 494.189
228 0 50.0176 9.79655 490 77.0857 1368.46 493.296
229 0 51.0269 9.97514 509 77.6935 1368.29 492.096
230 0 51.073 9.16335 468 78.1004 1368.41 491.44
231 0 53.0601 9.74367 517 78.5184 1368.38 492.621
232 0 55.0643 10.3152 568 78.6673 1368.36 492.202
233 0 58.0902 11.3272 658 77.6231 1368.69 492.053
234 0 58.1433 11.2481 654 79.3379 1368.78 489.28
235 0 60.1494 11.8372 712 79.7331 1368.57 488.327
236 0 62.0928 11.6761 725 81.0483 1369.22 487.381
237 0 67.0291 12.1141 812 79.9692 1369.58 487.07
238 0 67.1064 12.4429 835 77.6479 1369.05 487.216
239 0 67.1365 12.5714 844 76.5628 1368.61 486.081
240 0 67.1672 11.8212 794 74.8186 1369.18 487.511
241 0 67.0475 11.559 775 77.0219 1368.94 487.448
242 0 69.0794 11.494 794 76.7355 1369.05 487.327
243 0 73.0638 11.839 865 76.3445 1368.1 484.853
244 0 75.1269 12.5122 940 76.2957 1368.37 484.854
245 0 76.1032 12.4699 949 76.8883 1368.85 481.928
246 0 79.088 12.6694 1002 75.1108 1368.73 480.302
247 0 81.1257 12.758 1035 76.2899 1368.91 478.689
248 0 83.0739 12.9884 1079 76.2614 1368.9 477.236
249 0 83.0772 12.0851 1004 78.3197 1368.74 476.042
250 0 85.0644 12.6257 1074 77.5317 1368.94 477.59
251 0 85.089 12.0697 1027 78.2707 1368.51 474.296
252 0 90.1663 12.8097 1155 76.7723 1367.53 473.49
253 0 92.2169 12.6007 1162 78.5861 1367.82 469.357
254 0 93.0962 12.471 1161 82.0388 1368.16 468.153
255 0 98.1306 12.9623 1272 81.9371 1368.44 466.521
256 0 99.1564 12.5458 1244 85.5434 1368.63 464.947
257 0 102.168 13.3995 1369 86.1198 1368.7 462.576
258 0 104.285 13.07 1363 89.7337 1368.73 461.106
259 0 109.125 13.2692 1448 87.5663 1368.37 459.235
260 0 113.186 13.4822 1526 88.2182 1368.18 458.606
261 0 118.193 13.8417 1636 88.6815 1368.61 456.919
262 0 124.217 13.9433 1732 87.9446 1368.32 455.826
263 0 126.185 12.9493 1634 91.123 1368.39 454.565
264 0 132.308 13.4459 1779 90.5149 1368.79 453.39
265 0 135.3 13.0895 1771 92.6217 1368.24 449.81
266 0 141.202 13.4488 1899 92.8067 1368.55 445.409
267 1 63.2142 11.4373 723 89.3112 1368.3 482.939
268 0 64.0755 11.2992 724 89.1284 1368.11 481.472
269 0 68.0705 12.1786 829 86.345 1367.8 480.929
270 0 66.1361 10.7657 712 79.1994 1367.93 482.386
271 0 71.0818 12.3801 880 85.1693 1368.03 485.235
272 0 72.0507 12.3524 890 85.7753 1368.01 484.904
273 0 76.0482 12.7551 970 83.6959 1368.37 483.3
274 0 75.0614 12.3632 928 85.2802 1368.58 481.669
275 0 79.1249 12.2212 967 85.3351 1368.21 479.9
276 0 82.043 12.4081 1018 85.2603 1367.91 479.473
277 0 84.0719 12.6558 1064 84.6673 1368.68 478.027
278 0 86.059 12.4566 1072 85.889 1369.08 476.438
279 0 87.0562 11.9693 1042 88.2073 1368.54 474.253
280 0 92.054 12.6665 1166 86.8576 1369.02 473.498
281 0 92.054 12.7099 1170 146.907 1369.02 473.468
282 0 97.0812 12.7831 1241 88.4537 1369.15 470.961
283 0 98.0793 12.3675 1213 92.1698 1368.63 469.234
284 0 102.077 12.5591 1282 91.5663 1368.61 467.448
285 0 104.139 12.6657 1319 91.8362 1368.64 464.724
286 0 108.078 12.9722 1402 91.4116 1369.05 461.665
287 0 111.082 12.0362 1337 92.6544 1368.48 459.806
288 0 116.096 12.7308 1478 91.0785 1368.18 459.635
289 0 118.102 12.1759 1438 93.685 1368.28 453.745
290 0 122.117 12.6682 1547 92.0239 1368.08 452.904
291 0 126.22 12.2485 1546 91.0776 1367.81 448.371
292 0 130.234 12.4161 1617 92.201 1368.56 449.398
293 0 134.277 12.586 1690 90.2775 1368.56 441.663
294 1 75.0918 9.36187 703 84.0725 1368.8 472.748
295 0 81.1045 11.8736 963 87.1038 1368.35 480.807
296 0 82.0761 12.0376 988 84.999 1367.93 478.522
297 0 86.0455 11.982 1031 84.0223 1368.23 478.639
298 0 87.0753 12.8165 1116 80.0815 1368.16 477.38
299 0 89.0686 12.99 1157 77.4356 1368.12 477.685
300 0 92.056 12.5467 1155 76.3654 1367.77 476.016
301 0 95.0583 12.5397 1192 76.5982 1367.71 472.966
302 0 98.078 12.9693 1272 76.0731 1367.95 472.286
303 0 99.0596 11.9726 1186 78.3145 1368.54 472.626
304 0 102.099 12.6544 1292 78.4652 1367.95 470.15
305 0 106.062 13.3884 1420 77.0246 1368.22 468.845
306 0 109.073 13.0555 1424 77.5962 1367.98 466.592
307 0 114.178 12.4367 1420 89.4831 1367.55 464.425
308 0 118.146 12.3407 1458 89.8663 1367.27 461.027
309 0 122.139 12.8706 1572 89.1056 1367.96 459.749
310 1 52.0226 9.72654 506 80.4506 1368.85 496.31
311 0 54.0385 11.0292 596 71.4379 1368.28 495.76
312 0 55.0288 11.3395 624 72.008 1368.59 495.074
313 0 57.0184 11.5051 656 71.5046 1369.31 496.223
314 0 55.0299 10.2671 565 76.8867 1368.9 496.934
315 0 57.0479 10.0442 573 78.9843 1368.69 496.733
316 0 60.0938 11.0328 663 77.2247 1368.36 496.341
317 0 59.0513 10.3469 611 79.8985 1368.72 495.563
318 0 61.0657 10.3004 629 81.9936 1368.11 493.676
319 0 64.0934 10.9528 702 81.5712 1368.21 493.816
320 0 66.0975 10.7266 709 81.2962 1369.05 494.269
321 0 69.0416 11.3555 784 79.8686 1368.94 492.506
322 0 69.1303 10.9069 754 81.1525 1368.33 493.003
323 0 74.0848 11.0009 815 80.2896 1368.67 491.056
324 0 73.0781 11.0977 811 80.5154 1367.9 488.778
325 0 79.138 11.7263 928 78.1595 1367.44 488.858
326 0 80.0538 10.9177 874 79.476 1367.26 487.85
327 0 83.0777 11.5434 959 78.3629 1367.4 487.092
328 0 85.0662 11.0032 936 78.7158 1366.92 484.74
329 0 87.1742 11.2304 979 77.9295 1367.16 484.487
330 1 48.09 10.5011 505 76.4574 1367.58 504.17
331 0 47.0248 10.8879 512 84.5898 1367.61 503.588
332 0 50.0431 10.6508 533 75.5947 1367.29 501.869
333 0 52.1193 11.4353 596 75.5772 1367.18 501.406
334 0 52.1193 11.4161 595 131.987 1367.19 501.541
335 0 50.0491 10.8094 541 77.5046 1365.86 501.577
336 0 51.0377 10.698 546 77.9011 1365.73 501.372
337 0 52.0951 10.1545 529 80.2174 1366.34 500.45
338 0 54.0302 11.2345 607 80.5568 1366.78 498.386
339 0 56.0642 11.2549 631 81.859 1366.69 497.716
340 0 59.1145 11.926 705 81.1872 1366.5 496.287
341 0 57.0354 11.2386 641 84.7176 1366.97 495.963
342 0 61.1163 12.059 737 83.3691 1366.24 496.054
343 0 63.0401 12.0241 758 84.2995 1365.34 496.571
344 0 63.0316 11.9464 753 86.6653 1365.97 495.381
345 0 66.025 12.3135 813 87.3506 1365.01 492.974
346 0 67.2301 12.1969 820 87.1829 1365.37 492.584
347 0 68.0504 12.2262 832 88.649 1365.22 492.401
348 0 73.1054 12.7487 932 87.1041 1364.88 490.554
349 0 75.0956 12.8237 963 88.5774 1364.77 490.136
350 0 75.0633 12.4961 938 87.7676 1365.53 489.923
351 0 79.056 13.6232 1077 87.416 1365.14 485.946
352 0 82.0989 13.2279 1086 88.9788 1365.34 484.723
353 0 85.1003 13.4195 1142 90.7785 1365.32 481.846
354 0 87.1618 12.8726 1122 97.3137 1365.4 478.717
355 0 89.1148 13.2638 1182 97.4594 1365.24 476.168
356 0 93.1114 14.198 1322 94.1619 1365.75 476.464
357 0 94.0651 13.2993 1251 96.9504 1365.61 475.412
358 0 97.0723 13.5466 1315 96.0996 1366.09 473.12
359 0 99.056 13.5883 1346 95.6137 1366.31 473.031
360 0 101.099 13.2246 1337 96.4323 1365.73 470.476
361 0 105.099 13.9393 1465 93.6355 1365.91 469.158
362 0 108.092 13.6458 1475 93.5783 1365.23 466.119
363 0 108.092 13.5903 1469 157.447 1364.22 466.062
364 1 59.0962 11.7436 694 87.1715 1366.08 489.622
365 0 60.0704 12.2024 733 85.0668 1366.1 488.426
366 0 62.1002 11.6908 726 78.0689 1365.56 494.266
367 0 64.0744 11.8612 760 78.1526 1364.94 494.476
368 0 66.07 11.6089 767 79.9896 1365.05 493.481
369 0 69.0934 11.9838 828 80.0616 1365.63 490.851
370 0 71.0948 11.8574 843 81.5563 1366.14 490.699
371 0 73.1466 11.3471 830 84.0048 1365.62 489.224
372 0 76.135 11.9656 911 84.0724 1364.97 488.869
373 0 78.0241 11.6502 909 86.2805 1365.31 486.796
374 0 80.0874 11.9869 960 86.8438 1365.86 486.276
375 0 82.05 12.2486 1005 87.6338 1365.65 484.585
376 0 88.0349 12.2792 1081 86.6263 1365.79 483.179
377 0 89.0504 11.8023 1051 88.5918 1366.1 480.813
378 0 92.0483 12.4283 1144 88.2255 1366.07 479.486
379 0 96.0973 12.5602 1207 89.1988 1366.69 477.08
380 0 97.0727 12.1455 1179 90.6294 1366.34 476.393
381 1 56.0147 11.5684 648 90.9815 1365.62 496.025
382 0 60.1318 12.0568 725 95.0828 1367.19 494.935
383 0 61.049 13.0715 798 91.5902 1366.8 493.709
384 0 59.0689 11.1395 658 87.7325 1367.09 495.056
385 0 61.0261 11.0772 676 86.3151 1367.07 495.027
386 0 62.022 11.2863 700 86.4343 1366.77 492.989
387 0 63.0229 10.9325 689 87.0972 1367.31 493.382
388 0 66.0867 11.0764 732 86.6885 1367.4 490.727
389 0 70.0397 11.6791 818 85.4658 1366.5 489.127
390 0 72.0495 11.4643 826 86.4153 1366.61 488.88
391 0 73.0611 11.114 812 88.2143 1366.23 487.554
392 0 78.0662 11.9514 933 87.5177 1366.5 484.615
393 0 81.085 12.604 1022 86.1722 1367.02 485.058
394 0 81.0942 12.134 984 90.2429 1366.25 482.895
395 0 85.027 12.9253 1099 89.5851 1366.48 481.593
396 0 87.0626 12.669 1103 90.6419 1366.56 480.865
397 0 90.075 12.2454 1103 92.2267 1366.92 478.428
398 0 93.0658 12.0023 1117 92.2364 1367.1 477.764
399 1 50.0124 11.0173 551 91.7822 1366.86 498.069
400 0 51.0197 11.5446 589 90.0866 1367.76 496.596
401 0 51.0249 11.269 575 85.313 1367.21 496.781
402 0 49.0717 10.6171 521 90.5106 1366.68 497.967
403 0 52.0476 11.086 577 89.5945 1367.1 496.837
404 0 53.1051 10.7899 573 89.3578 1366.99 498.119
405 0 54.0509 10.3236 558 90.1989 1366.87 498.172
406 0 56.0612 11.0772 621 89.058 1366.86 495.066
407 0 58.0527 10.9728 637 88.0063 1367.22 495.914
408 0 61.0368 11.4849 701 88.0086 1367.27 493.331
409 0 63.0322 11.5655 729 86.6228 1368.18 491.477
410 0 64.0351 11.4937 736 86.6087 1367.69 492.827
411 0 67.1212 12.0081 806 85.8635 1368.38 489.349
412 0 68.042 11.4782 781 87.4469 1367.8 486.602
413 0 68.0467 11.4921 782 136.239 1367.79 486.501
414 0 73.0248 11.9001 869 86.4166 1367.85 485.45
415 0 75.1095 11.9825 900 85.7144 1367.83 485.084
416 0 79.0886 12.2268 967 85.1551 1368.19 482.467
417 0 79.0234 12.3508 976 85.4396 1368.4 481.389
418 0 83.0676 12.0143 998 86.2044 1368.03 480.181
419 0 87.1195 12.1557 1059 95.6242 1367.98 479.001
420 0 90.1306 12.3266 1111 95.2232 1367.6 476.654
421 0 92.0729 12.0448 1109 95.4977 1367.56 477.087
422 0 93.0782 11.6676 1086 96.0055 1368.01 474.843
423 0 98.101 12.4769 1224 93.0114 1367.09 473.105
424 0 100.146 12.1722 1219 94.758 1366.49 473.006
425 0 103.188 12.2882 1268 95.4834 1366.94 471.167
426 0 106.159 12.8581 1365 93.8996 1366.79 469.284
427 0 110.078 12.6002 1387 94.3295 1367.11 467.204
428 0 114.174 11.9729 1367 94.6745 1367.1 465.846
429 0 118.175 12.6846 1499 92.9526 1366.43 463.146
430 0 121.12 11.8065 1430 96.1378 1366.43 460.429
431 0 126.134 12.2885 1550 95.2355 1366.24 457.101
432 1 69.0672 11.3223 782 91.8274 1366.44 485.72
433 0 70.0477 11.1638 782 93.0256 1366.7 484.2
434 0 74.0511 11.6676 864 89.941 1366.97 483.247
435 0 76.0473 12.1109 921 92.9251 1367.05 481.227
436 0 75.1437 11.977 900 95.2156 1365.76 479.088
437 0 77.1224 11.6957 902 89.1608 1365 483.775
438 0 79.0798 11.2418 889 90.144 1365.35 480.429
439 0 83.0909 11.6619 969 89.3096 1365.03 479.899
440 0 84.1039 11.8544 997 90.9278 1364.72 477.043
441 0 87.171 11.9191 1039 91.7305 1364.95 477.132
442 0 90.1607 11.9786 1080 90.988 1365.26 475.605
443 0 92.2214 12.1772 1123 92.0027 1365.41 473.207
444 0 94.0965 12.4766 1174 92.3543 1365.21 471.812
445 0 97.1339 12.282 1193 92.7217 1365.57 471.025
446 0 100.089 12.5488 1256 92.3416 1365.81 470.139
447 0 101.15 12.6347 1278 93.4218 1365.26 466.791
448 0 105.145 12.2212 1285 94.077 1365.29 466.567
449 0 106.073 12.0672 1280 95.5227 1365.52 464.71
450 0 107.204 12.0891 1296 96.037 1365.65 461.073
451 0 112.174 12.0973 1357 95.35 1365.66 459.441
452 0 114.191 11.9974 1370 96.3672 1365.48 457.272
453 0 118.188 12.1924 1441 96.338 1365.67 455.616
454 0 121.247 12.0168 1457 99.3288 1365.99 451.987
455 1 71.1354 11.1196 791 91.7231 1366.08 481.394
456 0 74.1119 12.1303 899 91.564 1365.67 480.59
457 0 76.18 12.3523 941 90.7853 1365.42 479.842
458 0 77.1627 11.9358 921 92.937 1365.57 478.609
459 0 80.0499 12.3673 990 95.8556 1365.35 478.801
460 0 81.1058 11.935 968 95.3347 1365.87 475.484
461 0 84.0626 12.3836 1041 93.9798 1365.6 473.568
462 0 86.0834 11.8374 1019 97.8037 1365.87 471.808
463 0 90.0454 12.3604 1113 96.5337 1365.6 472.02
464 0 92.1058 11.8342 1090 93.5193 1366.36 473.495
465 0 93.1043 11.5892 1079 97.0315 1365.97 470.892
466 0 96.0834 11.7918 1133 96.9329 1366.1 470.115
467 1 53.0566 9.83856 522 93.7318 1365.09 493.429
468 0 55.0416 10.483 577 94.4229 1365.85 492.068
469 0 56.0529 10.8647 609 94.3859 1366.78 490.604
470 0 55.0363 10.7747 593 90.3609 1365.61 494.125
471 0 56.0765 10.9672 615 90.3691 1366.05 493.398
472 0 55.0522 10.0268 552 93.0725 1365.74 493.194
473 0 59.0912 11.0338 652 91.319 1365.72 492.614
474 0 60.0819 10.5856 636 91.8223 1365.27 492.722
475 0 62.1107 10.8033 671 92.2459 1365.24 491.276
476 0 62.0761 11.212 696 91.7802 1365.39 490.503
477 0 65.069 10.7578 700 93.8429 1365.03 489.124
478 0 67.0808 11.6278 780 92.2897 1365.02 489.413
479 0 69.0976 11.1292 769 91.5917 1364.84 487.763
480 0 69.1491 11.2655 779 91.7445 1365.03 487.463
481 0 73.071 11.1262 813 90.9877 1365.3 484.713
482 0 76.105 11.1425 848 90.1592 1365.34 483.105
483 0 78.118 11.5466 902 88.9512 1364.91 482.062
484 0 81.1152 11.9583 970 88.1732 1365.01 479.406
485 0 84.1034 11.8901 1000 87.844 1364.82 478.941
486 0 87.1399 12.5775 1096 86.1533 1364.67 476.604
487 0 91.1377 12.8048 1167 84.4464 1365.08 475.159
488 0 91.0831 12.2416 1115 85.6448 1365.2 471.752
489 0 89.0815 12.3033 1096 127.146 1365.21 471.714
490 0 97.1489 13.1757 1280 83.9727 1365.1 469.552
491 0 97.1489 13.2374 1286 122.715 1365.12 469.521
492 0 103.177 12.6287 1303 84.1174 1365.91 465.908
493 1 50.077 10.2642 514 87.965 1366.63 491.082
494 0 51.0501 10.9304 558 88.371 1366.66 488.296
495 0 50.0235 10.635 532 88.8816 1366.36 486.671
496 0 52.08 10.9447 570 89.6632 1365.54 487.107
497 0 54.1274 10.9187 591 87.5127 1366.18 493.196
498 0 58.1017 11.2733 655 85.8336 1365.81 490.899
499 0 58.1017 11.2733 655 120.611 1364.81 490.899
500 0 62.1148 12.01 746 85.4236 1365.6 488.563
501 0 63.1979 11.7567 743 85.5343 1365.78 489.918
502 0 64.0306 11.5726 741 84.7692 1366.16 488.016
503 0 65.0979 11.9973 781 83.443 1366.27 485.828
504 0 67.0983 11.4161 766 83.4608 1366.04 483.585
505 0 68.0884 11.5144 784 83.7462 1365.43 482.56
506 0 73.0855 12.588 920 79.7728 1365.6 481.889
507 0 74.1177 13.1278 973 79.3607 1365.47 480.261
508 0 75.0996 12.2104 917 80.8277 1365.43 481.046
509 0 79.0564 13.1172 1037 79.4262 1365.5 478.559
510 0 79.0526 12.5866 995 82.01 1365.47 478.498
511 0 81.0665 12.8536 1042 81.7822 1365.53 476.286
512 0 84.128 12.5642 1057 82.5052 1365.57 475.928
513 0 85.1384 12.1214 1032 84.2674 1365.25 474.865
514 0 88.0978 12.9742 1143 82.7664 1365.37 474.493
515 0 90.0583 12.5141 1127 84.6726 1365.27 472.113
516 0 91.2609 12.4478 1136 85.5845 1365.33 470.629
517 0 94.0958 12.5829 1184 85.6402 1365.51 469.544
518 0 96.1284 12.993 1249 85.8679 1365.19 470.004
519 0 99.0753 13.414 1329 85.6576 1365.4 467.312
520 0 101.146 13.5152 1367 85.6291 1365.44 466.35
521 0 104.113 12.6208 1314 87.9855 1365.46 461.505
522 0 108.105 12.9412 1399 86.356 1365.72 460.523
523 1 54.0458 10.5836 572 87.1958 1366.4 486.187
524 0 56.1321 10.4218 585 88.5744 1366.01 484.178
525 0 57.1203 10.9418 625 87.5872 1366.27 483.83
526 0 59.1553 11.4107 675 87.4326 1365.74 482.856
527 0 63.1485 11.37 718 87.8579 1365.48 483.068
528 0 68.0751 11.7664 801 87.3233 1366.33 488.782
529 0 68.0755 11.2522 766 89.6815 1366.4 489.856
530 0 70.063 11.5468 809 90.0705 1365.65 486.927
531 0 71.039 10.9377 777 92.4994 1365.47 486.746
532 0 74.045 11.358 841 92.887 1366.15 484.759
533 0 77.0228 11.6459 897 93.4147 1365.25 483.952
534 0 79.052 11.7644 930 93.9785 1365.66 481.22
535 0 80.049 11.5554 925 96.1578 1366.01 480.517
536 0 84.0712 11.5616 972 97.1368 1365.91 479.822
537 0 86.0994 12.1952 1050 98.4124 1365.63 478.026
538 0 94.0878 12.3289 1160 161.617 1365.64 478.134
539 0 89.0426 11.8033 1051 99.922 1365.82 475.224
540 0 93.0445 12.5424 1167 98.8209 1365.48 475.62
541 0 96.0599 12.4818 1199 100.093 1365.79 473.765
542 0 95.0722 11.3913 1083 103.348 1365.06 471.48
543 0 97.0624 11.9408 1159 103.527 1364.56 469.505
544 0 101.094 11.791 1192 102.541 1364.71 467.3
545 0 105.154 12.1536 1278 101.656 1364.92 463.093
546 0 108.122 11.8755 1284 102.551 1364.42 462.815
547 0 109.123 11.9132 1300 103.152 1365.16 460.15
548 0 112.14 12.1277 1360 103.593 1365.29 458.962
549 0 117.115 12.2358 1433 102.24 1364.89 454.788
550 0 120.111 11.914 1431 103.142 1365.75 452.112
551 0 119.051 11.558 1376 104.985 1365.3 447.291
552 0 122.098 11.155 1362 105.775 1364.19 444.554
553 0 127.116 11.7924 1499 104.061 1364.58 444.152
554 0 134.078 11.8066 1583 104.101 1364.65 443.059
555 0 141.164 11.5469 1630 104.643 1364.72 441.977
556 1 78.0604 9.94102 776 98.1778 1365.01 475.209
557 0 85.0717 11.1318 947 101.685 1364.4 474.372
558 0 90.1333 11.2944 1018 97.0953 1364.45 478.058
559 0 96.0507 12.3997 1191 93.3703 1364.73 477.846
560 0 100.077 12.7702 1278 93.3482 1364.45 476.182
561 0 100.103 11.8678 1188 95.5295 1365.44 475.949
562 0 107.052 12.4799 1336 93.2769 1364.76 473.49
563 0 108.098 12.9882 1404 94.4252 1364.08 471.318
564 0 112.081 12.8122 1436 96.4025 1363.29 468.607
565 0 114.12 12.8286 1464 95.7937 1363.18 468.027
566 0 120.199 13.2114 1588 95.2368 1363.74 465.106
567 0 122.142 12.7556 1558 94.1508 1363.78 461.735
568 1 61.0356 9.71564 593 89.6256 1362.76 491.354
569 0 65.0274 10.6417 692 85.4379 1364.12 489.829
570 0 69.0584 12.2505 846 84.8085 1363.78 495.148
571 0 68.0379 11.4348 778 87.8419 1363.02 494.257
572 0 69.094 10.71 740 88.3797 1363.25 493.77
573 0 72.1027 11.5391 832 86.7139 1363.6 492.715
574 0 73.1466 11.3197 828 87.4674 1363.71 492.75
575 0 76.1694 11.6582 888 86.634 1363.19 491.039
576 0 78.1523 11.2729 881 87.193 1363.75 487.855
577 0 81.1412 11.5847 940 87.5362 1363.26 488.904
578 0 82.1726 11.2081 921 89.3344 1363.61 486.523
579 0 87.1857 11.4698 1000 88.964 1362.99 484.821
580 0 90.1771 12.043 1086 88.3029 1363.54 484.457
581 0 92.1847 11.6614 1075 88.8726 1363.72 482.252
582 0 95.1451 12.318 1172 88.3669 1364.12 480.363
583 0 97.081 12.1342 1178 88.3336 1363.71 478.385
584 0 100.05 12.6437 1265 87.7328 1363.94 474.97
585 0 102.104 12.4579 1272 89.0629 1364.1 473.796
586 0 106.052 12.277 1302 89.1982 1364.2 471.218
587 0 108.087 12.5917 1361 89.64 1364.28 470.257
588 0 113.068 12.7976 1447 89.3697 1363.85 467.212
589 0 113.124 12.6941 1436 86.9596 1364.75 463.239
590 0 116.073 12.3543 1434 90.1444 1364.07 460.895
591 0 121.18 12.2628 1486 91.5094 1364.02 460.642
592 0 125.099 12.2783 1536 92.5996 1364.03 457.665
593 1 68.0472 10.3458 704 93.2159 1364.05 490.953
594 0 71.0889 11.0706 787 93.2414 1363.91 488.936
595 0 74.1572 11.7588 872 91.0883 1363.31 488.339
596 0 74.0769 11.5286 854 92.8513 1363.57 485.658
597 0 75.0904 12.132 911 91.4007 1363.24 483.734
598 0 77.1688 11.6368 898 92.1537 1363.65 481.272
599 0 80.1178 12.1571 974 90.6807 1362.87 486.693
600 0 84.0715 13.1436 1105 87.8045 1363.25 485.405
601 0 83.0907 12.5525 1043 90.9933 1363.77 485.096
602 0 86.0275 12.0078 1033 92.0232 1363.46 482.664
603 0 90.0643 12.4578 1122 89.6114 1363.2 480.77
604 0 92.0706 11.9582 1101 92.1117 1363.65 480.501
605 0 94.0581 11.9075 1120 93.4393 1363.15 478.275
606 0 98.0388 12.1993 1196 91.4724 1362.79 477.2
607 0 100.073 12.421 1243 91.1118 1363.46 476.478
608 0 104.073 13.0773 1361 90.9912 1363.87 474.088
609 0 108.116 12.3571 1336 92.9416 1363.17 473.705
610 1 61.0902 10.7055 654 89.7263 1363.33 497.176
611 0 62.0482 11.1365 691 88.7873 1363.18 496.593
612 0 62.0448 11.5884 719 87.0278 1363.71 494.848
613 0 64.0374 11.1966 717 81.1213 1364.89 498.176
614 0 66.1096 12.1011 800 79.7388 1363.51 497.756
615 0 67.0254 11.1898 750 82.1427 1363.77 496.073
616 0 68.0357 11.5087 783 82.8327 1363.7 494.419
617 0 71.0479 11.626 826 83.2918 1363.5 492.984
618 0 74.0296 12.0898 895 82.2447 1364.14 492.348
619 0 77.0588 12.1985 940 82.9798 1363.48 488.596
620 0 80.0682 12.4644 998 83.0742 1364.38 488.934
621 0 81.0627 12.8172 1039 82.949 1363.67 487.54
622 0 84.1656 11.5487 972 84.3498 1364.23 486.431
623 0 87.0828 12.1723 1060 85.116 1364.53 485.73
624 0 89.0682 12.249 1091 86.2686 1364.08 483.895
625 0 91.0572 12.4317 1132 86.167 1364.25 482.591
626 0 92.1252 12.5807 1159 87.2985 1364.21 481.5
627 0 95.127 11.7842 1121 88.9429 1363.77 480.766
628 0 98.0735 12.0624 1183 90.9053 1363.1 477.095
629 0 100.108 12.3266 1234 90.9109 1364.05 474.957
630 0 102.083 11.5886 1183 92.2806 1364.48 473.126
631 0 106.166 12.0848 1283 90.6212 1364.68 471.303
632 1 59.1774 10.6967 633 89.6414 1364.82 495.42
633 0 62.118 11.0274 685 89.8672 1364.98 493.949
634 0 64.1001 11.404 731 85.145 1365.48 489.832
635 0 65.0657 11.742 764 87.7657 1364.81 491.644
636 0 70.1555 12.1017 849 87.1814 1363.4 491.312
637 0 71.0533 12.0473 856 88.0981 1364.33 491.801
638 0 70.1421 11.7761 826 82.27 1364.67 491.72
639 0 73.1348 12.4428 910 81.6791 1364.99 490.719
640 0 74.1778 12.2543 909 82.4334 1365.04 488.503
641 0 76.1185 12.1652 926 84.4201 1365.22 488.417
642 0 79.137 12.0424 953 87.0094 1365.26 486.966
643 0 82.1707 13.046 1072 86.166 1365.57 485.533
644 0 82.1452 12.2831 1009 89.4965 1365.37 481.663
645 0 87.2495 13.0889 1142 86.8722 1365.4 481.524
646 0 90.2032 13.2811 1198 87.1327 1365.24 479.8
647 0 92.2871 12.9596 1196 88.2383 1365.28 478.063
648 0 93.1356 12.6267 1176 89.0094 1365.72 475.15
649 0 95.199 13.5926 1294 86.2589 1365.27 473.175
650 0 98.2628 13.1281 1290 86.7636 1365.16 467.595
651 0 101.323 13.6001 1378 85.9652 1365.03 468.425
652 0 102.233 12.6867 1297 88.7394 1365.15 463.887
653 0 104.163 12.7684 1330 87.7188 1364.97 463.962
654 0 107.311 12.1422 1303 89.3722 1364.97 462.816
655 0 109.225 12.4605 1361 89.1705 1364.59 462.176
656 0 113.331 12.9885 1472 88.2323 1365.01 460.069
657 0 117.253 12.2982 1442 89.1408 1365.4 458.607
658 0 120.235 12.4506 1497 89.523 1364.61 456.873
659 0 126.198 13.0906 1652 87.8832 1365.37 453.372
660 0 129.376 12.4598 1612 90.0428 1364.73 450.759
661 0 133.382 13.0227 1737 90.0956 1365.2 449.84
662 0 139.21 12.571 1750 92.5686 1365.24 444.777
663 0 144.412 12.6028 1820 92.9374 1365.47 442.575
664 1 82.3917 10.6564 878 90.5273 1364.96 475.179
665 0 85.3969 11.6163 992 90.5444 1365.51 474.889
666 0 87.2612 12.1818 1063 91.3923 1365.81 472.238
667 0 90.3613 11.9742 1082 91.3013 1365.22 473.881
668 0 93.2418 12.1619 1134 92.2566 1365.34 472.519
669 0 95.1288 12.4463 1184 93.3007 1365.08 470.77
670 0 101.226 12.8722 1303 93.2095 1365.41 469.291
671 0 104.142 12.7711 1330 93.588 1365.85 468.863
672 0 107.16 12.8127 1373 93.1872 1365.57 467.317
673 0 110.171 12.5532 1383 94.1555 1365.66 464.418
674 0 111.12 12.446 1383 85.7708 1365.57 465.114
675 0 115.168 12.3298 1420 87.5254 1365.32 460.383
676 0 119.155 13.0335 1553 87.5164 1366.02 458.39
677 0 123.073 12.9273 1591 91.0861 1365.75 456.48
678 0 126.145 13.5162 1705 90.1455 1365.34 456.035
679 0 130.262 13.5496 1765 89.8714 1365.43 454.66
680 0 134.127 14.0315 1882 88.3459 1364.95 451.535
681 0 137.125 13.7831 1890 88.4085 1364.46 450.053
682 0 140.132 13.8869 1946 87.3243 1365.17 445.979
683 0 144.097 13.5048 1946 88.8859 1365.33 445.027
684 0 147.209 13.4299 1977 89.8847 1365.27 442.415
685 0 152.192 13.437 2045 91.0924 1365.5 439.507
686 0 157.303 13.6615 2149 90.657 1365.15 437.553
687 0 160.268 12.8785 2064 93.5097 1365.98 434.624
688 0 160.268 12.8036 2052 146.785 1366.97 434.743
689 0 171.343 13.0965 2244 94.6176 1365.51 431.226
690 0 173.251 12.2366 2120 97.8415 1365.68 425.078
691 0 181.33 12.651 2294 95.918 1365.14 423.52
692 0 188.331 12.9134 2432 96.4235 1365.75 422.542
693 0 194.574 12.1651 2367 95.098 1365.78 419.971
694 0 198.403 12.0714 2395 95.109 1365.34 416.835
695 0 205.422 12.1603 2498 95.5452 1365.69 415.856
696 0 211.32 13.0986 2768 94.03 1365.77 410.534
697 0 217.414 12.6119 2742 95.461 1365.98 407.794
698 0 217.438 12.5967 2739 133.833 1365.98 407.537
699 0 217.321 9.12016 1982 100.4 1365.49 420.561
700 0 218.314 8.20835 1792 98.3371 1365.32 430.094
701 0 218.301 8.23632 1798 143.417 1365.33 429.527
702 1 322.693 12.2562 3955 104.662 1365.41 354.748
703 0 322.328 5.88842 1898 104.106 1365.3 416.676
704 1 294.338 6.51632 1918 101.551 1365.26 421.402
705 0 296.364 6.82268 2022 100.556 1365.28 424.447
706 0 297.688 13.2992 3959 101.669 1364.41 370.18
707 0 306.479 12.6991 3892 100.721 1364.97 366.359
708 0 315.461 16.3633 5162 90.8543 1364.95 362.302
709 1 246.434 11.7881 2905 100.29 1364.43 400.805
710 0 255.373 12.4484 3179 97.7153 1365.12 399.456
711 0 265.477 11.3532 3014 94.5007 1364.38 392.885
712 0 268.295 12.2179 3278 97.9399 1364.1 393.916
713 0 277.443 12.7882 3548 96.0896 1364.08 392.868
714 0 284.286 12.2483 3482 97.5353 1365.04 387.32
715 0 284.274 12.2488 3482 160.215 1366.04 387.567
716 1 377.503 9.81978 3707 105.547 1364.34 357.683
717 0 375.355 9.46303 3552 107.053 1363.99 357.89
718 0 377.586 8.48813 3205 105.224 1364.47 369.268
719 1 90.1776 9.89159 892 80.5729 1364.9 488.332
720 1 51.0333 9.44482 482 79.5643 1365.39 506.946
721 0 52.0614 10.0842 525 78.4 1366.09 505.657
722 0 53.0214 10.1846 540 80.1741 1365.08 505.722
723 0 53.0211 10.128 537 124.886 1364.08 505.769
724 0 55.1665 11.2206 619 81.1696 1364.67 501.774
725 0 55.1665 11.2387 620 122.198 1364.66 501.774
726 0 59.1883 10.3061 610 82.5836 1363.1 501.384
727 0 60.2355 10.0439 605 85.1422 1363.47 500.317
728 0 63.0891 10.826 683 84.3631 1363.78 500.057
729 0 64.0516 10.0544 644 86.4752 1364.05 500.652
730 0 65.0463 11.6686 759 84.9051 1364.69 498.601
731 0 66.1142 10.255 678 83.59 1364.76 497.317
732 0 70.0763 11.0308 773 83.1604 1364.56 495.545
733 0 72.0971 11.2903 814 83.0025 1364.47 494.889
734 0 73.1323 12.3748 905 88.3668 1365.28 495.782
735 0 75.0518 12.1783 914 90.0952 1364.02 494.822
736 0 78.1718 11.7178 916 90.4945 1364.18 494.029
737 0 81.0644 12.1878 988 90.4595 1364.53 492.35
738 0 83.1063 12.7668 1061 90.263 1364.38 490.243
739 0 84.0477 12.1836 1024 92.041 1364.6 489.999
740 0 87.081 12.3448 1075 92.2158 1364.37 486.745
741 0 88.0677 11.6615 1027 94.6358 1364.14 486.035
742 0 91.1138 11.7875 1074 95.1276 1363.97 483.422
743 0 93.0785 11.7105 1090 95.5321 1364.1 482.08
744 0 98.1217 12.8208 1258 93.1542 1364.65 479.118
745 0 100.109 12.876 1289 93.5578 1364.11 478.394
746 1 53.053 10.9513 581 93.5938 1365.02 504.062
747 0 54.1056 10.9416 592 93.8176 1365 503.916
748 0 54.04 11.584 626 94.6677 1364.64 501.056
749 0 56.0953 11.6409 653 94.2588 1364.88 500.47
750 0 60.2112 11.6424 701 91.9173 1365.12 499.541
751 0 62.1541 12.5816 782 90.0639 1365.06 496.318
752 0 62.09 12.5946 782 89.6087 1365.16 497.107
753 0 65.0802 12.6306 822 89.1399 1365.18 495.38
754 0 61.1387 11.5966 709 93.9323 1364.22 497.81
755 0 64.0692 11.5812 742 91.6563 1364.36 497.046
756 0 65.0621 11.1739 727 91.8831 1364 496.329
757 0 67.1029 11.1024 745 92.2778 1364.03 496.807
758 0 72.0933 11.1383 803 90.9128 1364.82 492.357
759 0 71.2114 11.4027 812 90.5591 1364.65 490.876
760 0 75.1537 11.7226 881 88.3632 1364.46 490.512
761 0 77.2056 11.8515 915 87.5027 1365.03 488.586
762 0 79.1054 11.6174 919 84.6322 1365.38 487.237
763 0 81.14 11.2645 914 85.5066 1365.28 484.323
764 0 84.0962 11.3204 952 85.166 1364.86 484.186
765 0 86.1706 11.7674 1014 84.8195 1364.63 484.475
766 0 89.0338 11.7034 1042 85.0125 1364.69 481.661
767 0 91.1338 10.918 995 87.0151 1364.17 481.008
768 0 94.1146 10.8591 1022 86.3503 1364.3 478.342
769 1 51.0425 12.3035 628 87.1847 1364.46 499.24
770 0 50.0974 12.6354 633 89.6224 1364.7 499.066
771 0 53.0878 12.8843 684 86.2442 1364.74 498.76
772 0 54.079 12.2598 663 87.9246 1365.16 499.101
773 0 57.0881 13.2076 754 83.9178 1364.76 498.801
774 0 58.1644 13.1008 762 84.5512 1364.48 498.426
775 0 58.1194 13.0937 761 85.117 1365.2 496.014
776 0 60.1004 13.0282 783 83.507 1365.4 493.54
777 0 62.0505 13.1989 819 81.5617 1365.69 493.319
778 0 62.0305 13.5578 841 80.9881 1365.43 492.317
779 0 62.1678 11.3242 704 85.3253 1365.65 492.112
780 0 66.1239 12.5219 828 83.2452 1365.64 491.786
781 0 66.0614 11.6407 769 84.4733 1365.02 490.932
782 0 67.0747 11.0921 744 85.203 1365.68 489.356
783 0 73.0553 12.4289 908 80.4901 1364.91 486.699
784 0 74.0642 12.3812 917 80.6478 1365.28 485.721
785 0 74.1415 11.6534 864 83.3194 1364.99 483.589
786 0 75.1272 11.5005 864 82.7708 1365.31 482.649
787 0 78.0966 11.3961 890 83.1562 1365.39 481.236
788 0 80.1011 11.6478 933 83.0611 1365.56 478.818
789 0 85.2284 11.9326 1017 82.3687 1365.96 477.558
790 1 44.0359 10.7412 473 80.4545 1367.03 498.742
791 0 47.0302 11.1843 526 79.5798 1366.06 497.477
792 0 46.0487 10.9666 505 81.8436 1367.09 496.483
793 0 49.1535 12.166 598 79.5184 1365.7 496.164
794 0 52.0778 11.9821 624 80.1346 1366.12 495.104
795 0 54.1201 11.3267 613 82.1077 1366.44 494.383
796 0 56.1631 11.4488 643 82.3639 1366.95 492.431
797 0 56.1199 11.7605 660 82.6545 1365.93 493.917
798 0 57.0356 11.1334 635 84.7071 1366.55 492.192
799 0 60.1588 12.5501 755 81.5801 1366.4 492.591
800 0 62.183 11.9486 743 82.8385 1366.85 492.939
801 0 65.1621 12.6761 826 81.8329 1366.81 490.878
802 0 68.1799 12.775 871 82.3077 1366.47 490.576
803 0 68.212 12.1533 829 85.0808 1366.95 490.045
804 0 72.1669 12.4434 898 84.6359 1366.38 489.18
805 0 72.1765 12.2339 883 86.5425 1365.99 487.703
806 0 75.0564 12.2841 922 86.0878 1366.04 487.86
807 0 79.1074 13.1214 1038 84.0694 1365.97 486.517
808 0 82.1758 13.5441 1113 82.593 1365.85 485.728
809 0 83.0905 13.2626 1102 83.8902 1366.33 484.922
810 0 84.0457 12.636 1062 82.9162 1366.17 485.411
811 0 86.0923 11.8245 1018 86.4666 1366.23 483.227
812 1 46.0089 10.7153 493 86.2901 1367.01 502.333
813 0 45.0137 11.2632 507 87.3826 1366.16 501.746
814 0 48.0374 12.0323 578 87.2803 1365.68 500.576
815 0 50.0372 12.1909 610 86.7492 1365.78 501.39
816 0 49.1651 12.3665 608 84.9326 1365.3 504.98
817 0 51.0363 12.2658 626 84.4489 1364.48 504.04
818 0 54.0649 12.448 673 82.8782 1364.93 503.553
819 0 56.0333 12.2249 685 82.9942 1365.47 501.841
820 0 56.03 11.8687 665 83.6677 1365.28 501.582
821 0 58.0218 11.8404 687 84.409 1365.13 499.537
822 0 62.0593 12.198 757 83.1295 1365.33 497.926
823 0 64.0393 12.2581 785 82.6459 1364.35 497.492
824 0 66.0537 11.5209 761 83.9672 1364.47 497.52
825 0 69.029 12.0384 831 83.7208 1364.39 495.594
826 0 69.0283 12.1399 838 85.2184 1364.15 496.531
827 0 72.0142 11.9421 860 86.7581 1364.14 495.221
828 0 76.0687 12.9488 985 84.2122 1364.76 493.992
829 0 76.0687 12.9488 985 124.105 1364.76 493.898
830 0 81.0213 12.5276 1015 87.201 1364.39 491.163
831 0 85.0319 13.4067 1140 85.821 1364.66 488.961
832 0 88.0767 12.4437 1096 86.9672 1364.31 486.849
833 0 92.1265 12.841 1183 86.2206 1364.52 485.325
834 0 94.0667 13.012 1224 87.1944 1364.48 484.25
835 1 51.062 12.5142 639 90.9264 1364.46 506.023
836 0 53.0258 12.8428 681 89.9868 1364.52 504.601
837 0 52.0584 13.1199 683 89.798 1364.65 504.416
838 0 53.0155 13.0339 691 91.8669 1364.24 502.129
839 0 58.0596 13.6928 795 87.6717 1363.63 501.186
840 0 60.0627 13.4693 809 88.9394 1363.31 500.502
841 0 62.1032 13.9284 865 88.5144 1363.16 498.963
842 0 63.0908 13.8055 871 90.1734 1364.02 499.003
843 0 63.0258 13.8991 876 90.7432 1363.47 497.771
844 0 65.0643 13.6019 885 92.1785 1363.63 495.137
845 0 68.0347 14.2574 970 91.6113 1363.87 495.264
846 0 67.0334 14.0975 945 92.5132 1363.52 493.745
847 0 72.0369 14.2427 1026 92.54 1364.06 492.506
848 0 76.0643 14.0933 1072 92.4384 1364.22 489.778
849 0 77.0256 14.9301 1150 93.3191 1363.43 486.85
850 0 79.0986 14.3618 1136 95.2262 1364.36 487.13
851 0 80.1514 14.3354 1149 97.47 1364.03 486.153
852 0 83.0566 14.7129 1222 97.1571 1363.83 485.34
853 0 87.0616 14.9205 1299 97.2594 1364.37 483.128
854 0 90.0634 14.7563 1329 97.9383 1364.82 481.743
855 0 93.0388 15.0797 1403 98.6907 1364.19 480.06
856 0 94.05 14.5242 1366 102.237 1364.67 479.398
857 0 97.1176 14.7038 1428 102.786 1364.3 477.307
858 0 99.1238 15.0418 1491 104.372 1363.64 475.601
859 0 101.112 14.7064 1487 105.457 1364.57 474.747
860 0 104.085 14.4114 1500 106.059 1364.7 473.51
861 0 106.121 14.5778 1547 105.588 1364.44 471.782
862 0 111.085 15.0066 1667 104.264 1364.58 469.28
863 1 62.0636 12.7772 793 112.651 1365.47 492.276
864 0 62.0304 12.8969 800 114.69 1364.54 492.239
865 0 64.0563 13.2383 848 115.19 1364.43 490.442
866 0 68.0286 14.1411 962 112.422 1364.28 489.853
867 0 71.0572 15.2413 1083 107.495 1364.59 488.357
868 0 72.0597 14.4186 1039 113.671 1364.8 486.782
869 0 75.0273 14.7413 1106 112.779 1364.8 486.25
870 0 77.0119 15.4002 1186 111.519 1364.54 485.1
871 0 80.0727 14.849 1189 114.041 1364.26 484.73
872 0 82.0541 15.3313 1258 112.293 1363.63 483.666
873 0 83.033 15.536 1290 112.255 1364.18 483.475
874 0 88.0473 15.344 1351 111.868 1364.3 482.699
875 0 89.0948 15.4891 1380 112.87 1363.91 481.759
876 0 90.1249 14.9459 1347 115.914 1364.53 479.973
877 0 93.0568 15.9795 1487 112.806 1364.49 477.435
878 0 95.0377 15.6464 1487 113.859 1364.43 477.089
879 0 95.0647 15.4421 1468 115.315 1364.75 478.218
880 0 101.04 15.5879 1575 114.13 1364.02 474.988
881 0 106.059 15.7271 1668 110.942 1364.2 473.987
882 0 109.09 15.9594 1741 110.125 1363.69 472.648
883 0 112.055 15.885 1780 110.832 1363.8 469.584
884 0 114.116 16.0626 1833 110.808 1363.75 469.268
885 1 60.0745 12.1183 728 112.136 1363.68 495.478
886 0 64.0939 12.7157 815 110.097 1364.25 493.953
887 0 66.1141 13.3708 884 108.472 1364.28 493.317
888 0 69.0975 13.2422 915 108.536 1364.48 491.48
889 0 70.088 14.0395 984 109.874 1363.89 489.413
890 0 73.122 13.6621 999 110.516 1364.02 487.868
891 0 76.1082 14.1246 1075 108.751 1363.98 488.119
892 0 77.1395 14.584 1125 108.892 1364.44 486.542
893 0 78.1163 13.6719 1068 111.557 1364.61 484.901
894 0 79.0756 13.974 1105 112.138 1364.77 483.57
895 0 84.1119 13.9695 1175 110.012 1364.73 482.934
896 0 86.0803 13.8011 1188 110.524 1364.2 480.791
897 0 89.1408 14.2359 1269 108.186 1364.76 479.087
898 0 91.0972 13.8863 1265 109.004 1365.1 477.467
899 0 95.0978 13.954 1327 106.985 1365.59 476.028
900 0 96.152 13.5827 1306 107.868 1365.13 474.467
901 0 103.111 14.1013 1454 105.526 1364.5 472.282
902 1 57.097 10.8237 618 97.7864 1365.14 496.35
903 0 59.1213 11.857 701 95.2853 1365.23 494.053
904 0 59.0864 11.6947 691 96.7612 1364.96 492.787
905 0 61.1189 11.5513 706 89.8244 1365.64 493.094
906 0 61.0936 10.8849 665 91.4752 1365.78 491.365
907 0 66.1303 11.9007 787 88.8678 1365.58 489.671
908 0 68.0248 11.5105 783 90.4112 1365.67 487.903
909 0 69.0734 11.6977 808 91.5569 1365.29 486.86
910 0 73.08 12.4384 909 90.1166 1365.43 487.076
911 0 74.0303 11.4413 847 93.5018 1365.33 483.615
912 0 74.0303 11.4413 847 131.634 1365.33 483.544
913 0 80.0919 12.0736 967 100.124 1365.39 482.745
914 0 83.0732 12.6033 1047 99.1394 1365.37 482.62
915 0 84.1855 12.3655 1041 99.267 1365.59 480.562
916 0 85.1155 12.0307 1024 100.959 1365.85 479.278
917 0 90.1805 11.976 1080 98.6343 1365.26 479.906
918 0 93.2765 12.3718 1154 98.8345 1365.29 477.976
919 0 96.1927 12.4646 1199 98.7373 1365.21 476.448
920 0 99.2176 12.276 1218 99.2832 1364.97 474.815
921 1 53.0258 10.5232 558 93.0466 1365.49 498.812
922 0 54.0819 10.5396 570 87.8035 1364.71 498.909
923 0 58.1934 11.2212 653 88.5773 1364.38 496.467
924 0 57.0766 9.89898 565 85.0832 1364.83 495.864
925 0 59.1309 9.11536 539 85.0928 1364.84 497.432
926 0 58.1243 9.17 533 114.559 1364.8 497.484
927 0 64.0428 10.2431 656 83.904 1365.12 494.037
928 0 66.0657 10.5804 699 83.3333 1364.22 493.278
929 0 68.0743 10.1654 692 84.172 1363.87 494.142
930 0 68.0349 10.3476 704 84.5298 1364.67 494.142
931 0 73.0605 10.3886 759 85.6258 1364.53 491.331
932 0 73.0584 10.3342 755 86.7086 1364.21 489.885
933 0 74.1573 9.70909 720 88.175 1363.67 489.336
934 0 79.0801 10.2175 808 87.5755 1364.19 488.72
935 0 81.1261 10.194 827 89 1363.88 488.046
936 0 85.1087 10.5747 900 88.4856 1363.54 487.262
937 0 86.0737 11.5831 997 90.5045 1363.09 484.129
938 0 91.1089 11.9637 1090 90.8037 1362.78 482.041
939 0 93.0542 11.6814 1087 92.7902 1362.51 480.789
940 0 94.0964 11.4138 1074 93.487 1362.35 480.056
941 0 99.2213 11.5096 1142 93.1348 1361.66 477.811
942 0 102.249 11.5991 1186 93.3457 1361.86 475.617
943 1 53.0879 10.153 539 84.2263 1362.54 502.599
944 0 53.0879 10.2095 542 116.485 1362.52 502.524
945 0 56.089 10.3942 583 85.5609 1362.35 502.034
946 0 57.0642 11.0928 633 84.139 1362.35 498.596
947 0 58.1053 10.481 609 84.6289 1362.23 500.202
948 0 60.1114 9.73194 585 86.6462 1362.74 498.738
949 0 62.0883 10.3884 645 86.1085 1362.98 496.991
950 0 62.0454 11.0081 683 92.5051 1363.23 495.379
951 0 67.0387 11.5605 775 94.9123 1362.92 497.737
952 0 68.0933 10.75 732 96.6817 1364.02 496.497
953 0 70.1325 11.3785 798 95.9398 1363.55 496.382
954 0 73.0432 11.8286 864 96.11 1363.91 494.483
955 0 77.0449 11.5258 888 87.8761 1363.14 493.176
956 0 78.0836 11.6542 910 89.1736 1363.03 490.01
957 0 80.0394 11.7067 937 90.4194 1363.83 489.413
958 0 84.0549 12.5632 1056 88.9754 1363.95 488.153
959 0 86.0804 11.9656 1030 91.1291 1363.81 486.451
960 0 86.0958 12.3002 1059 92.5411 1363.52 485.116
961 0 89.0513 12.2626 1092 94.4689 1363.4 483.683
962 0 92.0414 12.9398 1191 93.7288 1363.59 482.294
963 0 93.0394 12.5431 1167 96.3633 1364.11 481.429
964 0 97.0625 12.8886 1251 96.0695 1363.66 480.743
965 0 98.0829 11.9899 1176 100.503 1364.01 478.015
966 0 103.081 12.6503 1304 98.8758 1364.04 476.403
967 0 106.082 12.1604 1290 100.902 1363.89 474.198
968 0 111.057 12.8402 1426 98.5042 1363.67 472.95
969 1 61.0673 11.3154 691 93.1794 1363.65 498.504
970 0 64.0512 11.9436 765 90.7137 1363.67 497.542
971 0 65.0797 12.2158 795 94.3308 1363.79 496.644
972 0 65.0916 12.3057 801 102.659 1364.42 494.447
973 0 67.0337 12.0089 805 92.7429 1364.64 495.226
974 0 68.0782 11.7806 802 93.3579 1365.13 494.214
975 0 70.0663 11.5748 811 94.8853 1364.63 492.893
976 0 74.0379 13.4661 997 91.1464 1365.59 492.178
977 0 74.0783 11.8118 875 96.4491 1365.41 490.861
978 0 78.0766 12.5646 981 99.421 1365.07 490.078
979 0 80.103 13.2954 1065 102.147 1365.79 490.107
980 0 84.0832 13.1893 1109 103.188 1366.28 488.713
981 0 83.0502 13.1607 1093 105.792 1365.7 486.924
982 0 88.037 13.0173 1146 97.0628 1365.82 486.603
983 0 89.0568 13.0366 1161 99.0052 1365.5 484.774
984 0 89.0279 13.8159 1230 100.619 1365.07 483.015
985 0 94.0779 13.4463 1265 100.536 1365.43 481.972
986 0 98.0575 13.5635 1330 103.326 1364.82 479.283
987 1 50.1032 10.9773 550 103.964 1365.43 503.205
988 0 51.0266 12.0917 617 100.032 1365.45 502.507
989 0 53.0858 12.866 683 99.2811 1364.52 501.1
990 0 56.0933 13.3171 747 97.0723 1364.36 500.178
991 0 58.0646 13.4678 782 100.074 1364.81 499.582
992 0 54.0888 12.0358 651 96.8648 1365.31 500.243
993 0 55.0296 12.1207 667 99.4033 1365.31 500.286
994 0 56.0489 11.9003 667 101.232 1364.94 498.628
995 0 59.0473 12.8033 756 97.5648 1365.34 498.202
996 0 60.0482 12.6565 760 100.258 1365.17 496.75
997 0 63.0595 12.5913 794 98.9584 1365.42 496.941
998 0 63.0386 12.7065 801 100.745 1364.72 495.918
999 0 67.0922 12.371 830 99.847 1365.18 494.724
1000 0 68.0351 12.4936 850 99.6906 1364.99 495.609
1001 0 69.0314 12.6464 873 101.15 1365.31 494.022
1002 0 72.0491 12.1861 878 102.576 1365.12 493.084
1003 0 74.1175 12.75 945 100.915 1365.44 490.124
1004 0 77.1187 12.6558 976 100.625 1365.56 490.33
1005 0 77.1246 12.5641 969 102.206 1365.68 489.636
1006 0 80.0595 12.703 1017 101.046 1366.31 489.015
1007 0 82.0605 12.2958 1009 103.003 1366.19 486.634
1008 0 84.1523 13.0478 1098 101.205 1365.88 485.638
1009 0 87.0713 12.4151 1081 101.233 1365.47 485.058
1010 0 89.0618 12.8001 1140 101.553 1366.39 482.727
1011 0 91.0971 12.2946 1120 102.868 1365.62 480.706
1012 0 96.0914 12.7691 1227 100.425 1365.06 479.288
1013 0 98.1112 12.4654 1223 101.239 1364.97 476.675
1014 0 99.1943 12.3797 1228 101.836 1365.23 475.024
1015 0 104.133 12.7721 1330 99.7902 1364.64 473.306
1016 1 59.101 11.6072 686 99.0262 1365.11 495.577
1017 0 61.0702 12.15 742 100.639 1365.59 495.326
1018 0 63.0399 12.4683 786 98.5954 1366.02 493.121
1019 0 62.058 12.3111 764 99.0668 1366.45 498.918
1020 0 65.0346 12.1781 792 98.8952 1366.54 495.178
1021 0 64.1414 12.6907 814 98.4914 1367.38 494.215
1022 0 67.0346 12.68 850 97.5671 1367.06 492.001
1023 0 68.0865 12.3813 843 99.4033 1367.87 491.534
1024 0 72.1109 12.3421 890 98.5753 1367.46 490.798
1025 0 74.0182 11.97 886 99.3375 1366.42 488.67
1026 0 77.0946 12.2317 943 98.1972 1366.09 486.849
1027 0 78.1594 12.6025 985 97.6152 1366.45 486.409
1028 0 80.1121 12.3327 988 98.5688 1365.57 485.088
1029 0 85.1764 13.0553 1112 97.8228 1365.8 480.763
1030 0 88.1322 12.9124 1138 98.4236 1365.05 481.504
1031 0 88.116 12.5857 1109 101.399 1366.96 478.104
1032 0 90.1558 13.0995 1181 100.858 1366.26 476.997
1033 0 95.1744 13.0287 1240 100.686 1366.29 474.702
1034 0 94.1854 12.7621 1202 157.06 1366.27 473.228
1035 0 101.131 12.5778 1272 101.23 1365.97 472.088
1036 1 51.1647 10.9646 561 93.6114 1366.69 497.8
1037 0 55.0311 11.5934 638 90.4436 1366.6 495.964
1038 0 53.0277 11.2583 597 87.9648 1366.34 495.099
1039 0 54.1119 10.774 583 89.012 1365.52 496.554
1040 0 57.0553 11.8131 674 88.0831 1366.29 496.221
1041 0 61.0916 12.6531 773 96.031 1366.42 497.741
1042 0 62.0644 12.6804 787 96.0978 1366.46 496.574
1043 0 65.0391 12.4848 812 96.5764 1367.06 495.416
1044 0 67.0795 12.4479 835 96.479 1366.56 494.744
1045 0 67.0097 12.6997 851 96.7673 1366.67 493.345
1046 0 70.0643 12.4172 870 97.308 1367.05 492.537
1047 0 73.0996 12.5172 915 97.1235 1367.04 490.603
1048 0 75.0769 12.9201 970 96.9361 1366.36 489.97
1049 0 78.1112 12.751 996 97.987 1367.04 485.898
1050 0 82.0842 13.145 1079 96.4532 1366.43 486.204
1051 0 86.0971 13.4732 1160 95.9207 1365.92 483.597
1052 0 86.0724 13.0007 1119 97.4307 1366.55 480.915
1053 0 91.0892 14.2827 1301 92.3613 1366.35 480.664
1054 0 91.1014 13.1941 1202 101.329 1366.88 479.489
1055 0 94.0543 13.0244 1225 102.183 1366.71 478.972
1056 0 96.08 12.3022 1182 104.24 1367.03 480.257
1057 1 51.0428 11.0692 565 107.177 1366.83 500.266
1058 0 55.0412 11.9728 659 104.405 1367.18 499.618
1059 0 56.0555 12.1308 680 104.385 1367.01 496.638
1060 0 56.1027 12.0137 674 104.785 1365.57 496.338
1061 0 59.0277 12.1977 720 104.488 1365.88 495.565
1062 0 60.0721 12.3019 739 105.533 1365.8 495.724
1063 0 62.0416 12.4594 773 105.701 1366.07 494.656
1064 0 64.0158 11.7315 751 104.164 1365.9 498.469
1065 0 65.0799 12.8765 838 103.389 1365.61 497.58
1066 0 69.0444 12.3978 856 106.155 1365.85 497.068
1067 0 68.0444 12.0657 821 110.023 1366.42 495.022
1068 0 71.0634 13.1995 938 108.195 1366.06 494.497
1069 0 74.041 13.2764 983 108.995 1366.14 492.13
1070 0 76.0811 13.4462 1023 109.041 1366.06 490.977
1071 0 78.0288 13.2387 1033 110.602 1366.06 489.641
1072 0 82.0818 13.8886 1140 109.671 1366.13 489.266
1073 0 84.0933 13.3304 1121 111.328 1366 488.863
1074 0 88.105 13.8698 1222 109.695 1366.34 487.2
1075 0 90.0485 14.4478 1301 109.85 1365.69 485.085
1076 0 92.0196 14.4752 1332 111.614 1366.35 482.679
1077 0 96.042 13.39 1286 115.248 1366.11 481.897
1078 0 98.0405 13.1986 1294 114.073 1366.32 478.876
1079 1 55.0624 11.6232 640 106.705 1365.65 500.931
1080 0 56.0628 12.4682 699 106.701 1365.95 499.442
1081 0 59.1454 13.9318 824 104.826 1366.37 502.322
1082 0 58.0645 12.8994 749 102.375 1365.64 501.768
1083 0 60.1381 13.0533 785 101.065 1365.32 502.138
1084 0 61.0967 12.6684 774 101.652 1365.61 500.491
1085 0 64.0493 12.8026 820 101.402 1365.43 499.344
1086 0 66.0721 12.9858 858 99.8846 1366.63 498.036
1087 0 68.0492 12.5204 852 101.511 1365.88 496.641
1088 0 72.0694 13.1124 945 99.2085 1366.24 495.015
1089 0 73.161 13.0261 953 111.882 1366.13 494.728
1090 0 76.0567 13.2927 1011 111.372 1366.57 493.373
1091 0 78.0616 13.1435 1026 113.293 1366.02 492.438
1092 0 81.0402 13.7092 1111 111.339 1365.95 490.739
1093 0 84.1 12.9726 1091 111.874 1366.08 489.793
1094 0 86.0224 13.5314 1164 110.843 1366.61 487.345
1095 0 89.0931 13.4017 1194 111.095 1366.29 486.835
1096 0 92.1028 13.7564 1267 109.833 1365.58 485.436
1097 0 94.043 13.5045 1270 111.948 1366.91 483.622
1098 0 94.0609 12.8959 1213 114.391 1366.26 485.669
1099 0 98.1359 12.1974 1197 113.557 1367.76 486.799
1100 0 102.046 12.7786 1304 112.243 1367.11 481.782
1101 0 104.107 12.7177 1324 110.762 1366.24 479.438
1102 0 109.127 12.4534 1359 111.022 1366.42 476.995
1103 0 112.103 12.765 1431 109.85 1366.46 475.433
1104 1 60.1627 12.2501 737 109.638 1365.82 496.714
1105 0 60.0833 11.9834 720 111.132 1365.68 495.21
1106 0 64.0631 12.6282 809 106.205 1365.83 493.591
1107 0 67.1041 12.7563 856 106.84 1366.14 494.461
1108 0 68.1263 12.7704 870 107.461 1366.51 491.914
1109 0 70.091 13.1401 921 105.502 1366.38 492.148
1110 0 73.0403 13.1708 962 105.394 1366.35 492.137
1111 0 75.1508 12.6812 953 106.614 1365.88 490.463
1112 0 79.0884 13.1246 1038 104.521 1365.4 488.644
1113 0 79.0803 12.5821 995 107.574 1365.22 486.441
1114 0 83.1237 13.4017 1114 101.959 1365.01 486.938
1115 0 85.1002 13.161 1120 104.075 1365.37 484.279
1116 0 85.1213 13.099 1115 106.914 1365.96 482.318
1117 0 90.1743 13.7955 1244 104.583 1365.3 480.668
1118 0 91.1791 13.0512 1190 107.047 1365.43 479.224
1119 0 95.1782 13.4695 1282 104.609 1365.27 477.071
1120 0 98.159 13.9671 1371 103.387 1365.33 476.872
1121 0 102.224 13.8911 1420 102.917 1365.31 475.305
1122 1 52.0783 11.3483 591 103.555 1365.42 500.442
1123 0 53.1304 11.7259 623 104.831 1365.2 498.506
1124 0 55.1531 11.6403 642 105.989 1365.28 498.544
1125 0 56.0209 12.2633 687 102.448 1365.72 498.293
1126 0 56.0667 11.7717 660 104.629 1366.32 500.598
1127 0 57.0159 11.6634 665 104.411 1365.91 499.433
1128 0 60.0329 12.2433 735 102.226 1365.38 497.978
1129 0 64.0473 12.1317 777 100.655 1365.79 496.817
1130 0 64.026 12.3231 789 96.7731 1365.22 494.137
1131 0 65.0358 12.0703 785 98.9898 1365.69 493.121
1132 0 69.1106 11.9953 829 99.1254 1365.6 493.285
1133 0 71.0866 12.8013 910 99.2758 1365.94 493.41
1134 0 72.0927 11.9846 864 103.348 1364.94 490.747
1135 0 74.1832 11.9838 889 104.078 1364.85 487.976
1136 0 75.1012 12.2102 917 105.217 1364.88 486.656
1137 0 80.0768 13.0999 1049 103.647 1365.53 485.165
1138 0 83.2377 12.9388 1077 105.357 1364.78 482.771
1139 0 85.2246 12.2735 1046 107.379 1365.24 481.813
1140 0 89.2304 12.294 1097 107.723 1365.08 479.755
1141 0 89.249 12.7396 1137 107.918 1364.84 479.232
1142 0 94.1458 12.4594 1173 108.916 1364.51 477.212
1143 0 96.2119 12.7427 1226 108.648 1364.11 475.125
1144 0 97.2875 12.8382 1249 110.003 1364.04 474.165
1145 0 101.157 12.9799 1313 109.556 1364.11 473.11
1146 0 104.131 12.9068 1344 110.929 1364.02 471.461
1147 0 108.217 13.2882 1438 110.067 1364.07 470.311
1148 0 113.191 13.2696 1502 110.718 1364.38 467.221
1149 0 116.255 12.9027 1500 99.2933 1364.81 467.108
1150 0 120.182 13.5378 1627 98.2606 1364.44 466.119
1151 0 124.242 13.3772 1662 100.433 1364.32 460.892
1152 0 128.205 13.3771 1715 101.164 1363.81 460.521
1153 0 134.275 14.1501 1900 100.606 1364.51 457.462
1154 0 137.211 14.1169 1937 102.607 1363.72 453.641
1155 0 143.185 14.5406 2082 102.918 1363.91 451.403
1156 0 147.232 14.1137 2078 104.893 1363.11 450.321
1157 0 151.17 14.3614 2171 105.785 1363.64 447.844
1158 0 154.249 14.0228 2163 107.563 1364.12 446.935
1159 0 161.208 14.5712 2349 106.73 1363.85 443.863
1160 0 167.184 14.6246 2445 107.555 1363.91 440.646
1161 0 171.229 14.3784 2462 107.732 1364.04 440.268
1162 0 175.194 13.6306 2388 107.684 1363.97 437.392
1163 0 180.288 13.3176 2401 107.651 1364.28 433.036
1164 0 189.38 13.7871 2611 103.055 1363.99 434.725
1165 0 192.268 13.1692 2532 104.276 1364.14 434.256
1166 0 199.249 13.3853 2667 102.603 1364.42 432.988
1167 0 199.22 13.342 2658 157.998 1364.42 432.9
1168 1 211.242 13.7568 2906 102.493 1363.96 423.253
1169 0 221.298 13.6965 3031 102.692 1363.96 416.33
1170 0 229.32 13.5793 3114 102.956 1363.63 412.811
1171 1 178.253 12.2579 2185 100.832 1363.54 438.832
1172 0 185.287 12.7316 2359 100.075 1363.68 434.716
1173 0 189.244 12.1853 2306 102.137 1363.7 432.481
1174 0 197.345 12.8911 2544 100.797 1364 428.178
1175 0 204.39 12.9801 2653 103.205 1363.35 424.322
1176 0 214.463 13.9978 3002 100.895 1364.01 423.437
1177 0 220.414 13.7514 3031 102.208 1364.03 417.91
1178 0 228.372 13.6137 3109 102.879 1363.26 414.669
1179 0 235.476 13.4961 3178 102.71 1363.72 412.367
1180 1 51.1883 11.0377 565 94.5133 1363.88 502.074
1181 0 54.0972 12.1448 657 91.8721 1364.09 502.776
1182 0 55.1298 12.4796 688 89.2209 1363.57 501.849
1183 0 56.2509 11.1287 626 91.6342 1363.4 503.572
1184 0 59.226 11.7009 693 91.0245 1363.74 501.105
1185 0 60.2292 11.9045 717 91.4156 1363.97 498.925
1186 0 61.1713 11.6885 715 92.2531 1364.03 498.825
1187 0 62.033 10.6879 663 93.644 1363.95 498.089
1188 0 66.1203 11.3127 748 92.6203 1363.56 498.079
1189 0 66.09 11.0153 728 93.1841 1363.37 497.841
1190 0 71.1308 12.5543 893 91.5106 1363.57 493.959
1191 0 74.1214 12.0883 896 92.8471 1363.71 493.698
1192 0 78.1852 12.5343 980 91.5653 1364.17 492.259
1193 0 82.12 13.1758 1082 89 1363.8 488.557
1194 1 44.0832 11.1154 490 96.2612 1363.99 509.002
1195 0 43.0413 11.7794 507 97.9586 1364.01 508.187
1196 0 46.14 12.2887 567 96.1587 1363.56 505.889
1197 0 49.0402 12.867 631 94.9223 1363.69 506.702
1198 0 45.0152 11.6183 523 97.956 1363.67 508.47
1199 0 46.0312 11.905 548 97.3923 1363.81 507.283
1200 0 49.0786 12.0215 590 97.6966 1363.86 507.075
1201 0 51.0353 12.1485 620 96.5629 1363.55 507.655
1202 0 48.0341 11.6167 558 99.8799 1363.69 507.235
1203 0 52.0219 11.5913 603 99.204 1363.45 506.063
1204 0 56.0675 12.5563 704 96.2713 1363.64 503.76
1205 0 54.0259 11.9572 646 99.921 1364.02 504.734
1206 0 57.1165 12.2031 697 99.0933 1364.12 503.821
1207 0 59.0275 12.8923 761 97.2063 1364.66 503.445
1208 0 60.0803 12.4833 750 97.1893 1364.51 502.283
1209 0 60.0626 11.8043 709 99.0733 1364.47 502.165
1210 0 63.0688 12.3833 781 97.1306 1364.23 500.761
1211 0 64.0272 12.6977 813 95.4047 1363.85 499.959
1212 0 66.053 12.8533 849 96.4888 1363.95 498.28
1213 0 68.0384 13.2131 899 95.0467 1364.35 498.442
1214 0 71.185 13.3876 953 94.8604 1363.65 497.128
1215 0 71.1445 12.7628 908 98.6762 1364.01 495.382
1216 0 74.1886 13.1152 973 97.852 1364.21 494.108
1217 0 75.1051 13.328 1001 99.0659 1363.63 490.608
1218 0 79.1236 13.6622 1081 97.235 1363.63 489.747
1219 0 81.0756 13.6416 1106 99.4647 1363.62 488.085
1220 0 83.1164 12.7171 1057 102.589 1363.76 487.714
1221 0 87.2878 13.656 1192 99.6778 1364.22 485.564
1222 0 87.1161 13.1549 1146 101.838 1363.82 483.688
1223 0 91.245 13.6117 1242 101.047 1364.02 481.696
1224 0 93.1348 13.7757 1283 100.918 1364.22 480.504
1225 0 97.2646 13.7769 1340 101.002 1364.5 478.319
1226 0 98.1922 13.5449 1330 103.204 1364.78 475.281
1227 0 100.289 13.5707 1361 103.05 1364.51 475.83
1228 0 103.194 13.6538 1409 103.155 1364.21 473.347
1229 0 107.216 14.2423 1527 101.342 1364.19 472.711
1230 0 110.158 14.0163 1544 102.081 1364.05 470.455
1231 0 114.193 14.1339 1614 103.08 1363.29 470.343
1232 0 119.23 14.4175 1719 101.498 1363.94 467.13
1233 0 121.232 13.9814 1695 103.519 1364.21 463.819
1234 0 125.24 13.7895 1727 102.885 1363.91 464.12
1235 0 131.219 14.8454 1948 100.465 1364.34 459.628
1236 0 134.286 13.9479 1873 102.85 1364.43 459.95
1237 0 139.24 14.8161 2063 99.9263 1364.12 458.776
1238 0 142.147 14.4569 2055 101.073 1363.85 454.337
1239 0 146.105 14.0652 2055 101.792 1364.04 452.582
1240 0 149.196 13.4655 2009 103.021 1363.8 449.467
1241 0 156.244 14.4261 2254 99.4184 1364.18 447.901
1242 0 162.176 14.2068 2304 99.059 1364.2 444.992
1243 1 76.0925 11.9591 910 94.2011 1364.41 488.341
1244 0 78.0636 12.477 974 93.3511 1365.09 486.544
1245 0 82.0968 13.2648 1089 90.8476 1365.14 484.79
1246 0 83.1033 13.5614 1127 88.9654 1364.45 484.548
1247 0 87.0438 13.8321 1204 87.1736 1364.16 481.981
1248 0 89.1033 13.2206 1178 89.4618 1364.49 481.077
1249 0 92.1196 13.3088 1226 90.1175 1364.46 480.205
1250 0 96.0911 14.1012 1355 89.1535 1364.65 477.813
1251 0 98.0666 13.9803 1371 89.6251 1364.19 476.499
1252 0 103.099 14.0642 1450 89.2738 1364.72 475.928
1253 0 106.049 14.1256 1498 90.0701 1365.01 473.553
1254 0 108.061 14.1216 1526 91.8991 1365.04 473.99
1255 0 112.209 14.072 1579 93.4636 1365.92 469.52
1256 0 117.204 14.5131 1701 93.3563 1364.72 468.101
1257 0 120.173 14.4043 1731 94.3362 1365.03 466.734
1258 0 123.139 14.5689 1794 95.3868 1364.17 464.515
1259 0 126.151 14.0705 1775 97.2766 1363.86 463.086
1260 0 131.192 14.9857 1966 95.8403 1364.22 461.588
1261 0 136.207 15.2856 2082 94.8948 1364.17 457.631
1262 0 141.141 14.9 2103 96.3619 1363.88 455.732
1263 0 144.256 14.703 2121 97.4375 1363.55 453.352
1264 0 153.265 16.9771 2602 90.1714 1364.61 448.293
1265 0 156.265 15.9473 2492 94.3138 1364.49 447.465
1266 0 158.18 14.7933 2340 98.5329 1364.53 447.664
1267 0 160.307 14.6157 2343 99.8515 1364.57 443.927
1268 0 167.157 15.5303 2596 96.1075 1364.37 441.81
1269 0 174.195 16.0337 2793 92.2957 1363.92 435.617
1270 0 174.197 14.4147 2511 97.5165 1364.22 437.065
1271 0 181.187 14.8465 2690 95.713 1363.96 435.473
1272 0 186.262 14.0018 2608 97.6246 1364 431.007
1273 0 194.227 14.3852 2794 95.6174 1363.87 429.962
1274 0 201.314 14.9121 3002 101.854 1364.72 423.701
1275 0 207.325 13.5005 2799 97.3426 1364.79 421.447
1276 0 207.321 13.5297 2805 150.964 1364.8 421.392
1277 1 246.469 9.11676 2247 107.634 1364.83 421.408
1278 1 45.0783 11.0474 498 94.2249 1364.67 498.685
1279 0 44.0249 11.8569 522 94.5115 1365.22 498.261
1280 0 49.0175 11.9345 585 93.0598 1364.03 499.222
1281 0 50.0461 11.7292 587 95.1039 1363.64 500.291
1282 0 51.0597 11.5551 590 94.2881 1364.5 500.69
1283 0 51.0716 11.6307 594 95.3687 1364.99 498.64
1284 0 56.168 11.6971 657 92.7215 1365.15 496.916
1285 0 55.1086 11.4683 632 94.6282 1364.92 496.228
1286 0 58.1276 11.7672 684 91.8889 1365.38 496.618
1287 0 58.1276 11.8016 686 165.714 1366.42 496.736
1288 0 62.1003 12.3349 766 94.0966 1366.11 494.82
1289 0 65.0271 12.7639 830 93.8988 1365.77 490.959
1290 0 69.228 13.1883 913 91.9387 1365.78 489.172
1291 0 69.074 12.9426 894 94.5492 1365.42 487.548
1292 0 72.1592 13.3455 963 92.5286 1364.65 486.971
1293 0 75.218 12.4571 937 96.3447 1364.05 485.02
1294 0 75.1658 12.958 974 96.2259 1364.49 483.793
1295 0 79.1718 13.2623 1050 94.059 1364.4 484.09
1296 0 83.1673 13.2985 1106 94.8291 1364.7 480.56
1297 0 86.2351 12.8834 1111 95.3834 1364.16 480.251
1298 0 89.1504 13.3931 1194 93.7462 1364.36 476.857
1299 1 110.192 19.3117 2128 68.9991 1365.46 463.588
1300 0 107.246 17.1662 1841 77.2591 1365.54 467.744
1301 1 50.0385 10.3121 516 98.4671 1365.08 494.944
1302 0 51.0291 11.1113 567 96.9612 1365.17 496.106
1303 0 56.0939 11.9977 673 93.3893 1364.39 497.248
1304 0 56.0248 12.4231 696 92.6466 1364.91 496.94
1305 0 56.1222 12.4015 696 93.8276 1364.59 497.122
1306 0 60.1272 12.3072 740 92.9932 1364.53 497.18
1307 0 62.1322 12.8275 797 92.1079 1364.64 497.858
1308 0 65.099 12.8113 834 93.0096 1363.86 496.838
1309 0 67.174 13.3385 896 92.0156 1363.79 495.607
1310 0 67.0441 12.9915 871 94.7451 1364.07 493.888
1311 0 70.0638 13.0595 915 94.1399 1364.54 495.082
1312 0 71.0396 13.1335 933 94.3741 1364.54 495.352
1313 0 73.0613 12.9617 947 95.8025 1363.64 493.199
1314 0 74.0482 13.8558 1026 94.0994 1364.27 491.578
1315 0 78.0693 13.7698 1075 94.7219 1364.23 490.494
1316 0 81.0552 14.2619 1156 93.5026 1363.89 490.562
1317 0 80.0616 13.3023 1065 98.8817 1363.62 489.161
1318 0 82.1132 12.4219 1020 96.4422 1363.89 486.143
1319 0 85.0636 12.2144 1039 97.5236 1363.58 484.764
1320 0 87.0635 12.1061 1054 98.8435 1364.14 484.388
1321 0 90.0846 12.5549 1131 97.5376 1363.57 481.856
1322 1 52.0686 9.75636 508 89.5787 1364.3 501.943
1323 0 53.0135 10.7331 569 87.1019 1363.65 501.139
1324 0 56.0194 10.5321 590 85.0627 1365.6 500.481
1325 0 56.0445 11.2589 631 84.9715 1366.08 499.758
1326 0 59.053 10.9224 645 84.3519 1365.19 499.805
1327 0 61.0648 10.9556 669 84.3632 1366.4 499.052
1328 0 62.1765 11.982 745 86.1987 1364.53 498.475
1329 0 64.0327 11.8533 759 81.8643 1364.57 502.19
1330 0 67.0678 12.7334 854 79.9052 1364.23 499.875
1331 0 66.0256 12.1922 805 82.7975 1364.24 498.525
1332 0 69.0586 12.0622 833 82.94 1364.38 498.709
1333 0 70.0648 12.8167 898 83.2216 1364.48 495.988
1334 0 71.0662 12.1295 862 85.1705 1364.29 497.038
1335 0 74.1558 12.2849 911 84.8573 1363.73 495.308
1336 0 76.092 12.9711 987 84.1854 1363.75 494.162
1337 0 80.0711 12.5389 1004 86.253 1364.05 493.888
1338 0 82.0508 12.8945 1058 86.3582 1364.07 491.084
1339 0 84.1612 12.6899 1068 89.4354 1363.97 489.79
1340 0 87.1606 12.1041 1055 97.2758 1363.82 485.473
1341 0 89.1024 11.9974 1069 101.109 1364.92 485.906
1342 0 91.1813 12.009 1095 103.942 1364.34 487.144
1343 0 94.1287 12.2279 1151 103.089 1364.11 485.403
1344 0 96.0726 11.8764 1141 104.578 1363.68 484.305
1345 0 98.052 12.4628 1222 102.954 1363.42 482.724
1346 0 103.11 12.6564 1305 101.906 1363.13 482.49
1347 0 106.165 11.8118 1254 104.971 1363.32 479.775
1348 0 109.07 12.4507 1358 103.705 1363.55 476.901
1349 0 113.151 12.6644 1433 102.948 1362.88 477.226
1350 0 115.128 12.6816 1460 103.927 1363.36 473.668
1351 0 119.148 12.6566 1508 103.895 1363.52 472.118
1352 0 122.099 11.8592 1448 105.675 1362.91 469.887
1353 0 127.175 12.0935 1538 106.3 1362.8 466.415
1354 0 132.206 12.6923 1678 104.622 1362.85 466.213
1355 1 73.0367 11.5832 846 97.8664 1363.48 495.004
1356 0 76.1101 11.5885 882 104.22 1363.45 493.299
1357 0 80.0885 12.0117 962 103.785 1363.61 491.187
1358 0 81.0822 12.1235 983 105.24 1363.12 490.951
1359 0 84.0993 12.2831 1033 101.943 1363.67 490.472
1360 0 87.1486 12.3811 1079 106.103 1363.18 488.05
1361 0 90.0423 12.2942 1107 106.539 1362.88 487.203
1362 0 93.1297 12.6598 1179 103.231 1363.33 487.187
1363 0 95.1833 12.4181 1182 106.94 1363.51 484.844
1364 0 97.092 12.7817 1241 107.525 1363.54 482.617
1365 0 99.0582 12.5482 1243 109.139 1363.77 482.644
1366 0 104.079 12.356 1286 109.125 1363.76 481.611
1367 0 105.124 12.8229 1348 108.954 1363.47 480.562
1368 0 109.088 12.2836 1340 110.39 1363.34 477.521
1369 0 112.17 12.8109 1437 109.747 1363.06 474.911
1370 0 112.172 12.7305 1428 156.013 1363.07 475.128
1371 0 118.131 12.8417 1517 109.881 1362.1 472.272
1372 0 121.277 11.9891 1454 111.644 1362.91 468.242
1373 1 67.1979 11.2652 757 101.967 1362.47 498.181
1374 0 72.2357 11.8778 858 100.494 1362.44 497.386
1375 0 72.0686 12.613 909 100.403 1363.04 495.65
1376 0 75.049 12.9515 972 89.7942 1362.86 496.619
1377 0 74.0795 11.1367 825 91.9297 1362.64 498.075
1378 0 74.0865 11.1491 826 94.4262 1362.65 498.499
1379 0 75.0403 11.0741 831 94.7882 1363.05 498.7
1380 0 76.1823 11.5512 880 96.5432 1363.39 497.791
1381 0 75.045 11.4331 858 100.966 1363.16 497.721
1382 0 77.0824 11.1828 862 101.495 1363.16 495.824
1383 0 80.0518 11.3801 911 98.5291 1363.22 495.582
1384 0 83.0793 11.6274 966 96.9793 1362.37 493.449
1385 0 84.0975 11.1894 941 95.7821 1362.55 492.219
1386 0 87.1392 11.3152 986 92.8803 1362.26 491.958
1387 0 90.1339 11.261 1015 89.797 1362.52 489.802
1388 0 96.17 11.6668 1122 87.156 1362.47 488.57
1389 0 97.095 11.9471 1160 86.2638 1363.01 486.872
1390 0 99.1097 11.9766 1187 86.6756 1361.87 484.264
1391 0 101.25 11.3382 1148 88.1847 1362.07 482.501
1392 0 104.282 11.6319 1213 86.742 1362.77 483.348
1393 0 105.141 10.6334 1118 88.2326 1362.29 483.098
1394 0 110.152 11.3842 1254 87.4761 1362.53 479.88
1395 0 113.159 11.4971 1301 89.8224 1362.8 478.778
1396 1 64.084 10.97 703 95.0697 1362.45 500.616
1397 0 66.1408 11.5662 765 92.4052 1362.74 500.02
1398 0 68.1091 11.878 809 94.7602 1362.3 498.263
1399 0 69.0311 11.4296 789 82.4259 1362.26 499.029
1400 0 70.1009 12.0969 848 81.8998 1362.57 497.388
1401 0 70.1009 12.0969 848 115.943 1361.58 497.362
1402 0 71.0297 11.7134 832 85.6791 1362.51 494.691
1403 0 74.0418 11.372 842 87.3302 1362.21 494.481
1404 0 76.0457 11.7429 893 87.813 1361.74 493.868
1405 0 80.0479 11.3182 906 89.3676 1361.95 491.497
1406 0 81.082 11.7782 955 86.0974 1362.16 489.138
1407 0 83.0578 11.6786 970 87.7289 1362.07 487.675
1408 0 83.0916 11.1684 928 91.5808 1361.83 487.177
1409 0 89.0796 11.8097 1052 89.1787 1361.69 486.683
1410 0 90.1181 11.5293 1039 91.5659 1362.43 485.715
1411 0 93.1345 11.0593 1030 93.5864 1362.04 482.392
1412 0 94.1677 10.2371 964 94.9938 1362.36 481.604
1413 1 51.1066 10.5466 539 96.0686 1362.42 506.256
1414 0 53.0849 11.378 604 94.4834 1362.17 504.871
1415 0 54.2585 11.9244 647 98.7017 1361.98 501.632
1416 0 56.0114 10.9442 613 94.2153 1362.67 504.219
1417 0 58.0648 11.5905 673 90.8351 1362.68 503.429
1418 0 59.074 12.0188 710 89.4916 1362.48 502.673
1419 0 60.0318 11.6605 700 90.2343 1362.7 501.456
1420 0 61.0141 12.1775 743 89.1359 1362.39 501.948
1421 0 64.0362 11.9932 768 88.2357 1362.94 499.72
1422 0 66.0535 11.96 790 87.8139 1362.85 498.101
1423 0 68.0208 12.4227 845 86.9408 1362.55 496
1424 0 70.0845 12.4421 872 86.2936 1362.61 496.194
1425 0 70.0785 11.6584 817 88.8923 1362.77 495.731
1426 0 72.0435 12.423 895 86.5721 1362.39 493.927
1427 0 75.0608 12.0702 906 87.1744 1362.88 493.865
1428 0 78.0514 12.2996 960 84.9188 1362.31 489.669
1429 0 78.0504 12.0947 944 117.747 1361.3 489.645
1430 0 80.0979 11.8979 953 88.3536 1362.69 490.135
1431 0 80.0874 11.8496 949 119.567 1364.69 490.118
1432 0 87.102 12.6518 1102 84.3122 1362.73 486.827
1433 0 90.0477 12.9043 1162 85.0886 1363.23 486.342
1434 0 94.0314 13.5806 1277 85.5685 1363.3 484.695
1435 0 96.0545 13.4195 1289 87.1202 1362.32 483.843
1436 0 99.0758 12.8992 1278 88.518 1363.25 482.644
1437 0 102.078 12.4513 1271 96.4453 1362.58 479.628
1438 0 106.069 12.2844 1303 94.9401 1362.32 478.592
1439 0 108.179 12.544 1357 94.5785 1363.26 476.436
1440 0 111.105 12.4027 1378 95.2591 1362.86 475.982
1441 1 63.0455 11.0555 697 85.8178 1363.21 501.056
1442 0 64.1171 11.1671 716 87.1439 1363.01 499.318
1443 0 66.0669 11.897 786 87.631 1363.54 497.02
1444 0 69.0921 11.6656 806 89.84 1363.35 495.763
1445 0 72.1892 12.3149 889 92.7255 1362.89 493.741
1446 0 74.2775 11.6994 869 92.6882 1362.93 493.986
1447 0 77.2457 11.5864 895 92.733 1363.81 492.193
1448 0 78.137 11.851 926 92.6404 1362.61 490.432
1449 0 82.1277 11.9448 981 92.2304 1363.63 490.099
1450 0 86.3756 12.0057 1037 91.6586 1363.66 488.258
1451 0 88.3576 11.9514 1056 92.0085 1363.36 487.86
1452 0 88.3576 11.9288 1054 154.762 1363.36 487.912
1453 0 87.2183 11.305 986 94.7627 1363.53 488.196
1454 0 96.2337 12.532 1206 92.8391 1363.62 484.38
1455 0 96.2949 12.5656 1210 94.0636 1363.82 482.279
1456 0 100.385 12.9202 1297 94.973 1362.77 477.035
1457 0 103.453 13.0397 1349 95.0111 1363.5 476.27
1458 0 106.337 12.8741 1369 95.5931 1363.09 473.893
1459 0 109.507 13.4147 1469 94.9837 1362.45 471.709
1460 0 109.507 13.433 1471 160.761 1361.47 471.786
1461 0 113.487 13.1733 1495 97.691 1362.2 469.92
1462 0 118.514 13.3739 1585 96.3205 1362.73 467.353
1463 0 121.471 13.1883 1602 98.1567 1362.16 462.729
1464 0 125.446 13.6393 1711 97.6154 1361.96 462.75
1465 1 51.3005 10.8186 555 92.973 1362.49 499.04
1466 0 55.428 11.2218 622 90.2572 1361.98 497.555
1467 0 56.2772 11.9409 672 90.872 1362.31 496.744
1468 0 57.2401 11.9322 683 91.4217 1362.74 495.763
1469 0 59.2158 12.1589 720 90.4389 1363.68 498.106
1470 0 60.1931 12.7091 765 91.2523 1363.02 497.174
1471 0 63.0522 12.5927 794 91.6977 1363 495.593
1472 0 63.0522 12.6245 796 152.543 1363.01 495.555
1473 0 64.0849 12.2026 782 98.8542 1362.72 491.951
1474 0 64.0281 12.9162 827 98.4921 1362.85 490.086
1475 0 67.0688 12.7034 852 97.6362 1363.01 489.5
1476 0 67.0879 12.8935 865 100.82 1362.72 487.661
1477 0 69.1927 12.6747 877 101.935 1362.94 486.654
1478 0 70.1639 13.0409 915 101.505 1363.13 485.322
1479 0 73.1224 13.3612 977 101.236 1363.34 484.136
1480 0 74.1079 12.9001 956 103.758 1363.99 482.682
1481 0 78.0797 13.4478 1050 102.56 1363.44 481.305
1482 0 79.1642 12.8972 1021 105.751 1363.85 479.644
1483 0 80.0987 12.5345 1004 107.163 1363.89 480.702
1484 0 83.1398 12.7496 1060 106.829 1363.57 477.297
1485 0 85.1308 12.6981 1081 106.463 1363.75 475.844
1486 0 89.1216 13.1842 1175 104.395 1365.11 473.524
1487 0 92.1802 13.1265 1210 104.941 1364.42 473.026
1488 0 94.1488 13.1388 1237 105.657 1364.19 472.293
1489 1 50.088 9.88261 495 101.362 1364.59 494.41
1490 0 52.0785 10.5418 549 97.6248 1364.2 495.463
1491 0 55.0962 11.2894 622 92.2444 1364.04 491.127
1492 0 58.0797 11.1571 648 93.554 1363.94 490.286
1493 0 59.0359 11.349 670 94.0134 1363.68 488.591
1494 0 60.0403 11.6588 700 92.4157 1363.06 487.143
1495 0 60.0475 11.1079 667 93.4063 1363.43 485.729
1496 0 62.0716 11.9701 743 89.5895 1364.21 486.436
1497 0 63.0608 11.703 738 89.7466 1363.66 484.469
1498 0 62.1194 11.9769 744 88.3441 1363.35 484.263
1499 0 63.108 11.3615 717 90.4003 1363.51 481.789
1500 0 64.0447 11.1016 711 89.1252 1363.26 480.402
1501 0 66.2181 11.6886 774 85.6938 1363.59 479.417
1502 0 67.1327 11.3953 765 86.5386 1363.33 476.059
1503 0 70.1714 11.6002 814 84.1867 1363.48 477.032
1504 0 72.2993 11.4386 827 82.8259 1363.2 475.572
1505 0 75.2426 11.5892 872 82.8956 1363.41 473.585
1506 0 76.1254 11.3234 862 83.0278 1363.26 471.281
1507 0 75.1738 11.0544 831 84.1107 1363.45 471.716
1508 0 79.2201 11.8783 941 80.6748 1363.28 471.177
1509 0 81.1931 11.7251 952 81.5368 1363.54 469.533
1510 0 84.2147 11.3401 955 81.8639 1363.49 469.793
1511 0 83.1767 11.8062 982 82.6517 1363.89 469.544
1512 0 87.2307 11.9797 1045 81.1273 1363.14 467.784
1513 0 88.2263 11.4705 1012 82.0692 1362.86 465.689
1514 0 89.2966 11.8034 1054 81.1309 1363.5 465.228
1515 0 93.2422 11.6578 1087 80.7249 1363.71 463.982
1516 0 95.4366 11.8403 1130 79.8398 1363.84 462.315
1517 0 96.2748 11.4983 1107 81.1707 1363.74 461.218
1518 0 99.2996 11.6818 1160 80.5483 1363.05 458.034
1519 0 101.188 11.701 1184 79.6529 1363.14 458.171
1520 0 103.289 11.463 1184 79.9637 1363.82 456.848
1521 0 107.27 11.2893 1211 79.725 1363.52 455.011
1522 0 108.324 11.3826 1233 79.5028 1363.58 452.798
1523 0 112.22 10.9963 1234 81.1807 1363.41 450.556
1524 0 115.222 11.5082 1326 81.2685 1363.55 449.23
1525 0 121.302 12.4647 1512 78.619 1363.01 446.841
1526 0 124.251 11.9114 1480 80.7899 1363.24 444.945
1527 0 128.231 11.9394 1531 80.6571 1363.29 443.366
1528 0 130.29 12.027 1567 81.4971 1362.88 442.957
1529 0 134.285 12.1532 1632 81.2745 1363.35 440.177
1530 0 138.175 11.5723 1599 83.1301 1363.57 439.757
1531 0 142.182 12.3082 1750 82.3989 1363.88 438.436
1532 0 146.25 11.8701 1736 82.2944 1364.23 435.585
1533 0 148.19 11.5865 1717 84.0547 1364.18 435.05
1534 0 151.241 12.3512 1868 83.3812 1364.27 431.847
1535 0 157.195 12.8057 2013 84.0273 1363.73 429.446
1536 0 157.195 12.8057 2013 121.498 1363.73 429.446
1537 0 163.135 12.6337 2061 85.6545 1362.82 425.029
1538 0 168.238 12.5061 2104 85.7386 1363.4 424.663
1539 0 173.168 12.2367 2119 86.579 1364.06 423.68
1540 0 175.281 12.4315 2179 86.9436 1363.59 417.321
1541 0 181.24 12.8283 2325 86.308 1363.54 417.846
1542 0 188.265 12.7002 2391 87.2539 1363.65 414.002
1543 0 193.229 12.7517 2464 88.0649 1364.29 411.427
1544 0 195.297 12.9444 2528 88.8422 1364.34 411.273
1545 0 201.226 13.0401 2624 90.8034 1363.71 403.615
1546 0 207.264 13.051 2705 90.8407 1363.56 401.518
1547 0 215.289 12.9128 2780 91.7482 1363.95 400.897
1548 0 220.361 13.5868 2994 91.6349 1364.24 393.967
1549 0 226.421 13.1172 2970 94.2805 1364.03 389.095
1550 0 235.327 13.9083 3273 92.6621 1363.68 387.161
1551 0 245.403 13.3209 3269 94.8305 1363.62 385.989
1552 1 311.631 11.6837 3641 101.902 1363.65 359.739
1553 0 320.385 10.9181 3498 104.323 1363.09 357.031
1554 0 330.595 11.1859 3698 103.611 1363.26 354.296
1555 1 52.0579 6.85775 357 69.465 1363.76 490.277
1556 0 57.1671 9.53346 545 70.0532 1363.13 490.429
1557 0 58.0954 10.1041 587 73.5554 1364.12 496.337
1558 0 65.0351 10.3483 673 85.9851 1364.72 495.798
1559 0 65.0969 9.72397 633 88.4676 1365.32 494.513
1560 0 67.0446 10.2022 684 87.367 1364.51 495.183
1561 0 69.0671 9.84549 680 88.3544 1364.12 493.525
1562 0 73.0653 9.8542 720 87.6875 1364.18 493.261
1563 0 75.1306 10.6348 799 87.8248 1364.48 491.677
1564 0 78.0719 10.5928 827 86.5623 1364.1 490.792
1565 0 77.095 10.4935 809 88.4363 1364.07 488.937
1566 0 83.1335 10.7297 892 86.1401 1363.53 486.512
1567 1 42.036 9.49186 399 84.6642 1362.87 506.376
1568 0 45.0342 10.1923 459 83.0501 1363.45 504.51
1569 0 46.0418 10.4905 483 78.971 1363.76 504.426
1570 0 46.0322 9.9061 456 74.7895 1363.49 503.726
1571 0 48.0965 10.0215 482 74.2552 1363.89 504.052
1572 0 51.0287 10.7391 548 72.4124 1364.43 502.684
1573 0 49.0217 10.6892 524 74.9046 1364.79 502.607
1574 0 52.0698 10.4667 545 74.9835 1364.62 502.53
1575 0 54.0315 10.5309 569 74.6081 1364.03 499.773
1576 0 53.0348 10.6345 564 75.7748 1363.73 500.399
1577 0 55.0335 10.5572 581 75.9828 1363.6 499.394
1578 0 58.0473 10.3536 601 75.8802 1363.57 498.098
1579 0 60.0607 10.7891 648 75.0401 1363.36 496.48
1580 0 62.0677 11.3263 703 73.7397 1362.74 496.727
1581 0 63.1322 10.9136 689 74.8926 1363.89 496.177
1582 0 64.0795 11.4701 735 74.102 1364.06 494.322
1583 0 62.0565 9.84587 611 78.5532 1364.06 496.574
1584 0 63.0291 10.4872 661 78 1364.77 495.608
1585 0 65.0414 9.91676 645 80.3566 1364.51 496.715
1586 0 65.0801 10.4179 678 80.59 1364.67 496.329
1587 0 67.0823 10.3455 694 81.4467 1364.01 495.611
1588 0 68.0603 10.5642 719 81.79 1364.18 493.502
1589 0 70.1402 10.3792 728 81.4657 1364.15 492.742
1590 0 73.0489 10.6093 775 80.3884 1363.93 491.241
1591 0 74.0552 10.5327 780 80.8 1364.02 490.383
1592 0 77.105 10.9721 846 81.1608 1363.42 488.169
1593 0 77.14 9.60591 741 83.0688 1364.13 489.238
1594 0 81.127 10.7239 870 82.5092 1364.23 487.208
1595 0 84.1423 11.1597 939 82.8765 1363.91 483.617
1596 0 87.0864 10.9776 956 82.4446 1363.94 482.614
1597 1 47.0218 10.8673 511 82.3796 1363.59 500.489
1598 0 47.0295 10.3977 489 82.9734 1363.99 497.734
1599 0 47.0211 10.5059 494 84.6275 1363.93 496.905
1600 0 46.0648 8.44462 389 80.4036 1363.95 504.997
1601 0 48.136 9.34851 450 80.4822 1364.24 503.524
1602 0 48.0703 9.4861 456 81.4671 1363.78 503.281
1603 0 52.0589 10.0079 521 80.0672 1364.02 503.033
1604 0 52.0589 9.87344 514 125.739 1364.06 503.105
1605 0 51.0621 9.92908 507 125.765 1364.06 502.998
1606 0 54.0734 10.3378 559 83.7388 1363.85 502.165
1607 0 54.0355 10.5671 571 84.4939 1363.48 500.601
1608 0 58.0674 10.9528 636 83.5535 1363.27 500.368
1609 1 118.293 11.1757 1322 90.5401 1363.05 470.892
1610 0 120.307 10.9719 1320 92.1144 1362.5 469.526
1611 1 134.301 9.24045 1241 93.7051 1362.98 472.462
1612 0 131.322 11.765 1545 91.8149 1363.07 459.885
1613 0 139.267 12.6806 1766 87.9711 1363.25 461.789
1614 0 142.173 12.5481 1784 88.1626 1363.24 459.987
1615 1 76.2174 12.32 939 83.8765 1362.9 492.417
1616 0 75.0701 11.7224 880 86.4489 1362.91 493.24
1617 0 79.1568 12.7974 1013 85.5291 1362.51 490.024
1618 0 80.1694 12.2615 983 87.3174 1362.75 488.177
1619 0 82.1081 12.0329 988 88.1984 1362.99 487.871
1620 0 86.2316 12.3389 1064 87.0648 1363.42 486.351
1621 0 88.1226 12.4713 1099 87.2056 1363.58 485.406
1622 0 89.175 12.1334 1082 90.7357 1363.92 485.494
1623 0 92.1475 12.0785 1113 89.6604 1362.75 483.641
1624 0 95.1546 12.8948 1227 88.5632 1363.03 482.2
1625 0 97.0772 12.248 1189 91.4861 1363.74 480.213
1626 0 101.128 12.4001 1254 91.0391 1363.78 478.536
1627 0 106.107 12.9587 1375 89.3244 1363.29 476.596
1628 1 57.1039 11.2952 645 91.507 1363.32 498.744
1629 0 59.127 11.433 676 89.1317 1363.26 494.024
1630 0 57.0927 11.4551 654 91.5138 1363.14 491.552
1631 0 58.0807 11.1052 645 91.1457 1363 492.512
1632 0 61.0585 11.9066 727 89.6712 1362.91 491.748
1633 0 62.0892 11.8056 733 90.0136 1363.15 490.84
1634 0 66.112 12.1461 803 91.9415 1362.54 490.674
1635 0 70.084 12.9273 906 91.8035 1362.33 492.283
1636 0 72.1415 12.6834 915 93.3148 1361.66 489.892
1637 0 71.1309 10.6002 754 85.6088 1361.84 492.401
1638 0 75.1124 11.9687 899 82.267 1361.1 490.693
1639 0 78.054 11.8251 923 83.2156 1361.85 487.968
1640 0 80.1005 11.5105 922 84.8167 1362.05 488.618
1641 0 83.0628 11.5696 961 84.6306 1362.51 485.939
1642 0 88.0568 11.9582 1053 83.0133 1362.48 486.582
1643 0 90.0638 12.2247 1101 82.8265 1362.23 483.678
1644 0 93.1079 11.9324 1111 84.1683 1361.9 482.546
1645 0 95.1578 11.3916 1084 85.8413 1362.38 480.303
1646 0 100.13 12.2141 1223 83.9011 1361.6 478.609
1647 1 53.1276 10.7477 571 86.021 1362.02 498.615
1648 0 58.1191 11.442 665 81.8782 1362.31 500.06
1649 0 57.1111 10.9786 627 82.6077 1362.38 500.799
1650 0 61.1698 12.9476 792 88.8952 1363.5 497.292
1651 0 63.1322 12.26 774 85.7119 1363.09 497.559
1652 0 63.0518 12.5611 792 87.178 1362.98 495.205
1653 0 67.0787 12.4182 833 85.8067 1362.96 492.887
1654 0 69.0587 12.4097 857 87.5823 1363.29 491.86
1655 0 69.0527 12.7439 880 88.6 1363.41 491.22
1656 0 74.1191 12.5878 933 88.3987 1362.54 490.525
1657 0 74.1447 13.1095 972 88.1142 1362.06 489.529
1658 0 77.1116 13.059 1007 88.7944 1362.49 487.773
1659 0 79.0612 12.9393 1023 88.8123 1362.96 487.91
1660 0 80.0937 13.3968 1073 89.6589 1362.98 485.942
1661 0 82.0942 12.6927 1042 89.8743 1361.93 484.513
1662 0 84.0951 12.6642 1065 91.5099 1361.76 482.616
1663 0 87.1023 12.6288 1100 89.9391 1362.14 480.631
1664 0 88.0719 12.8758 1134 91.8166 1362.09 478.549
1665 0 91.1656 12.7899 1166 93.2384 1361.62 479.069
1666 0 92.0987 12.3997 1142 97.6515 1362.17 478.666
1667 1 54.0779 11.1321 602 97.7957 1360.73 498.017
1668 0 56.0565 10.8284 607 97.6326 1361.06 498.237
1669 0 56.0161 11.818 662 98.0937 1361.42 497.334
1670 0 59.0251 11.7577 694 99.8271 1362.26 497.452
1671 0 63.0787 12.7143 802 93.1259 1362.94 497.395
1672 0 61.1023 11.178 683 93.4129 1363.09 499.138
1673 0 61.0396 10.9765 670 93.8373 1363.62 499.878
1674 0 63.0325 11.1213 701 94.0942 1363.13 497.922
1675 0 66.0214 10.8601 717 94.1743 1362.83 497.001
1676 0 68.0442 10.9929 748 93.4639 1363 495.06
1677 0 70.047 11.2353 787 92.8119 1363.52 495.591
1678 0 73.07 11.4821 839 91.1573 1363.39 494.094
1679 0 75.0534 12.0581 905 90.2497 1363.07 492.587
1680 0 77.0537 11.7191 903 91.5238 1362.52 491.265
1681 0 80.0755 11.8638 950 90.4453 1362.6 490.853
1682 0 83.1037 11.5879 963 90.4174 1362.37 490.132
1683 0 84.076 11.2517 946 91.7463 1362.88 488.117
1684 0 88.0783 11.433 1007 90.6216 1363.33 488.159
1685 0 90.0512 11.2047 1009 91.5094 1362.84 485.805
1686 0 94.0802 11.352 1068 91.1292 1363.26 482.968
1687 0 96.0645 11.3361 1089 90.9807 1363.44 480.789
1688 0 99.0959 11.5545 1145 91.0245 1363.24 477.58
1689 0 103.138 11.6833 1205 90.6091 1363.37 476.268
1690 0 107.054 12.4983 1338 93.7982 1362.83 474.783
1691 0 112.128 12.3341 1383 89.5358 1363.11 473.437
1692 1 58.0476 10.2674 596 85.5822 1361.81 499.468
1693 0 59.0271 10.8594 641 85.5023 1361.71 498.081
1694 0 60.0532 11.1068 667 83.2384 1361.54 498.097
1695 0 60.0532 11.1068 667 124.115 1360.54 498.097
1696 0 63.0454 11.8962 750 82.4453 1362.13 495.796
1697 0 65.0348 11.4246 743 82.2382 1363.66 494.048
1698 0 66.0498 11.991 792 81.6768 1363.37 494.924
1699 0 69.0802 11.9571 826 80.7107 1363.74 494.116
1700 0 71.0762 11.7902 838 80.1492 1363.83 493.217
1701 0 74.0446 12.3439 914 79.0405 1363.6 491.807
1702 0 74.0781 12.1763 902 80.0632 1364.54 490.618
1703 0 77.0406 11.3706 876 77.3356 1363.95 487.324
1704 0 79.0442 11.8541 937 79.0534 1363.14 489.116
1705 0 83.0806 11.7837 979 77.4024 1363.39 487.494
1706 0 83.0566 11.9075 989 79.8534 1363.38 486.362
1707 0 85.1096 11.5263 981 80.8277 1362.58 483.661
1708 0 89.0712 12.215 1088 80.5423 1361.66 482.707
1709 0 93.0766 12.1298 1129 80.5757 1362.26 481.325
1710 0 94.0672 12.5442 1180 81.3127 1363.03 480.088
1711 0 98.0776 12.5819 1234 81.6937 1362.64 478.592
1712 0 102.085 12.5582 1282 81.6178 1362.56 478.79
1713 0 101.177 11.9493 1209 85.139 1363.31 475.542
1714 0 104.18 12.3824 1290 85.4341 1363.47 474.647
1715 0 106.152 12.4915 1326 89.6365 1363.58 471.109
1716 0 109.195 12.6838 1385 92.5242 1363.54 471.232
1717 0 112.14 12.957 1453 90.8596 1363.76 469.613
1718 0 116.199 12.9433 1504 90.24 1363.61 469.216
1719 0 119.19 12.8451 1531 90.4644 1363.17 467.077
1720 0 123.253 13.0058 1603 88.9713 1363.29 466.558
1721 0 125.272 12.9158 1618 89.3782 1363.52 464.113
1722 0 128.158 13.0464 1672 88.7984 1363.26 464.411
1723 0 130.19 13.0271 1696 90.6008 1363.46 461.147
1724 0 136.16 13.1683 1793 91.0719 1363.21 458.813
1725 0 140.253 12.8339 1800 92.4094 1363.16 457.426
1726 1 69.0333 11.1396 769 81.4213 1363.64 495.225
1727 0 69.0354 11.1972 773 141.758 1363.64 495.164
1728 0 73.1936 11.2305 822 90.7263 1363.73 488.867
1729 0 73.0642 11.3872 832 81.2704 1363.51 491.713
1730 0 77.0611 11.8867 916 80.6245 1363.97 489.493
1731 0 80.0676 11.6651 934 80.6114 1363.8 488.122
1732 0 79.0488 11.1197 879 82.7577 1362.97 486.907
1733 0 83.1005 12.1419 1009 80.1834 1364.11 486.334
1734 0 87.0403 11.5119 1002 81.9601 1363.45 484.341
1735 0 91.1273 11.9393 1088 81.1719 1363.11 482.556
1736 0 92.0538 12.0908 1113 81.8949 1363.04 479.199
1737 0 96.0725 12.043 1157 83.8565 1363.37 478.735
1738 1 197.216 11.6066 2289 100.366 1363.5 429.45
1739 0 205.24 12.1175 2487 99.7628 1364.35 423.821
1740 1 107.182 11.3265 1214 92.9951 1364.66 474.209
1741 1 58.1221 10.0822 586 89.0785 1365.25 497.517
1742 0 60.039 10.3599 622 84.6592 1364.37 497.264
1743 0 59.0698 11.2409 664 83.9232 1364.76 494.376
1744 0 62.0507 11.2811 700 82.1 1363.34 492.843
1745 0 64.0663 11.3788 729 77.8724 1362.21 492.449
1746 0 67.0452 11.0522 741 78.583 1362.51 491.464
1747 0 69.0672 11.6264 803 75.8381 1363.25 490.279
1748 0 72.058 11.1716 805 75.3627 1363.14 487.378
1749 0 73.0973 11.1085 812 75.8153 1363.28 488.937
1750 0 75.0902 11.3464 852 75.3885 1362.47 487.481
1751 0 75.0681 10.8701 816 76.0539 1362.43 486.999
1752 0 80.1121 10.9721 879 74.4858 1363.06 484.309
1753 0 81.0496 10.8822 882 74.5193 1362.86 483.668
1754 0 84.0554 11.3378 953 73.808 1362.41 481.904
1755 0 88.0734 11.4564 1009 73.11 1361.98 481.08
1756 1 46.0153 9.80108 451 74.7406 1362.01 501.479
1757 0 47.0279 10.228 481 70.9709 1364.19 500.16
1758 0 47.0433 10.6498 501 68.3214 1362.1 501.377
1759 0 50.0404 10.5914 530 68.0774 1362.05 499.474
1760 0 52.0191 10.4769 545 67.8917 1362.59 500.233
1761 0 51.0512 10.5972 541 67.9815 1362.72 499.338
1762 0 52.0222 10.707 557 68.6194 1362.68 499.395
1763 0 57.031 9.45099 539 70.1577 1362.14 496.358
1764 0 58.0674 11.1422 647 68.1298 1364.33 497.427
1765 0 60.076 11.5354 693 66.4545 1362.96 496.216
1766 0 60.076 11.5188 692 103.691 1361.98 496.279
1767 0 63.0865 11.6031 732 67.6448 1363.92 494.956
1768 0 67.0146 11.1021 744 67.2204 1363.13 494.384
1769 0 68.0888 11.015 750 67.8053 1362.47 491.315
1770 0 69.0578 11.2515 777 68.8082 1362.96 491.185
1771 0 71.12 11.1502 793 70.1501 1363.37 490.651
1772 0 74.0681 11.5299 854 69.5351 1363.35 488.63
1773 0 77.0725 11.1583 860 69.5023 1363.6 487.32
1774 0 78.1086 11.6633 911 69.9572 1363.62 487.437
1775 0 81.1113 11.7493 953 71.4082 1363.38 486.623
1776 0 85.1346 12.3452 1051 71.5186 1363.51 483.561
1777 0 88.1439 11.7195 1033 73.5779 1363.75 482.476
1778 1 48.1024 10.3529 498 77.0823 1364.09 503.215
1779 0 48.1024 10.3737 499 126.269 1364.1 503.096
1780 0 51.0159 11.1338 568 80.6972 1362.53 499.664
1781 0 51.0438 11.7154 598 83.709 1362.99 497.96
1782 0 51.0873 10.3352 528 86.0492 1362.47 494.631
1783 0 53.1388 10.5196 559 85.6905 1362.34 494.515
1784 0 52.0835 11.2128 584 86.5719 1361.85 493.098
1785 0 54.0723 11.1332 602 87.0548 1362.29 492.49
1786 0 58.0923 11.103 645 86.6605 1362.53 492.794
1787 0 60.0513 11.5068 691 87.136 1362.91 492.155
1788 0 60.0848 11.4505 688 89.5567 1362.38 491.307
1789 0 62.0886 12.1117 752 87.8684 1362.85 490.967
1790 0 65.0966 11.8439 771 89.668 1362.87 490.16
1791 0 65.0966 11.8286 770 140.131 1362.87 490.008
1792 0 68.071 11.9287 812 91.9803 1362.82 488.266
1793 0 73.045 12.3622 903 91.32 1363.2 488.539
1794 0 75.0698 12.162 913 93.3724 1362.61 486.984
1795 0 74.1112 12.4677 924 95.7836 1362.9 485.723
1796 0 80.129 13.3784 1072 93.8134 1363.82 485.5
1797 0 81.2199 12.854 1044 98.682 1362.32 485.122
1798 0 84.1737 13.187 1110 99.5324 1362.87 483.845
1799 0 87.0683 13.1851 1148 100.698 1363.13 483.048
1800 0 89.1858 12.9169 1152 105.367 1362.74 482.599
1801 1 47.0465 10.394 489 102.505 1362.81 503.654
1802 0 47.07 11.0474 520 102.821 1362.41 502.708
1803 0 47.0671 11.5367 543 101.109 1362.37 502.024
1804 0 50.0948 11.7777 590 102.11 1362.55 503.266
1805 0 51.1554 13.0387 667 99.9175 1362.3 504.822
1806 0 55.0863 12.5984 694 91.4697 1363.17 503.206
1807 0 54.1116 12.5851 681 93.9882 1362.88 503.489
1808 0 57.0749 13.1757 752 92.0838 1362.73 501.041
1809 0 60.0387 13.508 811 99.148 1363.35 501.61
1810 0 60.0371 13.5083 811 158.253 1364.36 501.62
1811 0 60.0371 13.5083 811 157.797 1364.36 501.62
1812 0 60.0402 13.5076 811 157.462 1364.36 501.62
1813 0 65.1022 13.763 896 98.365 1362.75 496.931
1814 0 67.1042 13.8591 930 98.6258 1362.3 495.283
1815 0 70.0775 12.9571 908 99.8238 1362.47 493.783
1816 0 72.0372 13.8401 997 96.1484 1362.2 492.617
1817 0 74.0283 13.1301 972 96.0556 1362.61 490.785
1818 0 75.0504 13.431 1008 95.5188 1362.47 488.31
1819 0 76.0544 13.3326 1014 95.8757 1362.26 487.172
1820 0 79.0873 13.3523 1056 95.3655 1362.39 484.961
1821 0 82.1367 12.8201 1053 95.6154 1362.72 483.823
1822 0 84.0835 13.2606 1115 93.8045 1362.82 482.97
1823 0 87.061 14.105 1228 90.6759 1363 482.654
1824 0 86.1561 13.2666 1143 97.4042 1363.19 481.099
1825 0 90.0899 13.3644 1204 96.2816 1362.73 479.035
1826 0 92.0352 13.1689 1212 97.2286 1362.3 477.668
1827 0 94.0557 12.8116 1205 98.1992 1363.04 477.324
1828 1 47.0641 10.7513 506 100.553 1362.65 497.816
1829 0 51.0091 10.9588 559 97.1825 1363.09 499.2
1830 0 53.1267 11.7455 624 96.8942 1362.02 496.619
1831 0 54.0238 12.9573 700 93.5629 1361.56 497.171
1832 0 55.0243 12.449 685 94.2409 1362.53 497.187
1833 0 54.0388 12.2875 664 95.5693 1362.74 496.133
1834 0 59.0535 12.5649 742 92.7668 1363.02 495.908
1835 0 59.0444 12.4144 733 93.7326 1363.13 498.95
1836 0 62.0484 12.3291 765 96.9908 1363.2 497.193
1837 0 62.0519 12.3284 765 98.1895 1362.21 495.761
1838 0 66.0148 13.0122 859 96.6438 1362.69 495.448
1839 0 68.0537 12.7106 865 97.3549 1362.74 495.37
1840 0 70.0641 12.9453 907 99.5281 1362.21 491.796
1841 0 73.1645 13.0255 953 99.7345 1362.45 491.408
1842 0 73.0953 13.3114 973 97.7204 1362.42 490.669
1843 0 76.1181 12.9273 984 99.2846 1362.22 489.963
1844 0 80.0711 13.7753 1103 97.2992 1362.71 488.384
1845 0 82.0771 14.0234 1151 98.3875 1362.53 487.206
1846 0 83.0779 13.698 1138 100.572 1363.26 485.155
1847 0 86.0664 13.7336 1182 101.805 1363.21 483.82
1848 0 90.1047 14.7162 1326 98.8017 1362.74 483.277
1849 0 92.1389 14.5107 1337 103.936 1363.5 482.758
1850 0 96.1552 14.8198 1425 103.009 1363.05 480.952
1851 0 99.0485 14.6494 1451 103.294 1363.09 479.415
1852 0 101.086 14.5123 1467 103.775 1362.67 479.865
1853 0 104.042 14.523 1511 104.757 1362.58 477.091
1854 0 107.086 14.6144 1565 104.5 1362.72 475.15
1855 0 112.103 14.1299 1584 105.713 1363.23 472.014
1856 0 115.078 14.7378 1696 104.626 1362.3 469.892
1857 1 58.0351 11.2863 655 99.374 1362.98 500.148
1858 0 59.0534 12.2432 723 96.7109 1363.18 498.176
1859 0 62.0836 12.6926 788 97.3452 1363.5 495.997
1860 0 65.0416 12.8687 837 96.7121 1363.16 497.17
1861 0 67.0517 12.5873 844 108.273 1363.36 495.047
1862 0 69.0663 12.5242 865 98.3896 1363.29 493.749
1863 0 71.0808 12.8164 911 99.2042 1363.68 492.371
1864 0 73.0477 12.3618 903 100.827 1363.35 492.616
1865 0 76.0515 12.886 980 104.787 1363.93 491.066
1866 0 79.088 12.8212 1014 103.07 1363.44 489.163
1867 0 80.083 13.0614 1046 103.959 1363.35 487.826
1868 0 83.1329 12.5823 1046 105.448 1363.05 487.415
1869 0 85.1389 12.7791 1088 105.187 1362.94 486.5
1870 0 88.0871 13.0212 1147 104.08 1362.73 484.217
1871 0 90.0571 12.592 1134 105.403 1362.79 483.147
1872 0 92.1074 12.7243 1172 104.317 1363.41 482.323
1873 0 96.1242 12.3798 1190 105.793 1362.21 479.962
1874 1 50.0522 11.1284 557 100.285 1363.19 503.032
1875 0 51.0248 11.7198 598 101.398 1363.04 501.841
1876 0 53.0352 12.3314 654 102.45 1363.15 498.862
1877 0 55.1087 12.8292 707 105.126 1363.04 498.969
1878 0 58.1201 13.1452 764 109.501 1363.43 496.823
1879 0 59.0938 12.9794 767 112.112 1363.2 495.532
1880 0 61.0373 13.5163 825 110.39 1363.52 495.018
1881 0 62.0475 12.8611 798 112.615 1363.37 494.505
1882 0 66.0729 13.2429 875 110.306 1363.67 492.731
1883 0 67.0574 13.0038 872 111.29 1363 490.321
1884 0 70.0945 13.6102 954 110.325 1363.45 487.841
1885 0 71.1337 13.2567 943 112.526 1363.25 487.499
1886 0 74.1072 13.2106 979 112.11 1362.87 486.158
1887 0 74.1072 13.2376 981 160.768 1362.86 486.258
1888 0 79.2054 13.1809 1044 113.984 1362.68 482.219
1889 0 79.1571 13.0121 1030 115.196 1362.16 483.719
1890 0 79.1571 12.9616 1026 162.056 1361.15 483.667
1891 0 86.1067 13.3207 1147 113.204 1362.83 480.956
1892 0 88.1682 12.8958 1137 115.715 1363.07 479.098
1893 0 90.1824 12.7963 1154 115.106 1363.76 480.759
1894 0 94.153 12.7027 1196 112.571 1363.93 478.446
1895 1 48.0345 10.4092 500 107.258 1363.73 501.57
1896 0 51.0215 11.6226 593 104.531 1364.23 500.143
1897 0 54.0409 11.3803 615 104.088 1363.84 498.571
1898 0 57.0102 11.9978 684 98.7471 1363.21 498.459
1899 0 56.042 11.759 659 100.706 1363.73 497.844
1900 0 58.0461 11.7148 680 101.187 1363.12 495.591
1901 0 60.0084 11.3651 682 101.298 1362.97 496.792
1902 0 63.0778 11.5571 729 101.274 1363.18 495.104
1903 0 64.03 11.6976 749 101.964 1362.66 494.881
1904 0 67.0844 12.134 814 101.036 1363.19 493.518
1905 0 70.0745 11.9016 834 102.361 1362.91 492.594
1906 0 72.0625 12.5308 903 99.6755 1363.25 492.286
1907 0 74.0529 12.5181 927 99.5415 1362.4 491.073
1908 0 77.0468 12.5378 966 101.508 1362.86 489.436
1909 0 80.0335 12.7697 1022 102.19 1363.57 487.807
1910 0 82.0402 12.762 1047 102.849 1363.06 487.055
1911 0 86.0421 12.6798 1091 102.783 1363.36 486.538
1912 0 87.0104 12.3663 1076 106.168 1362.49 485.823
1913 0 90.0407 12.6165 1136 107.448 1362.14 484.195
1914 0 92.0708 12.8922 1187 107.04 1362.05 482.36
1915 0 98.113 12.5468 1231 104.53 1362.58 481.904
1916 0 98.1104 12.4859 1225 160.247 1362.58 481.899
1917 1 57.0614 11.2861 644 102.165 1361.08 500.391
1918 0 58.0103 12.4288 721 100.017 1362.32 499.67
1919 0 59.0538 12.531 740 100.996 1361.16 498.791
1920 0 64.0871 12.405 795 98.9333 1361.52 498.286
1921 0 64.1379 12.7226 816 96.3897 1362.1 496.963
1922 0 64.1379 12.7694 819 135.864 1362.1 496.877
1923 0 66.0614 12.5186 827 97.0955 1362.72 497.197
1924 0 65.0629 11.3121 736 101.389 1363.19 498.402
1925 0 67.0652 12.3015 825 99.3358 1363 496.17
1926 0 71.0555 11.6247 826 99.3668 1363.11 494.927
1927 0 74.0572 11.7342 869 98.3602 1363.25 492.648
1928 0 74.1286 10.846 804 100.527 1363.47 492.598
1929 0 77.0643 11.7694 907 97.946 1363.2 491.209
1930 0 80.0342 11.6075 929 97.3552 1362.65 489.271
1931 0 83.0906 11.4453 951 97.1767 1362.27 490.125
1932 0 87.1045 11.5034 1002 95.6856 1361.6 487.726
1933 0 89.087 11.0117 981 94.0734 1361.88 487.024
1934 0 94.077 10.0769 948 95.3639 1361.79 487.222
1935 0 96.0969 11.3219 1088 93.6765 1362.1 485.698
1936 0 98.1533 11.3598 1115 93.8332 1362.31 483.396
1937 0 101.165 11.1698 1130 94.8655 1362.1 481.94
1938 0 104.152 11.0032 1146 95.9031 1361.74 481.427
1939 0 107.056 11.5734 1239 94.9661 1361.85 478.909
1940 1 62.0433 11.5081 714 97.1891 1361.86 497.109
1941 0 61.0632 11.267 688 96.718 1361.98 494.956
1942 0 62.098 11.4658 712 96.8511 1361.89 493.447
1943 0 68.0724 12.3398 840 97.2631 1362.06 495.44
1944 0 70.1174 12.4506 873 95.8946 1362.21 495.7
1945 0 70.1013 11.6546 817 98.6512 1361.51 494.064
1946 0 74.102 12.6582 938 94.9222 1361.28 491.743
1947 0 75.1351 12.0716 907 96.1224 1361.66 489.964
1948 0 79.1199 12.6138 998 94.4549 1361.5 489.579
1949 0 81.1617 12.2102 991 95.8254 1361.11 487.542
1950 0 83.1078 11.9965 997 95.6369 1361.02 486.389
1951 0 87.1303 12.3723 1078 94.2755 1361.2 485.96
1952 0 89.1026 11.9862 1068 95.7228 1361.25 483.6
1953 0 91.0437 11.478 1045 95.6124 1360.76 481.716
1954 0 97.0913 12.2977 1194 92.2295 1360.8 482.106
1955 0 100.075 11.5913 1160 94.6647 1361.37 477.734
1956 1 53.0324 10.7859 572 87.0752 1360.13 502.879
1957 0 55.0419 11.0825 610 87.477 1359.39 501.149
1958 0 56.0333 11.7965 661 87.4493 1360.09 499.634
1959 0 56.0327 11.7253 657 132.985 1361.08 499.568
1960 0 59.1102 11.6731 690 83.4449 1360.3 499.128
1961 0 61.1086 12.1096 740 86.5878 1361.3 499.159
1962 0 64.1717 12.6068 809 83.9592 1360.05 497.18
1963 0 64.1177 12.1339 778 85.7249 1360.98 495.668
1964 0 68.1551 12.4862 851 84.7239 1360.8 495.992
1965 0 71.1612 13.0549 929 83.0614 1361.52 494.666
1966 0 74.1047 12.5498 930 79.7452 1361.14 494.418
1967 0 75.0989 12.9563 973 79.7318 1360.94 492.529
1968 0 77.0866 12.6351 974 80.4856 1361.72 492.373
1969 0 81.0759 12.7535 1034 79.9033 1361.19 492.38
1970 0 81.1349 12.584 1021 81.3095 1361.34 489.967
1971 0 84.1044 12.4845 1050 81.9143 1361.2 488.078
1972 0 87.1456 12.4734 1087 81.4535 1360.99 488.41
1973 0 91.0762 12.2754 1118 82.2165 1361.21 486.758
1974 0 92.2585 12.3674 1141 83.5355 1361.79 484.291
1975 0 95.1624 12.3053 1171 84.4842 1361.51 482.659
1976 0 96.1644 12.2291 1176 85.4124 1362.07 481.486
1977 0 101.285 12.7462 1291 85.732 1361.85 479.73
1978 0 101.257 12.3645 1252 90.1334 1361.16 478.071
1979 0 109.119 14.5896 1592 90.7412 1360.48 474.465
1980 0 109.112 12.9592 1414 96.7624 1360.65 474.737
1981 0 113.17 11.5931 1312 94.2287 1360.98 469.104
1982 0 116.282 12.4095 1443 93.0679 1361.54 470.834
1983 1 62.0609 9.60347 596 85.2399 1361.78 498.643
1984 0 64.073 10.2383 656 82.1082 1362.01 496.279
1985 0 67.1282 11.7685 790 82.1266 1362.05 495.716
1986 0 69.0953 11.5203 796 82.0339 1361.16 497.682
1987 0 71.0818 11.3391 806 83.0062 1361.17 496.901
1988 0 70.0812 10.445 732 85.4426 1360.68 495.132
1989 0 76.0708 10.556 803 84.2055 1361.07 493.879
1990 0 78.1524 10.8506 848 82.3785 1361.1 494.163
1991 0 79.2315 11.0183 873 83.0344 1361.12 490.84
1992 0 81.1908 10.8017 877 83.5291 1360.36 489.103
1993 0 84.1323 9.97238 839 83.8415 1360.91 490.26
1994 0 89.2028 11.5579 1031 81.0669 1360.49 486.61
1995 0 91.133 10.8193 986 83.1095 1360.45 485.097
1996 1 47.1037 10.4663 493 82.9026 1360.2 506.456
1997 0 47.0181 11.3573 534 80.7022 1360.26 505.215
1998 0 50.0707 11.1243 557 80.693 1360.38 504.476
1999 0 49.0361 11.5833 568 81.1056 1360.42 503.842
2000 0 52.0247 12.3211 641 85.3775 1360.58 502.849
2001 0 53.0423 11.8773 630 84.7968 1360.04 502.935
2002 0 54.0652 12.3185 666 84.5195 1360.49 502.045
2003 0 57.0461 12.709 725 83.3076 1360.42 500.361
2004 0 58.0594 12.8489 746 82.8418 1360.11 499.684
2005 0 59.0958 12.539 741 84.1538 1360.6 499.25
2006 0 61.0582 11.0059 672 91.7753 1360.45 433.493
2007 0 62.0658 12.1484 754 84.2149 1359.75 498.024
2008 0 61.0421 11.8607 724 87.0497 1360.49 499.273
2009 0 61.0162 10.9807 670 89.1672 1360.25 497.555
2010 0 67.1 11.4605 769 85.7945 1360.85 497.516
2011 0 68.0451 12.0361 819 84.7802 1360.64 494.297
2012 0 70.0411 11.5932 812 85.5751 1360.66 494.358
2013 0 74.0917 12.0526 893 83.9429 1361.16 491.964
2014 0 75.076 12.3075 924 86.4362 1360.63 490.811
2015 0 76.0951 11.7353 893 88.0873 1360.12 490.772
2016 0 82.0593 12.43 1020 83.9824 1360.74 490.092
2017 0 81.0701 12.5817 1020 85.1029 1360.65 489.649
2018 0 86.0563 12.4453 1071 84.1877 1360.53 487.012
2019 0 89.0945 12.9974 1158 83.6382 1360.3 484.957
2020 0 91.0728 12.1551 1107 84.5763 1360.75 485.647
2021 0 93.0294 12.3832 1152 85.2422 1360.11 484.371
2022 0 97.0453 12.4478 1208 84.7368 1360.9 481.971
2023 0 101.084 12.6232 1276 82.7061 1359.87 481.328
2024 1 54.0258 12.5311 677 80.8154 1360.49 503.421
2025 0 56.0398 12.2056 684 81.9591 1360.46 500.836
2026 0 56.0334 12.3141 690 78.8188 1360.82 501.072
2027 0 59.0358 12.0266 710 79.7056 1361.11 500.354
2028 0 60.0353 12.1262 728 80.2926 1360.34 499.536
2029 0 62.0827 11.7746 731 78.9767 1361.4 498.609
2030 0 64.0402 12.0706 773 79.1876 1360.98 496.664
2031 0 66.0872 12.7105 840 78.5655 1361.23 495.642
2032 0 67.0383 12.3362 827 79.9964 1361.59 494.521
2033 0 69.0516 12.3241 851 80.2879 1361.67 493.707
2034 0 72.0498 13.0743 942 79.6093 1361.56 492.82
2035 0 74.014 12.7949 947 80.4868 1361.97 492.599
2036 0 75.0533 12.3379 926 81.5702 1361.06 490.697
2037 0 78.1281 12.5051 977 80.2958 1360.91 489.894
2038 0 82.1423 13.2818 1091 78.2227 1361.46 489.185
2039 0 84.1221 13.4923 1135 78.474 1361.36 486.977
2040 0 85.13 12.8509 1094 79.7176 1361.13 486.943
2041 0 87.1307 12.6477 1102 81.471 1361.55 486.04
2042 0 90.0996 12.8746 1160 81.3897 1361.74 485.497
2043 0 93.0564 12.9384 1204 81.4759 1361.86 483.678
2044 0 95.0898 12.9877 1235 82.9806 1361.77 481.241
2045 0 100.096 13.6669 1368 81.2873 1362.11 478.246
2046 0 103.083 13.523 1394 82.4605 1361.38 475.174
2047 0 105.13 13.6498 1435 83.4404 1360.7 473.383
2048 0 108.219 13.907 1505 83.6179 1360.64 472.629
2049 0 112.132 13.7248 1539 84.3158 1360.82 471.551
2050 0 114.132 14.0977 1609 85.803 1360.34 470.654
2051 0 116.174 12.8083 1488 89.9362 1360.59 470.454
2052 0 119.093 13.057 1555 91.3125 1360.87 467.584
2053 0 122.211 13.3949 1637 90.0605 1361.16 464.858
2054 0 126.198 13.36 1686 91.188 1361.1 463.584
2055 0 129.153 12.9227 1669 93.4398 1361.71 460.508
2056 0 134.238 13.2302 1776 92.1655 1361.56 459.391
2057 0 138.178 12.4839 1725 94.1942 1361.56 456.467
2058 0 142.184 12.8777 1831 94.9093 1360.73 452.496
2059 0 148.144 13.5409 2006 93.6027 1360.35 449.156
2060 0 150.196 12.6834 1905 96.5795 1360.56 446.585
2061 0 156.106 12.7413 1989 96.7939 1360.89 443.615
2062 0 161.128 13.2752 2139 95.9098 1360.82 439.445
2063 0 168.19 13.6571 2297 95.1019 1360.85 438.344
2064 0 173.177 13.5642 2349 95.4968 1361.05 430.654
2065 0 177.253 13.0774 2318 97.138 1361.16 434.373
2066 0 182.208 12.5845 2293 97.9337 1361.62 433.27
2067 0 186.174 12.3809 2305 98.6126 1361.2 425.812
2068 0 194.245 12.3246 2394 96.4415 1361.45 420.502
2069 0 202.2 12.8784 2604 96.6056 1361.53 418.43
2070 0 212.321 12.8249 2723 99.7473 1361.32 419.239
2071 0 221.354 13.1915 2920 95.9596 1361.19 413.223
2072 0 228.427 12.5948 2877 98.0765 1360.63 411.728
2073 0 236.304 13.2456 3130 95.6965 1360.71 406.884
2074 1 179.35 12.2052 2189 97.6935 1360.1 433.439
2075 0 187.311 12.6581 2371 96.5496 1360.57 429.866
2076 0 191.383 13.0158 2491 95.7487 1360.6 428.22
2077 0 200.387 13.0946 2624 95.5389 1360.44 424.072
2078 0 205.304 12.7469 2617 96.9969 1360.27 420.764
2079 0 211.541 12.5649 2658 98.8134 1360.64 415.91
2080 0 220.556 12.2418 2700 99.7785 1360.06 410.353
2081 0 227.394 12.5245 2848 99.0874 1360.22 408.923
2082 0 235.429 12.9678 3053 99.4651 1359.83 404.842
2083 0 235.421 13.0022 3061 151.464 1358.83 404.932
2084 1 61.1325 10.7308 656 87.718 1360.44 496.503
2085 0 63.1284 11.1202 702 86.6667 1360.59 496.295
2086 0 65.0952 11.5677 753 88.4183 1361.6 495.456
2087 0 68.1106 11.4373 779 89.9037 1361.64 493.877
2088 0 69.119 11.5164 796 90.74 1361.39 493.688
2089 0 67.1024 11.013 739 89.6035 1361.07 495.693
2090 0 70.0483 11.5206 807 88.0273 1360.79 492.411
2091 0 70.066 11.061 775 90.2736 1360.61 492.876
2092 0 74.1435 11.154 827 89.9855 1360.21 489.632
2093 0 81.0677 13.5936 1102 78.245 1360.26 483.104
2094 0 78.1448 10.7877 843 90.5196 1361.52 488.407
2095 0 80.1564 11.0534 886 90.7935 1361.28 485.102
2096 0 83.0726 11.5923 963 89.4174 1361.09 483.143
2097 0 87.123 11.8912 1036 89.0714 1362.4 480.818
2098 1 49.0193 10.5877 519 86.9827 1362.79 500.844
2099 0 49.033 11.9715 587 84.6916 1361.47 500.952
2100 0 51.0967 11.9773 612 76.9542 1362.75 497.946
2101 0 52.0854 11.2891 588 78.8078 1362.63 497.98
2102 0 54.0284 10.8832 588 79.2942 1361.99 498.206
2103 0 56.0279 11.9405 669 77.0912 1362.98 497.577
2104 0 58.0299 11.8904 690 77.3797 1362.57 495.851
2105 0 61.1286 12.9236 790 75.657 1360.9 495.01
2106 0 62.1487 12.0517 749 77.2537 1360.94 492.569
2107 0 62.1228 12.6685 787 76.8132 1360.74 493.263
2108 0 65.0941 11.9673 779 77.543 1361.28 491.834
2109 0 66.1248 11.8715 785 78.0955 1360.81 490.888
2110 0 68.0865 12.4107 845 76.6923 1362.18 491.912
2111 0 69.0499 11.8031 815 78.3656 1361.67 490.044
2112 0 70.0802 11.7437 823 78.8019 1361.91 488.853
2113 0 72.0722 12.0712 870 78.8931 1361.87 486.309
2114 0 73.0908 11.6978 855 79.7053 1361.55 490.109
2115 0 74.0564 11.2482 833 80.7155 1361.3 487.959
2116 0 76.0674 11.7002 890 79.7831 1361.43 486.763
2117 0 79.1293 11.0073 871 79.8898 1361.39 485.775
2118 0 82.0812 11.2571 924 78.7284 1361.82 484.938
2119 0 82.0661 10.589 869 79.5765 1361.58 483.036
2120 0 88.1037 10.8849 959 79.4067 1361.46 480.397
2121 1 46.0356 10.3833 478 77.4372 1361.69 501.414
2122 0 50.0203 11.1955 560 76.0018 1361.22 502.127
2123 0 50.0547 10.8481 543 75.0221 1361.13 500.227
2124 0 51.0508 10.7148 547 74.3583 1362.03 499.481
2125 0 53.0226 12.0703 640 72.2766 1361.19 498.597
2126 0 53.0512 11.5926 615 75.6715 1360.52 498.338
2127 0 54.0287 11.4014 616 76.8409 1361.81 497.933
2128 0 57.0534 11.9537 682 76.0938 1362.06 497.321
2129 0 59.0594 12.1403 717 75.94 1361.54 495.026
2130 0 60.048 12.0903 726 76.0785 1362.06 494.496
2131 0 61.1209 12.2217 747 76.0442 1361.8 493.43
2132 0 65.066 12.5104 814 74.715 1361.38 493.149
2133 0 64.1884 12.1206 778 76.9203 1361.22 494.005
2134 0 66.046 13.3543 882 75.1202 1361.6 493.715
2135 0 68.0692 12.8399 874 76.738 1362.09 492.793
2136 0 69.066 13.2192 913 76.9069 1361.28 492.246
2137 0 72.2267 13.07 944 76.4417 1361.67 490.794
2138 0 72.1546 13.4849 973 76.7595 1361.22 491.314
2139 0 75.1696 13.6491 1026 76.4133 1361.58 488.202
2140 0 77.0934 13.1269 1012 77.585 1361.79 487.963
2141 0 76.1164 12.8487 978 79.3303 1361.72 486.957
2142 0 81.1593 13.9356 1131 77.4076 1360.48 485.166
2143 0 83.1495 13.59 1130 78.008 1361.21 485.267
2144 0 84.1138 13.8384 1164 79.0954 1361.31 484.061
2145 0 88.1437 13.8184 1218 78.2988 1361.33 480.685
2146 0 90.0928 13.5971 1225 78.4604 1361.28 479.569
2147 0 92.1484 13.8798 1279 80.4949 1361.58 479.02
2148 0 97.1353 13.7231 1333 81.4629 1362.48 477.073
2149 0 98.0733 13.1024 1285 84.0693 1362.04 475.98
2150 0 102.121 13.4938 1378 84.3498 1361.93 474.083
2151 0 104.18 11.96 1246 91.2279 1362 473.49
2152 0 108.333 13.117 1421 89.0739 1362.68 474.794
2153 0 110.259 12.5795 1387 89.9012 1362.02 471.283
2154 1 56.1328 10.9562 615 84.3659 1362.17 498.008
2155 0 59.0954 11.2868 667 82.4228 1360.52 497.415
2156 0 60.094 10.9329 657 83.7915 1361.69 497.046
2157 0 64.0617 12.0041 769 80.6645 1361.91 495.58
2158 0 64.096 11.3892 730 82.1658 1361.19 495.429
2159 0 66.1116 11.8436 783 81.5211 1362.17 495.102
2160 0 69.0377 12.6887 876 80.5217 1363.38 491.822
2161 0 70.0755 12.087 847 81.7226 1362.98 490.589
2162 0 71.0293 12.7694 907 80.57 1361.78 488.356
2163 0 71.028 11.3476 806 85.3933 1363.58 489.416
2164 0 76.0302 12.5082 951 83.6961 1363.07 487.744
2165 0 77.1418 12.5094 965 85.3005 1363.6 486.12
2166 0 79.0633 12.2054 965 86.3523 1363.51 485.734
2167 0 83.077 12.5787 1045 85.7627 1363.44 483.917
2168 0 86.0312 13.0418 1122 86.1364 1363.44 482.094
2169 0 86.0304 12.7164 1094 87.4826 1362.77 482.506
2170 0 90.0537 13.2699 1195 86.5464 1363.51 480.048
2171 0 93.0503 12.6168 1174 88.9054 1363.08 479.726
2172 0 96.0698 13.1571 1264 88.4399 1362.88 477.271
2173 0 98.139 13.0835 1284 89.7484 1362.86 475.826
2174 0 101.054 13.1612 1330 89.7639 1363.12 474.016
2175 0 102.106 12.8592 1313 92.118 1363.18 475.633
2176 0 107.107 13.3418 1429 91.8509 1363.07 471.813
2177 0 112.1 13.4523 1508 90.3674 1363.22 468.373
2178 0 115.135 13.6796 1575 91.8171 1363.37 468.169
2179 0 118.113 13.9019 1642 91.6376 1363.23 467.365
2180 0 123.215 13.9107 1714 91.6412 1363.62 464.952
2181 0 127.135 13.9694 1776 91.4414 1363.3 460.89
2182 1 47.117 10.9515 516 91.3043 1363.86 501.136
2183 0 48.1047 10.8098 520 87.5442 1363.42 498.583
2184 0 50.1355 12.4662 625 84.5616 1363.62 498.978
2185 0 52.0402 11.9139 620 81.4548 1363.2 501.182
2186 0 52.0365 12.1261 631 83.6894 1362.98 501.388
2187 0 53.1087 11.806 627 85.1499 1363.22 499.746
2188 0 57.0653 11.9863 684 84.0102 1363.32 499
2189 0 57.0595 11.8823 678 85.1254 1362.82 500.223
2190 0 59.0677 11.6984 691 86.11 1363.22 498.754
2191 0 58.0707 11.331 658 88.8556 1363.28 497.378
2192 0 61.0236 12.487 762 87.0158 1363.09 496.955
2193 0 63.0361 12.2152 770 88.4013 1363.3 496.481
2194 0 64.0271 12.0105 769 89.8726 1363.25 495.179
2195 0 66.0473 12.1882 805 89.8422 1363.67 495.955
2196 0 68.041 12.6541 861 90.0453 1363.93 495.445
2197 0 70.1793 12.5678 882 92.271 1363.58 492.426
2198 0 74.1788 12.9147 958 91.1221 1363.29 490.562
2199 0 75.1912 12.1291 912 92.7215 1363.26 488.545
2200 0 78.1853 12.0227 940 91.7255 1362.93 488.961
2201 0 82.1589 13.5956 1117 88.9105 1363.04 486.526
2202 0 82.1589 13.5956 1117 151.902 1363.05 486.614
2203 0 84.1823 13.4114 1129 93.5766 1362.45 484.702
2204 0 89.1804 13.3549 1191 95.0814 1362.37 482.826
2205 0 91.2012 14.1117 1287 97.0785 1363.15 478.777
2206 0 95.1457 13.2008 1256 98.5191 1362.84 479.07
2207 0 97.2977 13.6386 1327 95.2524 1362.97 478.916
2208 1 56.0654 12.093 678 96.5693 1363.43 499.689
2209 0 57.0434 12.1486 693 96.1284 1362.97 498.374
2210 0 57.1176 12.7807 730 94.2507 1362.89 499.641
2211 0 58.1004 12.3235 716 96.8841 1363.05 497.737
2212 0 62.1018 13.0753 812 93.1823 1361.91 497.675
2213 0 61.0264 13.1419 802 92.7145 1362 498.951
2214 0 63.0462 13.0063 820 93.6207 1362.63 497.748
2215 0 65.0379 13.4691 876 92.0719 1362.55 495.814
2216 0 65.0809 12.9685 844 93.218 1362.43 495.511
2217 0 69.0502 13.2223 913 91.4502 1362.5 492.802
2218 0 69.0381 12.2976 849 94.245 1362.7 493.522
2219 0 71.0448 12.105 860 93.386 1362.42 490.366
2220 0 74.0658 12.0028 889 92.8864 1362.91 488.458
2221 0 76.0374 12.6911 965 91.7316 1362.48 487.689
2222 0 77.0258 11.5416 889 94.7717 1363.15 488.029
2223 0 82.0507 12.3095 1010 92.6871 1362.99 487.146
2224 0 83.073 12.9886 1079 92.9472 1363.3 484.734
2225 0 88.0828 12.6472 1114 92.342 1362.49 484.355
2226 0 90.0486 12.6043 1135 93.9145 1362.41 480.881
2227 0 92.2251 12.2526 1130 95.1761 1361.87 476.239
2228 1 51.0606 11.9466 610 95.7934 1361.8 495.164
2229 0 52.1065 11.5149 600 98.4233 1361.65 494.835
2230 0 54.1111 12.2156 661 95.3495 1362.07 495.487
2231 0 56.0315 13.0998 734 92.0926 1362.08 496.388
2232 0 55.0413 12.8631 708 93.928 1362.32 497.353
2233 0 57.0274 13.0113 742 93.3666 1361.79 496.093
2234 0 62.0293 13.5581 841 88.9988 1361.41 497.043
2235 0 62.118 13.7158 852 88.777 1361.53 495.952
2236 0 65.0329 13.2856 864 90.7604 1361.1 494.987
2237 0 66.0409 13.5371 894 90.6107 1361.33 493.281
2238 0 66.0409 13.5674 896 143.202 1362.33 493.272
2239 0 67.1491 12.8818 865 95.7503 1361.29 490.287
2240 0 70.0891 13.7967 967 93.8976 1360.69 490.511
2241 0 74.1302 13.3279 988 96.337 1361.33 484.977
2242 0 75.1259 13.3243 1001 97.3856 1361.63 483.937
2243 0 79.1754 14.0953 1116 94.7563 1361.48 483.921
2244 0 80.0911 12.7854 1024 98.8604 1361.04 481.738
2245 0 83.103 12.9839 1079 98.165 1360.3 481.221
2246 0 85.1323 13.5084 1150 97.7817 1360.87 479.697
2247 0 87.1009 13.9608 1216 97.7969 1360.36 478.673
2248 0 90.1286 13.7914 1243 98.2695 1361.16 476.318
2249 0 92.088 12.8898 1187 100.179 1360.74 477.035
2250 0 93.1696 12.708 1184 101.786 1361.59 476.486
2251 0 98.1599 13.9466 1369 98.7078 1361.05 472.855
2252 0 102.201 12.8962 1318 100.457 1361.12 471.154
2253 0 107.137 12.5354 1343 101.144 1361.22 471.465
2254 1 58.1098 11.8052 686 93.0175 1361.79 497.143
2255 0 62.0575 12.7946 794 93.4899 1362.1 497.015
2256 0 64.1033 12.6203 809 97.89 1361.68 498.927
2257 0 66.0326 13.6902 904 95.2489 1362.09 498.588
2258 0 68.0288 13.0386 887 97.9391 1362 496.373
2259 0 69.0631 12.6841 876 98.8756 1361.36 495.138
2260 0 69.0716 12.6535 874 148.882 1361.36 495.061
2261 0 74.0646 13.5692 1005 95.4577 1361.14 492.717
2262 0 79.0656 13.2548 1048 94.3845 1361.23 491.139
2263 0 82.0407 13.3592 1096 93.3768 1361.65 491.181
2264 0 84.0624 13.7636 1157 92.4062 1361.9 489.958
2265 0 87.0304 13.8917 1209 93.1712 1361.64 487.93
2266 0 88.0933 13.849 1220 93.7459 1361.79 486.497
2267 0 90.0689 14.0115 1262 94.2409 1361.76 484.405
2268 0 94.1007 14.1019 1327 93.4883 1362 484.269
2269 0 95.1144 13.1736 1253 96.5092 1362.13 481.876
2270 0 98.0732 13.4084 1315 95.4996 1362.54 481.891
2271 0 102.095 13.2915 1357 96.7996 1361.87 479.433
2272 0 106.118 13.3248 1414 96.5728 1361.83 477.078
2273 0 107.093 13.0914 1402 97.4815 1361.65 475.462
2274 0 111.166 13.4843 1499 96.3556 1362.01 474.523
2275 0 114.269 13.617 1556 97.1896 1361.92 470.099
2276 0 118.196 14.256 1685 95.9858 1361.7 468.688
2277 0 121.15 13.9331 1688 97.481 1361.67 467.83
2278 0 124.236 14.0458 1745 98.0453 1361.77 465.429
2279 0 131.184 13.7745 1807 98.326 1362.26 463.807
2280 0 134.226 14.0733 1889 99.315 1362.4 460.641
2281 0 138.193 14.4146 1992 99.7359 1361.89 457.736
2282 0 140.167 13.7265 1924 102.532 1362.3 457.569
2283 0 146.169 14.0796 2058 102.281 1362.43 456.179
2284 0 149.277 14.2754 2131 102.918 1362.26 451.29
2285 0 154.166 14.3482 2212 103.934 1362.57 451.52
2286 0 159.225 14.7402 2347 104.388 1361.72 448.801
2287 0 163.252 15.1361 2471 105.589 1361.72 446.323
2288 0 168.185 15.1024 2540 106.404 1361.6 443.345
2289 0 171.332 14.7725 2531 108.75 1361.14 439.079
2290 0 177.257 14.95 2650 108.35 1361.35 437.608
2291 0 182.252 14.9738 2729 108.052 1361.17 434.806
2292 0 190.356 14.9299 2842 107.146 1360.72 431.685
2293 0 194.204 14.7371 2862 108.299 1360.71 428.896
2294 0 203.228 14.8995 3028 107.12 1360.99 425.848
2295 0 208.179 15.3186 3189 105.861 1361.31 420.187
2296 0 215.186 14.9824 3224 106.452 1361.7 417.54
2297 0 215.196 14.991 3226 161.988 1362.7 417.723
2298 0 214.148 11.7162 2509 114.366 1361.27 421.48
2299 1 48.0212 10.3912 499 89.4669 1361.33 504.026
2300 0 46.0265 10.1898 469 90.7313 1360.47 501.292
2301 0 52.0706 10.8699 566 90.7208 1361.9 503.177
2302 0 51.0228 11.3479 579 81.6908 1361.12 505.154
2303 0 52.0692 10.6397 554 83.5054 1361.84 503.872
2304 0 53.0299 10.7109 568 84.0211 1362.2 504.685
2305 0 55.0461 10.9545 603 83.2819 1361.55 503.871
2306 0 59.0183 11.5896 684 82.1491 1361.07 500.852
2307 0 60.0366 11.0599 664 83.8042 1361.19 499.988
2308 0 64.0309 10.698 685 82.5825 1362.05 501.914
2309 0 65.0444 10.7004 696 83.9037 1362.02 499.371
2310 0 66.0867 10.5619 698 84.1547 1362.23 499.88
2311 0 69.0271 10.6045 732 84.8497 1361.56 496.374
2312 0 71.031 10.2772 730 83.8562 1361.35 496.241
2313 0 74.0434 10.6829 791 82.8281 1360.79 493.92
2314 1 44.0277 10.0618 443 81.4266 1360.23 508.415
2315 0 45.0872 10.4908 473 79.7569 1361.43 507.704
2316 0 47.0323 11.3114 532 77.391 1360.83 507.825
2317 0 46.0745 9.35442 431 81.9374 1361.71 507.118
2318 0 48.0911 10.0434 483 80.3768 1361.47 507.851
2319 0 47.0672 9.43332 444 82.0338 1361.68 506.784
2320 0 50.0986 10.3995 521 79.3186 1361.3 505.812
2321 0 51.0304 10.386 530 79.6887 1361.33 503.942
2322 0 52.0481 9.6065 500 79.816 1361.7 502.628
2323 0 52.039 9.53131 496 80.871 1360.96 501.266
2324 0 56.0185 9.60398 538 80.2974 1361.84 500.773
2325 0 56.0724 10.2724 576 80.5712 1361.09 499.984
2326 0 56.067 10.0772 565 81.9912 1361.94 498.545
2327 0 59.0376 9.57018 565 82.8885 1362.31 497.981
2328 0 62.0541 10.9098 677 81.4874 1362.09 494.999
2329 0 62.0753 10.3745 644 81.1491 1362.02 495.402
2330 0 64.055 9.80408 628 81.7166 1361.76 494.099
2331 0 65.0437 10.3161 671 81.1371 1362.36 489.872
2332 0 69.1248 10.7921 746 79.1314 1361.48 489.704
2333 0 72.182 10.5012 758 80.4433 1361.46 485.569
2334 0 73.1102 10.026 733 80.8008 1361.35 487.892
2335 0 77.1327 11.3441 875 79.3657 1362.02 486.281
2336 0 80.0614 11.5037 921 78.4951 1362.96 488.207
2337 0 83.0643 11.6897 971 78.448 1362.81 485.273
2338 0 86.1719 11.0709 954 79.7998 1362.88 484.233
2339 0 88.0795 11.7621 1036 79.4247 1362.62 484.602
2340 0 92.1134 11.4099 1051 79.9924 1363.51 483.898
2341 0 93.0535 11.8426 1102 80.5535 1363.51 482.152
2342 0 97.0879 11.2578 1093 82.3705 1363.07 479.557
2343 0 100.076 11.6012 1161 81.994 1362.5 478.041
2344 0 106.141 12.182 1293 80.7672 1362.35 475.928
2345 0 108.078 11.2696 1218 83.4384 1362.87 475.802
2346 1 62.0384 11.5412 716 79.0349 1362.43 499.321
2347 0 63.0661 11.1787 705 80.9589 1362.03 497.989
2348 0 66.0808 12.288 812 78.5899 1361.33 495.85
2349 0 68.1357 12.0495 821 84.9769 1362.03 497.861
2350 0 71.1266 11.9365 849 84.9093 1361.1 496.368
2351 0 73.0684 12.2899 898 84.3786 1361.26 494.836
2352 0 73.0921 12.0259 879 84.7054 1360.86 494.41
2353 0 78.1294 12.2873 960 83.1583 1360.85 493.716
2354 0 77.097 12.3481 952 83.9979 1360.03 492.077
2355 0 78.0989 12.5354 979 83.5495 1361.21 492.824
2356 0 83.0968 12.1545 1010 83.5366 1360.89 490.796
2357 0 86.1269 12.7602 1099 81.1501 1360.78 490.581
2358 0 88.1146 12.5632 1107 81.5745 1360.58 490.027
2359 0 91.0444 12.763 1162 80.9363 1360.17 488.414
2360 0 94.0884 12.3395 1161 80.7761 1359.94 488.32
2361 0 93.0242 10.5026 977 80.6479 1359.54 485.942
2362 0 95.0507 11.3624 1080 79.837 1358.79 481.942
2363 0 99.0614 11.8008 1169 78.053 1358.5 482.041
2364 0 103.041 12.0438 1241 77.9267 1358.65 480.318
2365 0 107.087 12.1583 1302 77.3134 1358.87 479.349
2366 1 58.1108 11.0995 645 70.786 1358.67 506.971
2367 0 59.1417 12.0389 712 70.6461 1358.15 504.819
2368 0 63.078 12.8412 810 69.7679 1358.23 503.268
2369 0 64.1004 12.028 771 71.3606 1359.79 502.307
2370 0 67.1555 11.585 778 72.41 1358.87 499.681
2371 0 69.1117 12.0674 834 72.5875 1358.92 498.697
2372 0 71.0867 12.4637 886 72.6704 1359.46 497.053
2373 0 73.0446 12.0611 881 73.7083 1358.9 497.17
2374 0 76.0743 12.1066 921 74.9381 1358.58 493.535
2375 0 77.1005 11.8676 915 77.341 1358.23 493.011
2376 0 80.0763 12.4506 997 77.0181 1358.79 493.78
2377 0 83.0954 12.9008 1072 77.027 1358.37 491.323
2378 0 85.125 12.746 1085 78.3373 1359.21 488.813
2379 0 89.115 12.6802 1130 78.6779 1359.26 488.73
2380 0 88.091 12.646 1114 80.1804 1359.3 487.965
2381 0 91.0873 12.6362 1151 81.3553 1359.56 486.679
2382 0 93.0944 11.5152 1072 84.542 1359.86 481.815
2383 0 97.1016 11.7506 1141 83.2822 1359.46 481.912
2384 0 101.139 11.9341 1207 83.2179 1359.88 479.308
2385 0 103.187 11.8717 1225 85.2139 1359.42 480.023
2386 0 105.101 11.9694 1258 86.3227 1359.43 478.82
2387 0 109.222 11.8933 1299 86.3364 1359.51 475.592
2388 0 112.101 12.0428 1350 85.0511 1359 472.652
2389 1 64.0733 11.0811 710 78.993 1358.99 499.242
2390 0 65.1288 11.4849 748 78.4906 1359.05 498.79
2391 0 66.1379 11.1736 739 78.2666 1360.27 496.501
2392 0 68.0893 11.2059 763 75.709 1359.41 494.541
2393 0 72.1885 12.6336 912 76.9243 1359.76 494.361
2394 0 74.1563 12.7029 942 76.6879 1359.64 491.329
2395 0 77.1464 12.5994 972 76.5268 1359.84 490.317
2396 0 82.0804 12.4756 1024 86.1113 1359.79 488.248
2397 0 83.0638 12.5085 1039 87.8046 1360 485.238
2398 0 87.0669 13.013 1133 86.9965 1359.62 484.152
2399 0 88.0916 12.1464 1070 89.9495 1360.12 483.35
2400 0 91.0943 12.4377 1133 89.5525 1360.41 482.651
2401 0 94.1321 12.5462 1181 90.9094 1360.14 481.005
2402 0 96.1027 12.4554 1197 91.7962 1360.27 479.528
2403 0 100.099 12.4876 1250 92.06 1360.22 479.426
2404 0 101.09 13.0478 1319 92.4579 1361.22 478.419
2405 0 103.108 12.356 1274 96.1075 1361.46 476.677
2406 0 108.099 13.4506 1454 95.4457 1361.94 475.133
2407 0 111.095 12.7278 1414 97.5198 1361.7 474.55
2408 0 115.147 13.2613 1527 96.8179 1361.55 473.355
2409 0 117.225 13.2565 1554 98.1564 1362.03 472.019
2410 0 120.14 12.8351 1542 99.7892 1362.18 469.628
2411 0 123.125 13.4173 1652 99.3735 1361.95 469.647
2412 0 129.053 13.8702 1790 98.667 1361.28 466.91
2413 0 133.284 13.5875 1811 99.7924 1361.25 465.028
2414 0 138.147 14.4194 1992 98.1697 1362.33 463.879
2415 1 75.0195 12.2635 920 92.263 1362.69 494.392
2416 0 76.0343 12.2708 933 85.373 1361.91 491.86
2417 0 79.1339 11.8281 936 84.8066 1361.62 490.016
2418 0 81.0448 12.2278 991 84.1201 1361.88 486.998
2419 0 85.0446 12.5934 1071 84.0327 1362 487.195
2420 0 88.082 12.8517 1132 84.477 1362.25 484.331
2421 0 89.0387 13.3313 1187 85.5712 1361.96 482.885
2422 0 91.1014 12.9855 1183 87.9594 1362.05 481.354
2423 0 96.0723 13.0527 1254 88.2727 1361.94 480.384
2424 0 98.0724 12.8579 1261 89.8929 1362.36 478.371
2425 0 100.114 12.6456 1266 92.128 1362.92 476.986
2426 0 106.112 14.1078 1497 95.2619 1362.8 474.315
2427 0 109.079 13.9073 1517 97.1562 1362.55 472.947
2428 0 113.154 13.3358 1509 97.6634 1361.7 472.687
2429 0 113.094 13.3605 1511 99.3891 1361.75 468.422
2430 1 59.0449 11.0933 655 97.2015 1362.48 502.805
2431 0 63.0374 11.8501 747 95.9478 1362.51 500.412
2432 0 65.0776 12.3545 804 97.4502 1362.14 499.19
2433 0 70.1434 13.5009 947 99.8955 1361.81 494.334
2434 0 71.0429 12.8514 913 91.4502 1361.73 498.311
2435 0 72.0352 13.0908 943 92.649 1362.23 496.729
2436 0 74.05 12.8832 954 94.6604 1361.95 495.911
2437 0 77.039 12.5651 968 96.7903 1362.3 494.184
2438 0 78.0327 12.4051 968 96.5744 1361.9 491.005
2439 0 81.0833 12.222 991 97.5701 1362 490.993
2440 0 82.0753 12.3667 1015 101.989 1362 489.247
2441 0 86.0622 12.3748 1065 102.522 1362.16 488.243
2442 0 88.0278 11.8031 1039 104.032 1361.34 486.808
2443 0 91.0815 11.6379 1060 105.044 1361.79 485.441
2444 0 94.0571 12.5881 1184 104.268 1361.86 485.777
2445 0 97.0631 12.3528 1199 107.346 1361.6 485.412
2446 0 101.074 12.6738 1281 104.974 1361.7 484.438
2447 0 102.153 12.4911 1276 106.427 1361.16 482.24
2448 0 106.089 12.9042 1369 104.229 1361.73 481.074
2449 0 110.126 13.5209 1489 103.308 1361.86 478.423
2450 0 111.237 12.8375 1428 105.323 1361.6 477.074
2451 0 114.23 12.6761 1448 105.027 1362.22 474.932
2452 0 120.147 13.367 1606 102.182 1362.24 473.87
2453 0 123.24 12.577 1550 103.917 1362.03 468.439
2454 0 127.194 13.0981 1666 102.32 1361.92 466.728
2455 0 129.164 13.1229 1695 101.741 1361.8 466.895
2456 0 135.213 13.2236 1788 100.15 1361.41 466.694
2457 0 139.261 12.8608 1791 101.357 1362.09 461.748
2458 0 143.128 13.1281 1879 101.516 1361.26 460.181
2459 0 149.258 13.9155 2077 98.2638 1362.11 460.715
2460 0 151.165 13.1843 1993 101.974 1362.35 455.256
2461 0 157.184 13.99 2199 100.189 1361.71 452.802
2462 0 162.111 13.4908 2187 101.073 1361.8 451.822
2463 0 165.17 13.253 2189 102.521 1362.68 447
2464 0 170.21 13.9416 2373 100.54 1362.59 445.724
2465 0 175.177 14.414 2525 99.1921 1362.2 444.253
2466 0 178.157 13.7743 2454 101.07 1362.31 442.951
2467 0 184.126 13.5396 2493 100.822 1362.39 439.343
2468 0 188.196 13.81 2599 100.073 1362.26 433.524
2469 0 195.303 14.2343 2780 98.0781 1362.19 434.019
2470 0 200.253 14.0173 2807 98.4154 1361.87 431.451
2471 0 206.259 13.8321 2853 98.1455 1361.95 429.641
2472 0 214.258 14.1558 3033 97.8203 1362.15 423.047
2473 0 220.392 13.535 2983 99.2736 1361.56 418.299
2474 1 167.223 11.9541 1999 98.4807 1361.19 447.408
2475 0 173.36 13.2441 2296 96.3358 1360.79 443.194
2476 0 180.276 13.1465 2370 97.8654 1361.6 439.801
2477 0 186.309 13.2468 2468 97.6925 1362 436.329
2478 0 194.323 13.7657 2675 98.148 1361.3 430.043
2479 0 200.382 13.6639 2738 97.9814 1361.11 426.392
2480 1 49.229 10.3801 511 84.0235 1361.96 504.456
2481 0 50.1889 10.8391 544 82.0662 1361.58 503.566
2482 0 53.224 10.6343 566 83.9276 1361.26 501.339
2483 0 52.1981 11.2456 587 79.569 1361.5 500.293
2484 0 56.1587 12.4825 701 80.2268 1361.55 501.409
2485 0 58.0446 11.5084 668 84.2066 1361.93 503.295
2486 0 59.0488 11.4651 677 85.0931 1361.86 501.131
2487 0 62.0962 12.0297 747 82.6894 1361.47 500.281
2488 0 65.0512 12.7284 828 83.1944 1362.41 496.261
2489 0 66.0806 12.1972 806 84.2159 1362.31 500.618
2490 0 69.0404 12.2247 844 84.045 1362.22 498.607
2491 0 65.1059 10.7517 700 78.1029 1362.07 501.197
2492 0 68.1453 11.5048 784 77.3418 1361.96 501.71
2493 0 72.1204 12.5069 902 75.5643 1361.35 497.506
2494 0 73.079 11.6312 850 78.1247 1361.7 499.255
2495 0 76.1008 11.4454 871 78.8266 1361.81 497.999
2496 0 76.0248 11.6673 887 78.982 1361.66 498.576
2497 0 77.0554 11.2646 868 80.1521 1361.41 496.433
2498 0 82.2143 11.5917 953 79.1007 1361.54 494.786
2499 0 83.1052 11.9607 994 80.668 1361.37 492.235
2500 0 87.0371 11.0872 965 82.1026 1361.15 492.516
2501 0 89.1006 11.8967 1060 81.7179 1361.11 489.18
2502 0 93.1126 12.3721 1152 80.9115 1361.06 487.343
2503 0 94.12 11.4641 1079 83.6348 1361.42 487.104
2504 0 97.128 11.9636 1162 82.6885 1361.02 484.845
2505 0 99.1391 11.2065 1111 84.0648 1360.68 484.89
2506 0 106.146 12.4357 1320 81.4439 1360.91 480.468
2507 0 107.128 11.8456 1269 83.4799 1360.86 479.497
2508 0 109.238 11.6534 1273 84.3252 1361.61 479.078
2509 0 114.171 11.8069 1348 84.3539 1361.8 478.677
2510 0 116.111 11.3684 1320 82.8083 1361.33 475.841
2511 0 121.088 12.5859 1524 86.9232 1360.94 473.218
2512 1 68.2527 11.6772 797 86.3601 1360.71 495.944
2513 0 70.2027 12.4069 871 82.1802 1361.67 494.783
2514 0 71.2094 12.7792 910 83.9264 1360.8 494.535
2515 0 72.0989 12.0113 866 84.8857 1361.25 497.038
2516 0 75.0893 12.5584 943 84.6278 1361.65 495.714
2517 0 78.086 12.9088 1008 85.5694 1361.36 493.52
2518 0 80.1035 13.3577 1070 87.4841 1360.96 490.626
2519 0 83.102 13.5256 1124 90.7313 1361.1 489.553
2520 0 85.1054 13.6889 1165 91.3279 1360.76 487.782
2521 0 90.1207 13.5707 1223 91.529 1360.56 485.54
2522 0 90.1569 13.299 1199 92.769 1360.77 482.051
2523 0 93.157 13.1069 1221 93.4087 1360.83 479.176
2524 0 95.1706 12.9662 1234 94.231 1360.87 477.411
2525 0 99.1452 13.334 1322 93.3661 1360.37 475.913
2526 0 104.107 13.5438 1410 92.3574 1359.92 473.867
2527 0 104.209 13.684 1426 93.5021 1361.23 471.229
2528 0 109.188 13.3439 1457 92.9417 1360.82 470.386
2529 1 60.0906 11.7323 705 92.3319 1360.79 495.586
2530 0 60.0744 11.1362 669 94.8819 1360.62 493.568
2531 0 64.1956 12.8825 827 92.503 1360.34 493.183
2532 0 65.0303 13.0862 851 92.0376 1360.71 494.509
2533 0 67.0417 13.3201 893 92.3639 1360.62 493.707
2534 0 72.0678 11.9887 864 93.3056 1360.3 492.973
2535 0 71.0294 13.1917 937 91.7599 1360.71 491.515
2536 0 71.0569 12.7926 909 94 1360.44 491.185
2537 0 76.0576 13.3583 1016 92.1614 1360.88 488.262
2538 0 79.0456 13.0305 1030 92.2466 1361.73 486.779
2539 0 83.1113 13.1149 1090 92.5789 1360.78 485.94
2540 0 84.056 13.8241 1162 91.9312 1361.03 484.089
2541 0 88.078 14.1466 1246 90.9029 1360.75 484.79
2542 0 91.1106 14.3562 1308 91.6246 1361.14 483.073
2543 0 91.0801 14.0975 1284 94.2827 1360.87 482.989
2544 0 95.0576 14.4439 1373 93.512 1360.25 479.484
2545 0 97.098 14.5832 1416 94.5318 1360.48 479.305
2546 0 100.124 13.9527 1397 95.083 1360.83 479.107
2547 0 104.093 14.4582 1505 93.7874 1361.07 476.419
2548 0 105.217 14.0472 1478 96.226 1360.84 474.42
2549 0 110.222 14.0262 1546 96.5841 1359.52 469.555
2550 0 116.282 13.8886 1615 96.6563 1360.13 465.7
2551 0 118.262 14.3241 1694 95.9085 1360.06 463.717
2552 0 122.235 13.8258 1690 96.2686 1360.88 460.353
2553 0 126.301 13.3808 1690 97.7917 1362.12 458.101
2554 1 69.2139 10.5181 728 95.5261 1362.08 489.201
2555 0 72.2768 12.2446 885 93.0079 1362.59 486.746
2556 0 75.0938 12.531 941 93.3879 1362.49 487.775
2557 0 77.0496 11.9274 919 90.4592 1362.22 488.571
2558 0 79.0325 11.8053 933 92.0782 1362.56 485.466
2559 0 83.068 13.1699 1094 96.0174 1361.36 482.623
2560 0 85.0729 12.4481 1059 96.4731 1360.55 481.846
2561 0 88.0482 12.3796 1090 92.7523 1361.15 482.47
2562 0 92.0527 12.6992 1169 92.8469 1361.36 480.145
2563 0 93.0388 12.3927 1153 92.4016 1361.29 479.808
2564 0 97.0506 12.8078 1243 92.5511 1361.73 477.723
2565 0 100.079 13.1796 1319 97.7142 1361.3 471.468
2566 0 102.066 12.8152 1308 97.6636 1361.73 473.582
2567 0 106.096 13.205 1401 95.6938 1360.94 472.206
2568 0 110.047 13.6851 1506 95.0544 1361.34 469.768
2569 0 112.105 13.2821 1489 95.6038 1361.24 468.134
2570 0 118.048 13.5029 1594 95.468 1361.68 468.086
2571 0 119.127 13.5989 1620 98.2216 1362.03 465.267
2572 0 121.107 13.616 1649 101.477 1361.44 463.419
2573 0 127.055 13.3249 1693 100.288 1362.03 460.564
2574 0 130.148 13.2004 1718 98.4057 1361.87 458.476
2575 0 134.171 13.2294 1775 97.3386 1361.6 456.586
2576 0 138.162 12.8038 1769 98.7106 1361.36 453.791
2577 0 142.145 13.2611 1885 100.492 1361.7 450.496
2578 1 82.0705 11.1855 918 98.7342 1362.26 484.989
2579 0 83.0754 10.7613 894 94.877 1361.69 474.98
2580 0 85.0814 11.3773 968 92.5052 1362.06 475.222
2581 0 87.0312 11.1454 970 94.0732 1362.49 481.611
2582 0 89.1219 11.1196 991 93.662 1362.31 480.954
2583 0 93.0615 11.6804 1087 92.08 1363.04 479.692
2584 0 96.2323 11.2021 1078 93.0046 1362.68 478.283
2585 0 97.0348 11.5526 1121 93.0419 1362.94 478.335
2586 0 103.108 11.8904 1226 92.2545 1363.01 475.387
2587 0 105.065 12.0021 1261 91.5662 1362.83 474.823
2588 0 107.096 11.8958 1274 93.164 1363.26 472.429
2589 0 111.057 12.1469 1349 93.5567 1362.79 469.803
2590 0 114.045 11.3201 1291 94.7847 1363.22 469.335
2591 0 118.082 12.2965 1452 93.4435 1363.06 465.306
2592 0 121.088 12.4703 1510 94.4205 1362.69 462.146
2593 0 125.054 12.0108 1502 94.7443 1363.41 460.276
2594 0 129.081 12.4728 1610 93.8472 1363.43 457.591
2595 0 132.037 12.0724 1594 95.6136 1362.71 455.301
2596 0 136.115 11.7327 1597 95.588 1362.4 450.399
2597 1 73.0403 9.39208 686 91.8367 1362.7 485.961
2598 0 75.0555 10.0459 754 90.7135 1362.47 484.993
2599 0 77.0821 10.5602 814 91.387 1362.14 483.984
2600 0 78.0414 10.6098 828 95.7476 1361.17 480.665
2601 0 79.0822 10.8115 855 95.2421 1361.66 480.883
2602 0 79.0531 11.4101 902 104.096 1361.38 477.439
2603 0 80.0713 11.1401 892 107.402 1362.33 475.344
2604 0 84.1207 10.4017 875 98.5326 1361.93 480.034
2605 0 81.1563 9.6727 785 97.749 1361.55 471.219
2606 0 88.077 10.3546 912 99.8553 1361.81 474.675
2607 0 89.1014 10.0784 898 103.748 1362 475.928
2608 0 91.1037 11.0972 1011 103.073 1361.73 472.024
2609 0 90.0815 11.0455 995 103.065 1361.39 471.1
2610 0 94.0414 10.8676 1022 104.494 1361.61 467.632
2611 0 96.0751 10.6791 1026 104.439 1361.73 465.498
2612 0 99.1316 10.8543 1076 107.215 1361.42 464.762
2613 0 99.1095 11.4217 1132 107.312 1361.48 462.552
2614 0 104.078 11.6548 1213 109.232 1361.77 457.734
2615 0 104.098 11.614 1209 109.683 1361.77 458.107
2616 0 108.059 11.2068 1211 110.47 1361.47 455.942
2617 0 111.076 11.9648 1329 111.378 1361.96 453.572
2618 0 112.094 11.6331 1304 114.161 1362.24 451.886
2619 0 118.145 11.9091 1407 113.686 1362.09 449.176
2620 0 124.141 12.9127 1603 111.283 1362.73 444.488
2621 0 126.136 12.8037 1615 114.5 1362.44 444.455
2622 0 132.194 12.6027 1666 114.724 1362.34 443.313
2623 1 144.317 13.498 1948 111.552 1361.9 446.186
2624 0 147.154 13.7679 2026 111.885 1361.63 444.149
2625 0 153.224 14.084 2158 111.698 1361.41 440.721
2626 0 157.222 14.6481 2303 108.076 1361.6 438.186
2627 0 160.191 13.8834 2224 111.791 1361.84 435.721
2628 0 163.23 13.8761 2265 112.415 1361.84 433.501
2629 0 167.248 13.9553 2334 112.617 1362 434.21
2630 0 172.166 13.9749 2406 112.948 1362.03 429.652
2631 0 176.201 14.1543 2494 111.112 1362.31 427.039
2632 0 180.194 13.9238 2509 113.625 1362.29 423.111
2633 0 187.186 14.2585 2669 111.252 1362.44 420.879
2634 0 192.224 14.5299 2793 110.575 1362.92 418.267
2635 0 199.22 14.3158 2852 110.188 1362.2 413.88
2636 0 206.301 15.9185 3284 104.984 1362.08 407.703
2637 0 209.27 14.6605 3068 111.113 1362.64 407.096
2638 0 217.286 14.6719 3188 110.678 1362.09 404.618
2639 0 219.292 14.4921 3178 112.668 1362.33 399.451
2640 0 228.279 14.4297 3294 112.654 1362.28 397.396
2641 0 235.282 14.6207 3440 112.632 1361.94 391.584
2642 0 243.249 15.9507 3880 107.058 1361.97 387.401
2643 0 249.271 15.4571 3853 109.598 1362.13 381.857
2644 0 259.383 15.1899 3940 111.095 1362.21 379.703
2645 0 268.274 16.2334 4355 105.744 1361.95 373.02
2646 1 196.242 11.2565 2209 116.781 1361.45 415.43
2647 0 206.258 12.7268 2625 112.55 1362.63 412.169
2648 0 212.222 12.9864 2756 111.75 1362.91 405.295
2649 0 219.225 13.2056 2895 111.372 1362.46 401.745
2650 0 224.222 13.3662 2997 111.883 1362.12 397.053
2651 0 230.303 13.339 3072 113.075 1362.4 393.832
2652 0 238.266 13.5815 3236 111.803 1361.66 390.221
2653 0 245.223 13.1065 3214 112.036 1362.19 383.067
2654 0 252.27 13.101 3305 111.615 1361.72 378.335
2655 0 262.288 13.6987 3593 108.501 1361.29 377.045
2656 0 269.286 13.714 3693 108.956 1360.78 370.891
2657 0 279.384 15.1727 4239 103.854 1361.98 361.886
2658 1 70.2129 8.14665 572 79.8252 1361.75 481.292
2659 0 76.1074 9.59171 730 83.2151 1361.73 485.719
2660 0 79.0319 10.2996 814 74.4668 1361.21 488.545
2661 0 80.0916 9.62647 771 76.7977 1361.36 486.214
2662 0 82.1029 9.73169 799 76.9099 1362.77 480.945
2663 0 84.0503 9.91073 833 77.6651 1362.02 481.917
2664 0 86.0729 9.87535 850 77.4059 1362.65 481.509
2665 0 88.1355 8.82731 778 79.8278 1362.15 480.117
2666 0 91.215 8.025 732 81.4413 1362.31 480.902
2667 0 95.1316 9.90207 942 75.9873 1361.75 471.764
2668 0 106.104 13.6281 1446 66.3769 1361.17 465.753
2669 1 39.0497 10.0641 393 72.1323 1361.23 507.394
2670 0 41.0291 10.1879 418 74.4306 1362.66 508.014
2671 0 43.0692 11.1913 482 72.7344 1363.45 504.286
2672 0 41.0508 10.4261 428 78.2196 1362.58 507.643
2673 0 44.0385 11.876 523 75.4111 1363.88 504.53
2674 0 47.0947 13.7171 646 80.8715 1363.62 504.977
2675 0 46.0357 12.4034 571 89.1243 1363.58 503.954
2676 0 44.0548 13.6421 601 89.2962 1363.24 504.399
2677 0 46.0336 11.6002 534 97.9925 1362.86 505.425
2678 0 45.0449 12.099 545 99.2972 1363.08 504.89
2679 0 48.0688 11.0883 533 105.188 1362.64 505.223
2680 0 46.1418 13.1551 607 99.4498 1361.93 506.112
2681 0 48.1183 12.781 615 101.213 1361.6 506.185
2682 0 48.0622 12.7543 613 102.445 1362.24 507.457
2683 0 48.1274 12.6331 608 104.095 1361.05 508.939
2684 0 49.1068 12.7274 625 104.443 1361.68 507.653
2685 0 49.1629 13.0383 641 104.153 1360.81 507.109
2686 0 49.0945 12.7917 628 104.653 1361.43 507.86
2687 0 49.2638 13.0725 644 104.318 1360.98 507.505
2688 0 47.1269 12.6679 597 108.231 1361.18 508.042
2689 0 47.1358 12.3473 582 108.328 1361.79 507.213
2690 0 49.102 12.4639 612 106.967 1361.81 507.886
2691 0 49.1104 12.4006 609 105.903 1362.29 507.404
2692 0 49.0934 12.9549 636 104.778 1361.65 506.866
2693 0 46.1057 12.5798 580 108.79 1362.19 507.952
2694 0 46.0452 13.2696 611 105.517 1362.28 507.591
2695 0 48.1117 13.1361 632 102.153 1361.98 508.13
2696 0 49.0277 13.1558 645 101.643 1362.16 507.812
2697 0 49.0589 12.6175 619 102.449 1361.9 509.165
2698 0 48.053 13.6932 658 101.318 1362.34 507.16
2699 0 49.0288 13.1963 647 101.253 1361.81 507.771
2700 0 49.0643 12.7791 627 101.139 1362.21 508.335
2701 0 48.0397 13.364 642 99.0561 1361.61 507.363
2702 0 48.0974 13.0984 630 100.586 1361.76 506.822
2703 0 50.0368 13.1303 657 97.9269 1362.04 507.362
2704 0 48.0435 13.3212 640 97.4406 1362.3 506.208
