time division length width area intensity CMx CMy
0 0 38.0406 11.7243 446 108.513 919.251 498.614
1 0 39.025 12.146 474 105.641 919.519 498.04
2 0 38.0484 11.5905 441 104.664 919.032 499.44
3 0 38.0365 11.9622 455 105.224 919.16 498.435
4 0 39.0118 12.2014 476 103.805 919.481 497.479
5 0 42.0103 12.4255 522 100.994 920.069 498.071
6 0 43.056 11.7754 507 101.655 919.819 496.325
7 0 45.0619 12.9599 584 98.6849 920.156 496.604
8 0 48.0177 12.3288 592 98.9375 920.331 495.466
9 0 51.0825 13.1748 673 95.9807 919.718 494.423
10 0 52.0433 13.2198 688 94.9506 919.089 494.669
11 0 53.1629 13.468 716 95.4986 919.531 493.281
12 0 56.1264 13.1489 738 94.8753 919.591 493.343
13 0 56.0512 13.5947 762 96.0197 918.945 491.121
14 0 61.088 14.3727 878 98.3781 918.221 488.776
15 0 63.0713 14.4598 912 97.432 919.214 488.609
16 0 66.1039 14.6587 969 96.1176 919.006 487.003
17 0 68.0523 15.0473 1024 94.7363 918.845 485.786
18 0 71.1573 14.2923 1017 95.7827 918.783 485.929
19 0 73.1215 14.0725 1029 96.9096 918.341 485.265
20 0 72.05 14.0874 1015 98.4197 918.259 483.448
21 0 76.1059 14.5718 1109 96.0451 917.215 481.742
22 0 79.1379 13.7987 1092 97.6374 917.33 481.688
23 0 81.08 13.7149 1112 97.2023 917.526 479.403
24 0 85.0452 14.3923 1224 94.4551 917.286 476.992
25 0 87.0834 13.688 1192 96.7508 917.671 475.369
26 1 46.0665 11.5919 534 94.2809 917.461 498.408
27 0 47.0275 11.6953 550 94.6091 917.742 496.605
28 0 49.027 12.4829 612 92.1258 917.827 495.503
29 0 51.0272 13.6986 699 87.4235 917.722 495.614
30 0 53.0906 13.6371 724 88.8522 917.87 496.424
31 0 52.0263 13.3586 695 90.1683 917.25 496.212
32 0 55.0323 13.2104 727 89.8363 917.199 494.934
33 0 56.0211 13.727 769 90.0663 917.276 493.415
34 0 59.0341 13.6362 805 89.3851 917.191 492.775
35 0 61.0249 13.5682 828 90.0423 917.293 490.865
36 0 63.0707 13.0488 823 90.3196 916.875 489.947
37 0 66.0201 13.7685 909 87.8009 917.219 489.519
38 0 68.0474 13.4906 918 88.1743 917.194 487.634
39 0 71.0436 13.5973 966 88.706 917.869 486.543
40 0 72.0448 13.5888 979 89.2482 917.863 484.77
41 0 75.0436 14.1518 1062 86.4284 917.252 483.692
42 0 77.0718 13.9091 1072 87.8554 917.535 482.42
43 0 80.083 13.9231 1115 86.67 917.12 480.735
44 0 80.0424 13.6053 1089 87.7429 916.776 478.94
45 0 84.0554 13.5506 1139 87.2713 917.516 477.443
46 0 88.0511 14.1622 1247 86.1796 916.829 476.414
47 0 90.0393 13.5274 1218 87.4745 917.615 472.387
48 0 94.0841 14.4233 1357 84.8158 917.414 471.155
49 0 98.0623 13.9809 1371 85.5974 917.609 468.986
50 0 100.074 13.7499 1376 87.0342 917.717 467.302
51 0 103.069 13.6025 1402 88.9137 917.844 464.319
52 1 52.0141 11.5545 601 83.7637 917.476 492.529
53 0 53.043 12.1599 645 84.7659 917.519 489.403
54 0 57.0532 12.3919 707 82.1414 917.057 489.877
55 0 56.0568 12.5052 701 81.5835 918.073 490.944
56 0 60.0824 12.5661 755 79.8675 917.785 490.789
57 0 61.0288 12.1254 740 81.5284 918.419 490.292
58 0 62.0532 12.1025 751 82.0812 919.164 488.162
59 0 65.0837 12.5838 819 80.4725 917.829 487.899
60 0 66.1388 12.504 827 81.295 918.428 487.6
61 0 67.0328 12.3372 827 83.5139 919.204 486.55
62 0 71.0431 12.2179 868 83.9528 918.423 484.521
63 0 72.0902 12.304 887 83.9684 918.047 484.152
64 0 74.1307 12.4105 920 84.6196 917.902 481.501
65 0 75.0807 12.107 909 86.4719 918.881 480.904
66 0 79.0841 12.8218 1014 84.355 918.835 477.114
67 0 79.1017 12.1236 959 88.0282 918.499 476.127
68 0 80.0705 11.2026 897 90.0524 918.389 474.161
69 0 82.0941 11.4625 941 89.7821 918.834 469.427
70 0 83.0504 10.5117 873 92.0424 918.978 470.007
71 0 87.09 11.4479 997 89.6389 919.415 467.3
72 1 39.0156 9.81659 383 85.7598 918.948 491.914
73 0 40.0868 10.7267 430 81.0605 918.691 491.107
74 0 44.0485 10.9425 482 79.1826 918.122 491.342
75 0 47.0635 10.4327 491 75.558 918.607 497.033
76 0 48.0084 11.0397 530 73.9019 917.872 495.991
77 0 48.0741 9.65176 464 75.4224 918.239 495.759
78 0 52.0709 10.0632 524 74.0229 918.464 495.62
79 0 53.025 10.3913 551 73.5989 918.209 493.466
80 0 53.0264 10.7871 572 73.8287 918.934 493.22
81 0 56.0604 10.9346 613 74.1207 918.685 491.832
82 0 60.076 11.2524 676 73.5858 918.645 490.095
83 0 61.0298 10.8472 662 74.3429 918.221 489.511
84 0 63.0743 11.0822 699 74.3147 918.585 486.485
85 0 66.0572 11.263 744 74.1344 918.356 487.325
86 0 67.0629 11.3326 760 73.8934 918.632 486.136
87 0 72.0685 12.3494 890 72.3573 919.207 484.925
88 0 74.0585 11.3964 844 73.2405 919.082 484.963
89 0 76.0511 12.2155 929 74.2207 918.329 482.622
90 0 80.0301 12.9451 1036 72.4566 918.814 482.39
91 0 81.095 12.9354 1049 76.6273 918.435 479.333
92 0 85.0786 13.1055 1115 75.991 918.657 479.826
93 0 88.0539 13.7302 1209 75.9818 918.47 477.891
94 0 88.0323 12.9725 1142 79.4588 918.863 474.832
95 0 94.0597 13.1831 1240 79.3089 918.631 472.577
96 0 97.0881 12.9367 1256 79.0987 918.697 472.303
97 0 100.025 13.4566 1346 78.0394 918.169 471.932
98 0 104.062 13.3478 1389 78.9446 918.484 469.402
99 1 55.0661 11.8948 655 73.1053 917.892 494.476
100 0 56.0195 11.1925 627 75.0941 918.188 494.724
101 0 58.0527 11.8341 687 77.0233 918.217 491.045
102 0 58.0537 11.6099 674 76.1855 918.079 491.684
103 0 60.058 13.1706 791 96.5411 918.19 430.334
104 0 64.0221 11.824 757 77.5945 918.535 491.124
105 0 65.0564 11.4055 742 79.2062 918.836 489.497
106 0 67.1032 11.8772 797 79.6801 918.453 488.448
107 0 67.09 11.0598 742 83.4865 918.528 486.476
108 0 69.04 10.9791 758 85.6768 918.615 482.063
109 0 72.0455 10.8404 781 86.6261 918.255 482.303
110 0 75.0168 12.064 905 84.7657 918.491 483.619
111 0 79.0368 12.4878 987 84.2837 917.923 482.347
112 0 81.0399 12.7715 1035 84.2213 918.741 481.673
113 0 85.1056 12.3376 1050 85.5905 918.547 481.333
114 0 86.1346 11.9696 1031 87.937 918.834 480.1
115 0 89.1027 12.7606 1137 87.4494 918.106 477.485
116 0 89.0522 11.7908 1050 91.3829 918.803 475.533
117 0 93.0687 12.5284 1166 89.1792 918.86 475.418
118 0 97.0652 12.1465 1179 90.8507 918.586 473.287
119 0 100.067 11.5622 1157 93.5799 918.354 469.316
120 0 106.066 13.7178 1455 86.1457 917.693 468.914
121 0 108.146 12.3075 1331 89.882 917.415 466.953
122 1 60.064 11.4877 690 88.7913 917.532 490.036
123 0 64.0285 12.0103 769 87.3628 918.566 489.592
124 0 65.0279 12.3793 805 87.1615 919.525 488.873
125 0 65.0279 12.3485 803 145.908 919.524 488.849
126 0 66.0662 10.7922 713 76.467 918.935 489.941
127 0 68.1234 11.67 795 76.4679 918.745 487.615
128 0 71.1123 12.1076 861 76.2172 918.452 486.367
129 0 73.0696 11.4411 836 76.9378 918.24 486.39
130 0 76.0486 11.8871 904 76.8673 917.773 483.749
131 0 78.1345 11.685 913 77.4042 917.687 483.297
132 0 79.088 11.4177 903 77.9745 918.038 481.299
133 0 82.0672 12.6969 1042 76.5931 918.278 479.583
134 0 84.0624 11.9316 1003 78.9651 918.366 480.653
135 0 88.0682 11.9566 1053 79.6961 918.51 479.077
136 0 91.1051 12.502 1139 80.1501 918.715 476.831
137 0 92.0695 11.7846 1085 83.1834 918.121 475.344
138 0 96.0636 12.9393 1243 81.6959 917.678 473.227
139 0 98.094 12.172 1194 83.6834 917.369 471.088
140 0 100.037 12.4654 1247 83.4427 916.882 470.826
141 0 107.059 12.7406 1364 86.7133 917.119 468.831
142 0 111.081 11.9912 1332 87.036 917.276 464.63
143 1 56.0064 10.7309 601 80.4692 917.521 492.661
144 0 58.0598 10.6959 621 78.314 917.575 493.214
145 0 59.0296 11.4688 677 75.0547 917.326 493.644
146 0 62.058 12.0371 747 76.3601 917.442 490.538
147 0 62.0159 10.4489 648 73.2407 917.194 492.843
148 0 64.0366 10.7126 686 72.9373 917.535 491.996
149 0 65.0561 10.6831 695 74.1799 917.586 488.16
150 0 70.0817 11.4152 800 73.2762 918.162 488.135
151 0 71.1967 10.9556 780 74.6936 917.458 485.332
152 0 74.1183 11.5761 858 74.4359 917.46 484.997
153 0 76.0354 11.3237 861 75.9512 917.597 483.918
154 0 80.0865 12.3991 993 75.3726 917.681 482.355
155 0 81.0641 11.9412 968 76.4339 917.867 481.353
156 0 85.1445 12.1441 1034 76.2176 917.934 479.556
157 0 88.1059 11.838 1043 77.5034 917.853 478.639
158 0 89.0499 11.8473 1055 80.1365 917.118 477.742
159 0 92.0414 12.5487 1155 75.6779 917.399 476.038
160 0 95.1315 12.3829 1178 77.8124 917.829 473.087
161 0 98.081 12.2348 1200 79.0267 917.633 471.895
162 0 100.132 12.084 1210 81.3 917.307 470.43
163 0 104.044 12.7157 1323 80.5094 917.735 469.073
164 0 108.047 12.6705 1369 78.7195 917.694 466.807
165 0 112.049 12.798 1434 79.3173 917.576 464.045
166 0 114.061 12.3881 1413 80.6469 917.228 460.71
167 0 118.094 12.4393 1469 80.4963 917.351 460.83
168 1 61.0311 10.1588 620 75.3161 917.634 491.576
169 0 65.0751 11.7249 763 79.0944 918.181 489.309
170 0 65.0306 11.2562 732 80.9727 917.821 488.391
171 0 67.0467 11.3055 758 74.9195 918.272 487.797
172 0 67.0467 11.3205 759 120.502 919.249 487.883
173 0 71.0653 11.4261 812 75.9507 917.945 483.502
174 0 72.0413 11.4795 827 75.8416 918.03 483.403
175 0 78.0301 11.5084 898 75.1013 917.296 483.445
176 0 81.0769 12.5066 1014 73.2357 917.153 482.223
177 0 84.0428 12.1248 1019 74.8106 917.302 479.786
178 0 85.0655 12.0731 1027 75.9601 917.523 478.514
179 0 88.0423 12.0624 1062 77.2486 917.747 476.37
180 0 90.0602 12.6804 1142 76.5937 918.361 476.49
181 0 94.058 12.2265 1150 83.3826 918.509 473.476
182 0 98.119 11.8835 1166 81.6827 917.604 470.97
183 0 103.064 12.3321 1271 79.4736 918.327 470.82
184 0 105.064 11.612 1220 80.677 917.613 466.638
185 0 109.12 11.9868 1308 79.5787 918.035 465.84
186 1 55.1015 10.6712 588 72.2194 917.755 493.539
187 0 58.1489 11.2642 655 71.6107 917.968 492.232
188 0 58.0486 10.9736 637 75.8022 918.575 490.714
189 0 60.0737 11.7356 705 73.5135 919.113 489.044
190 0 59.0291 10.3678 612 71.2876 918.157 491.221
191 0 64.0258 10.4333 668 71.4835 917.918 490.501
192 0 63.0299 10.027 632 72.8687 917.225 490.032
193 0 66.0126 10.3314 682 72.9809 916.743 487.652
194 0 67.0312 10.2937 690 73.1536 916.809 485.554
195 0 70.0543 9.9637 698 73.2722 916.99 485.507
196 0 72.0169 10.7891 777 72.4427 916.705 483.409
197 0 76.0208 10.5892 805 72.2596 916.639 483.102
198 0 78.0909 9.98836 780 73.3692 917.446 482.453
199 0 80.0454 9.96935 798 73.4123 917.302 481.763
200 0 85.0771 10.4023 885 72.0825 917.417 478.201
201 0 86.0691 10.2824 885 73.2565 917.059 477.828
202 0 89.0407 10.3211 919 91.9238 916.612 475.789
203 0 93.0684 10.5836 985 90.0741 916.547 473.631
204 1 48.0523 8.92777 429 88.7669 916.709 496.338
205 0 52.0309 10.2439 533 85.5591 916.426 495.407
206 0 52.0204 10.2652 534 87.1348 917.257 494.787
207 0 49.0755 8.53787 419 88.6468 916.382 496.714
208 0 52.0238 9.265 482 86.1846 916.203 495.432
209 0 52.0268 9.24523 481 108.324 916.206 495.844
210 0 54.0163 10.1821 550 85.2782 916.278 494.062
211 0 55.0178 8.88804 489 87.8405 916.354 493.278
212 0 58.0378 9.83842 571 85.6567 917.011 491.96
213 0 60.0387 9.39393 564 84.8723 916.92 491.211
214 0 63.0177 9.06095 571 84.8932 916.602 488.194
215 0 65.0397 8.79462 572 84.4703 916.577 487.888
216 0 67.076 9.55633 641 84.2012 916.513 487.426
217 0 72.0801 9.37846 676 84.1538 917.583 487.689
218 0 72.0835 9.29478 670 113.894 919.606 487.779
219 0 78.1656 10.6441 832 83.9207 916.452 482.792
220 1 38.0652 9.72018 370 82.7865 916.538 503.059
221 0 39.0181 9.89285 386 82.6088 916.58 502.676
222 0 42.0449 10.251 431 85.0487 916.471 501.471
223 0 44.0392 10.9448 482 85.0622 916.813 499.51
224 0 45.091 11.1996 505 93.5545 916.956 498.248
225 0 41.0143 9.67954 397 89.5844 916.254 501.67
226 0 43.0075 10.5098 452 87.8739 916.27 499.706
227 0 43.0416 9.57214 412 89.0825 915.536 500.995
228 0 46.0248 10.7551 495 87.3111 916.18 499.103
229 0 47.0278 10.228 481 88.3306 916.372 499.761
230 0 46.0102 9.41096 433 89.8106 916.744 499.139
231 0 50.0077 10.3184 516 88.4283 916.622 498.105
232 0 51.029 10.2099 521 89.3244 916.597 497.653
233 0 53.0213 10.5618 560 89.3 916.829 494.945
234 0 52.013 9.32459 485 91.7155 917.06 494.07
235 0 57.0576 10.4806 598 87.4799 916.706 493.47
236 0 58.0259 10.0817 585 87.6735 917.265 493.504
237 0 59.0337 10.5025 620 85.8032 916.813 492.065
238 0 64.0243 10.496 672 82.1042 916.807 490.991
239 0 65.0259 11.1033 722 80.0277 916.109 489.496
240 0 67.1282 10.83 727 82.6685 916.803 488.989
241 0 71.0427 11.7394 834 80.8453 916.333 487.223
242 0 74.0354 11.3594 841 81.2723 916.551 485.017
243 0 77.0351 11.3974 878 81.8337 915.746 483.679
244 0 79.0456 11.1455 881 83.0329 915.918 481.51
245 0 83.0687 11.8215 982 81.0092 916.312 480.69
246 0 84.0668 10.7771 906 85.4073 916.43 478.769
247 1 44.0716 10.2787 453 88.426 916.446 499.68
248 0 43.0166 10.2984 443 89.9977 915.975 498.456
249 0 46.025 11.3634 523 88.5449 915.847 497.371
250 0 48.0317 11.43 549 87.9526 915.863 496.92
251 0 48.0049 10.9989 528 82.9811 916.517 497.256
252 0 50.0838 11.7603 589 82.5093 915.604 497.275
253 0 52.0085 11.825 615 83.3935 916.034 495.015
254 0 53.0405 11.9531 634 85.3391 915.782 496.203
255 0 54.0238 11.4024 616 87.2679 916.432 494.14
256 0 60.0592 11.5053 691 96.6339 916.091 435.156
257 0 58.0603 11.7464 682 87.4267 916.557 492.815
258 0 59.0391 12.6188 745 86.1584 917.201 492.086
259 0 61.035 12.2061 745 87.6121 916.613 489.903
260 0 64.0163 11.8095 756 88.1958 916.463 490.798
261 0 64.0343 12.384 793 89.0517 916.755 489.115
262 0 66.022 12.3292 814 90.1486 916.668 488.92
263 0 67.0211 12.5632 842 92.3444 916.659 490.647
264 0 71.0295 13.2199 939 92.0895 917.111 488.398
265 0 73.0268 12.4064 906 95.2715 916.619 487.907
266 0 74.0583 12.7332 943 95.9024 916.683 486.335
267 0 77.1302 12.2779 947 96.5216 915.653 485.283
268 0 81.0904 12.5909 1021 96.5446 915.569 484.556
269 0 83.0901 12.4082 1031 97.9952 915.129 483.595
270 0 86.1009 12.346 1063 98.4563 915.294 481.598
271 1 46.03 10.4932 483 99.9731 915.222 499.445
272 0 46.109 11.1692 515 97.7165 915.283 498.783
273 0 49.0655 11.6783 573 93.918 915.937 498.483
274 0 51.0454 12.577 642 92 916.298 497.202
275 0 49.0132 10.9562 537 84.635 915.464 499.818
276 0 50.07 11.4839 575 85.7791 915.003 500.15
277 0 52.0606 11.2561 586 86.5188 915.698 498.817
278 0 52.0393 11.4144 594 89.5505 915.931 498.557
279 0 53.0318 11.3894 604 90.5563 915.518 497.384
280 0 55.0423 11.8091 650 90.0215 915.908 496.662
281 0 55.0423 11.8091 650 155.743 916.92 496.523
282 0 58.0298 11.6492 676 91.5296 915.874 495.723
283 0 60.0481 11.574 695 94.7281 915.563 495.258
284 0 61.0209 11.7992 720 95.1569 915.693 494.762
285 0 63.0475 11.7213 739 97.2625 915.714 492.277
286 0 65.0804 12.2003 794 95.9509 916.164 491.088
287 0 66.1271 12.0979 800 97.4312 915.711 490.516
288 0 70.0314 12.4087 869 94.5915 915.395 489.421
289 0 72.0217 12.2602 883 95.2401 915.264 488.048
290 0 75.0529 12.6444 949 93.3372 915.286 487.557
291 0 76.0448 12.874 979 94.0541 915 485.659
292 0 80.0485 12.7922 1024 94.4766 915.838 483.676
293 0 83.0416 13.5836 1128 91.4947 915.894 481.862
294 0 86.0863 12.7082 1094 94.1316 916.194 480.772
295 0 88.0858 12.5673 1107 95.9946 915.547 478.277
296 1 45.0136 11.8631 534 97.5094 915.719 499.622
297 0 49.0141 12.2822 602 95.9618 915.586 499.797
298 0 50.0304 12.3725 619 100.675 916.478 497.808
299 0 52.0216 12.5909 655 100.011 916.148 498.392
300 0 50.0149 11.7965 590 93.7559 915.227 498.895
301 0 50.0395 12.2503 613 94.8532 915.192 499.918
302 0 52.0482 11.7391 611 97.4566 915.712 499.082
303 0 54.1673 12.0737 654 97.8563 916.486 497.95
304 0 54.0213 12.1989 659 99.3703 915.791 497.967
305 0 57.047 12.2881 701 98.7076 916.066 497.197
306 0 57.0836 12.3678 706 100.32 915.783 497.061
307 0 59.0843 12.6937 750 99.7187 915.332 496.639
308 0 62.0293 13.1551 816 97.3088 915.094 495.401
309 0 64.0399 13.07 837 97.8208 915.173 494.546
310 0 64.1069 12.3232 790 100.308 915.629 493.819
311 0 68.0258 13.6125 926 96.1447 915.579 493.482
312 0 69.0496 13.4541 929 97.9203 915.463 493.081
313 0 71.0199 13.4469 955 98.4618 915.735 493.448
314 0 72.0392 12.8541 926 102.34 915.462 490.68
315 0 74.0488 12.4783 924 104.181 915.5 491.201
316 0 76.0854 12.6174 960 104.712 915.746 490.596
317 0 80.0757 13.2375 1060 102.918 915.432 487.757
318 0 82.1016 13.6051 1117 104.164 915.241 487.161
319 0 83.0376 13.0905 1087 105.63 915.254 487.211
320 0 86.0915 13.625 1173 109.302 915.808 484.736
321 0 89.1168 13.9143 1240 106.654 915.745 485.344
322 0 92.1193 13.6345 1256 107.316 915.123 483.608
323 0 93.0707 14.0538 1308 107.417 915.463 482.558
324 0 98.1028 14.0975 1383 103.613 914.476 482.497
325 0 100.095 14.0366 1405 104.969 914.21 481.06
326 0 101.095 14.3726 1453 103.911 914.041 477.7
327 0 104.06 14.4916 1508 105.314 914.235 477.596
328 0 105.088 14.0263 1474 105.868 913.744 476.989
329 0 110.097 14.4418 1590 102.755 914.015 475.087
330 0 113.095 13.8202 1563 104.469 913.859 473.662
331 0 117.109 13.9358 1632 113.056 914.042 471.364
332 0 121.136 13.6458 1653 103.061 913.783 468.206
333 0 125.139 14.5358 1819 102.441 914.047 467.087
334 0 125.139 14.4959 1814 166.198 914.042 467.284
335 0 132.111 14.0034 1850 99.5746 913.365 463.055
336 0 138.18 12.7008 1755 100.825 913.268 460.7
337 0 142.21 13.4309 1910 98.2901 913.536 456.642
338 0 149.168 13.9508 2081 99.001 913.332 452.581
339 1 77.131 12.0315 928 95.0323 913.236 489.037
340 0 80.0319 12.545 1004 100.6 913.255 487.269
341 0 83.0873 13.0345 1083 99.4174 913.631 485.874
342 0 82.0479 12.383 1016 92.0148 912.806 486.363
343 0 85.1409 12.3442 1051 92.3283 911.875 484.359
344 0 88.1166 12.0182 1059 93.3551 912.542 484.878
345 0 90.1307 11.8384 1067 94.6045 911.723 483.727
346 0 92.1052 12.616 1162 92.9854 912.231 480.886
347 0 94.0695 11.8104 1111 95.0153 911.961 480.68
348 0 99.1277 11.8837 1178 94.59 911.758 479.843
349 0 101.062 12.5666 1270 93.7669 911.698 476.734
350 0 104.09 12.3163 1282 92.702 912.381 475.286
351 0 109.079 12.2939 1341 97.8113 911.874 471.634
352 0 112.136 12.0032 1346 100.053 912.052 468.495
353 0 117.113 12.9277 1514 99.253 912.108 467.688
354 1 63.088 10.3823 655 92.8489 912.055 496.36
355 0 63.086 10.1132 638 95.9937 911.911 493.846
356 0 67.0624 10.617 712 94.2163 912.261 492.976
357 0 69.0416 11.7031 808 96.2079 912.36 490.129
358 0 73.066 12.0165 878 98.2016 912.849 490.121
359 0 77.0693 12.2617 945 104.055 913.426 487.801
360 0 77.0502 12.0181 926 106.107 912.746 485.807
361 0 82.0823 13.1697 1081 102.438 912.859 484.748
362 0 83.0194 12.5031 1038 103.93 912.215 484.479
363 0 82.0188 12.1192 994 162.731 911.179 483.539
364 0 90.0321 12.6177 1136 103.878 912.907 480.118
365 0 91.1103 12.0842 1101 105.005 912.701 478.216
366 0 95.1075 12.3544 1175 102.86 912.251 477.076
367 0 99.086 12.2923 1218 103.585 912.567 475.805
368 0 100.102 12.0677 1208 103.856 912.56 474.026
369 0 105.039 11.9385 1254 103.156 913.15 472.01
370 0 108.072 11.7052 1265 105.047 913.747 469.492
371 0 111.084 11.4238 1269 105.835 913.081 468.176
372 0 115.064 11.3589 1307 107.559 912.423 465.232
373 1 64.0108 11.0606 708 94.387 912.438 493.61
374 0 65.0131 10.9516 712 95.8652 913.329 491.419
375 0 68.0373 11.5231 784 100.483 912.562 490.677
376 0 67.1084 11.5783 777 95.1377 912.66 489.911
377 0 70.202 11.7945 828 94.2198 913.039 488.795
378 0 74.0849 12.5397 929 91.6975 913.07 487.107
379 0 73.1384 11.1433 815 96.7681 913.523 487.275
380 0 76.1176 11.3115 861 96.8235 913.304 485.091
381 0 78.1735 11.5384 902 95.9823 912.992 484.345
382 0 81.1574 10.991 892 96.8419 913.483 481.372
383 0 84.2189 11.4582 965 96.2922 913.824 479.804
384 0 85.1784 11.5757 986 97.1146 913.795 480.557
385 0 87.2117 11.3173 987 97.9504 913.862 478.388
386 0 92.3423 11.5548 1067 97.7254 914.07 475.977
387 0 95.355 11.9029 1135 97.3339 914.644 471.586
388 0 98.0784 11.6743 1145 94.8472 914.816 470.483
389 0 100.232 11.9323 1196 95.0903 913.879 466.712
390 0 102.159 11.0612 1130 96.5212 913.933 465.703
391 0 104.138 10.8317 1128 97.906 913.721 461.615
392 1 52.0648 9.66105 503 95.8529 913.266 485.64
393 0 60.0447 10.3423 621 90.3607 913 490.003
394 0 63.0973 10.777 680 88.2309 913.144 488.163
395 0 64.1767 10.7983 693 90.5527 914.857 485.896
396 0 64.1436 11.0689 710 89.7845 914.728 485.396
397 0 68.1172 10.7902 735 89.5646 915.037 484.755
398 0 67.1382 11.454 769 88.394 915.077 483.328
399 0 71.1112 11.8828 845 89.0911 914.883 481.535
400 0 73.1888 11.5318 844 88.4727 915.831 480.931
401 0 74.0559 11.3968 844 88.6872 914.231 479.238
402 0 75.1412 11.7512 883 87.761 913.941 480.142
403 0 81.1169 12.6607 1027 82.6173 914.422 479.194
404 0 82.0988 12.0586 990 84.9152 914.388 479.11
405 0 85.1518 12.4836 1063 84.9906 914.544 480.728
406 0 87.1186 12.615 1099 85.2357 914.118 478.585
407 0 88.13 12.1752 1073 86.6021 914.327 478.181
408 0 92.1244 12.4614 1148 86.0854 914.314 476.146
409 0 95.1136 12.1959 1160 86.8371 915.205 473.887
410 0 98.0463 12.2493 1201 87.1649 914.659 472.167
411 0 101.132 12.9237 1307 85.6848 914.854 471.252
412 0 104.055 12.1955 1269 86.8684 914.454 466.938
413 0 104.055 12.1763 1267 137.317 914.478 466.903
414 1 57.0683 8.76143 500 81.372 914.528 490.552
415 0 57.0192 9.54064 544 79.9945 914.029 488.879
416 0 56.0308 9.26277 519 79.7148 914.638 485.064
417 0 57.0121 8.08601 461 70.603 915.857 488.106
418 0 57.0244 8.1018 462 71.2576 915.383 487.288
419 0 61.0199 8.39071 512 70.8223 915.555 485.908
420 0 62.0684 9.50564 590 70.3237 915.195 483.912
421 0 64.0656 9.27174 594 70.8367 914.406 482.121
422 0 64.0448 8.7751 562 72.3043 915.379 482.733
423 0 70.0958 9.13036 640 71.4328 914.598 482.831
424 0 71.1366 9.44661 672 72.4137 913.521 479.771
425 0 70.0968 8.40266 589 74.9881 914.222 478.55
426 0 74.0975 9.2041 682 75.151 914.069 476.859
427 0 79.126 8.85929 701 76.0642 914.193 477.476
428 0 81.0565 10.5729 857 85.1785 913.544 484.28
429 0 85.063 10.5569 898 85.2639 912.969 482.343
430 0 89.1129 10.8738 969 85.2415 912.959 479.939
431 0 92.093 10.902 1004 84.8974 912.879 478.024
432 0 94.0585 11.0782 1042 83.6344 913.085 477.641
433 0 96.0956 10.0005 961 84.8897 913.53 477.896
434 1 52.0636 10.4872 546 81.0495 913.405 497.718
435 0 53.0357 10.2761 545 82.8936 913.442 497.4
436 0 56.0405 11.224 629 82.6948 913.045 495.973
437 0 56.0735 11.5028 645 86.2899 912.552 495.55
438 0 58.0597 11.8154 686 77.4898 913.153 494.681
439 0 58.0708 11.5893 673 76.9049 912.863 494.963
440 0 62.074 12.3079 764 77.9018 912.412 492.521
441 0 63.105 12.5505 792 78.8763 912.6 492.049
442 0 64.1084 11.6677 748 81.115 912.862 491.624
443 0 66.056 12.1866 805 80.6286 912.892 489.981
444 0 70.0668 12.5166 877 80.4983 912.757 487.985
445 0 71.1187 12.1065 861 82.5528 913.185 487.192
446 0 74.0943 12.4436 922 82.41 913.426 486.759
447 0 76.1015 12.0234 915 83.9519 912.931 484.847
448 0 78.0853 12.1022 945 84.7587 912.877 483.686
449 0 82.079 12.5611 1031 83.8565 912.994 482.745
450 0 82.0532 12.4066 1018 85.6248 913.119 480.386
451 0 85.0925 12.3513 1051 86.1893 913.247 478.459
452 0 86.1075 12.5308 1079 87.5728 913.013 479.925
453 0 88.066 11.8434 1043 90.2416 913.216 477.035
454 0 88.0461 11.6189 1023 92.9159 913.272 473.845
455 0 92.0562 11.3626 1046 92.7792 914.274 475.046
456 0 94.0549 11.791 1109 93.1894 913.963 472.089
457 0 96.0406 11.2973 1085 94.1825 913.841 470.272
458 0 98.0412 11.2504 1103 95.0363 913.956 468.572
459 0 101.086 11.4655 1159 99.6135 913.904 465.042
460 0 102.082 11.5398 1178 96.1579 914.194 462.219
461 0 108.145 11.503 1244 94.1158 914.042 458.932
462 0 110.116 11.7967 1299 93.6097 914.314 454.859
463 1 58.0425 9.61365 558 93.6434 913.824 482.866
464 0 64.2942 10.4209 670 93.5507 914.584 484.393
465 0 64.1083 11.0594 709 91.6516 913.735 479.784
466 0 73.1325 12.2244 894 90.7752 914.258 486.411
467 0 74.211 11.7907 875 92.1063 913.731 483.483
468 0 78.3249 12.2183 957 90.0627 913.653 483.27
469 0 77.1334 10.5402 813 84.6113 914.196 483.963
470 0 80.2182 10.7083 859 85.2538 913.81 481.736
471 0 84.1676 11.3345 954 84.6761 914.218 480.879
472 0 87.0661 11.876 1034 84.7099 914.23 477.181
473 0 90.1464 11.448 1032 87.7422 914.404 476.187
474 0 94.1365 10.9097 1027 88.7313 913.719 475.401
475 1 52.0433 9.68425 504 86.3373 913.504 497.169
476 0 56.045 10.6165 595 84.5496 913.716 495.2
477 0 57.1522 10.6383 608 85.3898 912.954 494.097
478 0 59.0504 10.3302 610 85.918 913.236 495.064
479 0 60.1067 11.1801 672 85.8854 912.763 492.482
480 0 60.0674 11.3539 682 88.0543 913.01 492.6
481 0 64.1203 10.4959 673 91.4235 912.363 488.844
482 0 66.0058 11.5899 765 88.9268 912.358 488.663
483 0 69.0169 11.4754 792 88.3131 912.028 487.937
484 0 69.0452 11.3259 782 88.9527 912.004 487.078
485 0 71.0333 11.3468 806 89.1687 912.109 486.428
486 0 73.0357 11.7066 855 87.5848 911.644 484.814
487 0 75.0541 11.6449 874 86.5469 911.95 483.451
488 0 78.0442 11.7369 916 86.3886 912.195 481.897
489 0 78.052 11.5564 902 131.754 912.183 481.534
490 0 82.0532 11.651 956 86.6663 912.238 479.544
491 0 82.0592 11.6136 953 127.408 912.235 479.449
492 0 86.022 11.7296 1009 86.7364 913.115 476.246
493 0 86.0977 12.1838 1049 87.7912 913.73 476.075
494 0 92.0867 12.0973 1114 87.237 913.023 474.042
495 0 93.078 12.4304 1157 87.1936 912.841 473.366
496 0 95.0708 12.6222 1200 87.68 912.3 472.488
497 0 98.1588 12.2556 1203 88.8105 912.901 470.104
498 0 100.094 12.3584 1237 90.3767 912.8 468.671
499 0 100.094 12.4183 1243 131.394 911.809 468.711
500 0 107.103 12.8661 1378 91.275 912.467 466.892
501 0 109.121 11.6477 1271 93.8442 912.703 464.78
502 0 110.198 11.4793 1265 93.8601 912.967 464.3
503 0 117.079 11.5904 1357 91.3427 913.137 463.267
504 0 120.069 11.6434 1398 90.6502 912.893 461.661
505 0 125.056 11.6268 1454 89.9422 912.354 459.94
506 0 129.063 12.1568 1569 89.4786 912.585 457.106
507 1 67.0907 10.5678 709 81.3258 912.471 488.852
508 0 68.0655 10.4752 713 80.0042 913.223 488.86
509 0 69.016 11.2003 773 75.3105 913.061 486.128
510 0 73.0297 11.0777 809 76.4994 913.01 485.609
511 0 76.1001 11.0512 841 74.8537 913.169 486.284
512 0 79.0679 11.6229 919 75.9162 913.209 484.011
513 0 80.0615 11.9533 957 76.6698 913.002 481.805
514 0 82.0677 11.0275 905 79.3271 913.057 480.815
515 0 85.0815 11.5889 986 79.0649 912.953 480.209
516 0 87.0904 11.3905 992 80.7117 913.02 479.043
517 0 89.0753 11.4847 1023 83.2483 913.162 477.874
518 0 95.1162 12.5531 1194 81.3132 912.717 475.668
519 0 96.1465 11.9817 1152 87.7925 912.992 473.017
520 0 100.132 11.8044 1182 87.2843 912.975 472.703
521 0 104.062 11.8007 1228 86.9927 913.087 470.137
522 1 55.0167 9.23356 508 81.0157 913.787 496.734
523 0 55.0139 10.0884 555 78.827 914.272 495.396
524 0 56.0657 10.0953 566 80.7721 913.325 492.943
525 0 60.0659 11.9036 715 80.8965 913.748 496.836
526 0 64.0489 11.4132 731 81.2941 913.211 495.929
527 0 65.065 12.2185 795 80.7308 913.068 493.644
528 0 66.1094 10.891 720 83.7472 913.162 493.011
529 0 69.1964 11.7925 816 81.5809 913.472 492.691
530 0 73.1131 11.5301 843 81.2788 912.681 492.779
531 0 71.0852 11.3666 808 83.5136 912.604 490.578
532 0 75.1172 12.2475 920 83.7511 913.832 488.063
533 0 77.1575 11.8848 917 84.2846 912.927 487.304
534 0 76.1448 10.4932 799 76.1514 913.093 488.662
535 0 79.039 10.9187 863 76.5017 913.598 487.915
536 0 82.0736 11.0998 911 76.5675 913.445 487.046
537 0 82.1337 10.6047 871 81.0092 913.207 487.714
538 0 84.1102 10.8548 913 111.516 913.531 484.646
539 0 87.098 10.7236 934 78.2141 913.196 483.453
540 0 90.1242 11.3066 1019 77.2198 912.945 482.432
541 0 91.1202 10.3819 946 79.6649 913.267 481.749
542 0 95.0686 10.5082 999 80.0851 912.911 479.39
543 0 99.0697 10.5784 1048 81.251 912.193 478.089
544 0 101.105 10.6127 1073 80.1025 912.296 477.98
545 0 106.089 10.0765 1069 80.3789 912.551 474.185
546 1 58.0988 10.5854 615 74.2163 912.348 499.216
547 0 60.1045 11.663 701 72.1598 913.165 498.365
548 0 60.0954 11.3153 680 70.8588 912.815 497.507
549 0 63.0721 11.4314 721 71.1331 912.756 496.698
550 0 64.0496 11.3506 727 71.2737 913.602 495.564
551 0 66.0985 11.2408 743 72.07 913.221 494.507
552 0 69.0408 12.4709 861 69.7875 912.173 494.125
553 0 70.0627 11.4754 804 71.7525 912.587 491.765
554 0 71.1162 11.6851 831 72.2214 912.617 492.479
555 0 74.1456 11.5988 860 72.6314 912.545 490.058
556 0 73.1556 9.96506 729 77.9616 912.546 493.14
557 0 77.1448 10.5127 811 76.5068 911.994 490.612
558 0 77.1438 10.124 781 76.8412 912.1 488.498
559 0 80.1105 10.1984 817 76.4113 912.49 487.351
560 0 85.2022 10.4692 892 76.6715 912.209 486.038
561 0 86.1693 9.70183 836 77.64 913.231 487.937
562 0 89.1694 10.5754 943 77.4825 912.748 483.027
563 0 91.1406 10.2698 936 78.5705 911.936 483.159
564 0 95.2054 10.8187 1030 77.8883 911.862 481.847
565 0 97.12 10.9452 1063 76.92 911.923 482.193
566 0 101.213 10.1173 1024 78.6973 912.133 478.159
567 0 105.073 11.0305 1159 76.8559 912.197 477.024
568 0 106.181 10.4162 1106 79.2604 911.469 472.544
569 0 116.194 11.2312 1305 84.1977 912.113 471.303
570 0 121.112 12.0467 1459 82.3523 911.692 469.448
571 0 124.185 11.6036 1441 82.5045 911.905 468.329
572 0 127.13 11.6338 1479 82.094 911.705 465.003
573 0 130.223 11.1655 1454 81.3418 912.34 465.418
574 0 134.149 10.2349 1373 84.2491 912.555 461.839
575 1 72.1153 10.4832 756 79.1561 912.087 494.515
576 0 75.1542 11.0173 828 77.8949 912.366 492.281
577 0 78.1664 11.5139 900 81.2011 911.872 491.123
578 0 81.1555 12.4206 1008 80.7837 911.953 487.095
579 0 83.0919 11.7099 973 76.8222 910.882 487.03
580 0 87.1039 12.4334 1083 76.0572 911.556 486.741
581 0 90.1272 11.9498 1077 77.0251 912.554 484.847
582 0 93.136 12.0362 1121 77.2444 912.678 483.996
583 0 100.218 11.7843 1181 88.6063 911.745 480.108
584 0 99.132 11.6713 1157 89.21 911.932 479.651
585 0 103.129 11.9946 1237 88.8812 911.916 477.34
586 0 103.157 11.0705 1142 90.7469 911.992 476.501
587 0 107.141 11.8908 1274 81.0911 912.38 475.763
588 0 109.113 11.8134 1289 82.8604 911.721 472.704
589 0 115.074 12.4528 1433 80.9742 912.5 472.302
590 0 118.163 11.611 1372 86.199 911.834 472.428
591 0 120.207 12.3703 1487 81.7606 911.607 470.532
592 0 123.216 11.8004 1454 84.4642 911.809 469.082
593 0 130.13 10.5663 1375 86.8495 912.075 467.542
594 0 131.21 11.2034 1470 86.734 911.749 463.929
595 0 135.249 11.0981 1501 86.3165 910.831 461.706
596 0 142.35 11.4085 1624 85.9304 911.434 458.511
597 0 144.331 10.5036 1516 88.465 911.096 456.425
598 0 149.203 11.2867 1684 86.8563 911.059 455.389
599 0 154.252 11.7017 1805 87.3252 910.746 452.997
600 0 159.416 11.5359 1839 88.4263 911.061 447.976
601 0 164.339 11.4823 1887 90.1399 911.463 447.581
602 0 168.283 12.0868 2034 91.0349 911.204 445.121
603 0 173.372 12.1934 2114 89.6017 910.939 442.381
604 0 179.357 12.1713 2183 91.1507 911.147 440.588
605 0 184.458 12.187 2248 93.028 910.582 436.653
606 0 191.267 12.7152 2432 92.6875 910.088 434.428
607 0 197.281 13.2451 2613 92.0046 910.706 431.301
608 0 203.32 13.3631 2717 92.8145 910.711 427.727
609 0 207.364 13.064 2709 94.0148 910.049 421.638
610 0 213.316 13.3089 2839 93.6964 910.328 419.507
611 0 218.312 12.9356 2824 95.2387 910.865 418.818
612 0 225.356 13.5297 3049 93.7944 911.512 414.601
613 0 232.222 13.4612 3126 94.2031 911.234 414.351
614 1 65.058 11.19 728 83.2266 909.837 496.839
615 0 67.0443 11.0226 739 84.8566 909.838 496.281
616 0 69.0845 11.1023 767 85.6297 909.132 493.408
617 0 68.0785 10.106 688 78.3721 909.679 495.336
618 0 69.0615 9.93318 686 78.2464 910.754 496.618
619 0 72.069 9.72679 701 78.8331 910.268 493.511
620 0 74.116 10.2002 756 78.9987 910.782 491.549
621 0 77.0839 9.88533 762 78.7979 910.49 492.117
622 0 79.0505 10.2213 808 77.354 911.443 490.925
623 0 78.0649 9.49211 741 81.5574 911.87 489.227
624 0 84.0654 10.0041 841 80.7004 911.409 486.296
625 0 86.0761 10.6417 916 80.2118 911.635 485.719
626 0 89.1058 10.2126 910 80.7462 911.563 483.978
627 0 93.1011 10.4832 976 80.7746 911.154 482.582
628 0 94.1669 10.2902 969 82.7327 910.851 477.393
629 0 99.0739 9.92188 983 82.7386 912.054 479.254
630 0 102.105 10.2444 1046 82.826 912.173 475.173
631 0 106.223 10.5345 1119 82.916 912.135 474.773
632 1 58.0966 10.3965 604 81.6341 912.584 496.975
633 0 59.1029 11.1331 658 82.228 912.505 496.731
634 0 60.4615 11.2303 679 76.2725 911.993 493.04
635 0 63.1352 11.6575 736 75.8111 910.735 494.598
636 0 60.0654 9.83928 591 80.5008 910.636 498.788
637 0 63.0539 9.91215 625 81.152 911.478 496.659
638 0 64.112 9.87335 633 82.7567 910.114 494.207
639 0 64.0627 10.037 643 83.5023 910.851 491.809
640 0 67.0803 10.6887 717 82.1688 910.696 490.128
641 0 67.0345 9.75617 654 83.8257 911.298 490.991
642 0 69.0697 9.90304 684 83.0497 911.529 492.085
643 0 71.0595 10.8219 769 82.7451 911.871 486.882
644 0 72.0827 10.0856 727 83.2531 911.868 489.44
645 0 81.0709 11.4961 932 78.6448 911.45 487.45
646 0 82.0783 11.4647 941 79.3624 911.434 484.661
647 0 85.0754 12.2009 1038 78.1802 911.563 482.239
648 0 87.0921 11.4362 996 79.5753 912.129 482.789
649 0 89.0871 12.1005 1078 79.4657 911.673 480.126
650 0 91.0486 11.6531 1061 79.5259 911.601 480.526
651 0 94.0701 12.2993 1157 79.8124 911.542 476.686
652 0 96.1138 11.6945 1124 81.1833 911.644 475.596
653 0 100.094 11.8288 1184 81.0802 911.521 473.593
654 0 103.072 12.0984 1247 81.0634 911.632 472.037
655 0 104.082 11.7888 1227 82.6455 911.224 469.255
656 0 107.064 11.8154 1265 83.2822 911.75 467.606
657 0 111.097 11.9085 1323 83.7989 912.076 466.051
658 0 111.087 12.3867 1376 84.0305 911.794 464.553
659 0 115.076 12.1572 1399 83.8106 912.588 462.66
660 0 118.082 11.6529 1376 85.6235 911.826 457.646
661 1 67.0616 10.5127 705 78.7163 911.765 487.383
662 0 68.1821 10.7213 731 78.9275 912.051 486.695
663 0 69.1639 10.2655 710 77.4197 912.993 483.304
664 0 69.1463 10.485 725 81.3228 911.899 481.723
665 0 75.1262 12.1129 910 77.744 912.082 487.19
666 0 77.1176 12.1243 935 78.9743 912.486 484.493
667 0 79.112 12.2485 969 78.6636 911.898 483.56
668 0 79.1401 11.8777 940 81.4447 911.914 483.822
669 0 83.1171 12.2598 1019 80.0314 911.752 481.778
670 0 83.1064 12.3456 1026 81.3392 911.825 480.64
671 0 86.1026 12.2064 1051 81.8839 912.377 479.716
672 0 88.1559 12.4325 1096 82.6724 911.948 479.25
673 0 90.087 12.8098 1154 81.7756 912.049 475.841
674 0 95.1113 12.5958 1198 82.6569 911.686 475.937
675 0 98.1741 13.3946 1315 82.1726 911.928 472.56
676 0 100.092 13.3278 1334 82.3388 912.344 472.483
677 0 101.072 13.0303 1317 83.388 912.024 470.134
678 0 106.07 13.953 1480 80.4419 911.793 466.783
679 0 106.043 12.4666 1322 84.9062 911.775 467.044
680 0 112.125 12.4504 1396 85.1175 911.778 464.996
681 0 114.088 12.7358 1453 84.8472 911.601 463.237
682 0 117.065 12.4802 1461 85.8049 912.565 459.714
683 0 120.075 12.5838 1511 85.0986 912.801 459.857
684 1 63.1289 10.1697 642 81.5062 912.788 484.145
685 0 63.0702 10.1316 639 80.1941 913.094 477.232
686 0 71.0468 11.2743 801 83.6692 912.376 484.155
687 0 76.0899 11.8938 905 75.8508 913.213 486.779
688 0 77.0867 11.8049 910 112.421 914.233 486.577
689 0 80.1273 12.0309 964 76.4886 912.919 484.391
690 0 81.1062 10.5047 852 79.6538 913.192 484.318
691 0 83.1356 10.4408 868 79.0369 912.664 483.584
692 0 86.0986 10.4531 900 79.74 913.354 481.726
693 0 88.0716 10.0373 884 79.5611 913.169 480.844
694 0 91.1004 9.74749 888 79.259 912.659 481.338
695 0 94.0577 10.4298 981 78.4373 913.042 477.864
696 0 98.1476 10.474 1028 78.1955 913.17 478.716
697 0 99.0954 9.69772 961 79.3569 913.443 477.195
698 0 105.078 10.516 1105 81.5014 912.911 473.846
699 0 107.077 10.3196 1105 82.5104 912.374 473.847
700 0 112.089 10.7147 1201 81.6586 912.311 469.754
701 0 111.084 10.8296 1203 113.298 912.298 469.83
702 0 119.19 10.7475 1281 83.3021 912.949 466.341
703 0 123.189 10.8776 1340 83.9664 912.843 462.922
704 0 129.271 11.3869 1472 88.0435 912.812 460.397
705 0 135.225 11.455 1549 90.8154 912.915 457.088
706 1 70.0208 9.01161 631 82.13 911.407 491.393
707 0 77.1248 11.1897 863 79.0463 912.422 490.082
708 0 79.1509 11.7623 931 81.4296 911.75 486.832
709 0 81.1509 11.6819 948 80.4314 911.524 484.999
710 0 83.1673 11.9037 990 86.7444 911.766 484.399
711 0 85.0883 11.4469 974 89.4384 910.745 484.217
712 0 88.0724 12.5919 1109 87.1253 910.809 481.257
713 0 90.0425 12.272 1105 89.171 911 482.378
714 0 94.0985 12.4444 1171 89.4552 911.975 479.844
715 0 94.0912 12.4773 1174 133.37 912.963 479.935
716 0 101.181 12.4826 1263 91.2177 911.078 475.786
717 0 102.145 12.4822 1275 91.9482 910.934 473.359
718 0 102.138 11.974 1223 94.0016 911.392 472.958
719 0 105.136 11.3472 1193 89.0595 912.041 476.537
720 0 108.2 11.0721 1198 89.3756 912.108 475.759
721 0 111.115 11.1236 1236 89.2241 912.725 475.709
722 0 114.183 11.1225 1270 90.6795 912.099 472.205
723 0 117.168 11.5476 1353 88.85 912.103 469.588
724 0 122.116 11.0387 1348 88.1714 911.916 470.009
725 0 122.124 10.9806 1341 124.302 911.919 470.041
726 0 126.119 10.498 1324 86.0317 911.535 462.148
727 0 132.099 10.3862 1372 90.844 911.735 460.557
728 0 138.108 11.4114 1576 93.8674 911.568 460.365
729 0 143.142 11.2825 1615 95.9034 911.227 458.296
730 0 146.169 10.7615 1573 101.408 911.53 456.781
731 0 153.168 12.3264 1888 99.1388 911.803 453.576
732 0 155.13 11.4614 1778 96.356 911.517 444.644
733 0 161.213 11.55 1862 95.6396 911.523 444.142
734 1 92.1549 9.59254 884 87.0747 912.327 482.035
735 0 96.13 11.11 1068 89.3474 910.981 480.93
736 0 99.2059 10.826 1074 89.8799 911.212 478.674
737 0 100.391 10.1204 1016 92.8819 911.741 476.588
738 0 104.314 11.2353 1172 91.785 911.625 475.195
739 0 108.299 11.1451 1207 93.1872 911.894 471.268
740 0 113.229 11.2692 1276 91.7202 911.509 467.296
741 0 118.274 12.2512 1449 93.7702 911.313 465.444
742 0 122.36 12.594 1541 94.7359 911.08 462.389
743 0 122.356 11.4093 1396 99.8703 911.182 460.049
744 0 127.476 11.8454 1510 99.2457 911.731 456.65
745 0 131.302 12.0638 1584 99.2128 911.235 455.012
746 0 136.248 12.3525 1683 94.2305 911.773 456.981
747 1 76.1409 9.00961 686 89.4942 911.602 489.802
748 0 78.1458 10.1093 790 90.581 911.253 486.659
749 0 81.1977 10.6776 867 87.8558 911.584 485.69
750 0 82.0733 10.2713 843 85.0949 912.203 485.212
751 0 84.1184 10.1999 858 84.641 911.962 484.386
752 0 88.1313 10.5071 926 85.541 912.08 482.362
753 0 89.0648 10.0826 898 86.892 911.91 481.347
754 0 93.075 10.7655 1002 87.7006 912.175 476.155
755 0 96.0863 9.88694 950 87.3095 912.281 476.125
756 0 101.117 10.4137 1053 91.7863 911.767 473.252
757 0 104.091 10.4043 1083 91.711 911.877 473.563
758 0 109.13 10.2721 1121 90.7636 912.696 470.868
759 0 110.095 10.2366 1127 91.6939 912.56 467.24
760 0 112.074 9.68999 1086 91.7965 912.384 463.925
761 0 119.148 10.3233 1230 90.8992 912.88 463.668
762 0 119.129 10.283 1225 91.4588 912.717 461.712
763 1 64.1291 9.80835 629 83.9587 912.634 487.967
764 0 65.1885 9.92506 647 85.17 912.037 488.529
765 0 68.2401 10.8587 741 83.3617 912.196 487.26
766 0 67.104 9.73116 653 85.2113 912.853 490.518
767 0 69.0805 9.35141 646 86.0867 912.435 487.246
768 0 71.109 9.60497 683 86.0102 912.455 484.858
769 0 75.0778 9.56341 718 84.9109 913.18 484.38
770 0 77.0868 9.02878 696 86.3836 913.009 481.7
771 0 83.0726 11.4237 949 81.2655 912.861 482.369
772 0 87.0526 11.4988 1001 80.7183 913.236 482.892
773 0 91.0826 11.2974 1029 80.4742 912.767 482.834
774 0 92.0423 10.9949 1012 81.9684 912.529 481.18
775 0 95.0802 11.138 1059 82.2351 913.196 474.624
776 0 97.0636 11.4255 1109 81.6321 913.09 475.321
777 0 101.1 11.6617 1179 81.4614 913.431 471.729
778 0 105.136 11.3852 1197 81.9307 913.084 470.12
779 0 108.132 10.9773 1187 82.2822 913.04 468.54
780 0 111.093 10.7567 1195 84.4469 912.784 467.163
781 1 60.1191 9.96356 599 77.8598 911.346 491.509
782 0 63.123 10.2815 649 77.339 912.032 489.259
783 0 64.0836 10.5019 673 77.8945 911.513 488.975
784 0 67.0747 10.5107 705 74.8043 912.113 489.27
785 0 68.0688 10.6069 722 75.9584 911.835 488.853
786 0 70.1409 11.0777 777 74.3719 912.391 487.722
787 0 71.0798 9.91844 705 76.3872 912.542 487.074
788 0 76.0641 11.0959 844 73.9964 912.659 485.709
789 0 76.102 10.8407 825 76.2436 912.943 484.96
790 0 79.0634 11.2315 888 76.0687 913.666 482.207
791 0 81.0619 10.8806 882 77.3413 912.889 482.019
792 0 85.0384 11.2655 958 77.2338 913.783 482.014
793 0 88.0554 12.0152 1058 76.1919 913.147 480.457
794 0 91.1172 10.8871 992 78.7319 912.989 480.22
795 0 93.0725 11.8617 1104 79.2292 913.392 476.892
796 0 95.1056 11.5976 1103 81.0426 914.096 475.529
797 0 100.122 12.0653 1208 79.5406 913.367 476.735
798 0 99.1096 11.119 1102 84.4864 913.848 470.483
799 0 104.074 12.1068 1260 83.4365 913.6 471.698
800 1 59.0274 9.6057 567 79.1746 913.907 496.922
801 0 61.1388 10.5334 644 78.5373 913.539 496.315
802 0 63.0276 10.662 672 79.186 913.546 496.231
803 0 65.056 11.5132 749 76.7904 914.494 494.016
804 0 65.043 10.716 697 78.8752 914.151 493.832
805 0 68.0485 11.095 755 75.4795 912.617 495.321
806 0 68.1016 10.2494 698 77.9269 913.004 495.11
807 0 68.1626 10.0642 686 78.6691 912.768 493.777
808 0 71.0754 10.8336 770 77.8117 912.565 492.968
809 0 72.0843 10.8762 784 78.9145 913.078 491.881
810 0 77.1075 10.1547 783 80.2031 912.805 490.165
811 0 79.138 10.4501 827 80.2539 912.851 488.305
812 0 82.1121 10.8267 889 79.2295 913.376 487.163
813 0 84.1408 11.3381 954 78.4298 912.49 485.221
814 0 85.0645 11.0034 936 80.1624 912.052 485.318
815 0 88.0957 11.4308 1007 79.29 912.617 484.238
816 0 93.1039 11.6214 1082 79.5906 912.716 482.45
817 0 94.0583 11.7374 1104 79.6449 911.941 479.825
818 1 51.0293 9.21039 470 77.2383 911.957 502.832
819 0 48.0398 8.26399 397 78.6146 912.443 502.987
820 0 52.0195 9.40031 489 75.3415 912.321 501.894
821 0 54.0481 10.1206 547 73.7733 912.389 501.311
822 0 53.0771 9.17533 487 76.1561 912.094 499.838
823 0 54.0424 9.36302 506 70.332 911.237 498.235
824 0 56.1507 9.01147 506 68.0277 911.715 498.411
825 0 54.0524 8.52875 461 70.0456 911.414 497.423
826 0 58.1071 9.13831 531 68.5537 911.141 499.269
827 0 61.1135 8.41058 514 69.6167 911.086 499.842
828 0 61.1614 8.68194 531 68.8305 911.838 496.173
829 0 61.1568 8.6826 531 101.891 911.857 496.102
830 0 67.0885 9.01794 605 68.0694 911.633 495.694
831 0 69.1114 10.0273 693 67.6955 911.848 494.173
832 0 72.2154 9.67938 699 68.8841 911.555 490.943
833 0 74.107 10.026 743 69.1602 911.682 492.886
834 0 77.0545 9.74635 751 71.1997 911.707 490.763
835 0 79.0551 10.246 810 72.663 911.872 487.977
836 0 83.0621 10.149 843 81.3772 911.588 482.992
837 0 83.1233 9.92501 825 82.0715 911.88 483.865
838 0 91.0909 10.3962 947 80.3706 911.439 483.667
839 0 92.2038 10.6937 986 80.7181 911.018 481.396
840 0 93.2366 10.1999 951 82.7802 910.843 475.907
841 0 97.1448 9.42922 916 84.3603 910.684 475.772
842 1 195.328 10.9406 2137 90.4904 911.629 424.631
843 0 201.372 10.8605 2187 89.6959 911.068 422.402
844 0 209.358 10.8952 2281 88.8667 911.185 415.301
845 1 56.1898 9.28995 522 73.4042 911.588 495.981
846 0 55.1736 9.27979 512 74.8047 910.98 495.422
847 0 59.1578 9.85501 583 70.7804 911.698 498.264
848 0 62.0845 9.98639 620 70.6226 912.108 494.982
849 0 64.0696 10.4886 672 70.7068 910.696 494.107
850 0 65.0746 11.0181 717 71.6025 912.11 494.105
851 0 68.1741 11.3386 773 70.9146 911.442 495.009
852 0 70.0856 11.7999 827 71.2527 911.482 493.889
853 0 71.0913 10.9155 776 84.0696 912.227 492.909
854 0 74.1009 10.958 812 84.564 912.633 491.142
855 0 77.0928 11.1813 862 86.2146 911.037 489.655
856 0 80.1954 11.073 888 86.4077 911.561 489.563
857 0 83.12 11.5616 961 84.4995 911.175 489.359
858 0 83.1443 11.3056 940 86.4681 910.563 487.995
859 0 86.1472 11.3411 977 86.7185 911.488 487.31
860 0 86.1103 11.1717 962 88.3971 911.677 485.93
861 0 91.1177 11.4028 1039 87.2021 911.579 483.823
862 0 93.1356 12.0684 1124 87.8194 911.622 481.626
863 0 94.2147 10.9537 1032 89.6279 912.644 482.059
864 0 98.2031 11.1707 1097 88.382 911.625 481.436
865 0 101.242 11.8331 1198 90.9666 911.376 476.265
866 0 104.212 11.323 1180 90.2975 911.719 476.924
867 0 107.23 11.051 1185 90.1148 912.203 475.241
868 1 57.2106 11.0993 635 85.4252 912.006 497.876
869 0 54.1872 10.1869 552 87.596 912.024 497.018
870 0 53.1448 9.97276 530 77.0887 912.308 491.425
871 0 56.0507 10.1872 571 69.9527 911.485 495.243
872 0 58.1103 10.4456 607 70.3229 910.873 494.755
873 0 63.1205 11.5969 732 72.5246 911.145 496.9
874 0 62.0819 11.3721 706 74.1006 911.45 495.135
875 0 66.1318 11.7795 779 73.1823 911.045 495.534
876 0 67.088 11.388 764 74.5314 911.636 493.597
877 0 70.0775 11.2732 790 74.062 911.529 490.908
878 0 73.1027 11.3129 827 73.7908 911.557 490.856
879 0 73.0964 11.8884 869 74.0161 911.93 491.097
880 0 76.0774 11.1597 849 76.2144 911.159 488.849
881 0 77.0692 11.7038 902 75.8171 911.407 487.19
882 0 80.0772 11.439 916 76.6245 911.003 485.675
883 0 83.0968 11.1918 930 77.6462 911.041 485.839
884 0 82.0945 10.0128 822 81.5888 910.843 485.933
885 0 85.0584 10.9689 933 80.7899 910.795 484.334
886 1 48.0985 9.16869 441 80.4603 911.143 501.81
887 0 49.0807 10.1465 498 80.2329 911.143 500.508
888 0 50.0338 10.1931 510 80.5725 911.247 501.675
889 0 53.0578 10.1399 538 79.6952 910.628 499.381
890 0 55.0449 10.4097 573 79.5271 911.403 497.253
891 0 59.1283 10.7394 635 78.3433 910.91 496.863
892 0 59.1349 11.1947 662 78.6148 911.106 496.503
893 0 62.0872 12.0637 749 87.6929 911.244 494.648
894 0 62.0724 11.1644 693 91.531 911.81 493.603
895 0 63.1016 12.0441 760 90.2355 911.879 493.678
896 0 67.0688 11.436 767 91.7875 911.542 490.849
897 0 70.0724 11.6451 816 91.6029 912.12 490.995
898 0 72.1176 12.0498 869 92.5305 912.671 488.503
899 0 75.112 11.849 890 92.8719 913.275 487.442
900 0 77.1052 11.9836 924 94.8485 912.805 485.453
901 0 81.0697 12.5694 1019 93.2591 912.056 485.05
902 0 84.1174 12.221 1028 94.7121 912.461 483.397
903 0 84.1163 12.1261 1020 94.8216 912.679 483.16
904 0 88.0265 12.0418 1060 94.317 911.531 480.619
905 0 91.0833 12.3513 1125 93.6756 912.162 480.53
906 0 92.0762 12.5005 1151 97.5682 912.632 478.866
907 0 95.0878 12.5884 1197 98.9649 912.579 476.644
908 0 97.0628 12.5383 1217 99.8965 912.746 475.099
909 0 101.046 12.5388 1267 99.8058 912.499 474.764
910 1 55.0266 11.4672 631 95.4659 912.604 496.908
911 0 55.1023 11.0522 609 91.335 912.796 496.833
912 0 57.1061 12.1528 694 91.2161 912.862 496.733
913 0 59.0652 12.0037 709 94.1749 912.777 496.254
914 0 60.0774 12.434 747 93.8313 912.677 495.877
915 0 63.0334 12.4537 785 92.4166 912.768 494.34
916 0 64.0349 12.3526 791 85.7459 912.965 493.991
917 0 67.0709 12.032 807 88.7658 912.672 492.791
918 0 68.0517 11.4031 776 90.9562 912.772 491.844
919 0 70.0187 12.1967 854 88.7166 912.677 491.81
920 0 72.0666 12.1693 877 88.5154 912.465 490.864
921 0 72.044 10.7018 771 95.3619 912.309 486.14
922 0 73.0919 10.8904 796 96.3392 912.504 485.048
923 0 79.1134 12.1977 965 102.89 912.248 487.28
924 0 82.0562 12.0893 992 102.85 912.371 487.289
925 0 84.0898 12.5461 1055 102.149 912.398 486.255
926 0 84.0898 12.4866 1050 160.222 912.423 486.28
927 0 90.1019 12.497 1126 102.538 912.53 484.509
928 0 93.0619 12.4756 1161 101.688 911.636 483.895
929 0 96.0992 12.8097 1231 100.652 911.405 481.551
930 0 97.0884 11.7213 1138 97.283 912.002 479.771
931 0 99.0782 11.4253 1132 99.5168 911.966 478.813
932 0 103.053 11.9356 1230 97.2683 911.463 478.314
933 0 106.119 11.6849 1240 100.26 910.603 476.576
934 0 109.108 11.9056 1299 99.2363 911.458 476.266
935 0 112.084 11.6163 1302 101.165 910.935 474.061
936 1 57.1026 11.5231 658 92.2492 910.254 497.658
937 0 60.0897 11.7657 707 90.959 910.016 497.198
938 0 58.0471 11.0772 643 93.0902 909.928 499.18
939 0 61.048 12.2854 750 89.3173 910.364 499.485
940 0 64.0986 12.8708 825 89.0933 910.316 498.28
941 0 64.042 12.3044 788 91.4619 909.977 497.217
942 0 70.0865 12.827 899 100.485 910.222 496.067
943 0 71.0442 12.3866 880 102.447 910.406 493.775
944 0 71.0466 12.3722 879 144.94 910.408 493.612
945 0 76.0786 12.2899 935 103.097 909.857 492.554
946 0 77.0986 12.4905 963 103.141 910.017 490.468
947 0 79.0761 12.2161 966 104.377 909.84 488.084
948 0 82.1247 12.4445 1022 103.77 910.498 486.442
949 0 83.1089 12.0685 1003 105.019 910.76 484.619
950 0 87.0863 11.9192 1038 110.094 911.1 483.174
951 0 89.0524 12.6555 1127 110.894 910.688 485.213
952 0 91.0723 12.276 1118 111.627 912.369 482.366
953 0 94.0267 12.2837 1155 111.145 911.669 481.492
954 0 95.0527 11.4673 1090 114.032 911.937 477.673
955 0 100.101 12.5772 1259 101.111 911.015 476.639
956 0 102.078 12.275 1253 102.676 910.947 474.259
957 1 56.0124 10.1049 566 99.9258 910.207 499.254
958 0 54.0079 10.7762 582 94.3866 910.766 495.837
959 0 55.0171 10.4149 573 95.0436 910.466 491.981
960 0 59.0393 10.62 627 88.6922 911.9 496.965
961 0 60.0749 10.2206 614 85.3567 910.373 496.208
962 0 61.0876 9.7401 595 85.0824 910.654 496.877
963 0 65.0747 9.57361 623 84.5538 911.234 497.904
964 0 67.1671 9.66246 649 84.0755 910.86 496.018
965 0 68.0558 9.60976 654 84.581 911.497 494.466
966 0 69.0788 9.06211 626 85.6853 911.74 491.272
967 0 74.0906 9.98777 740 83.3243 911.665 490.173
968 0 76.0691 10.1618 773 82.3829 911.814 490.889
969 0 79.0983 9.68416 766 83.5966 912.038 487.269
970 0 82.0564 9.94438 816 83.3333 911.809 486.564
971 0 83.0921 9.35107 777 84.4093 912.01 485.77
972 0 84.1225 10.5442 887 83.4882 912.256 481.338
973 0 88.0407 11.1085 978 84.3088 912.86 482.9
974 0 90.0778 10.3799 935 85.339 913.394 479.532
975 0 93.0394 10.028 933 85.6131 912.851 478.87
976 0 97.0621 10.0348 974 85.5883 913.719 477.111
977 0 99.0773 10.5776 1048 84.6536 913.479 475.374
978 0 102.123 9.74314 995 91.2734 913.431 471.619
979 0 108.07 10.1508 1097 93.3756 913.993 467.968
980 0 112.068 9.40503 1054 95.2676 914.27 466.311
981 0 111.144 9.12329 1014 100.369 912.633 465.166
982 0 112.073 8.79784 986 91.1968 913.095 464.268
983 1 64.0468 10.6953 685 87.7401 912.128 489.161
984 0 63.0909 9.51009 600 77.0033 911.923 494.337
985 0 63.053 8.07258 509 80.3202 912.145 490.67
986 0 65.077 8.75886 570 79.9123 911.54 490.505
987 0 75.0425 3.65126 274 82.0109 912.336 499.467
988 0 74.0402 6.45595 478 81.9205 912.918 489.554
989 0 73.0467 7.1598 523 82.5793 911.746 486.922
990 0 75.0803 7.88489 592 82.2061 912.446 486.248
991 0 79.0754 9.66167 764 79.0262 913.082 484.897
992 1 90.0338 3.02109 272 82.9081 913.246 499.555
993 0 91.0853 4.11702 375 81.9307 912.827 494.197
994 0 88.0418 7.20113 634 82.776 912.621 477.781
995 0 90.0778 9.36967 844 80.8104 913.117 479.508
996 0 92.0649 9.24348 851 81.5194 912.851 476.16
997 0 97.1055 8.66068 841 80.893 913.272 474.326
998 0 101.07 8.90472 900 82.6289 912.699 472.511
999 1 55.0215 9.14188 503 81.6799 913.551 495.205
1000 0 59.0268 10.1988 602 85.304 913.372 493.03
1001 0 56.0565 8.58062 481 81.7775 913.601 496.075
1002 0 59.0568 9.71946 574 80.4286 913.599 494.664
1003 0 58.1162 8.50021 494 82.9049 913.739 493.318
1004 0 60.0347 7.34576 441 81.2562 914.32 494.354
1005 0 63.0396 8.77226 553 80.8915 914.269 490.41
1006 0 70.024 6.19788 434 83.341 914.767 493.028
1007 0 70.0524 8.07967 566 84.6678 914.836 488.919
1008 0 70.0636 8.59219 602 88.0864 913.987 487.748
1009 0 76.1333 9.92996 756 86.1614 913.542 488.683
1010 0 78.1145 10.5998 828 87.8841 914.26 486.878
1011 0 80.0714 10.0161 802 90.8155 913.696 485.908
1012 0 84.1441 10.3038 867 91.6713 912.986 485.146
1013 0 89.1149 11.5918 1033 89.9322 912.878 484.703
1014 0 91.1202 11.8196 1077 91.8199 913.115 482.596
1015 0 93.1132 11.674 1087 93.7387 912.564 481.512
1016 0 97.1352 11.8495 1151 93.3293 913.186 481.343
1017 0 98.1887 11.2538 1105 95.5864 913.636 480.972
1018 0 103.235 12.118 1251 95.2814 913.967 477.319
1019 1 56.1224 11.0295 619 96.7706 914.294 499.414
1020 0 58.1051 11.5136 669 98.1734 914.336 496.191
1021 0 58.1255 11.1655 649 97.3005 915.142 495.532
1022 0 60.0608 11.3052 679 93.9013 914.853 496.225
1023 0 63.0588 11.5289 727 80.0853 915.556 496.475
1024 0 65.1639 11.8317 771 79.5357 915.392 495.013
1025 0 67.0529 11.6028 778 80.6144 914.198 493.062
1026 0 68.0323 11.9649 814 80.6179 913.812 492.959
1027 0 72.0912 12.2206 881 79.3076 913.765 491.37
1028 0 72.0496 12.0056 865 80.9376 913.432 490.607
1029 0 76.0228 12.0622 917 80.3021 913.61 488.96
1030 0 76.0297 11.6402 885 81.9514 912.893 487.693
1031 0 80.0494 11.8177 946 82.3266 914.465 486.034
1032 0 83.046 12.0656 1002 82.6657 913.837 484.653
1033 0 85.0395 12.0297 1023 83.9179 914.007 482.978
1034 0 85.0424 12.1351 1032 125.685 914.012 482.89
1035 0 89.1228 10.2667 915 93.0667 913.56 479.268
1036 0 93.0845 10.7859 1004 91.742 914.491 478.303
1037 0 94.0596 11.2907 1062 91.354 914.329 477.511
1038 0 98.0432 10.6484 1044 92.8831 914.061 475.105
1039 1 50.0127 8.81776 441 81.8776 913.358 502.707
1040 0 53.0238 9.7692 518 82.3552 914.039 501.017
1041 0 56.0575 10.7033 600 79.7633 913.667 501.127
1042 0 56.0811 11.0019 617 80.1896 913.963 498.791
1043 0 58.1309 11.3537 660 83.5091 914.029 496.35
1044 0 60.0579 11.006 661 78.8956 914.375 497.278
1045 0 61.0322 11.2564 687 78.8952 914.504 496.642
1046 0 63.0152 11.4099 719 78.6106 914.654 496.325
1047 0 65.0226 10.827 704 79.5938 914.724 495.513
1048 0 65.0159 11.2126 729 79.4952 914.118 493.778
1049 0 68.0804 11.7949 803 78.2528 914.646 492.204
1050 0 68.0453 10.8016 735 80.3197 914.303 491.144
1051 0 72.0263 12.1761 877 77.6123 913.751 490.546
1052 0 73.0407 11.8564 866 78.8037 914.12 489.826
1053 0 74.1003 11.7813 873 79.7125 914.006 487.753
1054 0 76.0475 11.6506 886 84.5068 914.359 485.905
1055 0 80.1237 11.1577 894 85.9206 914.221 484.818
1056 0 83.0638 11.0879 921 85.7666 914.481 486.059
1057 0 85.0458 11.4409 973 86.2045 914.097 484.513
1058 0 87.0707 11.1978 975 89.2687 914.385 482.835
1059 0 90.1493 11.2702 1016 89.5876 914.208 480.412
1060 0 92.0633 11.0468 1017 90.0767 913.465 478.105
1061 0 94.0103 9.83935 925 92.5859 913.639 480.239
1062 1 52.0299 9.34078 486 87.4691 913.671 501.449
1063 0 52.2607 9.24213 483 87.0973 913.164 497.393
1064 0 56.1615 10.0781 566 84.5406 912.995 498.405
1065 0 58.108 10.1879 592 83.8632 912.534 497.688
1066 0 60.022 10.2462 615 84.0829 912.834 496.917
1067 0 61.0542 9.89285 604 84.7798 913.623 495.449
1068 0 64.1042 9.98374 640 83.5875 913.161 493.992
1069 0 65.0408 9.50173 618 83.754 913.273 489.38
1070 0 56.0336 11.6359 652 103.758 913.236 426.762
1071 0 53.0397 5.9201 314 88.2166 912.901 499.736
1072 1 74.0461 10.8581 804 81.2027 913.086 490.612
1073 0 74.0346 10.5626 782 81.6701 913.362 488.207
1074 0 78.0406 10.046 784 82.3533 913.57 487.651
1075 0 80.0975 10.2625 822 82.2202 912.734 484.539
1076 0 80.0695 9.76652 782 93.1841 913.551 480.441
1077 0 86.0745 10.3515 891 91.5567 913.342 482.125
1078 0 90.0777 11.1348 1003 88.9721 914.131 483.121
1079 0 93.1136 10.2778 957 90.1045 913.722 482.18
1080 0 97.1269 11.8608 1152 87.612 914.041 481.451
1081 0 98.1017 10.6522 1045 89.3263 914.122 479.331
1082 0 102.073 11.1195 1135 83.9128 912.675 478.419
1083 0 104.074 10.531 1096 88.6058 912.352 476.68
1084 0 109.099 10.9442 1194 85.9288 912.601 476.162
1085 0 112.154 10.334 1159 86.6868 913.254 473.226
1086 0 116.221 10.2821 1195 84.9506 914.002 474.663
1087 1 63.0287 10.7887 680 77.8368 913.631 498.037
1088 0 64.0166 10.0911 646 79.5449 913.591 496.602
1089 0 67.03 11.1741 749 86.1135 913.623 496.222
1090 0 69.0717 11.698 808 86.4158 913.317 494.781
1091 0 72.0703 11.8357 853 87.3036 912.954 494.252
1092 0 73.0533 11.8954 869 85.5339 912.974 493.498
1093 0 75.0854 11.8132 887 85.0879 912.595 491.413
1094 0 78.0987 11.7544 918 84.7582 913.12 489.779
1095 0 80.0676 11.3904 912 85.8575 912.894 489.129
1096 0 80.0847 12.0373 964 84.6214 912.276 487.459
1097 0 83.0793 11.2543 935 87.0043 913.455 487.507
1098 0 86.0813 11.4311 984 86.1463 913.008 485.223
1099 0 87.0684 11.3129 985 85.8843 914.445 485.668
1100 0 93.1669 12.0751 1125 83.6942 913.777 482.95
1101 0 95.1107 11.7863 1121 84.1829 912.974 479.879
1102 0 98.1642 11.8781 1166 84.3208 913.122 479.272
1103 0 102.211 11.8186 1208 83.8171 913.486 477.325
1104 0 103.197 11.8996 1228 86.5041 912.979 474.306
1105 0 105.189 11.4556 1205 89.0996 912.897 473.737
1106 0 107.205 11.0349 1183 88.3939 913.192 475.192
1107 1 210.264 10.5915 2227 103.465 913.434 422.655
1108 1 65.1112 9.86005 642 87.2882 913.449 494.863
1109 0 68.1567 10.7253 731 84.093 913.598 495.063
1110 0 69.0688 11.0035 760 73.2855 914.401 494.818
1111 0 67.0167 9.22158 618 75.8091 913.328 496.845
1112 0 69.0559 9.70228 670 75.8343 912.793 497.122
1113 0 70.0842 9.57419 671 77.1699 912.651 494.559
1114 0 75.0518 9.14035 686 77.0277 912.445 496.029
1115 0 73.0222 9.47658 692 77.8092 912.604 494.874
1116 0 77.0484 10.0716 776 77.3724 913.451 492.023
1117 0 79.0395 10.4758 828 77.1739 912.888 491.066
1118 0 83.1061 9.86691 820 78.5988 913.094 488.077
1119 0 83.1222 10.3823 863 78.8366 912.999 487.289
1120 0 86.0545 9.57532 824 79.4017 913.17 487.442
1121 0 90.0691 9.68146 872 79.4805 913.135 485.694
1122 0 92.1078 10.5963 976 79.8023 912.899 483.943
1123 0 96.1532 10.0465 966 80.7619 912.917 481.896
1124 0 98.076 10.1758 998 81.991 912.938 480.092
1125 1 46.0373 8.58 395 79.0861 913.499 507.972
1126 0 45.0204 9.08477 409 78.8802 914.005 506.704
1127 0 50.1212 11.2128 562 76.4911 913.589 504.297
1128 0 49.0121 10.4056 510 85.7706 913.31 502.624
1129 0 49.0478 10.2349 502 85.2629 911.695 503.948
1130 0 48.0644 8.96714 431 83.109 911.265 505.142
1131 0 52.1086 11.0538 576 80.0712 911.842 503.592
1132 0 54.0682 10.5422 570 80.2421 912.079 504.572
1133 0 56.0463 10.5627 592 80.9088 912.385 503.181
1134 0 56.078 10.7707 604 81.3891 911.917 503.013
1135 0 57.0981 10.5608 603 82.5539 911.718 502.398
1136 0 61.0556 10.4495 638 83.2884 911.669 501.658
1137 0 62.0599 11.0377 685 83.4482 912.276 500.791
1138 0 63.0841 10.8902 687 85.0175 911.681 499.502
1139 0 65.1697 11.1555 727 84.8748 912.058 500.334
1140 0 67.0835 11.2695 756 86.0093 911.882 498.536
1141 0 71.1519 11.7495 836 85.9904 911.696 497.798
1142 0 73.0831 11.699 855 86.1918 911.385 496.35
1143 0 74.094 11.6339 862 87.6937 910.879 494.277
1144 0 75.0315 11.4352 858 90.1329 910.815 492.554
1145 0 78.0447 11.6215 907 90.7993 910.835 490.585
1146 0 82.0945 11.6208 954 89.8155 910.887 491.716
1147 0 83.0676 11.2077 931 91.4415 910.938 489.506
1148 0 87.0842 10.7482 936 95.1111 911.315 488.522
1149 0 89.0576 10.9031 971 84.8579 911.779 485.455
1150 1 49.052 9.88747 485 82.4433 910.934 501.447
1151 0 46.0225 9.14771 421 83.8456 911.577 492.762
1152 0 52.0369 8.43633 439 69.6879 911.435 504.144
1153 0 54.0437 8.77068 474 69.884 911.928 502.532
1154 0 55.0417 10.5556 581 69.0516 911.103 499.671
1155 0 57.0416 9.83493 561 70.9216 911.392 499.859
1156 0 59.0707 9.63253 569 72.0615 910.483 498.374
1157 0 60.0355 9.27784 557 73.1293 911.045 497.81
1158 0 62.0812 10.744 667 79.976 912.556 501.864
1159 0 65.0411 12.2384 796 77.7726 910.81 500.83
1160 0 67.0839 11.672 783 78.6092 910.904 499
1161 0 67.0639 10.736 720 81.2569 911.14 498.233
1162 0 69.05 11.1658 771 80.454 910.97 498.732
1163 0 71.0769 11.8604 843 79.2871 911.335 497.469
1164 0 74.0976 11.7008 867 79.7982 910.83 495.21
1165 0 76.1126 11.9165 907 79.5612 910.959 494.863
1166 0 76.1022 10.8801 828 82.9493 911.281 494.873
1167 0 76.1022 10.8538 826 153.77 911.285 494.786
1168 0 82.0689 11.466 941 81.9277 911.128 493.676
1169 0 84.0428 11.2086 942 82.4947 911.451 492.576
1170 0 88.0436 11.7555 1035 82.5971 910.988 489.182
1171 0 91.0438 11.5329 1050 83.6143 910.961 488.883
1172 0 94.0459 11.5688 1088 84.4982 910.984 487.097
1173 0 97.0744 10.9298 1061 86.868 910.971 484.258
1174 0 100.104 11.3882 1140 85.2825 911.251 483.34
1175 0 104.055 12.0129 1250 85.4064 910.654 480.398
1176 1 56.0397 10.8494 608 81.1069 911.018 504.441
1177 0 56.041 9.76071 547 83.1207 910.85 504.662
1178 0 58.0088 11.2914 655 80.7069 910.269 502.169
1179 0 60.0667 10.788 648 81.3519 910.329 499.886
1180 0 62.057 11.2155 696 80.5316 911.397 498.861
1181 0 65.0153 11.0436 718 78.8301 911.791 498.962
1182 0 67.0339 12.158 815 78.0331 911.625 497.809
1183 0 68.0102 12.0276 818 78.2812 911.656 496.929
1184 0 72.0568 11.824 852 77.4718 911.947 496.029
1185 0 74.0335 12.2107 904 77.4546 912.221 493.746
1186 0 75.0949 11.7718 884 79.3428 911.793 492.972
1187 0 78.0436 11.6986 913 78.9671 911.677 491.253
1188 0 79.0388 11.1464 881 81.3099 911.506 489.455
1189 0 81.0345 11.4519 928 80.4569 911.238 486.482
1190 0 84.0688 11.9664 1006 79.7078 911.559 485.476
1191 0 85.1691 11.4478 975 81.7159 911.809 484.019
1192 0 89.1107 11.1771 996 83.3062 912.25 481.899
1193 0 91.0906 12.4382 1133 81.7873 911.945 481.921
1194 0 95.0293 13.0065 1236 82.9587 911.921 481.614
1195 0 97.0997 12.688 1232 84.1631 911.891 481.575
1196 0 101.093 12.8001 1294 84.1484 911.813 480.63
1197 0 102.134 12.7284 1300 85.4946 911.257 478.355
1198 0 106.257 12.6862 1348 85.4636 911.117 476.866
1199 0 112.164 11.9468 1340 94.3933 910.954 473.184
1200 1 56.0567 9.25849 519 87.0559 911.595 495.497
1201 0 54.052 9.76837 528 86.5511 911.36 493.661
1202 0 60.0384 11.2428 675 81.203 911.484 500.27
1203 0 62.0319 10.0916 626 81.5431 911.173 500.625
1204 0 65.0184 10.3355 672 79.4048 910.281 497.996
1205 0 66.0357 10.6609 704 78.946 910.757 498.286
1206 0 68.0316 9.62788 655 80.2947 911.516 498.788
1207 0 72.073 10.3922 749 78.1549 911.463 497.091
1208 0 74.0433 9.92662 735 78.8367 911.279 495.808
1209 0 77.0491 10.6555 821 78.5128 911.736 494.157
1210 0 79.0549 9.82861 777 79.5997 911.588 493.179
1211 0 82.0489 10.4937 861 78.1231 911.182 491.252
1212 0 86.141 10.6918 921 78.3398 911.549 490.116
1213 0 89.1036 10.8189 964 79.0093 912.038 488.048
1214 0 91.0525 10.3676 944 79.0053 911.132 486.217
1215 0 94.0592 10.9718 1032 80.2374 911.696 486.692
1216 0 96.1418 10.4533 1005 81.7015 911.912 484.661
1217 0 99.0763 10.7594 1066 81.3574 911.283 481.709
1218 0 102.07 10.6202 1084 81.1079 911.448 479.308
1219 0 108.119 11.0896 1199 79.5513 911.321 478.749
1220 0 111.136 11.3644 1263 80.9422 911.39 476.237
1221 0 116.204 10.5504 1226 87.5294 911.714 473.162
1222 1 65.0724 10.0196 652 80.158 911.202 498.482
1223 0 65.0908 10.9078 710 79.262 911.518 495.992
1224 0 70.1261 10.7806 756 77.9048 911.587 496.889
1225 0 70.0686 10.9321 766 77.2924 912.243 494.3
1226 0 76.1301 11.4147 869 89.5132 912.199 491.757
1227 0 79.0981 11.5173 911 89.4676 912.018 491.71
1228 0 78.1729 11.6537 911 90.5917 911.726 488.909
1229 0 82.1018 10.3165 847 90.4935 912.012 488.575
1230 0 87.1083 10.7223 934 88.9015 911.915 485.297
1231 0 90.0943 10.6555 960 90.3135 911.522 483.452
1232 0 91.0733 11.2437 1024 89.7969 911.554 483.504
1233 0 96.1023 11.5086 1106 88.7722 912.209 480.527
1234 0 99.0935 11.2722 1117 88.0842 911.763 479.758
1235 0 101.121 11.6296 1176 88.79 911.838 479.312
1236 1 53.1052 9.28346 493 85.9412 912.174 505.168
1237 0 53.1103 9.86625 524 80.6107 911.359 504.926
1238 0 55.2068 10.8682 600 81.305 911.232 501.453
1239 0 57.1931 10.6481 609 83.8949 910.872 499.432
1240 0 60.0754 11.5355 693 82.6753 911.32 500.792
1241 0 61.023 11.4219 697 79.231 911.257 501.587
1242 0 61.0143 12.0955 738 79.107 911.252 499.257
1243 0 62.0297 11.7041 726 81.5716 911.222 497.937
1244 0 63.0398 11.5165 726 82.4697 911.822 498.904
1245 0 68.0713 12.957 882 78.3016 911.806 496.714
1246 0 71.0415 12.2464 870 79.0793 911.599 496.084
1247 0 71.0228 12.6016 895 79.838 910.984 494.064
1248 0 74.0467 12.5326 928 81.417 911.375 493.06
1249 0 77.058 12.9123 995 80.1648 911.106 492.648
1250 0 77.0705 12.8973 994 81.3239 911.499 491.509
1251 0 81.0678 12.7918 1037 81.0376 911.176 490.243
1252 0 82.0744 12.3912 1017 82.8918 911.757 489.565
1253 0 85.0909 12.3515 1051 83.1874 912.058 487.984
1254 0 86.0545 13.0964 1127 83.1508 912.159 488.906
1255 0 90.0374 12.9835 1169 82.8811 913.007 484.654
1256 0 91.0459 12.4223 1131 85.6251 911.712 485.51
1257 0 93.0317 11.9099 1108 87.4152 912.168 483.854
1258 0 96.1143 12.6828 1219 86.0369 911.264 481.833
1259 0 100.06 11.5031 1151 88.4083 910.965 481.872
1260 0 103.08 12.7668 1316 86.5775 911.334 480.705
1261 0 106.151 12.4633 1323 87.7332 911.305 478.82
1262 0 110.125 12.7673 1406 89.8826 911.275 475.905
1263 1 62.0199 10.9642 680 87.4382 911.675 500.857
1264 0 64.0465 10.4924 672 88.5729 911.659 501.116
1265 0 65.1792 11.338 739 90.7145 911.103 494.59
1266 0 66.1691 12.3471 817 89.918 911.144 494.764
1267 0 67.1456 12.7484 856 89.4883 911.321 495.145
1268 0 70.0782 12.1578 852 90.6373 911.451 494.886
1269 0 74.0408 12.9928 962 88.6757 911.715 494.121
1270 0 75.066 12.2692 921 90.5603 912.166 493.457
1271 0 78.0425 12.3651 965 90.1264 911.983 492.056
1272 0 81.0239 12.7 1029 89.6832 911.879 490.294
1273 0 82.0263 12.2156 1002 90.8313 911.773 489.538
1274 0 86.071 12.9079 1111 89.2745 912.701 488.081
1275 0 87.0456 12.5222 1090 91.4073 912.852 486.423
1276 0 87.046 12.5336 1091 147.434 912.861 486.37
1277 0 93.1006 12.8678 1198 91.5885 912.777 483.083
1278 0 97.2192 12.8781 1252 92.651 912.867 481.9
1279 0 97.0362 11.6245 1128 97.5594 913.344 482.077
1280 0 102.084 11.7942 1204 96.6968 912.713 480.006
1281 0 106.164 12.0851 1283 96.438 911.648 476.211
1282 0 111.141 12.7946 1422 94.3481 912.601 476.515
1283 1 59.0382 11.0945 655 95.6901 913.495 500.386
1284 0 63.1021 11.5527 729 94.2483 913.947 498.643
1285 0 64.0466 11.882 761 98.2247 913.463 497.891
1286 0 66.1024 11.9663 791 96.7067 913.415 497.518
1287 0 67.142 11.9001 799 97.0851 913.242 495.767
1288 0 69.1792 11.7376 812 97.5813 913.573 495.047
1289 0 71.1683 11.7328 835 97.0072 913.055 494.788
1290 0 75.167 11.9733 900 95.6122 913.508 492.681
1291 0 77.1458 11.9384 921 95.9359 913.113 489.77
1292 0 77.2919 11.5536 893 96.6327 912.375 487.94
1293 0 82.0771 11.7694 966 92.2547 911.87 487.91
1294 0 84.0736 11.6446 979 91.4545 912.16 486.578
1295 0 84.1703 10.5976 892 94.5224 912.117 481.997
1296 0 88.1174 11.3939 1004 91.3456 912.591 482.9
1297 0 89.083 11.0571 985 90.6893 911.963 479.414
1298 0 87.0861 8.95665 780 89.7821 912.074 471.631
1299 0 88.1292 8.82794 778 90.5167 912.862 472.405
1300 0 98.0994 10.8563 1065 89.2047 912.927 476.431
1301 0 100.138 10.4856 1050 90.3838 912.856 473.785
1302 0 103.135 9.56033 986 86.6004 912.85 473.506
1303 1 54.0754 9.22786 499 84.2766 912.493 499.343
1304 0 58.0529 10.1631 590 81.478 913.1 496.885
1305 0 57.1017 9.66696 552 90.3931 912.409 494.866
1306 0 59.0604 9.88818 584 90.1353 912.397 497.411
1307 0 61.1724 10.5767 647 89.4003 912.3 497.059
1308 0 62.081 10.0514 624 91.7067 911.657 495.615
1309 0 65.0585 10.6212 691 90.8061 911.566 495.269
1310 0 66.1023 10.8771 719 91.5035 911.922 494.131
1311 0 69.0561 10.7738 744 92.7809 912.324 493.05
1312 0 72.0593 11.1297 802 92.3404 912.414 492.234
1313 0 73.0462 11.0204 805 95.0857 911.549 490.358
1314 0 78.0742 12.36 965 91.6197 912.105 491.472
1315 0 80.0668 11.6902 936 93.5513 911.95 490.388
1316 0 83.1051 12.2736 1020 93.6098 911.552 489.745
1317 0 85.0534 11.9102 1013 96.9487 911.22 488.35
1318 0 87.0963 11.5849 1009 97.7304 911.282 486.024
1319 0 90.1283 11.3505 1023 97.3167 910.938 485.431
1320 0 94.0907 11.2763 1061 95.4251 911.549 484.132
1321 0 97.0422 11.7372 1139 95.7972 911.09 482.859
1322 0 99.0935 11.918 1181 98.4733 911.131 480.472
1323 0 102.176 11.4019 1165 98.6309 910.823 478.908
1324 0 105.248 11.6581 1227 97.9715 912.374 477.095
1325 0 109.1 12.1265 1323 96.1791 912.972 479.307
1326 1 63.0846 10.906 688 89.8372 912.355 502.36
1327 0 66.059 11.6108 767 93.721 912.632 501.348
1328 0 64.0817 9.64394 618 85.4288 911.45 493.773
1329 0 70.0849 11.7572 824 80.3883 911.273 498.05
1330 0 72.1131 11.7454 847 80.2668 910.998 496.256
1331 0 73.0589 11.6892 854 81.5855 911.006 494.963
1332 0 76.1172 11.7976 898 81.1715 911.12 494.108
1333 0 78.0945 11.1531 871 83.1366 911.386 492.626
1334 0 82.1293 11.7376 964 81.7728 911.052 493.011
1335 0 84.1128 11.437 962 82.6216 910.593 492.39
1336 0 87.1685 12.2292 1066 81.2083 910.543 489.791
1337 0 87.153 11.497 1002 84.0629 910.974 489.393
1338 0 90.0566 12.0369 1084 83.143 910.818 486.801
1339 0 93.1438 12.2499 1141 84.0762 910.733 485.819
1340 0 96.0828 12.4892 1200 85.0017 910.686 483.902
1341 0 98.0905 12.8759 1263 85.2787 911.744 483.345
1342 0 101.107 11.8192 1195 101.199 910.77 483.195
1343 0 105.121 12.4332 1307 100.043 910.927 481.439
1344 0 106.126 12.2119 1296 102.502 910.498 478.039
1345 0 108.19 12.4503 1347 100.331 910.082 478.059
1346 0 113.179 12.1665 1377 100.599 909.978 476.4
1347 0 117.295 12.3108 1444 99.5235 910.373 475.668
1348 1 64.1036 10.0774 646 93.6068 910.528 503.153
1349 0 66.1016 10.968 725 93.5007 909.879 501.884
1350 0 67.1146 11.7262 787 88.0038 910.192 501.449
1351 0 67.086 10.6431 714 81.888 911.161 493.881
1352 0 71.1524 12.1429 864 86.6007 910.413 496.546
1353 0 74.1195 11.7513 871 88.8817 910.434 496.393
1354 0 75.1238 11.9403 897 89.1204 910.247 496.009
1355 0 79.0901 12.353 977 88.9713 910.591 494.157
1356 0 82.129 12.8457 1055 88.1062 910.498 492.562
1357 0 84.1128 12.5665 1057 89.6897 910.6 489.168
1358 0 85.096 12.8326 1092 89.9716 910.07 489.032
1359 0 88.1178 11.8705 1046 90.6071 910.259 488.825
1360 0 91.0886 12.5921 1147 88.6164 909.809 487.39
1361 0 95.0931 12.6508 1203 87.4879 909.575 485.821
1362 0 97.0729 13.0727 1269 85.9354 910.043 485.894
1363 0 99.0851 11.8787 1177 89.6924 910.299 483.849
1364 0 103.11 12.1035 1248 89.234 910.46 482.271
1365 0 106.137 11.9185 1265 90.1542 910.697 480.795
1366 1 59.1086 10.6245 628 89.7086 910.662 505.078
1367 0 61.0847 10.4936 641 90.5351 910.49 503.75
1368 0 64.1346 11.2576 722 99.0942 910.407 502.187
1369 0 67.1051 11.9812 804 97.5547 910.311 500.311
1370 0 67.1051 12.011 806 137.017 910.284 500.249
1371 0 68.0861 11.7498 800 99.1288 909.25 498.791
1372 0 71.0541 11.4138 811 100.326 910.196 498.296
1373 0 74.0404 12.0745 894 97.7036 909.427 498.001
1374 0 73.0289 11.16 815 102.363 909.371 496.066
1375 0 76.0161 11.1161 845 101.541 909.529 495.896
1376 0 79.0412 11.2347 888 100.471 909.387 494.212
1377 0 82.1011 11.4615 941 94.6929 909.409 493.028
1378 0 82.0429 11.884 975 97.0759 909.447 492.426
1379 0 82.05 11.5052 944 98.6981 909.915 492.908
1380 0 82.0387 11.0314 905 103.686 910.328 492.362
1381 0 84.0654 12.1572 1022 103.952 909.974 492.826
1382 0 84.0754 11.5016 967 106.686 909.913 491.188
1383 0 86.0829 12.0465 1037 103.266 909.97 490.754
1384 0 87.1141 11.571 1008 103.179 909.186 489.137
1385 0 92.0513 12.2866 1131 97.4306 909.399 489.99
1386 0 96.0854 11.9789 1151 96.2033 909.451 488.215
1387 0 98.1507 12.1853 1196 93.4624 909.586 487.043
1388 0 100.088 11.7996 1181 92.3294 909.419 485.47
1389 0 102.152 11.5319 1178 91.7623 910.082 484.128
1390 0 106.161 11.0869 1177 91.3203 908.789 481.031
1391 1 53.072 9.89222 525 83.4038 908.469 505.034
1392 0 57.1303 11.2025 640 79.4703 909.073 503.762
1393 0 57.1194 11.3972 651 77.0507 908.794 503.759
1394 0 60.0579 10.8895 654 75.5612 909.778 505.131
1395 0 61.0456 10.7624 657 77.9239 909.909 503.651
1396 0 62.0548 11.2642 699 78.6967 909.641 502.993
1397 0 63.0805 10.7799 680 81.2868 909.85 501.382
1398 0 65.037 11.455 745 82.1544 910.059 501.109
1399 0 67.0801 11.2701 756 84.5569 909.623 498.12
1400 0 68.0903 11.0882 755 88.1801 909.609 497.682
1401 0 68.0906 11.1763 761 114.109 909.589 497.489
1402 0 73.0575 11.3199 827 96.3229 909.901 495.141
1403 0 76.0774 11.1597 849 98.0671 909.438 496.362
1404 0 76.1737 11.4607 873 100.961 908.526 493.452
1405 0 78.3115 11.5947 908 102.71 908.347 489.695
1406 0 81.2288 11.4245 928 105.11 908.793 489.841
1407 0 82.1898 11.4491 941 107.772 908.699 487.807
1408 0 86.2765 12.0079 1036 108.143 908.353 486.767
1409 0 89.2668 12.345 1102 108.559 908.409 485.176
1410 0 92.2183 12.2752 1132 111.916 909.287 484.108
1411 1 49.1957 10.4074 512 107.275 908.564 506.99
1412 0 51.2453 11.162 572 110.135 909.052 506.215
1413 0 52.204 11.072 578 113.621 909.254 504.531
1414 0 53.1642 11.5491 614 113.132 909.443 505.164
1415 0 55.1595 11.639 642 113.29 909.301 503.078
1416 0 55.1556 12.0205 663 116.504 909.139 502.566
1417 0 57.2018 12.3423 706 116.048 909.292 501.448
1418 0 59.2425 12.3222 730 114.399 909.033 502.163
1419 0 61.2245 12.201 747 114.959 909.357 499.878
1420 0 64.2598 12.465 801 112.885 909.047 500.221
1421 0 65.2191 11.8217 771 115.868 909.711 498.401
1422 0 67.224 12.2724 825 115.084 909.479 497.004
1423 0 69.206 11.6897 809 117.428 909.786 495.265
1424 0 71.1966 12.5849 896 114.662 909.751 495.084
1425 0 73.2154 11.8008 864 118.072 909.968 494.183
1426 0 74.2159 12.4771 926 116.398 909.523 493.232
1427 0 76.237 12.7366 971 116.23 910.053 492.061
1428 0 78.2234 13.0012 1017 115.383 909.496 489.4
1429 0 83.2406 13.2748 1105 113.529 909.25 488.837
1430 0 85.1823 13.0309 1110 115.374 909.905 489.616
1431 0 84.1884 12.3889 1043 147.2 910.001 488.492
1432 0 89.1842 13.8141 1232 111.504 909.969 487.075
1433 0 92.1556 13.6291 1256 111.916 910.248 485.27
1434 0 94.2448 13.1466 1239 115.051 910.387 484.409
1435 0 97.1917 13.1493 1278 113.971 909.432 482.3
1436 0 100.285 13.6012 1364 112.1 910.34 481.414
1437 0 102.271 13.699 1401 111.474 909.725 479.375
1438 0 105.352 13.8583 1460 111.253 909.523 478.213
1439 0 108.256 14.1055 1527 110.479 909.943 477.542
1440 0 110.239 13.3346 1470 113.189 909.73 476.131
1441 0 113.283 13.453 1524 113.24 909.928 472.541
1442 0 118.254 13.6824 1618 111.107 909.879 472.654
1443 0 123.225 13.5199 1666 110.014 910.194 470.158
1444 0 126.172 14.3376 1809 107.638 910.456 466.264
1445 1 68.2436 10.5944 723 107.083 909.6 495.25
1446 0 69.1991 10.5059 727 108.08 909.641 494.199
1447 0 72.1819 11.4018 823 105.462 909.983 492.916
1448 0 76.0899 12.4852 950 102.733 908.803 490.465
1449 0 79.0377 11.8298 935 106.384 910.139 490.005
1450 0 81.1436 12.2992 998 104.791 910.206 489.86
1451 0 82.0911 12.4496 1022 105.24 910.118 487.553
1452 0 82.0911 12.4983 1026 150.57 910.107 487.487
1453 0 88.0518 12.027 1059 106.284 910.339 482.192
1454 0 89.0866 12.1679 1084 106.199 910.398 482.428
1455 0 94.0933 13.0934 1232 102.969 910.876 480.707
1456 0 98.0391 12.852 1260 102.375 910.211 479.55
1457 0 100.152 12.521 1254 103.722 911.011 477.954
1458 0 103.161 12.7567 1316 102.438 910.606 475.828
1459 0 105.132 13.1739 1385 101.713 910.021 473.881
1460 0 103.106 12.2689 1265 146.853 909.077 471.202
1461 0 111.088 12.6836 1409 103.583 909.884 469.236
1462 0 113.091 12.7508 1442 102.946 910.42 467.706
1463 0 116.12 12.4096 1441 103.92 909.948 465.38
1464 0 121.171 12.6598 1534 103.192 909.999 462.242
1465 0 125.176 13.2214 1655 101.703 910.459 462.097
1466 0 130.104 12.8051 1666 102.106 909.804 458.387
1467 0 133.13 12.4465 1657 103.686 909.849 455.599
1468 0 136.169 12.6313 1720 103.803 910.259 453.248
1469 0 139.177 13.2493 1844 102.267 910.635 450.804
1470 0 144.155 12.9721 1870 103.08 910.216 449.656
1471 0 149.121 13.4253 2002 102.674 910.071 447.173
1472 0 149.12 13.4388 2004 147.58 910.071 447.077
1473 0 158.214 13.3048 2105 104.029 909.715 444.387
1474 0 163.155 13.3248 2174 104.516 909.996 439.333
1475 0 169.145 13.4795 2280 103.264 910.138 437.671
1476 0 171.234 13.21 2262 106.197 909.83 433.54
1477 0 171.241 13.1569 2253 153.992 908.843 433.455
1478 0 181.2 13.0243 2360 108.136 910.398 427.894
1479 0 189.215 13.0539 2470 107.615 910.391 424.66
1480 0 195.197 12.7717 2493 108.438 910.911 420.712
1481 1 118.202 10.2621 1213 103.354 910.159 459.824
1482 0 121.23 11.1441 1351 102.754 910.745 458.141
1483 0 126.299 12.2012 1541 103.097 910.535 456.757
1484 0 131.204 11.9509 1568 103.821 910.408 451.31
1485 0 137.325 12.4013 1703 102.2 910.573 449.947
1486 0 141.301 12.1231 1713 103.912 911.87 447.187
1487 0 144.359 11.8732 1714 105.017 911.25 443.319
1488 0 149.339 11.7786 1759 105.524 910.945 441.953
1489 0 154.305 11.568 1785 105.922 911.225 438.276
1490 0 161.359 12.2212 1972 103.168 911.209 436.186
1491 0 168.371 12.8763 2168 101.15 911.268 434.664
1492 0 173.278 12.8002 2218 102.437 911.144 429.569
1493 0 181.325 14.4713 2624 97.7565 911.148 425.065
1494 1 108.281 9.20748 997 93.3601 911.033 466.486
1495 0 112.232 10.4783 1176 89.2985 910.681 464.514
1496 0 115.097 10.4694 1205 86.3469 911.684 464.803
1497 0 118.062 9.80839 1158 79.1131 911.587 467.188
1498 0 122.158 9.93792 1214 80.7965 911.284 463.446
1499 0 127.109 10.1016 1284 85.2562 911.176 460.175
1500 0 129.098 9.77551 1262 84.6712 911.197 457.609
1501 0 134.156 9.52622 1278 84.8474 911.71 454.272
1502 0 136.109 9.67608 1317 86.4806 911.27 451.56
1503 0 142.154 10.566 1502 84.6678 911.683 451.206
1504 0 143.147 9.31212 1333 87.9587 911.334 444.64
1505 0 149.109 9.57017 1427 88.2411 911.373 441.744
1506 0 155.181 10.1494 1575 86.461 911.459 440.697
1507 1 92.0955 9.06667 835 71.3713 911.778 480.396
1508 0 94.106 9.38303 883 69.8131 911.764 476.881
1509 0 96.1601 9.2866 893 70.5162 911.951 476.42
1510 0 99.1573 9.82277 974 70.4979 911.388 473.833
1511 0 100.039 8.0069 801 74.8939 911.783 478.317
1512 0 101.101 7.72494 781 75.3547 911 476.412
1513 0 106.122 8.81063 935 75.1743 910.734 474.755
1514 0 110.055 9.32259 1026 75.692 911.412 471.857
1515 0 112.065 9.60158 1076 77.3931 911.894 467.731
1516 0 116.114 10.0677 1169 77.87 911.89 467.216
1517 0 117.108 9.67483 1133 81.7246 911.971 463.684
1518 0 123.083 10.7407 1322 81.9145 911.508 463.256
1519 0 127.151 9.9409 1264 84.9557 911.565 460.46
1520 0 129.077 9.90878 1279 86.7826 912.127 457.109
1521 0 132.171 10.5545 1395 85.1154 911.816 457.077
1522 0 134.129 10.3557 1389 86.9986 911.973 452.688
1523 0 139.11 10.1431 1411 87.3955 911.685 451.321
1524 0 144.144 10.3091 1486 87.1723 911.727 452.59
1525 0 147.129 10.8544 1597 86.7921 911.23 446.761
1526 0 153.125 10.6188 1626 87.2552 911.232 448.735
1527 1 92.2167 9.27164 855 75.6737 910.674 477.524
1528 0 93.2066 9.83836 917 77.9062 910.414 474.82
1529 0 97.2162 10.6155 1032 77.4709 910.66 474.58
1530 0 100.212 10.5775 1060 78.2906 911.14 474.09
1531 0 102.065 10.5913 1081 79.6549 912.611 473.421
1532 0 106.041 10.6469 1129 79.7405 913.127 474.111
1533 0 107.128 10.6321 1139 80.3222 913.04 472.593
1534 0 111.092 10.6579 1184 81.9071 913.07 468.13
1535 0 115.036 11.0139 1267 83.2549 912.472 468.445
1536 0 119.085 10.3875 1237 84.4947 912.162 467.416
1537 0 121.123 9.98985 1210 87.3975 911.449 464.54
1538 0 126.167 10.8903 1374 88.73 912.02 462.288
1539 0 127.066 11.073 1407 87.194 912.531 461.588
1540 0 130.113 10.2526 1334 90.7189 912.091 459.546
1541 1 76.0257 9.24687 703 84.0313 911.814 489.893
1542 0 75.046 9.66075 725 83.3559 912.161 489.316
1543 0 77.0706 10.7304 827 83.0097 912.525 488.438
1544 0 80.0408 10.6446 852 85.5681 913.073 485.417
1545 0 81.0656 10.4853 850 90.5447 912.061 481.099
1546 0 81.0976 10.025 813 93.0197 910.534 480.212
1547 0 86.1234 11.0771 954 89.9476 910.644 482.138
1548 0 86.118 10.5669 910 92.256 910.908 482.077
1549 0 90.1526 11.8244 1066 89.3705 910.824 478.535
1550 0 91.0573 11.2017 1020 91.5765 910.554 478.587
1551 0 93.1194 12.2423 1140 89.5246 910.744 477.843
1552 0 93.09 12.4396 1158 90.5268 910.915 476.237
1553 0 97.1068 11.9044 1156 91.3651 910.603 476.311
1554 0 98.1211 12.1381 1191 92.649 910.616 473.624
1555 0 99.0859 11.596 1149 93.718 910.736 471.735
1556 0 104.078 11.991 1248 92.3662 910.522 472.503
1557 0 105.076 12.315 1294 93.1468 911.172 470.77
1558 0 106.08 12.0192 1275 94.8949 911.304 469.758
1559 0 112.12 12.5847 1411 92.477 912.155 468.452
1560 0 112.148 11.7612 1319 89.9477 911.409 466.615
1561 0 115.175 12.1902 1404 92.2236 911.026 464.547
1562 0 119.076 11.7572 1400 91.8279 911.477 463.274
1563 0 123.157 12.1228 1493 91.3081 911.417 463.496
1564 0 128.132 12.8617 1648 86.1456 911.002 462.297
1565 0 131.126 12.2325 1604 88.4046 911.222 459.577
1566 0 134.122 11.4374 1534 89.4778 910.883 457.222
1567 0 138.122 11.7867 1628 87.8876 911.584 453.732
1568 1 82.035 9.27652 761 80.5558 912.11 483.214
1569 0 84.0941 9.76287 821 78.8648 912.761 484.15
1570 0 86.0977 10.3719 893 77.9989 911.819 481.4
1571 0 88.0795 11.3534 1000 79.243 911.859 481.822
1572 0 91.0655 11.3545 1034 85.2756 911.183 480.423
1573 0 93.0761 11.7216 1091 85.1769 911.443 481.143
1574 0 95.1036 11.293 1074 87.257 911.354 478.421
1575 0 99.1045 12.0176 1191 85.9051 910.749 476.964
1576 0 101.081 12.2377 1237 86.5271 910.503 476.767
1577 0 104.056 11.9743 1246 87.0955 910.486 474.275
1578 0 107.04 11.8553 1269 86.8936 910.433 472.461
1579 0 109.086 11.9539 1304 86.625 910.335 470.674
1580 0 110.041 11.9864 1319 87.6277 909.488 468.832
1581 0 114.053 12.0733 1377 87.4561 910.617 468.189
1582 0 117.03 12.2533 1434 87.7782 910.67 465.619
1583 0 116.1 11.5848 1345 89.1539 910.532 463.121
1584 0 122.058 11.7157 1430 87.7469 911.174 462.339
1585 0 126.045 11.6466 1468 86.7459 911.238 461.72
1586 0 130.089 11.692 1521 86.2978 911.435 459.323
1587 0 135.109 11.2872 1525 83.7377 910.681 457.588
1588 1 77.1591 9.09809 702 73.4786 910.516 486.212
1589 0 79.0545 9.32269 737 71.9335 910.76 486.962
1591 0 82.0739 9.528 782 74.2276 910.894 481.843
1592 0 84.1044 10.701 900 72.8644 910.238 482.732
1593 0 84.1298 9.35459 787 74.9416 909.924 481.975
1594 0 86.1221 9.23108 795 75.8277 910.595 478.919
1595 0 88.0882 9.02505 795 76.9585 910.624 479.991
1596 0 92.1366 9.43165 869 76.2129 910.501 477.064
1597 0 99.1508 10.2974 1021 76.5191 909.646 476.707
1598 0 101.106 10.9193 1104 77.8741 910.202 472.507
1599 0 103.068 10.4009 1072 79.9235 910.211 471.998
1600 0 108.118 10.8307 1171 79.3672 910.477 470.505
1601 0 108.056 10.0596 1087 82.0009 910.858 468.461
1602 0 114.08 11.0273 1258 81.8156 910.689 465.417
1603 0 116.058 10.9342 1269 82.5926 911.118 464.538
1604 0 119.107 11.2839 1344 83.875 910.778 463.089
1605 0 119.103 11.3515 1352 126.588 910.783 463.054
1606 0 126.136 11.7889 1487 86.078 911.059 457.377
1607 0 130.12 12.0965 1574 87.291 910.638 455.3
1608 0 130.269 11.7603 1532 89.9974 910.587 450.845
1609 0 138.22 12.5887 1740 88.204 910.67 452.1
1610 0 142.337 12.927 1840 87.662 910.176 452.081
1611 0 142.187 12.5609 1786 90.8561 910.6 446.73
1612 0 143.224 12.1209 1736 93.2419 910.772 439.834
1613 0 149.269 13.2244 1974 90.3683 910.956 442.125
1614 0 149.187 12.4207 1853 93.3999 910.926 433.801
1615 1 86.1069 9.62756 829 88.9095 910.586 468.046
1616 0 92.1142 10.6281 979 86.3943 910.707 468.694
1617 0 96.0967 11.041 1061 83.0999 910.265 466.229
1618 0 95.0598 11.0036 1046 85.7113 910.561 463.724
1619 0 105.163 11.1065 1168 81.9666 911.21 470.849
1620 0 109.091 11.7517 1282 80.4337 911.477 470.971
1621 0 109.11 10.9889 1199 82.7423 911.693 467.999
1622 0 111.206 10.8897 1211 86.0025 911.939 465.774
1623 0 118.07 11.6117 1371 81.6032 910.685 460.995
1624 0 119.055 11.0285 1313 83.3031 910.842 459.224
1625 0 123.061 11.8397 1457 82.2114 911.476 456.09
1626 0 127.068 11.608 1475 83.7586 911.725 453.804
1627 0 131.18 11.1907 1468 83.4591 911.424 451.993
1628 0 134.142 11.3462 1522 83.6334 911.307 450.922
1629 0 138.165 12.3765 1710 83.8491 911.525 445.487
1630 0 136.148 11.6124 1581 87.9102 911.695 438.829
1631 1 86.1686 11.315 975 80.72 911.12 483.838
1632 0 82.139 9.33783 767 80.7405 911.687 484.834
1633 0 86.1474 9.63465 830 80.8614 911.07 483.604
1634 0 87.0872 10.3115 898 81.4844 910.572 483.443
1635 0 92.2159 10.9309 1008 81.1905 910.421 482.144
1636 0 93.166 9.87485 920 83.9467 909.779 480.795
1637 0 96.1338 10.735 1032 84.1376 910.205 477.226
1638 0 100.194 10.4897 1051 84.8601 909.813 477.483
1639 0 101.211 10.0483 1017 86.9941 910.532 475.13
1640 0 105.142 10.3004 1083 88.2031 910.585 474.375
1641 0 108.175 10.3074 1115 88.9274 910.553 471.869
1642 0 113.145 10.4556 1183 88.9932 910.348 469.033
1643 0 115.209 9.98187 1150 90.3696 910.086 468.557
1644 0 118.282 10.365 1226 91.3042 909.791 463.095
1645 1 71.1854 8.73774 622 91.0482 910.735 486.556
1646 0 74.1189 9.74111 722 82.2299 909.748 488.436
1647 0 75.1237 10.1566 763 82.2582 910.446 485.583
1648 0 78.0511 10.301 804 83.2214 909.434 486.894
1649 0 77.1114 8.01438 618 77.4887 910.756 491.081
1650 0 80.1718 9.06802 727 77.1857 910.476 488.344
1651 0 83.121 8.74628 727 78.729 910.197 486.403
1652 0 86.119 8.74372 753 80.1222 910.125 484.305
1653 0 89.1618 8.60234 767 80.5137 910.207 483.429
1654 0 92.0887 9.19765 847 81.1169 909.504 479.627
1655 0 95.1404 9.21796 877 81.3694 909.682 478.61
1656 0 100.116 10.1982 1021 80.0167 908.881 478.337
1657 0 102.089 9.49171 969 81.4066 908.514 476.438
1658 0 106.15 10.0235 1064 81.3017 909.019 476.113
1659 0 109.128 10.2265 1116 81.5134 909.363 474.864
1660 0 111.111 10.341 1149 82.7067 909.778 474.614
1661 0 116.104 10.8868 1264 82.447 909.365 472.569
1662 0 117.136 9.79206 1147 86.0732 909.684 468.755
1663 0 121.141 10.0792 1221 86.068 909.805 469.093
1664 0 122.176 10.1984 1246 87.6244 909.518 465.363
1665 0 127.207 11.1629 1420 86.893 909.008 464.433
1666 0 132.192 11.3093 1495 88.0388 909.478 463.305
1667 0 135.153 11.0912 1499 89.2468 908.968 458.894
1668 0 138.206 11.1066 1535 91.8137 909.321 455.454
1669 1 78.0729 8.87632 693 82.3622 909.915 485.517
1670 0 81.1111 9.72739 789 81.4981 909.179 485.94
1671 0 87.0536 11.223 977 80.1791 910.229 486.857
1672 0 89.1123 11.1769 996 81.6215 909.974 486.701
1673 0 90.1026 11.5535 1041 81.146 910.838 483.882
1674 0 93.0703 11.4644 1067 82.2324 910.287 482.388
1675 0 96.0861 11.1567 1072 83.3834 910.014 483.047
1676 0 98.0427 11.0258 1081 84.1693 910.152 479.736
1677 0 101.061 11.0527 1117 84.479 910.349 478.491
1678 0 104.096 11.8256 1231 82.0171 910.238 477.764
1679 0 106.097 11.5084 1221 83.6306 910.027 477.034
1680 0 110.072 11.3653 1251 84.5971 909.751 473.229
1681 0 112.087 11.1253 1247 85.6824 910.464 470.387
1682 0 112.087 11.0807 1242 118.409 910.449 470.353
1683 0 120.104 11.2736 1354 84.5975 910.639 468.038
1684 0 123.127 11.7521 1447 84.5314 911.006 465.23
1685 0 126.179 11.8958 1501 83.978 910.602 464.397
1686 0 127.07 11.049 1404 85.9729 911.038 463.321
1687 0 129.073 10.1028 1304 87.7876 911.259 459.759
1688 1 74.05 9.54761 707 81.372 911.799 490.502
1689 0 77.0347 9.72289 749 82.227 911.98 487.047
1690 0 76.0748 9.96388 758 82.4235 910.91 484.222
1691 0 80.1047 10.9856 880 84.3966 911.136 485.719
1692 0 86.0659 11.8281 1018 80.5845 910.469 485.45
1693 0 88.2787 11.7016 1033 81.3127 910.345 483.736
1694 0 90.0968 11.421 1029 82.0272 910.165 483.279
1695 0 94.0752 11.7672 1107 85.2746 909.929 482.351
1696 0 96.143 12.3982 1192 85.229 910.28 481.039
1697 0 99.2439 12.0007 1191 87.691 910.412 479.631
1698 0 101.112 12.0856 1222 87.3126 910.284 478.39
1699 0 104.037 12.4283 1293 86.2436 910.884 476.948
1700 0 108.131 12.4016 1341 86.2013 911.113 472.749
1701 0 112.109 13.2014 1480 84.1453 910.809 471.281
1702 0 115.067 12.8273 1476 86.6551 911.722 466.513
1703 0 115.124 12.6212 1453 88.4474 911.894 466.743
1704 0 119.148 12.5391 1494 88.5643 911.191 466.234
1705 0 125.146 12.6972 1589 86.8244 911.269 463.848
1706 0 127.161 12.7083 1616 87.4641 911.399 461.5
1707 1 72.0805 10.6964 771 90.4073 910.527 487.904
1708 0 73.135 11.1301 814 89.6413 909.515 486.445
1709 0 76.0951 11.6039 883 88.239 910.163 484.563
1710 0 78.086 11.2056 875 90.0103 910.291 489.799
1711 0 78.0947 11.0763 865 91.1618 909.909 486.948
1712 0 81.0808 10.9644 889 91.0731 909.803 486.517
1713 0 86.1029 11.6605 1004 88.9143 910.453 484.601
1714 0 86.0306 11.6586 1003 90.1565 910.566 482.354
1715 0 90.0488 12.149 1094 89.543 910.682 480.568
1716 0 91.0275 11.3482 1033 91.3979 910.659 480.192
1717 0 94.0496 11.5365 1085 91.0147 911.043 478.26
1718 0 96.0592 11.9822 1151 91.1685 910.858 474.925
1719 0 96.094 11.4367 1099 93.2056 910.448 470.651
1720 0 98.0687 11.3594 1114 93.4031 910.586 467.913
1721 0 102.069 11.9527 1220 93.5926 910.784 465.906
1722 0 105.136 11.7942 1240 93.8371 910.679 464.685
1723 0 109.147 11.7456 1282 94.8159 911.123 462.956
1724 0 109.162 12.5044 1365 94.2703 910.877 462.422
1725 0 114.147 12.3087 1405 94.4406 910.915 459.421
1726 0 117.126 12.2859 1439 95.3113 910.994 458.901
1727 0 117.132 12.2597 1436 155.681 911.999 458.675
1728 0 125.134 12.3627 1547 94.658 911.048 453.363
1729 0 127.122 12.4762 1586 93.9533 910.798 454.317
1730 0 132.172 12.1206 1602 94.8258 911.115 450.483
1731 0 136.231 12.4054 1690 94.3036 910.791 446.636
1732 1 81.0557 9.73405 789 92.6236 910.146 479.895
1733 0 86.0564 10.8766 936 89.1004 911.188 479.941
1734 0 87.0616 11.1071 967 87.9783 910.218 471.829
1735 0 89.0517 10.5332 938 82.2068 910.156 477.222
1736 0 93.1186 10.5027 978 81.2904 909.931 478.414
1737 0 96.0694 11.2939 1085 80.4627 910.204 477.852
1738 0 99.045 11.9037 1179 80.1467 910.536 476.979
1739 0 102.093 11.8421 1209 80.6873 911.405 475.488
1740 0 106.044 12.1459 1288 88.611 911.541 477.267
1741 0 111.075 12.7212 1413 86.7912 911.592 474.526
1742 0 112.104 12.1138 1358 88.3049 910.95 472.076
1743 0 118.146 12.9077 1525 85.2452 910.981 470.729
1744 0 120.092 12.0491 1447 87.188 910.274 467.307
1745 0 123.124 12.3778 1524 82.294 910.554 463.293
1746 0 128.055 12.073 1546 82.5828 910.88 460.321
1747 0 136.125 13.6271 1855 92.2081 911.918 460.507
1748 1 76.1273 11.1392 848 85.7264 911.048 492.395
1749 0 79.1178 11.7041 926 84.3153 911.23 491.26
1750 0 80.0467 12.4303 995 88.8422 910.984 490.338
1751 0 83.0415 13.0296 1082 87.2994 910.434 487.384
1752 0 85.0608 11.6505 991 85.9193 911.318 488.861
1753 0 85.0648 11.2267 955 88.3236 911.121 485.194
1754 0 89.1489 11.8117 1053 87.1918 910.782 484.965
1755 0 91.0821 11.6049 1057 86.7871 910.375 485.322
1756 0 92.0985 11.3031 1041 88.3449 910.875 482.393
1757 0 97.0593 11.663 1132 88.629 910.875 481.277
1758 0 98.0663 11.2883 1107 91.2042 910.673 480.831
1759 0 103.056 12.0614 1243 90.9887 911.067 479.525
1760 0 107.087 12.0182 1287 91.2075 911.59 477.103
1761 0 107.066 11.3481 1215 94.3309 911.731 475.331
1762 0 112.051 11.5037 1289 92.8573 911.329 475.032
1763 1 65.021 10.6581 693 92.7763 910.97 497.16
1764 0 66.0201 11.6934 772 91.2202 911.644 495.722
1765 0 69.0671 12.0752 834 89.699 911.763 494.386
1766 0 70.044 11.0359 773 73.1462 910.9 490.59
1767 0 73.0261 11.0782 809 73.3251 911.027 491.075
1768 0 73.0194 11.1477 814 74.3538 910.84 489.872
1769 0 77.0334 10.9823 846 74.4965 910.774 488.436
1770 0 77.0413 11.1369 858 75.2133 910.309 487.037
1771 0 81.0666 11.3117 917 75.4929 910.644 485.978
1772 0 82.0263 11.3988 935 82.7326 910.321 488.913
1773 0 85.1342 10.4776 892 79.8318 910.558 483.418
1774 0 88.0303 10.9849 967 79.1965 910.537 485.034
1775 0 89.0612 10.8689 968 81.282 910.592 482.786
1776 0 92.0641 11.0141 1014 81.6509 910.742 481.213
1777 0 95.0629 10.4352 992 83.6038 911.12 478.895
1778 0 99.0873 10.9802 1088 83.3272 911.427 478.724
1779 0 99.0773 11.0722 1097 132.409 911.436 478.837
1780 0 104.123 11.3904 1186 84.941 911.046 474.776
1781 0 107.071 11.936 1278 84.5955 910.895 473.124
1782 0 110.1 11.4805 1264 88.5214 910.55 473.782
1783 0 113.053 11.9325 1349 87.8428 910.324 472.5
1784 0 118.13 11.9699 1414 87.1407 909.818 471.173
1785 0 120.04 12.221 1467 86.8739 910.488 470.468
1786 0 124.098 11.7408 1457 87.9643 910.575 467.046
1787 0 128.077 12.797 1639 86.5247 910.891 467.092
1788 0 132.053 12.9039 1704 88.2999 910.393 464.668
1789 0 136.097 12.6674 1724 90.9049 910.855 461.105
1790 0 142.097 12.9207 1836 90.4706 910.926 458.58
1791 0 142.097 12.9559 1841 147.167 910.921 458.602
1792 0 150.186 12.8241 1926 92.3645 910.583 454.335
1793 0 156.177 13.0621 2040 92.8 910.859 450.618
1794 1 83.1665 11.8557 986 84.5507 910.217 490.425
1795 0 86.106 12.0085 1034 84.9371 910.128 489.173
1796 0 87.0627 11.8076 1028 87.4163 910.89 487.042
1797 0 91.1773 12.3934 1130 85 909.401 484.407
1798 0 95.1347 12.2143 1162 85.0628 910.095 483.407
1799 0 97.155 13.2057 1283 83.3655 910.198 482.561
1800 0 100.106 12.3869 1240 86.0048 909.977 480.14
1801 0 104.156 12.7886 1332 85.0255 909.885 479.625
1802 0 107.091 13.4278 1438 84.306 910.275 477.092
1803 0 109.103 13.0061 1419 85.7858 909.562 478.187
1804 0 110.172 12.3988 1366 93.0622 910.154 475.116
1805 0 115.074 13.4001 1542 88.57 909.683 473.804
1806 0 118.151 12.3063 1454 92.2166 910.28 470.4
1807 0 121.197 11.733 1422 91.4529 910.273 469.903
1808 0 126.113 11.91 1502 89.6411 909.874 468.074
1809 0 128.07 11.7592 1506 92.1979 910.475 463.543
1810 0 128.073 11.837 1516 135 910.464 463.67
1811 0 128.101 11.9047 1525 134.376 910.46 463.465
1812 0 128.072 11.9074 1525 134.074 910.46 463.465
1813 1 80.0511 11.8299 947 90.491 909.225 487.624
1814 0 82.088 12.645 1038 89.4374 909.162 486.445
1815 0 86.1506 13.1978 1137 88.6913 909.656 484.034
1816 0 89.0624 13.3726 1191 86.4358 909.039 485.381
1817 0 92.1385 13.3603 1231 87.264 909.492 484.803
1818 0 93.0468 13.735 1278 87.5266 909.571 480.472
1819 0 96.0692 13.4486 1292 88.9141 909.446 481.392
1820 0 98.071 13.1435 1289 90.0357 909.634 477.963
1821 0 102.111 13.7008 1399 87.2738 909.965 477.945
1822 0 105.085 13.9316 1464 85.7131 910.217 476.024
1823 0 107.072 13.5984 1456 84.9581 910.517 473.552
1824 0 105.035 12.0531 1266 92.3104 910.529 466.04
1825 0 110.208 11.9139 1313 92.3602 910.097 465.324
1826 0 111.124 11.8786 1320 93.4174 909.711 462.423
1827 0 119.073 13.1684 1568 89.3099 910.429 466.042
1828 0 122.079 13.5077 1649 90.071 909.799 462.384
1829 0 125.119 13.0036 1627 91.866 910.332 462.265
1830 0 129.156 13.4334 1735 91.2496 910.002 461.671
1831 0 132.097 13.7702 1819 91.2018 909.325 460.4
1832 0 137.159 13.2401 1816 93.8133 910.04 457.989
1833 0 141.131 14.1358 1995 93.5048 910.318 458.399
1834 0 145.138 14.2967 2075 94.3561 910.317 456.799
1835 0 150.164 14.5508 2185 94.1789 910.643 455.679
1836 0 153.222 14.2996 2191 99.8772 910.656 452.293
1837 0 158.176 14.2184 2249 101.466 910.286 447.504
1838 0 161.176 14.3011 2305 103.265 910.182 444.774
1839 0 167.137 14.6168 2443 103.047 910.129 441.788
1840 0 170.211 14.247 2425 105.544 909.632 439.051
1841 0 177.172 15.0588 2668 102.451 909.783 432.176
1842 0 180.156 14.3154 2579 101.143 909.81 432.766
1843 0 186.116 13.9053 2588 102.033 909.643 431.899
1844 0 191.196 13.7084 2621 103.596 910.065 427.843
1845 0 197.111 13.9262 2745 103.998 910.005 422.031
1846 0 203.202 14.4733 2941 102.967 910.723 418.654
1847 0 209.167 13.9027 2908 104.921 910.886 416.356
1848 0 214.161 14.1109 3022 104.356 910.383 412.847
1849 0 223.185 15.0727 3364 102.192 911.146 412.703
1850 0 222.146 13.041 2897 106.94 910.75 416.567
1851 0 222.195 10.6933 2376 110.973 910.73 419.333
1852 0 223.202 8.28396 1849 109.38 910.308 432.101
1853 1 189.21 11.7224 2218 101.696 910.104 432.325
1854 0 195.178 12.609 2461 99.9187 910.326 427.808
1855 0 202.331 13.2901 2689 99.7163 910.904 424.439
1856 0 208.3 12.578 2620 102.737 909.794 418.277
1857 0 215.312 13.1948 2841 102.019 910.628 413.272
1858 0 223.234 13.3582 2982 101.585 910.732 409.533
1859 0 231.282 13.7365 3177 100.95 910.709 406.807
1860 0 238.305 13.0379 3107 102.867 910.318 403.198
1861 0 246.311 13.4545 3314 101.906 910.731 399.89
1862 0 256.22 13.8748 3555 100.724 910.533 396.765
1863 0 263.407 13.7696 3627 102.101 910.965 390.902
1864 1 62.1955 10.0168 623 77.8812 910.642 497.4
1865 0 63.1312 10.201 644 77.7329 911.377 496.896
1866 0 66.0931 11.7259 775 74.1019 910.963 494.933
1867 0 68.1141 11.2312 765 75.9647 910.824 495.021
1868 0 69.0646 12.0901 835 74.909 910.61 492.669
1869 0 72.0725 12.1961 879 73.992 910.594 491.216
1870 0 76.0531 11.5183 876 84.6815 910.126 488.256
1871 0 78.1589 12.6793 991 84.1514 910.071 487.057
1872 0 79.1102 12.5142 990 83.8 910.848 488.288
1873 0 81.0633 12.225 991 85.0182 909.575 484.225
1874 0 82.0615 12.7465 1046 84.5717 910.346 483.753
1875 0 86.0958 12.2886 1058 85.0312 910.218 482.836
1876 0 90.1391 12.6027 1136 84.1901 910.449 482.759
1877 0 93.1076 12.8131 1193 84.7754 910.432 479.583
1878 0 94.1088 12.7512 1200 79.4575 910.828 478.527
1879 0 95.0971 12.2086 1161 80.9707 910.61 477.234
1880 0 98.1367 12.5539 1232 81.4221 911.015 475.597
1881 0 104.13 12.7725 1330 79.2932 910.993 475.109
1882 0 105.137 12.2316 1286 86.2792 911.03 472.226
1883 0 109.096 12.8236 1399 83.4782 910.352 470.551
1884 0 111.097 12.7636 1418 84.4654 911.011 468.974
1885 0 115.098 12.3547 1422 85.4255 910.903 467.535
1886 0 118.167 12.1692 1438 84.863 910.723 464.927
1887 0 118.143 12.1039 1430 128.65 910.734 465.04
1888 0 125.223 12.2741 1537 84.8412 910.561 461.064
1889 0 128.154 12.0558 1545 85.8576 909.979 460.338
1890 0 128.153 12.0637 1546 126.759 909.975 460.332
1891 0 135.214 11.6408 1574 88.4714 910.554 457.076
1892 0 138.066 12.5085 1727 88.872 910.43 451.921
1893 0 152.196 16.0057 2436 77.6182 910.833 443.863
1894 0 151.182 16.0733 2430 77.7951 910.907 452.924
1895 1 82.0675 12.5141 1027 84.9318 910.872 487.063
1896 0 84.1161 12.9345 1088 84.4301 910.925 487.839
1897 0 87.0821 13.9179 1212 83.5627 910.578 484.798
1898 0 88.0769 13.8856 1223 86.7285 910.07 480.979
1899 0 91.0581 13.5518 1234 88.2042 910.38 480.767
1900 0 92.087 13.6284 1255 88.4622 909.924 480.443
1901 0 95.0597 14.0333 1334 88.7144 909.919 479.642
1902 0 97.1026 14.1294 1372 89.1625 909.809 478.446
1903 0 100.095 13.4673 1348 90.0304 909.473 476.76
1904 0 103.056 13.6625 1408 90.7202 909.906 475.942
1905 0 106.086 14.1018 1496 91.1892 909.615 474.6
1906 0 108.091 13.6644 1477 93.9418 910.047 467.02
1907 0 109.033 13.7115 1495 95.8555 909.222 465.637
1908 0 113.094 14.0945 1594 95.8469 909.509 462.786
1909 0 118.101 13.8526 1636 96.6222 910.334 463.202
1910 0 122.09 14.0143 1711 96.3589 909.752 463.35
1911 0 125.09 14.0858 1762 96.3558 910.386 458.255
1912 1 58.0786 10.3825 603 87.0182 909.408 493.119
1913 0 57.0845 10.7735 615 88.1626 909.387 491.759
1914 0 62.0535 12.457 773 86.2691 909.538 494.105
1915 0 65.0225 12.7648 830 85.4916 910.341 499.011
1916 0 65.0519 12.7898 832 86.5216 908.911 499.008
1917 0 68.1079 13.3465 909 85.7492 909.098 497.215
1918 0 70.047 13.7479 963 86.054 909.915 496.055
1919 0 71.09 12.8851 916 88.7227 909.12 495.337
1920 0 75.044 12.9124 969 88.8225 909.26 493.63
1921 0 78.0808 13.5757 1060 86.8406 909.736 491.699
1922 0 78.0808 13.5757 1060 143.104 909.734 491.707
1923 0 81.0911 13.2197 1072 89.3377 909.567 489.312
1924 0 84.0571 13.467 1132 89.0203 909.739 488.553
1925 0 85.0512 13.7211 1167 89.1088 909.717 487.871
1926 0 87.0972 13.1692 1147 90.7533 909.871 485.2
1927 0 89.0435 13.4092 1194 90.1248 910.003 483.786
1928 0 95.1118 13.8364 1316 87.9711 909.942 483.252
1929 0 98.0586 13.9406 1367 87.0995 909.783 481.727
1930 0 100.081 13.7989 1381 88.4359 909.321 478.458
1931 0 101.106 14.1337 1429 88.3485 909.056 478.908
1932 0 105.101 14.0151 1473 88.4107 908.394 476.076
1933 0 107.071 13.972 1496 88.2072 908.593 470.949
1934 0 113.118 14.2772 1615 86.3963 908.651 470.824
1935 0 114.126 13.9846 1596 87.7726 909.037 469.113
1936 0 119.197 14.0355 1673 88.3873 909.362 465.304
1937 0 120.196 13.4863 1621 90.5022 909.017 463.914
1938 0 124.198 13.3658 1660 91.4518 908.71 461.285
1939 0 130.162 14.1285 1839 88.6955 908.72 460.99
1940 1 73.064 10.2376 748 86.0535 908.745 490.344
1941 0 78.0512 12.4918 975 88.6821 909.449 491.013
1942 0 80.0564 12.4287 995 85.8111 909.667 491.749
1943 0 84.0488 13.4327 1129 87.6351 909.195 489.499
1944 0 86.1046 13.6578 1176 86.7296 909.458 488.122
1945 0 89.0583 13.4182 1195 86.9732 908.582 488.423
1946 0 92.0598 12.9264 1190 87.8941 908.585 486.271
1947 0 94.0462 13.0361 1226 88.4388 909.272 482.883
1948 0 99.1237 13.4176 1330 87.1586 909.142 481.677
1949 0 100.14 12.9518 1297 89.2907 908.904 478.824
1950 0 105.112 12.9005 1356 88.9351 908.885 478.009
1951 0 107.172 13.3618 1432 88.5356 908.984 477.844
1952 0 110.103 13.0605 1438 90.3477 909.104 474.568
1953 0 112.178 13.113 1471 89.898 909.077 474.328
1954 0 116.089 13.1451 1526 89.8342 909.077 473.104
1955 0 118.083 12.7876 1510 91.1682 909.694 468.949
1956 0 123.069 12.5051 1539 90.2684 908.797 470.12
1957 0 126.088 12.1423 1531 90.8282 907.889 464.951
1958 0 131.174 12.5787 1650 89.8509 908.41 463.612
1959 0 131.176 12.6472 1659 138.246 909.394 463.66
1960 0 140.128 12.4386 1743 90.031 908.295 457.81
1961 0 146.298 12.8642 1882 89.263 908.605 457.841
1962 0 148.136 12.772 1892 90.4493 907.89 454.658
1963 0 152.157 12.6383 1923 92.7025 908.802 450.532
1964 0 157.162 12.7321 2001 92.5572 908.607 448.162
1965 0 164.163 12.9262 2122 91.9797 909.253 445.219
1966 0 169.107 13.0864 2213 91.5273 909.203 445.575
1967 0 174.163 13.3093 2318 90.9094 908.911 442.572
1968 0 179.187 13.9687 2503 89.9109 909.456 441.101
1969 0 184.225 13.706 2525 91.8602 908.307 437.004
1970 0 190.14 14.1632 2693 91.1935 908.446 436.072
1971 0 197.215 14.6185 2883 90.7128 908.41 431.059
1972 0 202.185 14.5164 2935 91.2668 908.201 428.838
1973 0 209.249 14.1888 2969 92.8616 908.486 425.516
1974 0 216.169 14.6459 3166 92.9378 909.013 421.268
1975 0 223.178 15.2524 3404 93.9292 908.781 419.473
1976 0 229.189 15.0793 3456 94.8113 909.373 414.077
1977 0 236.168 14.7014 3472 97.0533 909.243 413.526
1978 0 243.286 14.337 3488 97.9246 908.581 406.604
1979 0 254.289 14.8139 3767 98.159 908.428 402.332
1980 1 58.1037 11.3246 658 88.3328 908.43 500.011
1981 0 57.0759 10.8803 621 89.9839 908.092 498.765
1982 0 59.1035 11.2176 663 87.9894 908.33 497.465
1983 0 59.0395 11.2298 663 84.8703 909.127 501.006
1984 0 63.0573 12.227 771 83.3671 909.59 500.04
1985 0 63.0902 11.8402 747 85.506 909.518 500.884
1986 0 66.0718 11.6843 772 86.7837 909.307 499.425
1987 0 67.0428 10.7991 724 90.9157 909.298 498.457
1988 0 69.1559 11.6693 807 89.1115 908.808 499.788
1989 0 71.0567 11.8778 844 90.2062 909.118 497.552
1990 0 73.1372 11.9912 877 91.1767 909.137 497.041
1991 0 75.04 12.1935 915 92.2536 908.962 495.631
1992 0 79.1244 12.0822 956 92.8818 908.241 493.588
1993 0 79.0693 11.7492 929 94.8891 908.812 492.577
1994 0 83.036 12.1393 1008 94.0536 908.528 491.338
1995 0 85.0809 12.7056 1081 94.9695 908.355 489.744
1996 0 89.0821 12.741 1135 95.9797 908.321 487.291
1997 0 92.0904 12.314 1134 97.6667 908.125 486.744
1998 0 94.1378 12.9066 1215 97.4313 908.322 484.599
1999 0 101.097 17.2805 1747 84.8329 907.969 477.001
2000 0 101.141 13.061 1321 102.544 909.161 479.728
2001 0 105.057 13.4689 1415 101.078 908.667 478.596
2002 0 105.053 12.9458 1360 101.402 909.3 477.329
2003 0 110.027 13.1604 1448 100.615 908.191 478.195
2004 0 114.05 14.6602 1672 96.6214 908.242 477.131
2005 0 117.054 13.7117 1605 98.8449 908.838 476.263
2006 0 120.123 12.8535 1544 99.6988 908.354 473.78
2007 1 68.0537 11.1089 756 95.6521 908.095 492.43
2008 0 68.0509 11.4032 776 96.1495 908.843 490.79
2009 0 71.0789 11.4943 817 87.5667 908.024 489.925
2010 0 72.0451 12.1313 874 87.2609 908.656 491.145
2011 0 75.0447 12.9789 974 85.5842 908.082 494.286
2012 0 79.0709 12.4698 986 86.3996 908.098 493.4
2013 0 81.0719 12.9638 1051 86.9134 908.279 491.316
2014 0 84.0387 12.7679 1073 86.3737 907.916 490.115
2015 0 84.0477 12.6119 1060 87.8217 907.556 488.569
2016 0 87.1106 12.2718 1069 87.5239 908.209 483.179
2017 0 88.0366 12.3926 1091 89.461 908.245 484.191
2018 0 92.0431 13.3742 1231 88.593 908.195 485.336
2019 0 95.0415 12.9417 1230 89.4228 907.898 485.833
2020 0 97.0573 12.9305 1255 91.6582 908.261 483.022
2021 0 101.071 12.9711 1311 89.8299 907.857 478.603
2022 0 104.069 13.2988 1384 88.763 908.483 479.035
2023 0 106.095 13.1109 1391 90.3127 907.776 475.651
2024 0 109.068 13.6338 1487 89.4277 908.462 475.87
2025 0 113.071 13.6551 1544 89.6457 908.306 474.093
2026 0 115.117 14.3506 1652 92.4552 908.117 476.036
2027 0 119.072 14.0252 1670 94.5778 908.511 471.114
2028 0 123.07 14.0814 1733 98.9388 907.621 470.717
2029 0 128.127 14.7822 1894 96.1927 908.418 468.329
2030 0 133.12 14.7761 1967 95.2496 908.073 465.484
2031 0 136.087 14.7846 2012 96 908.246 462.403
2032 0 140.131 14.201 1990 96.2191 908.604 461.708
2033 0 144.175 14.3992 2076 94.4913 908.735 458.357
2034 0 148.155 14.2081 2105 93.6708 908.562 458.197
2035 0 153.177 13.4811 2065 94.3487 908.942 456.847
2036 0 158.075 13.8795 2194 91.8792 908.184 453.261
2037 0 163.125 12.5057 2040 93.8034 908.025 454.412
2038 0 168.177 13.022 2190 92.5881 908.597 451.479
2039 0 175.161 12.931 2265 91.6221 908.595 449.242
2040 0 178.199 12.7835 2278 91.8569 908.574 447.639
2041 0 183.202 13.4114 2457 92.3012 908.726 443.39
2042 0 188.093 12.6055 2371 93.569 909.042 443.108
2043 0 194.185 13.652 2651 91.1275 909.188 439.692
2044 0 197.2 12.7434 2513 92.1007 909.101 435.528
2045 0 206.16 13.5914 2802 89.8754 909.549 432.421
2046 0 213.177 13.0502 2782 89.9472 908.84 427.7
2047 1 46.0286 11.9926 552 80.6105 908.054 507.4
2048 0 49.017 12.261 601 82.183 908.048 506.82
2049 0 49.0546 12.9651 636 83.6887 908.143 505.991
2050 0 51.0482 12.3609 631 86.5246 907.653 504.796
2051 0 53.0365 13.123 696 90.1624 907.947 504.476
2052 0 53.048 13.9308 739 90.1759 908.217 504.713
2053 0 55.0426 13.5168 744 91.6411 908.68 503.22
2054 0 58.0433 14.1101 819 90.2698 908.657 502.499
2055 0 60.0261 13.5108 811 92.4883 909.228 502.557
2056 0 60.0222 13.9282 836 94.0144 909.152 500.118
2057 0 62.0661 13.9529 866 94.6178 909.202 500.424
2058 0 64.0586 13.472 863 97.1564 908.407 499.568
2059 0 66.0492 14.3681 949 95.8904 908.101 499.014
2060 0 68.052 14.4301 982 96.2128 908.146 498.459
2061 0 69.0613 14.0455 970 99.1536 908.538 497.994
2062 0 71.0491 14.1874 1008 99.7649 908.346 495.958
2063 0 76.0903 14.6799 1117 97.7126 908.329 495.852
2064 0 77.1328 14.2611 1100 100.005 908.3 492.175
2065 0 78.0561 15.207 1187 99.23 908.382 492.682
2066 0 82.0808 14.5345 1193 100.524 908.96 492.056
2067 0 85.035 14.8997 1267 100.461 908.476 489.923
2068 0 87.0655 14.8394 1292 101.813 908.96 489.369
2069 0 90.0369 14.9494 1346 100.996 909.048 488.587
2070 0 94.1132 14.8332 1396 101.748 908.84 486.466
2071 0 97.0459 15.0032 1456 100.825 908.71 484.275
2072 0 98.0681 14.7652 1448 103.788 908.206 481.106
2073 0 105.096 16.328 1716 97.6183 908.382 475.916
2074 0 109.064 17.8702 1949 94.2617 907.982 475.437
2075 1 61.04 13.1062 800 106.675 908.168 501.308
2076 0 62.0382 13.2177 820 108.166 908.146 499.35
2077 0 65.1005 13.963 909 105.487 907.954 498.791
2078 0 68.0956 13.6866 932 112.549 907.811 496.155
2079 0 70.0251 14.252 998 111.512 908.214 495.873
2080 0 71.0294 14.6137 1038 112.571 907.608 493.769
2081 0 74.0602 15.0283 1113 111.691 907.877 492.661
2082 0 78.0525 15.6561 1222 108.284 907.5 492.088
2083 0 78.0525 15.5664 1215 175.593 907.497 492.154
2084 0 82.0541 15.0389 1234 110.062 908.126 490.979
2085 0 83.062 14.6517 1217 111.919 908.597 487.68
2086 0 85.0324 14.6062 1242 111.776 909.09 487.164
2087 0 86.0447 15.1084 1300 112.144 908.975 485.509
2088 0 92.0835 15.5728 1434 110.06 908.82 483.217
2089 0 93.0475 15.0891 1404 113.155 909.357 481.365
2090 0 96.1183 15.5537 1495 112.212 909.001 479.668
2091 0 100.084 14.9774 1499 113.248 908.761 478.712
2092 0 101.117 15.2496 1542 114.327 908.376 475.701
2093 0 106.117 15.6148 1657 112.66 908.817 474.972
2094 0 109.142 15.9425 1740 112.845 909.78 472.774
2095 0 110.094 15.0416 1656 116.941 909.507 469.896
2096 0 117.095 16.0467 1879 112.676 909.243 469.574
2097 0 120.123 15.5758 1871 114.022 909.32 465.773
2098 1 52.0641 13.9636 727 110.737 909.289 499.758
2099 0 54.0585 14.0588 760 110.687 909.476 497.875
2100 0 56.0652 14.2691 800 110.349 909.282 496.66
2101 0 56.0341 14.3127 802 111.435 909.18 496.626
2102 0 57.0985 14.5713 832 110.99 908.798 495.594
2103 0 61.0898 14.6833 897 109.085 909.719 495.522
2104 0 62.0353 14.9915 930 109.084 909.463 492.89
2105 0 64.0265 15.0094 961 109.056 909.044 493.043
2106 0 65.0284 15.424 1003 107.065 908.957 491.626
2107 0 67.0289 14.1581 949 110.828 908.97 490.982
2108 0 69.0392 14.1224 975 111.811 909.36 489.752
2109 0 72.0912 14.3568 1035 110.495 908.986 488.651
2110 0 73.0336 15.1985 1110 110.369 909.892 488.136
2111 0 77.0379 15.6676 1207 107.493 909.461 486.214
2112 0 77.0488 15.7562 1214 108.839 909.723 486.092
2113 0 81.0821 15.2192 1234 109.763 909.685 483.233
2114 0 84.0441 15.5752 1309 110.194 909.506 482.331
2115 0 86.0756 15.9627 1374 109.585 909.171 481.686
2116 0 88.0403 15.7996 1391 110.791 909.303 479.438
2117 0 90.0488 15.5138 1397 112.169 908.857 478.838
2118 0 94.0694 15.8394 1490 110.621 909.546 477.451
2119 0 97.1059 15.8281 1537 110.575 909.2 475.844
2120 0 101.026 15.6296 1579 111.087 909.426 473.358
2121 0 103.088 15.3461 1582 112.661 909.664 470.425
2122 0 106.154 15.647 1661 112.425 909.561 470.315
2123 0 110.082 15.7246 1731 111.945 909.574 469.388
2124 0 112.085 15.9254 1785 111.517 909.546 468.067
2125 0 115.065 15.513 1785 112.778 908.825 465.398
2126 0 120.08 15.6146 1875 111.874 909.158 464.564
2127 0 120.081 15.8143 1899 113.186 910.301 462.62
2128 0 125.117 15.8812 1987 112.27 910.347 461.996
2129 0 130.065 15.4077 2004 112.732 909.603 459.192
2130 0 134.123 15.5902 2091 112.184 910.119 454.358
2131 0 138.119 16.0225 2213 109.712 909.901 454.192
2132 0 144.107 15.5787 2245 111.127 909.467 451.526
2133 0 147.136 15.4007 2266 112.158 909.338 449.882
2134 0 152.057 15.3298 2331 113.798 909.724 446.253
2135 0 159.103 15.4365 2456 113.304 909.99 442.852
2136 1 62.0264 13.9295 864 112.528 909.424 490.312
2137 0 63.1241 13.6398 861 113.387 909.544 490.125
2138 0 65.0497 14.0354 913 113.363 909.11 488.198
2139 0 67.0891 13.6386 915 114.995 909.511 486.833
2140 0 68.0672 14.4563 984 114.327 909.785 485.845
2141 0 70.0476 14.4473 1012 114.627 909.689 484.563
2142 0 73.1148 14.0327 1026 115.533 908.37 484.429
2143 0 74.1282 14.0837 1044 116.461 909.018 483.596
2144 0 79.0586 14.2426 1126 115.589 909.123 482.067
2145 0 80.0569 14.1524 1133 117.012 909.168 479.469
2146 0 82.1168 14.8569 1220 113.939 909.087 477.67
2147 0 84.058 14.4424 1214 118.696 909.329 477.369
2148 0 88.0647 14.8754 1310 117.874 910.215 478.017
2149 0 92.0622 14.7943 1362 119.327 909.743 474.88
2150 0 96.1207 15.6262 1502 117.073 909.667 472.753
2151 0 98.1726 14.9023 1463 120.81 909.614 471.134
2152 0 101.083 15.512 1568 120.457 910.457 471.48
2153 0 101.033 15.0842 1524 124.127 909.763 469.425
2154 0 107.055 15.1511 1622 123.21 910.481 468.215
2155 0 108.104 15.1428 1637 123.875 908.679 466.748
2156 0 111.079 15.3495 1705 124.303 909.73 465.476
2157 0 116.178 15.6226 1815 123.422 910.118 463.421
2158 0 121.248 15.2002 1843 124.533 909.435 461.309
2159 0 123.112 15.0838 1857 125.645 910.182 460.115
2160 0 126.173 15.1776 1915 125.84 910.471 457.411
2161 0 133.167 15.4618 2059 123.901 910.07 454.904
2162 0 136.088 15.0417 2047 124.816 909.732 452.176
2163 0 139.121 15.2098 2116 124.968 910.56 449.016
2164 0 147.202 15.686 2309 123.126 910.224 447.258
2165 0 151.199 15.4102 2330 123.235 910.709 446.198
2166 0 152.089 14.9518 2274 126.588 910.657 442.165
2167 0 159.241 14.8643 2367 125.351 910.559 440.54
2168 0 166.206 15.192 2525 123.544 910.613 437.625
2169 0 171.09 14.8285 2537 124.676 910.065 435.009
2170 0 176.144 15.1921 2676 123.143 910.836 432.503
2171 0 183.16 15.0088 2749 123.08 910.39 430.394
2172 0 189.259 14.8685 2814 123.055 910.319 426.882
2173 0 193.131 14.6584 2831 124.301 910.207 424.569
2174 0 199.121 14.6745 2922 124.735 910.826 418.927
2175 0 212.187 15.0151 3186 120.858 910.849 419.866
2176 0 217.166 15.3431 3332 120.08 910.645 412.48
2177 0 222.138 14.5135 3224 122.936 911.05 409.056
2178 0 232.127 14.4188 3347 122.349 911.086 407.843
2179 0 241.194 14.5278 3504 121.566 910.809 404.481
2180 0 247.152 14.5416 3594 122.232 911.102 401.067
2181 1 259.153 15.1378 3923 118.836 910.587 394.809
2182 0 268.218 14.9543 4011 119.133 911.082 392.43
2183 0 279.246 15.7281 4392 117.098 910.874 385.599
2184 0 287.233 14.7755 4244 120.98 911.271 381.907
2185 0 296.27 14.7636 4374 121.944 910.059 376.425
2186 1 322.123 10.9027 3512 129.527 909.839 387.265
2187 1 72.1064 10.4706 755 111.607 910.301 485.574
2188 0 73.0707 11.7831 861 108.424 910.351 486.18
2189 1 20.0102 8.09585 162 76 909.204 517.802
2190 0 20.0084 6.84714 137 77.8175 909.672 517.109
2191 0 21.0318 7.03695 148 77.2432 909.568 517.149
2192 0 21.0594 5.98308 126 78.4286 909.079 517.492
2193 0 20.0532 6.83183 137 77.9124 909.35 516.978
2194 0 22.025 6.58344 145 77.131 909.214 517.338
2195 0 23.0589 5.72447 132 78.8636 909.477 518.023
2196 0 24.0216 7.78466 187 78.9144 909.797 516.358
2197 0 26.014 7.45753 194 78.9691 909.593 516.015
2198 0 26.1064 6.89486 180 79.7056 909.239 516.761
2199 0 29.017 6.96145 202 80.4307 909.252 516.193
2200 0 29.0285 6.2008 180 82.0444 908.822 515.283
2201 0 29.0229 7.78696 226 81.9292 909.053 514.54
2202 0 29.0229 7.85587 228 116.232 909.11 514.338
2203 0 33.0556 8.04704 266 81.1842 908.56 516.485
2204 0 36.0326 8.04826 290 82.7448 909.017 513.079
2205 0 35.0276 7.33707 257 84.0078 909.903 514.027
2206 0 37.0233 6.61746 245 85.8939 909.735 514.49
2207 0 41.0358 7.72496 317 85.2366 910.038 513.669
2208 0 33.0214 7.32859 242 87.2025 910.36 516.839
2209 0 39.0634 8.26862 323 88.2167 910.037 513.084
2210 0 35.0144 7.73967 271 88.0295 910.096 517.033
2211 0 41.0299 8.72535 358 91.2011 910.788 511.55
2212 0 44.0648 7.64783 337 90.9852 909.383 513.285
2213 1 150.28 14.5063 2180 120.77 909.703 452.679
2214 0 156.293 14.7735 2309 120.255 910.164 451.37
2215 0 158.434 14.8642 2355 121.764 909.963 448.549
2216 0 163.222 14.9428 2439 121.471 909.875 446.215
2217 0 168.356 15.1524 2551 120.94 909.865 445.045
2218 0 174.255 15.0871 2629 121.308 909.929 443.336
2219 0 180.149 14.9987 2702 121.258 909.818 439.656
2220 1 118.311 12.3066 1456 121.17 910.454 471.857
2221 0 119.197 12.9366 1542 120.22 909.946 469.946
2222 0 121.246 12.8911 1563 121.282 910.653 468.236
2223 0 124.261 13.8097 1716 118.438 910.45 466.937
2224 0 127.189 14.1364 1798 118.068 910.641 465.499
2225 0 131.359 13.9998 1839 117.153 909.87 464.947
2226 0 133.232 13.773 1835 118.943 909.542 462.06
2227 0 137.258 14.1267 1939 116.788 909.267 458.702
2228 0 142.346 14.4577 2058 115.136 909.388 459.041
2229 0 143.245 14.1855 2032 117.229 909.26 457.046
2230 0 148.311 14.3145 2123 116.033 909.556 455.815
2231 0 150.258 14.129 2123 117.71 909.412 451.747
2232 0 157.352 14.3563 2259 115.883 909.819 450.355
2233 0 161.26 14.6905 2369 114.261 909.293 449.295
2234 0 166.288 15.0462 2502 113.446 909.053 447.098
2235 1 111.17 10.6774 1187 117.976 909.197 473.537
2236 0 113.269 11.8832 1346 115.673 908.619 471.124
2237 0 117.177 12.4256 1456 113.705 908.812 470.459
2238 0 117.173 12.4602 1460 161.749 909.808 470.449
2239 0 123.305 13.1219 1618 111.199 908.86 468.932
2240 0 126.251 13.0692 1650 111.281 908.11 466.947
2241 0 129.26 13.028 1684 111.032 908.755 464.562
2242 0 131.25 13.28 1743 110.47 909.05 463.937
2243 0 134.323 13.5271 1817 109.385 908.969 462.62
2244 0 137.241 12.9043 1771 110.403 908.576 460.11
2245 0 141.333 13.6628 1931 107.488 907.809 459.935
