time division length width area intensity CMx CMy
0 0 41.0368 13.3295 547 111.302 1069.51 497.016
1 0 43.0879 13.3216 574 109.141 1069.83 496.096
2 0 44.0474 13.3492 588 107.061 1069.52 496.049
3 0 47.0295 13.0769 615 105.675 1069.66 495.247
4 0 46.0884 13.6911 631 103.914 1070 494.254
5 0 50.0468 13.867 694 100.994 1070.66 494.353
6 0 50.0294 14.0118 701 100.566 1070.35 493.922
7 0 51.0527 13.4371 686 102.016 1070.79 493.907
8 0 51.0647 13.0031 664 102.31 1070.9 493.867
9 0 54.0383 14.4157 779 97.7356 1070.28 492.7
10 0 56.056 13.8255 775 98.68 1069.66 491.662
11 0 59.0544 14.1734 837 96.0526 1070.2 491.51
12 0 59.0311 13.2811 784 98.5115 1070.3 491.858
13 0 61.0698 13.4273 820 97.9524 1069.65 489.713
14 0 64.058 14.5805 934 95.7131 1068.88 488.581
15 0 65.0271 14.4709 941 95.8757 1069.93 487.267
16 0 67.0656 14.046 942 96.1008 1069.67 486.013
17 0 69.0615 13.9875 966 95.7257 1069.58 486.202
18 0 70.0756 14.042 984 95.1159 1069.45 486.736
19 0 73.0554 14.0578 1027 95.408 1069.08 484.331
20 0 74.0537 13.7603 1019 96.263 1068.93 485.052
21 0 77.0637 14.6243 1127 93.4525 1067.9 483.232
22 0 80.0416 14.3301 1147 94.0174 1068.01 482.759
23 0 83.116 13.8 1147 94.667 1068.26 481.639
24 1 42.0592 12.2922 517 94.5919 1067.99 499.754
25 0 44.0144 13.3366 587 92.2147 1068.38 499.383
26 0 43.0093 13.1367 565 93.3912 1068.31 499.986
27 0 47.0181 13.9308 655 89.8031 1068.5 499.07
28 0 48.0461 13.5495 651 90.4916 1068.54 497.18
29 0 49.0828 14.2616 700 88.8343 1068.42 496.7
30 0 50.05 13.6464 683 91.776 1068.4 495.619
31 0 52.0288 13.7616 716 92.0223 1067.72 494.504
32 0 51.0442 12.9887 663 95.0739 1067.63 494.145
33 0 55.0619 13.276 731 94.2326 1067.71 492.949
34 0 57.0663 13.8436 790 94.0911 1067.64 492.211
35 0 58.1043 13.9921 813 95.0135 1067.73 491.149
36 0 60.0942 14.1445 850 94.8776 1067.38 490.186
37 0 63.085 14.3457 905 94.0939 1067.64 490.03
38 0 65.0295 14.2858 929 94.2626 1067.61 488.871
39 0 66.0865 14.4962 958 96.5501 1068.43 488.291
40 0 70.0881 14.4532 1013 96.6071 1068.26 485.246
41 0 71.0672 14.5918 1037 97.1032 1067.65 484.869
42 0 74.0951 14.6028 1082 97.5342 1067.89 484.48
43 0 74.1529 14.551 1079 99.0463 1067.6 483.434
44 0 78.1007 14.5069 1133 98.6125 1067.26 481.278
45 0 81.1192 14.4355 1171 98.538 1067.95 480.738
46 0 82.0424 14.4072 1182 100.003 1067.38 479.93
47 0 85.0885 14.3498 1221 99.4595 1068.2 477.088
48 0 90.0876 13.9975 1261 98.655 1067.88 475.707
49 0 95.0847 14.4187 1371 96.8585 1068.14 473.707
50 0 99.1103 14.3981 1427 97.2614 1068.21 471.865
51 1 48.0443 13.217 635 94.3024 1068.25 495.334
52 0 52.0287 12.7622 664 94.6611 1067.81 496.14
53 0 52.0502 12.1229 631 97.9208 1067.9 494.675
54 0 50.0266 12.0136 601 91.3661 1067.44 496.612
55 0 54.0315 12.0855 653 90.5574 1068.41 495.305
56 0 55.0647 12.4762 687 90.2358 1068.22 493.499
57 0 57.0208 12.8199 731 90.6963 1068.95 492.687
58 0 61.0578 13.0696 798 87.8321 1069.68 493.003
59 0 63.0222 12.9796 818 88.5306 1068.49 491.424
60 0 64.0696 12.8298 822 89.9915 1068.98 490.747
61 0 67.0544 12.8254 860 89.9826 1069.84 489.402
62 0 67.0227 12.2943 824 92.8993 1069.13 487.682
63 0 72.0805 12.8884 929 91.1507 1068.68 486.922
64 0 75.0285 12.8085 961 92.2206 1068.6 485.537
65 0 77.0303 12.3977 955 94.7225 1069.45 484.725
66 0 80.031 13.1824 1055 91.8227 1069.57 484.647
67 0 83.1267 13.3531 1110 94.709 1069.25 481.768
68 0 87.0378 13.316 1159 95.5229 1069.19 479.161
69 1 48.0284 11.743 564 93.0975 1069.83 498.543
70 0 48.0205 11.4118 548 90.6369 1069.9 498.794
71 0 50.0157 11.9562 598 88.5268 1070.31 498.515
72 0 51.0092 12.2919 627 87.5359 1069.59 497.596
73 0 49.0116 11.5483 566 85.758 1069.25 499.06
74 0 51.0263 11.7586 600 84.5333 1068.72 498.472
75 0 52.012 11.1128 578 85.4862 1069.3 498.007
76 0 54.0355 11.0298 596 84.849 1068.78 495.988
77 0 55.0386 11.065 609 85.3153 1069.13 495.156
78 0 57.0619 10.8829 621 83.9775 1069.35 495.902
79 0 59.0464 11.2454 664 83.2063 1069.05 493.931
80 0 64.0759 10.5032 673 83.7207 1069.78 492.391
81 0 64.0512 11.1161 712 83.0534 1069.48 491.242
82 0 67.0177 10.3853 696 82.4914 1069.26 491.453
83 0 67.0883 10.6278 713 82.9621 1068.87 488.93
84 0 71.0218 10.6305 755 81.6623 1069.27 487.658
85 0 72.0977 10.777 777 80.6551 1069.16 485.892
86 0 76.049 11.0718 842 79.6295 1069.31 484.222
87 0 79.0717 11.6856 924 78.3496 1069.88 482.701
88 0 81.0705 11.1138 901 78.3219 1069.68 482.44
89 0 83.0439 11.1266 924 79.5509 1069 481.015
90 0 84.0918 11.4874 966 80.0362 1069.5 479.182
91 0 88.131 11.5283 1016 81.0207 1068.99 477.225
92 0 90.0961 11.8651 1069 81.9757 1069.15 476.615
93 0 96.1327 11.9106 1145 81.7878 1069.06 474.369
94 0 96.145 11.0874 1066 82.4737 1069.43 471.998
95 0 102.093 11.2055 1144 81.6198 1069.34 471.189
96 0 106.168 11.6702 1239 80.9855 1069.36 469.233
97 1 59.0866 10.1377 599 80.419 1068.92 493.239
98 0 61.1252 11.3374 693 81.3001 1069.03 491.097
99 0 61.1276 11.6968 715 83.7161 1068.34 490.105
100 0 63.0637 11.0999 700 74.8886 1069.09 492.504
101 0 62.0662 10.0216 622 78.6672 1069.13 491.471
102 0 63.0733 10.4957 662 79.1677 1068.66 490.573
103 0 70.0647 11.5608 810 77.0296 1069.08 488.06
104 0 70.0818 11.1584 782 80.3887 1069.12 486.613
105 0 71.0963 10.4506 743 83.1575 1069.22 486.743
106 0 75.0886 11.8394 889 81.0439 1069.01 484.583
107 0 76.2696 11.8658 905 81.7912 1069.12 484.314
108 0 79.0735 11.9003 941 82.745 1069.2 481.902
109 0 83.1538 12.1702 1012 82.7085 1068.77 481.068
110 0 87.1705 11.7586 1025 81.8839 1069.16 478.982
111 0 88.147 11.0838 977 83.5425 1068.49 477.794
112 0 90.1756 11.9434 1077 81.8904 1069.25 476.909
113 0 92.1645 11.3493 1046 83.3948 1068.99 476.435
114 0 95.1766 10.7169 1020 83.6706 1069.19 473.766
115 0 100.096 11.2192 1123 81.5895 1068.48 473.179
116 0 102.108 10.9688 1120 83.4375 1069.04 469.55
117 0 106.184 10.8114 1148 83.5645 1069.05 467.639
118 0 108.151 10.6148 1148 83.1838 1068.81 466.158
119 0 113.117 10.5201 1190 85.0529 1068.84 465.55
120 0 116.262 10.4591 1216 84.6842 1068.45 462.998
121 1 66.2303 10.4786 694 81.0331 1068.31 489.014
122 0 67.168 10.4365 701 84.3481 1068.56 485.265
123 0 72.1471 11.1578 805 85.2224 1069.29 484.682
124 0 73.1229 9.91481 725 82.5752 1070.38 485.068
125 0 73.1229 10.0516 735 117.389 1070.39 484.981
126 0 80.2087 11.0836 889 78.0619 1069.76 481.282
127 0 82.2845 11.679 961 80.8658 1069.57 480.769
128 0 85.1607 12.1065 1031 85.4064 1069.24 478.177
129 0 88.2354 11.3787 1004 86.3506 1069.04 476.744
130 0 90.2566 11.988 1082 86.9251 1068.67 475.127
131 0 93.2166 11.307 1054 87.6452 1068.68 475.59
132 0 98.3364 12.6911 1248 84.3494 1069.22 472.708
133 0 100.448 12.2153 1227 85.5868 1069.44 471.418
134 0 102.333 11.6971 1197 87.4662 1069.5 470.209
135 0 105.262 11.5616 1217 88.6779 1069.61 468.581
136 0 109.194 11.6765 1275 89.7247 1069.88 466.79
137 0 112.404 12.295 1382 89.055 1069.21 464.847
138 0 115.28 12.2485 1412 89.5708 1068.66 462.979
139 0 120.39 12.609 1518 88.5731 1068.32 462.427
140 0 122.445 11.8339 1449 90.8509 1067.75 461.184
141 0 125.419 11.7047 1468 92.4087 1068.17 456.862
142 0 131.471 12.7557 1677 90.9255 1068.24 455.381
143 0 133.613 11.4735 1533 96.0711 1068.46 453.787
144 0 137.573 12.1681 1674 93.9421 1068.71 452.086
145 0 141.416 12.1415 1717 94.3675 1068.46 452.577
146 0 146.446 11.902 1743 95.9317 1068.64 449.348
147 0 150.476 12.394 1865 94.3968 1068.05 446.105
148 0 156.396 12.43 1944 94.0941 1068.39 444.551
149 0 160.384 12.1334 1946 96.0427 1068.33 441.688
150 0 165.203 11.9066 1967 97.9588 1068.9 439.118
151 0 170.274 12.0218 2047 96.9213 1068.05 437.13
152 0 175.301 12.0194 2107 97.4309 1068.08 432.843
153 0 183.325 12.8078 2348 96.572 1068.21 429.759
154 0 184.319 12.4024 2286 99.2192 1068.28 423.246
155 0 193.286 12.6237 2440 97.5398 1068.38 421.734
156 0 198.297 12.3955 2458 98.1192 1068.49 414.582
157 0 203.25 12.5363 2548 98.2971 1068.16 409.534
158 0 208.39 12.4574 2596 99.176 1067.51 408.292
159 0 213.242 12.6757 2703 94.7384 1067.95 395.165
160 0 221.26 12.3249 2727 96.5127 1068.23 398.422
161 0 225.234 12.1207 2730 97.2934 1068.09 394.332
162 0 234.188 12.4643 2919 97.1052 1067.67 389.171
163 0 243.403 12.7772 3110 97.7206 1068.15 386.651
164 0 250.435 13.189 3303 94.4021 1068.12 380.873
165 1 190.262 10.6748 2031 96.0566 1067.57 414.97
166 0 197.241 11.5138 2271 95.6649 1067.34 408.53
167 0 202.206 11.5921 2344 96.346 1067.46 404.462
168 0 212.287 11.8048 2506 95.2785 1067.69 403.097
169 0 219.235 12.4889 2738 94.5972 1068.17 399.838
170 0 224.203 12.0516 2702 96.6147 1067.92 390.814
171 0 231.235 12.5067 2892 95.2144 1068.69 388.552
172 1 58.0316 8.75385 508 125.774 1067.93 479.504
173 0 58.0435 9.73408 565 80.1699 1069.99 475.03
174 0 66.1635 9.32538 617 72.5981 1067.67 487.102
175 0 68.108 9.79327 667 72.096 1068.03 487.097
176 0 71.089 9.31227 662 72.5876 1067.56 486.427
177 0 71.1056 9.23978 657 73.9269 1067.32 482.292
178 0 75.1185 9.93098 746 72.9504 1067.71 484.06
179 0 74.1465 8.73946 648 75.8565 1068.14 482.093
180 0 77.0958 8.9499 690 74.9029 1068.86 481.532
181 0 81.1514 10.3264 838 73.4117 1069.13 479.568
182 0 82.1863 9.24728 760 74.8882 1068.33 479.247
183 0 85.1052 9.25913 788 75.1777 1068.94 478.845
184 0 87.2372 9.25064 807 75.7509 1068.14 476.248
185 0 89.14 9.29998 829 76.5899 1068.2 476.071
186 0 92.1084 9.64082 888 77.3863 1068.09 475.132
187 0 95.094 9.32761 887 78.8275 1068.12 473.191
188 0 98.1404 10.1487 996 79.1094 1068.26 470.074
189 0 101.095 10.7522 1087 79.2622 1068.98 469.347
190 0 105.064 10.3271 1085 80.4276 1068.59 467.618
191 0 109.18 9.94687 1086 82.5497 1068.29 465.622
192 0 112.097 10.2322 1147 83.3487 1067.63 463.802
193 0 114.118 10.5855 1208 84.2276 1067.17 462.483
194 0 119.138 10.7019 1275 84.1765 1067.09 461.744
195 0 126.194 11.9578 1509 82.8184 1067.13 456.602
196 1 71.1169 10.8272 770 80.4883 1066.22 486.738
197 0 72.1228 10.7178 773 81.7322 1066.23 485.003
198 0 75.1171 11.2491 845 80.097 1066.7 485.312
199 0 77.1399 11.9134 919 78.7639 1066.61 483.412
200 0 79.0908 11.6069 918 76.7451 1066.94 482.928
201 0 78.0597 10.8763 849 78.2026 1066.57 481.067
202 0 80.0872 11.3252 907 98.8247 1066.38 479.595
203 0 81.0772 10.4962 851 99.47 1066.66 479.356
204 0 86.0561 11.7133 1008 95.0238 1067.16 478.67
205 0 87.2106 10.8129 943 96.7784 1066.6 477.435
206 0 91.1446 11.586 1056 95.0938 1066.88 475.717
207 0 94.1219 10.9114 1027 97.2717 1066.46 472.532
208 0 99.153 11.6588 1156 97.5467 1066.22 471.859
209 0 99.1569 11.7995 1170 133.35 1065.24 471.82
210 0 104.111 12.0353 1253 103.717 1066.06 466.823
211 0 106.078 11.9252 1265 102.078 1066.2 466.416
212 0 110.129 12.1131 1334 100.867 1066.7 463.681
213 0 113.162 12.2921 1391 99.353 1066.51 462.973
214 0 114.161 11.5013 1313 101.151 1066.89 460.573
215 0 117.179 11.1112 1302 100.833 1066.7 458.629
216 0 122.14 11.8635 1449 98.588 1066.36 457.237
217 0 126.23 11.2573 1421 98.5862 1067.48 453.147
218 0 126.217 11.1792 1411 132.532 1069.47 452.959
219 1 69.1125 10.4467 722 98.3449 1065.58 483.83
220 0 70.0937 9.7441 683 93.2489 1065.79 477.442
221 0 75.0741 10.9092 819 97.1453 1065.67 480.458
222 0 77.0704 11.8852 916 97.6179 1065.22 479.012
223 0 81.0772 11.6679 946 97.4693 1065.66 478.572
224 0 82.1488 12.1487 998 97.3908 1066.5 477.973
225 0 79.0748 9.87673 781 88.781 1066.01 480.899
226 0 84.0968 10.809 909 86.5567 1066.09 477.217
227 0 86.0426 10.0532 865 87.8428 1065.26 475.979
228 0 89.1439 10.9486 976 87.0891 1065.99 475.598
229 0 93.0873 11.0112 1025 86.881 1065.99 473.944
230 0 93.0437 10.4252 970 88.4948 1066.23 472.402
231 0 95.0357 9.58587 911 91.3688 1066.26 470.78
232 0 101.098 11.0289 1115 89.5058 1066.87 470.637
233 0 103.052 10.4607 1078 92.9935 1067.18 468.861
234 0 104.072 10.6273 1106 93.6899 1067.57 464.396
235 0 107.07 10.2082 1093 96.2873 1067.65 463.989
236 0 113.081 11.1513 1261 94.8866 1068.07 462.749
237 0 115.083 11.4787 1321 94.0689 1067.58 462.321
238 0 119.128 11.8108 1407 94.172 1067.71 459.116
239 0 121.054 11.1768 1353 94.8448 1067.12 457.596
240 0 125.057 11.7387 1468 97.3038 1067.63 458.014
241 0 128.104 11.5453 1479 98.8229 1067.16 453.997
242 0 134.064 12.3001 1649 94.6671 1067.36 453.505
243 1 71.046 9.41644 669 86.5052 1065.66 479.481
244 0 76.0895 10.7242 816 93.0392 1066.79 481.891
245 0 79.1011 10.9607 867 81.4025 1066.94 481.484
246 0 82.0576 11.821 970 91.2351 1066.58 480.025
247 0 85.172 12.281 1046 92.1721 1067.29 477.993
248 0 86.0795 12.291 1058 94.0378 1067.42 476.623
249 0 85.0332 10.9487 931 83.3362 1066.4 478.731
250 0 88.0304 11.2007 986 83.0112 1066.55 477.983
251 0 91.0805 11.0452 1006 82.3857 1066.36 475.921
252 0 92.0601 10.8299 997 83.5747 1065.7 474.38
253 0 97.1304 11.3559 1103 83.0771 1065.75 470.665
254 0 98.0467 11.158 1094 86.4881 1065.89 470.427
255 0 102.09 11.6074 1185 85.8489 1066.25 468.203
256 0 105.086 11.4953 1208 86.6664 1066.66 466.527
257 0 106.086 11.6698 1238 88.088 1066.66 464.62
258 0 111.197 11.1064 1235 89.0591 1066.81 464.313
259 0 115.076 11.8965 1369 86.8349 1066.45 461.576
260 0 119.138 11.1635 1330 87.4549 1066.27 462.174
261 0 122.095 11.7531 1435 86.8091 1066.79 458.408
262 1 63.0459 10.5796 667 85.0765 1066.49 486.817
263 0 63.0618 10.4659 660 87.7258 1066.37 486.542
264 0 68.0461 10.9779 747 93.6198 1066.35 483.949
265 0 66.0342 10.6914 706 88.1544 1066.99 485.552
266 0 67.0921 10.5825 710 88.8099 1067.37 483.276
267 0 69.0554 10.5278 727 89.2311 1067.27 483.88
268 0 73.0703 9.88089 722 89.9848 1067.02 483.763
269 0 76.096 10.4605 796 91.598 1066.53 481.999
270 0 78.0943 11.0379 862 88.8167 1066.6 480.367
271 0 82.034 11.0808 909 87.7019 1066.73 480.769
272 0 85.0626 11.4151 971 88.0669 1066.63 478.578
273 0 88.0601 11.8215 1041 85.9433 1066.68 477.671
274 0 91.0319 12.1496 1106 87.2116 1066.74 475.097
275 0 93.0364 12.5865 1171 88.9582 1066.2 474.135
276 0 100.088 13.538 1355 96.8723 1066.54 469.945
277 0 103.066 13.5544 1397 96.6843 1067.27 468.029
278 0 103.096 12.823 1322 99.9864 1067.47 464.84
279 1 57.1994 10.2274 585 97.9214 1066.84 490.214
280 0 59.1274 10.9763 649 92.9384 1067.45 490.425
281 0 59.1236 11.0616 654 146.613 1068.41 490.309
282 0 61.0631 11.7583 718 85.8955 1066.2 490.776
283 0 64.1312 12.0846 775 86.5355 1065.84 489.423
284 0 66.1075 12.2528 810 86.5617 1065.87 489.522
285 0 69.0986 12.7788 883 85.7837 1065.83 488.152
286 0 71.0696 13.1561 935 85.5294 1066.36 485.803
287 0 72.0996 12.1221 874 88.3146 1065.95 486.332
288 0 75.1787 12.5035 940 87.6862 1065.69 484.048
289 0 76.092 12.682 965 87.8446 1065.81 482.926
290 0 80.1468 12.9013 1034 86.0184 1065.78 481.57
291 0 82.0968 12.4 1018 87.1955 1065.54 480.055
292 0 84.1687 13.0928 1102 87.2314 1066.15 479.688
293 0 86.1482 13.2678 1143 86.797 1066.22 478.321
294 0 89.109 13.4105 1195 87.1289 1066.31 476.309
295 0 92.1618 14.0948 1299 85.8376 1065.6 474.843
296 0 94.2709 13.0687 1232 88.875 1065.56 473.4
297 0 98.2863 13.0334 1281 89.1827 1065.29 473.131
298 1 50.1229 10.3146 517 91.648 1067.61 496.275
299 0 48.0993 10.208 491 93.5703 1067.09 494.43
300 0 50.0706 10.4852 525 93.4495 1066.86 492.032
301 0 52.1391 11.546 602 89.4551 1065.17 494.125
302 0 52.053 10.7391 559 77.7782 1066.84 497.224
303 0 52.0892 10.1941 531 78.9774 1067.37 497.205
304 0 52.0247 11.1293 579 78.2453 1066.81 497.117
305 0 55.0642 10.7329 591 78.4585 1066.93 494.785
306 0 56.0571 10.2752 576 79.2917 1066.64 495.036
307 0 58.037 11.0791 643 78.3904 1066.15 495.222
308 0 57.0862 10.1776 581 81.3236 1066.03 493.764
309 0 59.136 11.0254 652 79.3252 1065.74 492.748
310 0 62.1167 11.0437 686 79.3265 1066.57 492.923
311 0 67.0867 11.7758 790 77.5139 1066.67 493.206
312 0 67.0664 11.7794 790 79.3278 1066.36 492.024
313 0 68.1126 11.6425 793 83.9874 1066.77 491.066
314 0 69.056 11.5124 795 85.2189 1066.16 491.351
315 0 70.076 11.2735 790 86.3873 1066.18 488.21
316 0 74.1222 12.0881 896 84.7656 1066.54 487.008
317 0 75.1349 11.659 876 85.4658 1066.15 487.747
318 0 78.0687 12.1816 951 85.7455 1066.08 485.595
319 0 80.1308 11.8431 949 86.764 1065.96 485.515
320 0 82.2622 11.4269 940 87.6191 1066.5 486.182
321 0 85.1015 11.4569 975 84.8277 1066.51 483.271
322 0 88.1407 11.5157 1015 86.5103 1065.92 482.776
323 0 90.1308 11.8605 1069 86.8962 1066.16 481.123
324 1 49.082 10.7779 529 88.3478 1065.72 502.378
325 0 50.0898 11.16 559 86.6905 1065.43 501.544
326 0 52.0346 11.8767 618 81.8689 1065.23 499.519
327 0 53.1037 11.7318 623 81.2263 1064.93 501.196
328 0 55.1656 12.9066 712 78.7556 1064.81 500.381
329 0 55.0783 11.8922 655 82.2473 1065.14 499.661
330 0 56.0307 13.1357 736 81.9389 1065 499.043
331 0 58.0328 12.7859 742 88.7668 1065.16 497.518
332 0 59.0634 12.258 724 82.8826 1064.98 495.856
333 0 63.0239 12.6777 799 81.6646 1065.16 494.826
334 0 63.0239 12.6777 799 136.603 1065.16 494.811
335 0 66.1339 12.4898 826 82.8099 1064.36 493.004
336 0 67.0901 13.0869 878 82.6014 1064.32 492.084
337 0 68.3122 12.6478 864 84.1331 1064.28 490.617
338 0 70.189 13.3069 934 83.6927 1064.03 488.043
339 0 73.282 12.7726 936 89.2425 1063.8 486.653
340 0 77.1357 12.8993 995 91.1618 1063.84 484.678
341 0 79.2046 12.6129 999 91.7938 1064.04 483.441
342 0 80.2457 12.1502 975 94.1795 1063.26 482.427
343 0 84.1627 12.1194 1020 90.9088 1062.26 482.754
344 0 85.1385 12.7439 1085 89.9346 1062.8 481.446
345 0 88.0919 12.5437 1105 91.1575 1062.32 481.576
346 0 90.1426 12.2805 1107 91.2195 1062.63 478.643
347 0 93.1008 11.5359 1074 92.3557 1062.54 479.39
348 1 48.0134 9.64315 463 85.6263 1061.58 501.251
349 0 48.0943 10.8745 523 84.3403 1061.58 500.524
350 0 52.0188 10.6116 552 80.288 1061.99 499.933
351 0 54.0808 11.2794 610 82.1623 1061.5 498.07
352 0 53.0873 11.1703 593 79.7521 1062.38 498.796
353 0 55.0954 11.344 625 78.8064 1062.2 498.109
354 0 54.1128 10.9401 592 80.9172 1062.18 496.235
355 0 57.0549 11.5328 658 80.6125 1062.03 496.249
356 0 59.0595 11.5138 680 80.4691 1062.55 495.268
357 0 60.079 11.2851 678 80.0693 1062.5 494.177
358 0 62.1392 11.7317 729 79.1015 1063.07 493.051
359 0 64.197 11.4647 736 79.0408 1063.32 492.406
360 0 64.209 11.4781 737 79.9878 1062.77 491.148
361 0 68.1466 11.0937 756 79.787 1062.99 489.488
362 0 70.0818 11.8433 830 77.0639 1062.4 489.2
363 0 70.0818 11.8433 830 107.812 1061.41 489.078
364 0 73.0525 11.1016 811 91.3835 1063.3 483.776
365 0 75.1473 11.524 866 91.2113 1063.26 483.726
366 0 77.1253 11.0599 853 91.4947 1062.8 482.618
367 0 79.1101 11.503 910 92.022 1063.01 481.34
368 0 83.1529 11.4127 949 91.5237 1063 481.496
369 0 87.1532 11.5773 1009 89.3548 1063.52 480.045
370 0 90.0943 12.1872 1098 88.1375 1064.13 480.713
371 0 93.1418 11.5845 1079 89.7905 1063.6 477.703
372 0 96.0764 12.0737 1160 89.1612 1062.93 475.184
373 0 97.1707 11.5364 1121 90.2052 1063.26 475.185
374 0 101.193 11.3743 1151 90.5326 1063.78 473.007
375 0 102.157 11.8054 1206 90.6675 1063.57 471.978
376 0 105.083 11.7621 1236 89.9644 1063.58 470.645
377 0 110.169 11.5187 1269 90.6044 1064 465.996
378 0 111.22 11.23 1249 91.0945 1064.09 462.753
379 0 116.246 11.5789 1346 88.474 1064.68 462.175
380 0 120.228 11.7444 1412 86.704 1064.4 458.4
381 0 124.208 11.8994 1478 85.2666 1064.24 456.091
382 0 126.239 11.0267 1392 86.7486 1064.61 455.241
383 0 131.302 11.3784 1494 85.3635 1064.94 455.753
384 0 134.193 10.932 1467 87.0838 1064.81 453.114
385 1 74.1057 10.6739 791 74.5537 1064.73 485.909
386 0 78.1756 11.3718 889 77.6727 1064.58 482.961
387 0 80.06 10.9293 875 75.4606 1064.95 483.103
388 0 80.1147 10.6098 850 76.3259 1065.47 481.978
389 0 86.0778 11.0017 947 75.4192 1064.5 478.775
390 0 89.0746 11.7317 1045 74.6077 1064.61 479.405
391 0 92.068 11.7522 1082 74.9824 1064.35 475.314
392 0 97.0726 11.8365 1149 76.7154 1064.24 472.968
393 0 100.082 11.9102 1192 83.651 1064.21 472.417
394 0 104.084 12.1248 1262 82.2068 1064.4 470.372
395 0 107.092 11.5415 1236 84.9539 1064.66 467.393
396 0 110.071 11.5471 1271 84.6223 1064.64 466.982
397 0 114.102 11.0515 1261 86.7391 1064.86 463.42
398 0 118.115 11.1502 1317 86.5201 1065.22 462.398
399 0 121.128 11.8965 1441 86.7911 1065.14 460.446
400 0 122.062 11.4204 1394 87.8816 1065.8 458.453
401 0 127.166 12.1888 1550 86.3458 1065.2 456.501
402 0 130.127 11.5656 1505 86.9163 1064.91 454.722
403 0 135.104 12.346 1668 86.1661 1065.22 452.978
404 0 139.1 12.2573 1705 86.6792 1065.13 453.453
405 0 143.149 12.5394 1795 87.3008 1065.03 451.686
406 0 147.262 12.3046 1812 88.6164 1064.74 446.779
407 0 155.113 11.6625 1809 88.6291 1065.11 447.477
408 0 157.1 11.3622 1785 90.628 1065.65 444.914
409 0 164.244 11.8238 1942 93.6184 1066.2 440.184
410 1 89.2621 11.259 1005 89.0458 1065.13 476.471
411 0 91.2625 11.5491 1054 89.204 1065.16 476.812
412 0 94.3055 11.696 1103 93.4397 1064.65 471.712
413 0 94.3055 11.7172 1105 153.542 1063.64 471.734
414 0 94.2969 11.7501 1108 152.983 1062.64 471.636
415 0 105.143 11.3655 1195 99.7933 1065.49 471.77
416 0 106.185 11.7248 1245 100.904 1065.9 470.683
417 0 112.184 12.7915 1435 98.5561 1065.83 468.477
418 0 114.148 12.9919 1483 100.326 1065.59 466.386
419 0 117.158 12.8971 1511 100.971 1065.82 465.414
420 0 121.139 13.1997 1599 102.36 1065.41 463.248
421 0 125.231 13.6788 1713 100.595 1064.72 459.773
422 0 128.107 13.8244 1771 99.52 1065.51 458.163
423 0 129.195 12.6166 1630 96.1816 1064.67 458.118
424 0 132.168 12.0529 1593 96.8305 1064.06 460.604
425 1 73.0903 10.3023 753 91.915 1063.65 487.371
426 0 74.2052 11.1717 829 95.6659 1064.08 483.22
427 0 77.0274 11.6582 898 85.167 1064.85 486.542
428 0 80.1265 11.7689 943 94.877 1064.56 483.582
429 0 81.0728 11.4958 932 95.9506 1064.04 482.185
430 0 86.0847 11.9882 1032 93.7762 1064.2 479.343
431 0 86.045 11.4359 984 95.3974 1064 478.229
432 0 89.1222 12.1743 1085 93.8553 1064.28 476.415
433 0 92.1202 11.8432 1091 93.3226 1064.17 475.461
434 0 95.1692 12.1888 1160 91.6483 1064.32 473.494
435 0 97.179 12.266 1192 92.2164 1064.39 471.527
436 0 100.172 12.5185 1254 91.2951 1064.07 469.593
437 0 104.123 11.9762 1247 91.9727 1063.47 469.387
438 0 104.174 11.356 1183 94.0296 1063.75 465.94
439 0 107.119 11.8746 1272 92.8105 1063.6 465.145
440 0 111.172 11.7836 1310 93.3473 1063.22 462.717
441 0 114.123 11.5927 1323 92.8571 1063.51 463.512
442 1 61.0978 10.4423 638 87.6661 1063.18 489.011
443 0 63.1083 10.7276 677 88.1226 1063.18 488.981
444 0 66.0206 11.4055 753 86.6335 1063.9 487.68
445 0 68.0683 11.6354 792 86.8131 1064.8 485.178
446 0 65.1115 10.674 695 84.741 1063.43 490.131
447 0 66.1271 10.9486 724 85.1547 1062.99 488.859
448 0 70.0439 11.0074 771 84.8625 1063.07 488.281
449 0 72.0672 11.4476 825 84.5418 1063.22 486.656
450 0 75.0855 11.973 899 83.1858 1063.26 485.835
451 0 78.0592 12.0421 940 83.9234 1063.16 482.904
452 0 79.0904 11.4047 902 86.4911 1063.09 482.537
453 0 82.1573 11.3319 931 87.1686 1063.11 480.981
454 0 82.0539 11.5778 950 89.2926 1063.34 479.952
455 0 85.045 11.4292 972 88.6358 1063.83 479.207
456 0 89.0761 11.6417 1037 88.9527 1063.55 476.223
457 0 92.1388 11.5478 1064 87.4812 1063.73 476.104
458 0 94.0768 11.4694 1079 88.4449 1063.79 474.333
459 0 99.0572 11.2763 1117 92.7699 1064 472.041
460 0 101.098 11.9389 1207 88.0282 1064.2 467.731
461 0 104.18 11.9601 1246 86.9053 1064.21 465.135
462 0 108.06 12.0026 1297 86.9707 1064.49 462.19
463 0 109.136 11.5544 1261 88.3616 1064.37 461.42
464 1 56.0107 9.99808 560 88.0036 1064.67 489.762
465 0 60.0398 11.1759 671 86.7511 1064.38 490.547
466 0 62.0751 11.18 694 88.3401 1064.92 487.323
467 0 60.0442 10.5589 634 81.7334 1064.01 492.162
468 0 62.0428 10.0576 624 83.3574 1063.65 491.571
469 0 62.0347 10.6876 663 82.7104 1064.28 490.398
470 0 66.0457 11.3558 750 81.744 1064.16 487.736
471 0 68.0993 11.1014 756 80.8056 1064.16 488.714
472 0 71.0783 11.1708 794 80.3602 1063.79 487.558
473 0 71.0582 10.8925 774 82.5388 1064.04 485.313
474 0 74.049 11.1548 826 81.0048 1063.5 487.137
475 0 73.0515 10.828 791 82.9532 1063.52 485.239
476 0 76.0879 11.421 869 81.7606 1063.75 483.064
477 0 79.0529 11.2456 889 83.7357 1063.44 481.061
478 0 84.0745 11.6801 982 81.667 1063.78 481.913
479 0 84.1422 10.7437 904 83.7931 1063.7 479.038
480 0 89.0842 10.8998 971 82.6766 1063.75 478.571
481 0 91.0572 11.4763 1045 81.8191 1063.92 476.764
482 0 95.0451 11.4472 1088 82.2877 1063.98 474.055
483 0 96.0446 10.8699 1044 83.409 1063.65 473.505
484 0 99.0856 11.7979 1169 83.7904 1063.47 470.514
485 0 101.085 11.0699 1119 86.8937 1063.1 468.481
486 0 106.097 12.762 1354 91.116 1062.8 466.823
487 0 109.059 12.4611 1359 89.7748 1063.16 464.523
488 1 60.0808 10.6856 642 86.9361 1064.04 492.188
489 0 60.0808 10.6856 642 148.489 1064.04 492.241
490 0 62.0535 12.0058 745 84.3074 1063.87 490.816
491 0 62.0535 11.9897 744 143.606 1063.84 490.505
492 0 58.0561 10.2659 596 84.1644 1064.06 483.737
493 0 62.0367 10.6711 662 82.6541 1063.91 484.421
494 0 65.043 10.8697 707 82.7199 1063.83 484.033
495 0 64.12 10.1684 652 77.1442 1063.87 485.15
496 0 68.0892 10.8975 742 77.7601 1063.33 485.388
497 0 70.0245 11.2246 786 79.0522 1064.2 485.098
498 0 71.0328 11.192 795 81.7371 1063.79 485.009
499 0 71.0328 11.2624 800 136.404 1063.81 484.958
500 0 77.0947 11.9204 919 89.0468 1063.26 486.455
501 0 78.0613 12.1699 950 90.3989 1063.46 484.995
502 0 79.085 12.063 954 91.1782 1063.84 486.273
503 0 82.0581 11.4066 936 92.2949 1064.02 485.221
504 0 85.0685 12.296 1046 91.1883 1063.7 483.369
505 0 88.0528 11.7884 1038 92.289 1062.88 483.304
506 0 90.1214 12.3278 1111 93.8596 1062.95 478.226
507 0 93.0564 12.025 1119 95.1868 1062.94 477.063
508 0 98.0509 12.3507 1211 95.4302 1062.93 475.825
509 0 100.075 13.1901 1320 95.0682 1062.96 474.188
510 0 104.089 13.1426 1368 98.1623 1062.89 471.743
511 0 106.173 13.12 1393 98.2699 1062.98 469.361
512 1 57.069 11.6701 666 96.048 1062.73 494.889
513 0 59.1035 11.8436 700 93.7257 1062.37 494.304
514 0 61.0279 12.6008 769 90.9246 1062.41 493.139
515 0 59.0447 11.7707 695 93.3065 1062.27 493.417
516 0 61.1351 11.9408 730 92.3767 1062.41 493.578
517 0 62.1038 11.7062 727 93.7111 1062.66 492.191
518 0 63.0593 11.8936 750 93.9427 1062.43 491.104
519 0 64.0556 11.5837 742 95.9474 1062.77 489.496
520 0 69.068 11.9448 825 93.4691 1062.74 489.953
521 0 70.0276 11.8668 831 94.2178 1062.72 487.821
522 0 74.1226 12.6952 941 91.5069 1062.97 487.148
523 0 75.0917 11.7723 884 95.4016 1063.17 485.447
524 0 77.0581 12.2116 941 95.0393 1063 483.885
525 0 81.0659 12.4467 1009 96.0168 1063.57 481.889
526 0 83.1024 12.5869 1046 97.8757 1063.49 481.218
527 0 84.039 12.5894 1058 99.8554 1063.16 478.353
528 0 85.1029 12.9725 1104 100.3 1063.39 477.106
529 0 89.0846 12.7856 1139 99.115 1063.37 476.586
530 0 90.0455 12.8713 1159 102.236 1062.67 473.871
531 0 95.1103 13.006 1237 98.7057 1062.59 473.584
532 0 97.0761 12.9074 1253 102.16 1063.41 471.421
533 0 97.056 12.467 1210 99.857 1062.43 470.833
534 0 102.054 13.483 1376 101.671 1062.93 466.831
535 0 106.146 13.1894 1400 102.149 1063.35 465.841
536 0 109.039 13.8299 1508 101.039 1063.3 463.534
537 0 113.068 13.5582 1533 105.226 1062.99 459.97
538 0 117.13 13.882 1626 148.724 1063.16 458.996
539 0 121.107 13.5087 1636 102.44 1063.12 456.153
540 0 122.061 13.2229 1614 104.84 1062.79 452.287
541 0 129.094 13.6722 1765 103.224 1063.24 452.55
542 0 131.062 13.856 1816 102.736 1062.6 450.115
543 0 137.119 13.9441 1912 104.138 1062.16 449.192
544 0 140.114 13.696 1919 105.487 1062.29 446.416
545 0 146.139 13.4598 1967 106.2 1062.67 442.155
546 0 151.167 13.5414 2047 104.328 1062.08 441.399
547 0 156.16 13.9089 2172 105.441 1062.78 438.169
548 0 162.233 14.3251 2324 104.807 1062.93 435.191
549 0 165.243 13.8584 2290 107.513 1062.59 433.003
550 0 171.29 14.2156 2435 106.247 1063.56 430.203
551 0 176.29 13.9032 2451 107.66 1063.01 428.502
552 0 184.328 13.5628 2500 108.218 1062 425.799
553 0 189.233 13.6657 2586 108.132 1062.45 423.213
554 0 198.238 13.6755 2711 108.211 1062.46 422.428
555 0 203.216 13.6062 2765 109.773 1062.74 419.175
556 0 209.302 13.9941 2929 112.173 1062.68 414.068
557 0 209.303 13.9845 2927 166.104 1063.68 414.085
558 1 157.14 13.2111 2076 106.528 1062.18 439.801
559 0 160.151 12.5132 2004 106.029 1062.65 438.11
560 0 167.158 12.569 2101 105.51 1062.49 434.889
561 0 171.278 12.5877 2156 103.567 1063.47 434.41
562 0 181.257 12.2589 2222 103.048 1062.97 430.959
563 0 187.188 12.4634 2333 103.021 1062.28 426.995
564 0 192.161 12.0108 2308 104.912 1062.29 421.171
565 0 204.179 12.6164 2576 101.326 1062.27 421.905
566 0 213.134 13.264 2827 100.046 1062.7 414.161
567 1 47.0629 8.28679 390 77.2385 1063.18 499.228
568 0 49.0863 10.2676 504 82.3611 1061.51 501.55
569 0 52.0261 10.956 570 81.7947 1062.31 501.567
570 0 53.086 10.6054 563 82.9822 1061.86 500.844
571 0 55.1113 10.5423 581 83.3787 1061.51 500.26
572 0 57.1035 11.4704 655 81.2153 1061.75 498.206
573 0 59.085 10.8996 644 83.8214 1062.82 499.727
574 0 61.0464 10.7295 655 83.8656 1062.91 497.602
575 0 63.0635 10.8304 683 83.6179 1062.4 496.179
576 0 66.0995 11.4222 755 81.6901 1062.86 495.968
577 0 67.0337 10.8602 728 84.8736 1062.34 495.962
578 0 68.1087 10.9971 749 84.3298 1062.64 494.515
579 0 72.083 11.5423 832 80.4171 1062.31 491.421
580 0 73.063 11.7707 860 81.8686 1062.72 491.619
581 0 75.116 11.7152 880 80.975 1063.04 490.388
582 0 76.1178 11.653 887 82.9729 1062.98 490.924
583 0 79.0958 11.8464 937 83.0598 1062.58 488.72
584 0 84.0474 12.374 1040 89.9365 1062.51 487.329
585 0 87.1494 12.2319 1066 92.7608 1062.5 485.226
586 0 89.0806 12.2922 1095 89.8603 1062.44 484.288
587 1 47.0594 9.75363 459 90.7516 1062.99 507.24
588 0 47.0338 9.84397 463 91.6652 1062.39 505.968
589 0 49.0884 10.369 509 89.3065 1062.53 505.253
590 0 50.0633 10.3669 519 88.5896 1061.87 505.108
591 0 53.0513 11.1213 590 87.0712 1061.89 502.92
592 0 53.0604 11.1006 589 85.4397 1062.42 502.034
593 0 55.0422 11.3368 624 84.8478 1062.55 501.814
594 0 55.0946 11.8705 654 83.6009 1062.91 499.096
595 0 58.0784 11.3812 661 83.3525 1062.12 497.939
596 0 60.0892 11.5329 693 82.9841 1062.66 496.974
597 0 60.0194 11.4463 687 84.1325 1062.14 498.277
598 0 64.0804 11.8445 759 82.1515 1061.73 497.634
599 0 65.0378 12.2698 798 83.2932 1061.36 494.521
600 0 67.0886 12.2972 825 81.9127 1061.09 491.872
601 0 69.0633 12.7275 879 81.9659 1061.58 492.735
602 0 69.0641 11.8006 815 84.4086 1061.26 492.279
603 0 73.0947 12.5043 914 81.8939 1061.04 490.451
604 0 76.0914 13.1815 1003 80.6082 1061.38 491.018
605 0 77.0862 13.6211 1050 80.0086 1060.76 490.451
606 0 80.1036 13.2204 1059 81.1303 1060.49 489.728
607 0 82.0596 12.7834 1049 88.3775 1060.92 488.252
608 0 86.0958 13.4153 1155 86.6537 1061.02 487.219
609 0 86.0751 13.3953 1153 86.9245 1060.62 485.231
610 0 87.088 13.1821 1148 86.5436 1060.79 485.045
611 0 93.1952 13.0264 1214 87.8715 1061.26 482.709
612 0 95.0855 13.9874 1330 85.3331 1061.92 481.978
613 0 95.1337 13.1814 1254 89.61 1062.09 480.364
614 0 100.203 13.5924 1362 91.7687 1061.6 478.631
615 0 101.142 12.5369 1268 93.179 1060.87 476.238
616 0 102.111 12.9466 1322 89.2216 1060.95 476.309
617 1 58.0504 10.801 627 88.9777 1060.33 498.981
618 0 63.0814 11.398 719 87.2643 1060.65 497.773
619 0 64.0745 11.8924 762 87.5709 1060.17 496.45
620 0 65.0671 12.0337 783 88.5236 1060.99 495.008
621 0 68.0588 12.1219 825 86.2933 1060.27 493.206
622 0 68.1215 11.8171 805 81.2547 1061.24 494.415
623 0 68.1177 11.9352 813 82.6052 1061.49 492.171
624 0 70.061 11.804 827 81.6155 1061 491.678
625 0 74.0801 12.419 920 80.713 1061.38 488.504
626 0 77.1004 11.9584 922 79.6475 1061.6 490.012
627 0 78.0531 11.7356 916 81.1638 1061.1 489.104
628 0 80.0695 11.9896 960 82.8094 1060.83 485.846
629 0 84.1083 12.2818 1033 82.8935 1061.69 484.033
630 0 87.0689 12.2776 1069 83.8232 1062 481.638
631 0 91.0826 12.2855 1119 83.3387 1062.5 480.54
632 0 95.0671 12.4018 1179 83.1561 1062.21 479.226
633 0 98.0621 12.2575 1202 84.4359 1062.25 476.223
634 0 102.059 12.8161 1308 86.0696 1062.91 473.846
635 0 104.099 12.4689 1298 88.1402 1062.32 472.381
636 1 55.086 10.4745 577 84.6828 1062.35 496.65
637 0 56.0281 10.6197 595 87.9445 1063.11 495.891
638 0 60.0353 11.6265 698 84.2063 1062.07 494.871
639 0 60.0246 11.2454 675 87.683 1062.65 493.113
640 0 64.0553 11.5837 742 86.6914 1062.75 490.848
641 0 66.0825 11.7126 774 87.0504 1062.92 492.287
642 0 64.0689 11.1755 716 82.9302 1062.41 493.209
643 0 69.056 11.2662 778 82.1015 1062.79 492.275
644 0 71.0712 11.6925 831 82.5463 1062.67 490.147
645 0 74.0487 11.1278 824 85.1056 1062.52 490.16
646 0 74.0722 11.5563 856 88.4217 1062.44 488.697
647 0 78.1222 11.866 927 88.055 1062.46 487.771
648 0 81.1249 12.6225 1024 86.8164 1063.07 486.776
649 0 84.0813 12.7971 1076 88.3727 1062.68 484.323
650 0 88.0964 14.0528 1238 88.4596 1062.48 482.542
651 0 89.0829 13.5716 1209 92.4078 1062.34 481.179
652 0 91.0808 12.6591 1153 94.7424 1062.64 480.356
653 0 92.157 12.4896 1151 92.0365 1063.01 478.184
654 0 95.1245 12.2366 1164 92.1761 1063.06 476.559
655 0 99.1505 12.9298 1282 93.3159 1062.44 476.193
656 0 99.1402 12.2049 1210 96.4636 1062.97 474.427
657 0 102.165 12.5385 1281 97.886 1063.35 471.227
658 0 106.117 13.2967 1411 95.9362 1062.54 470.544
659 0 110.158 13.0993 1443 94.7644 1063.35 470.078
660 0 112.156 13.1603 1476 94.3266 1062.81 468.357
661 0 115.192 12.9523 1492 95.3901 1063.22 465.637
662 0 117.162 13.1186 1537 95.2251 1063.33 464.978
663 0 121.166 12.7841 1549 96.4454 1063.66 461.67
664 0 127.251 14.0431 1787 92.2725 1062.95 458.501
665 0 130.184 13.3657 1740 93.0966 1063.45 457.13
666 0 135.206 13.816 1868 93.7489 1063.68 456.117
667 0 141.164 14.3804 2030 91.1034 1063.16 453.402
668 0 145.186 14.0096 2034 92.9223 1063.18 452.263
669 0 148.155 13.1888 1954 94.7805 1062.75 447.369
670 0 153.15 12.7979 1960 96.9357 1063.03 447.654
671 1 94.1203 11.1453 1049 96.8408 1064.09 475.485
672 0 98.2009 12.393 1217 94.2958 1063.94 475.772
673 0 101.283 12.5885 1275 93.6494 1063.72 470.108
674 0 104.129 11.9468 1244 97.4839 1062.88 471.307
675 0 104.093 12.2774 1278 98.1299 1062.71 469.249
676 0 106.16 12.3305 1309 98.1085 1063.61 469.325
677 0 110.204 12.5495 1383 97.2856 1063.38 468.077
678 0 114.225 12.9482 1479 96.2765 1063.09 466.874
679 0 118.155 12.5851 1487 98.1459 1063.14 465.383
680 0 119.115 11.8289 1409 95.3918 1063.28 464.915
681 0 123.238 12.6098 1554 93.2561 1063.26 462.265
682 0 126.044 12.2259 1541 93.0526 1064.09 459.922
683 0 128.068 11.7907 1510 93.449 1063.88 459.969
684 0 134.073 12.9258 1733 93.4397 1063.82 455.44
685 0 136.204 12.7089 1731 98.6343 1063.45 452.478
686 0 139.121 12.9024 1795 102.11 1063.57 447.275
687 0 143.194 13.0243 1865 100.342 1064.09 445.183
688 0 143.205 13.0093 1863 153.096 1065.09 445.287
689 0 152.129 12.8378 1953 104.697 1063.93 442.274
690 1 84.0512 11.4811 965 99.428 1064.37 483.833
691 0 87.0727 11.8981 1036 93.7876 1063.04 481.419
692 0 91.0553 12.2343 1114 94.3689 1063.6 480.671
693 0 91.1196 11.5672 1054 99.7742 1063.56 480.638
694 0 96.1424 12.1278 1166 98.1492 1063.02 478.668
695 0 98.1456 11.5441 1133 100.53 1063.41 476.032
696 0 101.15 11.8932 1203 98.813 1063.57 476.367
697 0 103.146 11.8279 1220 100.58 1063.79 473.644
698 0 106.168 11.9998 1274 100.633 1063.62 473.964
699 0 108.175 12.4613 1348 101.45 1063.26 473.394
700 0 108.15 11.5118 1245 93.3847 1062.93 474.279
701 0 108.146 11.3735 1230 130.94 1062.91 474.736
702 0 114.223 10.4883 1198 101.284 1063.35 472.614
703 0 119.301 10.5196 1255 100.065 1063.31 467.363
704 0 124.167 11.2027 1391 98.8584 1062.99 463.861
705 1 70.0521 11.4344 801 84.7216 1063.84 493.655
706 0 72.2083 11.5499 834 90.1319 1062.64 493.056
707 0 75.0821 11.281 847 98.549 1062.8 492.012
708 0 77.0913 11.4929 886 99.0023 1062.64 490.12
709 0 79.068 11.1803 884 101.088 1062.15 491.06
710 0 82.1636 11.0998 912 102.52 1063.02 488.316
711 0 83.1131 11.9235 991 100.913 1062.25 489.152
712 0 84.1124 10.7594 905 105.8 1062.32 485.777
713 0 87.1669 12.1376 1058 102.996 1062.48 486.803
714 0 89.1112 12.4564 1110 102.793 1063.32 485.241
715 0 89.1112 12.4676 1111 155.425 1064.32 485.177
716 0 95.1373 12.256 1166 106.713 1062.4 482.513
717 0 95.1537 11.4552 1090 109.702 1062.27 480.819
718 0 100.119 12.4752 1249 107.761 1062.59 480.18
719 0 101.15 12.0316 1217 111.75 1062.98 480.287
720 0 106.139 12.3706 1313 110.321 1063.14 479.34
721 0 108.342 12.1282 1314 110.299 1063.49 476.665
722 0 110.447 11.7431 1297 112.287 1063.05 475
723 0 113.136 11.4464 1295 109.415 1063.2 474.35
724 0 117.107 11.6304 1362 108.118 1061.74 472.604
725 0 117.107 11.673 1367 152.184 1060.75 472.642
726 1 63.0247 11.9001 750 104.251 1060.96 498.196
727 0 67.083 12.2982 825 102.09 1061.38 496.844
728 0 67.0317 11.1291 746 106.808 1061.07 493.941
729 0 70.048 11.0353 773 107.144 1060.81 492.538
730 0 72.0554 11.2413 810 107.784 1061.17 490.144
731 0 73.0966 10.8076 790 109.314 1061.23 489.533
732 0 76.0644 11.017 838 105.174 1061.14 487.488
733 0 78.055 11.4278 892 105.643 1061.14 487.423
734 0 77.1489 10.6807 824 102.165 1062.97 483.309
735 0 80.0674 9.85419 789 98.9772 1062.37 481.551
736 0 83.0943 10.121 841 98.1023 1062.65 479.999
737 0 85.1215 10.3734 883 98.4757 1063.02 478.945
738 0 85.0725 10.0738 857 100.406 1062.31 477.518
739 0 94.1917 12.0817 1138 109.471 1061.96 484.04
740 0 96.1108 11.7989 1134 110.022 1061.78 480.875
741 0 99.067 11.8102 1170 109.753 1061.75 479.467
742 0 103.092 11.8437 1221 110.082 1061.53 476.713
743 0 106.139 12.5025 1327 108.307 1061.62 476.892
744 0 108.128 11.8933 1286 111.184 1062.17 474.319
745 1 55.0293 10.1401 558 107.615 1061.44 501.258
746 0 57.0652 11.3379 647 105.087 1062.5 499.646
747 0 58.033 11.3039 656 107.601 1062.32 499.151
748 0 59.0791 11.8654 701 107.795 1062.14 496.997
749 0 61.1449 12.2496 749 104.943 1062.82 497.045
750 0 59.0352 11.7218 692 103.434 1062.34 497.461
751 0 63.0282 12.185 768 103.156 1062.59 496.042
752 0 65.0553 12.0205 782 103.226 1062.61 495.416
753 0 68.0842 12.7049 865 101.889 1062.54 495.088
754 0 66.0739 12.0925 799 107.587 1062.82 494.766
755 0 68.0788 11.8245 805 107.328 1063 495.379
756 0 70.0676 12.4594 873 105.662 1062.48 494.947
757 0 71.0698 12.4948 888 109.032 1062.53 494.017
758 0 74.0356 12.4265 920 110.513 1063.25 491.208
759 0 74.0639 12.0302 891 113.875 1063.08 490.8
760 0 77.0522 12.0438 928 114.197 1062.85 490.395
761 0 78.0583 12.4138 969 114.719 1063.62 487.641
762 0 81.0537 12.72 1031 114.307 1063.93 486.065
763 0 85.009 12.8928 1096 113.739 1063.69 486.248
764 0 87.0593 12.681 1104 115.793 1063.04 485.755
765 0 90.0321 13.3619 1203 114.834 1063.12 482.615
766 0 94.0389 13.1116 1233 114.952 1063.07 481.386
767 0 95.073 13.2319 1258 115.611 1062.58 480.073
768 0 99.0559 13.2854 1316 114.039 1062.49 479.324
769 0 100.085 13.3786 1339 115.795 1062.81 476.37
770 0 102.018 12.9291 1319 116.904 1062.87 477.136
771 0 105.056 13.2596 1393 116.169 1063.09 474.257
772 0 109.041 13.2152 1441 115.846 1063.46 473.896
773 0 114.146 13.2374 1511 111.366 1063.07 472.269
774 1 61.0774 12.2468 748 110.119 1062.62 497.814
775 0 64.0641 12.8933 826 114.214 1062.94 494.748
776 0 64.0253 12.8387 822 115.052 1063.33 493.299
777 0 66.0412 12.9616 856 114.604 1063.12 492.771
778 0 69.0688 13.2187 913 113.035 1063.01 491.24
779 0 72.0302 13.175 949 111.037 1063.71 489.647
780 0 72.0702 12.8763 928 114.615 1063.46 489.149
781 0 77.0829 13.5958 1048 111.07 1062.72 488.052
782 0 77.0185 13.4773 1038 112.264 1063.27 486.497
783 0 77.057 12.5621 968 103.74 1062.51 486.345
784 0 79.0992 12.4021 981 104.738 1062.72 485.357
785 0 82.0698 12.6478 1038 107.865 1062.52 483.706
786 0 84.0578 13.1457 1105 111.057 1063.11 481.811
787 0 86.157 12.6861 1093 112.154 1063.26 480.893
788 0 88.0775 13.4995 1189 109.907 1063.32 479.58
789 0 91.1303 12.9156 1177 111.544 1063.79 477.523
790 0 95.0835 13.0622 1242 110.525 1064.54 477.192
791 0 96.0495 13.3056 1278 110.797 1063.67 475.174
792 0 99.167 13.2605 1315 110.484 1064.43 472.992
793 0 102.107 13.5349 1382 109.063 1063.79 471.436
794 0 106.113 13.6176 1445 107.116 1063.56 469.063
795 0 111.124 14.9293 1659 102.028 1063.91 468.671
796 0 112.114 14.3336 1607 104.744 1064.53 465.773
797 0 115.109 14.4298 1661 103.03 1063.7 467.264
798 0 119.093 14.602 1739 102.978 1064.15 465.415
799 0 121.074 14.4787 1753 104.807 1064.22 462.497
800 0 125.117 13.971 1748 105.83 1064.77 461.173
801 0 125.117 13.5313 1693 107.819 1064.76 458.037
802 0 132.165 14.0809 1861 105.707 1064.46 457.529
803 0 136.188 14.6709 1998 104.946 1064.95 455.227
804 0 137.132 14.147 1940 107.338 1064.41 452.453
805 0 143.157 13.803 1976 107.443 1063.88 450.095
806 0 150.157 14.2584 2141 105.802 1064.01 446.632
807 0 156.198 14.4944 2264 104.979 1063.87 446.047
808 0 159.24 14.1799 2258 106.428 1063.78 442.949
809 0 165.221 14.3929 2378 107.225 1064.26 441.683
810 0 167.185 14.3793 2404 108.017 1064.08 438.081
811 0 173.175 14.0782 2438 108.282 1064.08 435.005
812 0 174.169 13.9634 2432 108.632 1064.65 431.836
813 0 176.21 14.1762 2498 106.442 1063.81 425.758
814 0 183.181 14.2974 2619 105.288 1063.26 424.459
815 0 193.171 14.3189 2766 104.962 1063.67 424.084
816 0 199.135 14.7287 2933 105.048 1063.83 422.869
817 0 203.115 14.3269 2910 105.143 1062.94 421.203
818 0 212.245 14.7424 3129 100.808 1063.24 416.914
819 0 218.189 13.5341 2953 101.283 1063.7 411.903
820 0 224.359 13.0995 2939 98.9806 1063.51 410.784
821 0 233.273 13.8164 3223 98.1368 1063.29 408.985
822 1 171.182 11.736 2009 98.9373 1063.45 439.726
823 0 175.236 12.2406 2145 98.097 1062.45 435.79
824 0 181.239 12.58 2280 98.4452 1062.5 429.655
825 0 189.311 12.4029 2348 98.0554 1062.31 428.782
826 0 194.116 12.8377 2492 97.6031 1062.12 425.746
827 0 200.191 12.9726 2597 97.9973 1062.15 422.916
828 0 207.269 13.0507 2705 96.6921 1062.75 417.709
829 0 207.261 13.003 2695 135.086 1062.74 417.627
830 1 222.34 14.8691 3306 90.5372 1062.5 417.727
831 0 224.234 13.807 3096 92.9803 1062.69 415.356
832 0 230.217 15.303 3523 90.6926 1062.55 409.645
833 0 236.154 15.7355 3716 89.4311 1062.75 408.039
834 0 239.143 15.4301 3690 90.6897 1062.64 406.805
835 0 247.203 15.3517 3795 91.614 1062.81 403.066
836 0 249.163 14.7454 3674 94.2561 1062.56 397.831
837 0 257.248 15.0633 3875 93.8495 1062.84 396.956
838 0 262.205 14.9082 3909 94.4039 1062.42 392.52
839 0 267.217 14.651 3915 95.5724 1061.73 389.48
840 0 274.232 14.5862 4000 95.8785 1061.48 385.684
841 0 284.217 15.1293 4300 94.0967 1061.32 386.655
842 0 289.18 15.0356 4348 96.0991 1062.06 381.073
843 0 296.231 14.8668 4404 94.7048 1061.56 374.347
844 0 305.126 17.501 5340 87.7816 1061.78 370.074
845 0 314.204 18.1952 5717 85.943 1062 361.709
846 0 317.151 15.305 4854 92.6916 1061.5 364.413
847 0 325.203 16.0331 5214 91.3443 1062.04 362.86
848 0 332.407 15.6916 5216 92.5439 1062.14 355.186
849 0 338.227 18.801 6359 85.1451 1061.56 349.258
850 0 346.394 17.4137 6032 88.1726 1062.27 346.45
851 0 352.328 17.3957 6129 87.5469 1061.97 342.847
852 0 360.23 17.6526 6359 87.0277 1061.7 337.745
853 0 366.367 16.8247 6164 88.9309 1062.08 335.771
854 0 374.268 17.3752 6503 87.5491 1062.57 329.587
855 0 382.417 17.8731 6835 86.4178 1061.91 325.703
856 0 390.413 18.0245 7037 86.085 1062.47 322.601
857 0 396.414 17.9308 7108 86.5755 1062.01 315.644
858 0 404.394 18.0492 7299 86.5704 1061.43 314.001
859 0 412.352 18.4527 7609 85.7277 1062.33 308.318
860 0 418.395 18.3821 7691 85.5488 1062.38 307.618
861 0 422.547 19.5718 8270 81.833 1062.3 299.91
862 0 422.458 18.6433 7876 83.5813 1062.3 298.067
863 0 422.382 18.9071 7986 82.5493 1063.27 297.741
864 0 423.448 21.0132 8898 78.4704 1062.5 296.411
865 0 423.506 19.6762 8333 80.9399 1062.32 295.833
866 0 423.447 21.2494 8998 76.8705 1062.48 294.864
867 0 422.45 19.297 8152 79.011 1062.45 293.791
868 0 420.717 18.2498 7678 81.4689 1062.75 293.317
869 0 421.431 19.2843 8127 77.9443 1062.77 294.861
870 0 421.463 19.3517 8156 76.4506 1062.61 295.944
871 0 420.67 18.9222 7960 76.9314 1062.33 294.612
872 0 420.528 18.1629 7638 77.3559 1061.74 292.968
873 0 422.542 21.2405 8975 71.5534 1062.38 292.692
874 0 421.736 19.6971 8307 73.8817 1062.46 292.274
875 0 422.698 18.8101 7951 74.2346 1062.21 293.98
876 0 421.829 19.1618 8083 72.9386 1062.85 293.161
877 0 422.045 20.2585 8550 69.7731 1062.75 293.487
878 0 421.903 20.1658 8508 69.2013 1062.83 293.602
879 0 424.113 19.9876 8477 68.5866 1063.12 294.289
880 0 422.064 21.4233 9042 66.2467 1062.3 290.668
881 0 422.188 19.1431 8082 67.2449 1062.57 295.859
