time division length width area intensity CMx CMy
0 0 43.0116 12.578 541 132.301 1145.22 496.773
1 0 42.0498 13.6029 572 129.988 1145.45 496.061
2 0 45.013 13.6405 614 123.686 1145.22 495.533
3 0 45.0482 14.096 635 122.75 1145.38 494.633
4 0 48.0154 13.3915 643 119.138 1145.66 495.449
5 0 47.0283 14.0128 659 118.879 1146.29 494.927
6 0 48.0107 13.8927 667 118.541 1145.98 494.489
7 0 51.0141 13.8197 705 117.809 1146.46 493.627
8 0 51.059 13.6313 696 118.648 1146.57 493.161
9 0 56.0373 14.2405 798 113.504 1146.05 492.476
10 0 58.0393 14.4213 837 111.922 1145.29 492.587
11 0 59.0402 14.668 866 112.669 1145.83 490.074
12 0 61.0159 14.6192 892 112.232 1145.96 489.902
13 0 64.0479 14.817 949 111.419 1145.25 487.767
14 0 66.0639 15.0006 991 111.889 1144.42 487.253
15 0 68.0394 14.6974 1000 112.039 1145.3 486.092
16 0 69.0626 14.8561 1026 111.459 1145.17 484.766
17 0 73.0253 14.7209 1075 110.98 1145.02 482.708
18 0 75.0593 14.8816 1117 110.011 1144.81 483.491
19 0 77.063 14.8709 1146 110.068 1144.33 482.079
20 0 80.0352 14.831 1187 110.424 1144.25 480.466
21 0 82.0938 14.922 1225 108.344 1143.21 479.183
22 0 85.0942 14.8776 1266 108.946 1143.33 477.431
23 0 88.0859 14.7697 1301 108.704 1143.65 476.397
24 0 90.1192 14.503 1307 107.037 1143.46 475.559
25 0 96.0541 14.9915 1440 104.288 1143.87 474.492
26 1 53.0434 12.5558 666 108.677 1143.87 495.731
27 0 56.0138 14.068 788 98.9784 1144.23 494.854
28 0 57.024 13.5908 775 99.1523 1144.12 494.375
29 0 58.0546 13.8835 806 99.9144 1144.15 493.434
30 0 60.0401 13.8741 833 101.042 1144.06 492.385
31 0 63.0164 13.9646 880 102.109 1143.48 491.049
32 0 67.0354 14.1567 949 101.899 1143.33 490.232
33 0 69.0203 14.445 997 104.018 1143.41 487.893
34 0 72.0543 13.6702 985 110.598 1143.35 487.074
35 0 73.0428 13.8686 1013 111.711 1143.35 485.342
36 0 77.0487 13.7445 1059 111.134 1142.91 482.659
37 0 77.0236 13.5283 1042 111.436 1143.3 482.298
38 0 81.0396 14.0178 1136 108.663 1143.21 481.18
39 0 83.045 13.7155 1139 109.97 1144.1 480.113
40 0 87.029 14.0643 1224 108.063 1143.94 478.016
41 0 88.0878 13.4184 1182 109.521 1143.4 476.238
42 0 93.0784 13.6444 1270 107.439 1143.54 474.957
43 1 47.0318 12.0132 565 103.145 1143.47 496.956
44 0 48.0362 12.9902 624 101.708 1143.09 497.008
45 0 49.0172 12.9954 637 104.763 1143.84 496.735
46 0 49.0392 12.7653 626 98.008 1142.91 498.153
47 0 50.0178 12.8154 641 97.5164 1143.69 496.629
48 0 53.0198 12.7499 676 95.3476 1143.37 495.759
49 0 53.043 12.8009 679 95.8704 1143.77 493.982
50 0 55.0328 12.9196 711 95.7004 1143.78 492.615
51 0 57.0364 12.9216 737 95.5699 1143.97 491.583
52 0 59.0591 13.4103 792 93.9697 1143.31 491.178
53 0 60.0323 13.0097 781 96.6095 1143.43 489.75
54 0 64.048 12.9903 832 93.8858 1142.97 490.703
55 0 64.056 13.254 849 94.4393 1143.82 488.681
56 0 68.0231 12.9074 878 94.2722 1143.56 486.556
57 0 71.0503 13.9338 990 93.8434 1144.15 486.32
58 0 73.1533 13.5879 994 94.6338 1144.62 485.075
59 0 75.0329 13.7007 1028 96.9689 1143.46 483.048
60 0 76.0869 13.1692 1002 97.6677 1143.87 482.454
61 0 79.0789 12.7973 1012 98.9555 1144.66 481.693
62 0 83.1014 13.6219 1132 96.485 1143.93 479.479
63 0 85.1609 13.5156 1151 96.4787 1143.68 479.086
64 0 88.0613 13.6269 1200 96.3958 1143.57 478.441
65 0 90.0688 12.9679 1168 99.4435 1144.57 476.429
66 0 92.1158 13.6567 1258 97.1645 1144.63 475.608
67 1 47.0483 11.4776 540 98.1296 1144.32 496.994
68 0 49.0964 12.119 595 95.4437 1144.06 497.166
69 0 51.0966 11.8795 607 96.3163 1144.52 494.647
70 0 50.0515 11.4682 574 86.9983 1144.57 497.774
71 0 51.0328 11.9531 610 86.2607 1145.14 496.059
72 0 55.0543 11.5159 634 85.3628 1144.79 495.421
73 0 56.0461 11.776 660 84.4682 1144.59 494.35
74 0 59.082 12.1865 720 83.0736 1144.06 493.189
75 0 61.0921 11.8346 723 83.3333 1144.53 492.315
76 0 62.0671 11.7615 730 82.1945 1143.96 491.068
77 0 65.0493 11.376 740 83.0162 1144.35 488.965
78 0 68.0448 11.8157 804 82.5249 1144.56 488.974
79 0 69.0817 12.0437 832 82.893 1144.31 486.659
80 0 70.0239 12.8528 900 83.4156 1145.12 485.943
81 0 72.0908 12.0959 872 86.3647 1144.73 484.517
82 0 75.1372 12.0313 904 87.6936 1144.62 482.506
83 0 78.0967 12.7278 994 87.3249 1144.18 482.005
84 0 82.1142 12.7018 1043 86.6596 1144.58 479.621
85 0 84.0405 12.6606 1064 85.4483 1144.37 479.99
86 0 84.0611 12.4671 1048 85.8788 1144.47 479.035
87 0 88.0882 11.5679 1019 86.841 1145.18 476.027
88 0 92.0784 12.3808 1140 83.9193 1144.95 474.96
89 0 94.0561 12.0247 1131 85.481 1144.24 472.477
90 0 97.0624 12.2602 1190 84.2798 1144.85 470.821
91 0 101.082 12.7223 1286 83.4533 1144.34 468.676
92 0 105.163 12.6375 1329 82.7615 1144.59 468.796
93 0 108.099 12.5996 1362 83.3194 1144.51 467.319
94 0 110.12 12.3683 1362 83.9376 1144.82 464.494
95 0 113.155 11.8864 1345 86.0758 1144.58 462.229
96 0 118.116 12.0306 1421 85.0408 1144.61 459.939
97 0 123.112 12.6227 1554 83.473 1144.03 457.918
98 0 128.166 11.9922 1537 83.1815 1144.28 457.163
99 1 70.0322 11.1806 783 75.3078 1143.77 486.99
100 0 70.1266 12.0069 842 80.5713 1143.85 484.624
101 0 73.069 10.8801 795 76.2478 1143.94 484.546
102 0 76.1158 11.6927 890 76.3921 1143.72 483.282
103 0 77.0435 11.1106 856 78.4579 1144.15 480.845
104 0 79.057 11.3968 901 80.0366 1144.15 479.807
105 0 83.1076 11.5152 957 81.1003 1144.38 478.042
106 0 85.153 11.6379 991 81.7972 1144.06 478.445
107 0 87.0697 12.4038 1080 82.3889 1144.18 476.104
108 0 89.1285 11.5676 1031 84.9088 1144.33 472.278
109 0 91.079 11.748 1070 83.7327 1143.88 473.739
110 0 95.0777 11.864 1128 82.6383 1144.41 471.237
111 0 98.0722 11.8586 1163 82.466 1143.68 469.872
112 0 101.133 12.3698 1251 80.7962 1144.55 468.363
113 0 103.086 11.9803 1235 82.5563 1144.33 467.495
114 0 106.074 11.5863 1229 83.7185 1144.6 464.361
115 0 109.227 12.03 1314 82.8851 1143.88 463.488
116 0 112.044 11.6383 1304 83.6817 1144.63 462.667
117 0 116.107 12.0148 1395 82.5505 1144.72 460.738
118 0 121.108 11.7581 1424 83.7128 1144.49 456.981
119 1 65.0485 9.40836 612 75.3333 1144.37 488.547
120 0 69.0578 11.0198 761 75.594 1143.61 486.392
121 0 71.0544 11.1464 792 75.7955 1143.47 485.346
122 0 71.1229 10.6717 759 77.5507 1143.77 484.481
123 0 74.0425 11.0612 819 76.79 1144.58 483.304
124 0 76.0284 11.4694 872 77.1938 1145.38 481.733
125 0 76.0284 11.4826 873 136.007 1146.37 481.803
126 0 81.1532 11.6816 948 73.6034 1144.86 481.012
127 0 84.1253 11.0193 927 75.1003 1144.77 480.538
128 0 87.0557 11.4754 999 76.2252 1144.45 476.897
129 0 92.0674 11.9043 1096 75.2372 1144.31 476.386
130 0 93.1262 11.4039 1062 77.0169 1143.84 475.641
131 0 97.0582 11.3952 1106 78.0678 1143.97 472.534
132 0 100.134 11.7643 1178 79.7105 1144.43 470.348
133 1 51.0258 9.70097 495 75.4283 1144.6 496.41
134 0 53.1408 9.95468 529 75.6654 1144.67 496.113
135 0 55.0426 11.2458 619 75.0452 1144.8 493.796
136 0 58.0773 11.4158 663 74.0347 1144.88 493.421
137 0 59.0957 11.7267 693 74.4791 1144.36 491.88
138 0 62.0648 11.7458 729 74.4198 1143.88 491.783
139 0 62.1151 11.6236 722 75.5388 1143.49 490.676
140 0 64.0773 12.3601 792 73.6919 1142.91 491.263
141 0 66.0651 11.7611 777 75.5586 1143.23 489.026
142 0 69.1098 12.4729 862 75.4188 1143.62 488.536
143 0 70.049 12.1058 848 77.5153 1143.77 487.803
144 0 72.0988 11.9697 863 77.4867 1143.89 486.561
145 0 76.0279 11.6668 887 90.6505 1142.86 485.497
146 0 78.0209 11.3559 886 90.7619 1143.02 484.435
147 0 81.1111 11.9712 971 88.0999 1142.55 481.706
148 0 84.1223 12.0658 1015 86.5921 1142.94 481.137
149 0 86.0747 11.2112 965 88.5347 1142.66 480.487
150 1 44.0151 11.1098 489 81.3885 1143.01 500.673
151 0 44.0256 11.2435 495 80.0646 1142.46 500.21
152 0 46.0927 10.9128 503 79.4155 1142.94 500.461
153 0 48.0355 11.6997 562 78.9875 1142.81 499.231
154 0 51.0374 12.0892 617 77.3485 1143.05 497.877
155 0 50.0508 11.808 591 79.154 1143.14 495.866
156 0 51.037 11.815 603 78.5141 1143.4 496.463
157 0 51.0107 10.6644 544 81.9835 1143.28 498.895
158 0 52.0544 11.4496 596 82.5319 1142.92 497.027
159 0 54.0459 11.4347 618 77.7638 1142.92 493.867
160 0 56.0604 11.4876 644 79.295 1143.25 494.208
161 0 56.0276 11.2623 631 80.0745 1143.05 493.095
162 0 59.0303 10.9943 649 80.1371 1142.86 493.29
163 0 61.0337 10.5843 646 81.4644 1143.25 493.091
164 0 61.0261 10.8806 664 80.5045 1143.25 491.143
165 0 64.0611 11.4422 733 79.075 1143.16 488.262
166 0 67.044 10.8735 729 79.6639 1142.8 488.995
167 0 69.0351 11.7042 808 79.1052 1142.87 486.323
168 0 72.0261 11.4264 823 78.9733 1143.08 486.57
169 0 71.053 11.1044 789 80.5703 1143.74 486.11
170 0 71.053 11.1888 795 128.644 1143.76 486.021
171 0 80.047 11.6681 934 77.8405 1144.25 482.226
172 0 80.047 11.7306 939 130.192 1145.24 482.163
173 1 45.0532 11.1868 504 79.5853 1143.26 497.464
174 0 45.0231 11.5052 518 78.3803 1143.29 497.674
175 0 46.0593 12.1582 560 75.9964 1142.5 496.675
176 0 48.0349 12.1162 582 75.6306 1142.39 496.828
177 0 49.0156 12.5878 617 72.5964 1142.64 494.321
178 0 49.0425 12.1323 595 73.7933 1143.36 496.348
179 0 49.042 11.745 576 74.6667 1143.58 496.028
180 0 50.0367 11.0719 554 74.8375 1144.17 495.843
181 0 50.0508 11.2885 565 74.3221 1144.49 495.758
182 0 55.0455 11.1908 616 72.6136 1143.7 493.552
183 0 54.0216 11.6805 631 72.8859 1144.45 494.434
184 0 56.0662 11.8967 667 71.9145 1143.75 493.636
185 0 60.1045 11.9958 721 71.6449 1144.18 492.373
186 0 61.0877 11.7863 720 72.2042 1143.98 491.706
187 0 64.1331 11.8348 759 72.274 1144.05 490.584
188 0 66.1914 12.6754 839 71.7378 1144.33 487.282
189 0 68.1343 12.7542 869 73.1277 1145 487.105
190 0 70.1259 13.0907 918 73.9651 1144.5 485.81
191 0 73.158 12.1654 890 77.3876 1144.27 484.393
192 0 75.0709 12.3483 927 77.9061 1143.52 483.143
193 0 76.18 12.3392 940 79.1798 1142.94 482.578
194 0 80.0694 12.6765 1015 79.198 1143.04 480.438
195 0 83.046 12.8363 1066 80.0272 1143.09 479.139
196 0 86.1049 12.7287 1096 80.2126 1142.94 477.932
197 1 46.0218 11.1686 514 81.6459 1142.83 496.718
198 0 45.0105 11.464 516 81.8779 1143.34 495.461
199 0 47.0117 11.6567 548 81.9909 1143.15 495.062
200 0 45.0769 11.0478 498 76.2912 1142.42 497.508
201 0 47.0464 11.1167 523 77.0975 1142.19 497.067
202 0 52.1494 11.8314 617 94.3857 1141.95 496.373
203 0 52.0392 11.7604 612 94.8301 1141.97 494.886
204 0 52.0724 11.6952 609 97.8654 1142.75 495.913
205 0 53.0149 11.94 633 98.1422 1142.08 494.845
206 0 56.0287 12.2616 687 97.2329 1142.91 494.364
207 0 58.0176 11.7895 684 98.8889 1142.88 493.001
208 0 60.1117 12.0942 727 96.7909 1142.79 492.407
209 0 60.1117 12.011 722 151.745 1142.79 492.481
210 0 64.0737 11.9082 763 97.4797 1142.77 489.929
211 0 65.0539 11.7134 762 99.7205 1142.86 488.978
212 0 68.1047 12.3486 841 97.9798 1143.2 487.596
213 0 70.0569 13.018 912 96.2939 1142.97 485.816
214 0 74.1449 13.042 967 95.8563 1143.33 483.987
215 0 75.129 12.7248 956 96.4435 1143.18 483.984
216 0 80.1239 13.1546 1054 94.8786 1142.76 480.571
217 0 82.1368 13.1001 1076 95.1403 1143.82 480.412
218 0 82.1368 13.1853 1083 148.31 1144.81 480.351
219 0 90.1399 13.1795 1188 94.2702 1142.56 475.772
220 0 93.108 13.1568 1225 93.7992 1142.53 474.754
221 0 95.1459 13.1377 1250 93.9552 1142.72 472.53
222 0 98.1342 12.2587 1203 96.7631 1142.27 472.293
223 1 54.1057 11.4775 621 98.6989 1142.53 493.05
224 0 57.0252 12.0298 686 95.5481 1142.51 492.302
225 0 58.0392 12.2503 711 93.7187 1142.21 491.482
226 0 55.036 10.4295 574 92.8676 1142.26 493.235
227 0 58.0845 11.7932 685 88.1971 1142.2 491.253
228 0 60.0559 11.6225 698 88.0415 1142.87 491.546
229 0 62.1042 11.835 735 86.9265 1142.91 491.116
230 0 63.0461 11.0713 698 88.7249 1143.11 489.484
231 0 66.0758 11.4717 758 88.8668 1142.98 488.416
232 0 68.106 11.3353 772 89.8834 1143.01 488.093
233 0 71.0465 11.4291 812 90.6921 1143.22 486.539
234 0 74.1082 12.2389 907 88.839 1143.41 483.918
235 0 75.0605 11.3775 854 91.4953 1143.16 483.706
236 0 77.0638 11.6008 894 91.462 1143.69 482.301
237 0 80.0534 12.017 962 90.422 1143.18 480.656
238 0 81.0591 11.6335 943 89.9576 1143.24 480.126
239 0 85.0591 12.603 1072 85.4888 1142.51 477.466
240 0 87.1089 11.5143 1003 90.2552 1143.18 478.165
241 0 90.0715 11.6796 1052 89.5409 1142.62 475.52
242 0 93.0969 11.9338 1111 88.2241 1142.75 474.124
243 0 96.0481 12.2543 1177 88.0773 1141.94 472.88
244 0 98.1039 11.6203 1140 90.7009 1142.03 470.788
245 0 102.061 11.6597 1190 88.6597 1142.57 472.128
246 0 105.104 12.7684 1342 87.4285 1142.42 468.054
247 0 110.068 12.5105 1377 88.8991 1141.9 467.712
248 0 112.081 11.7593 1318 89.717 1142.53 466.69
249 1 61.0332 11.42 697 91.472 1141.93 490.119
250 0 62.0411 11.8953 738 90.042 1142.46 490.776
251 0 66.0549 11.9143 787 87.9593 1141.75 488.588
252 0 66.0873 12.5289 828 88.8031 1141.97 487.709
253 0 65.074 11.8019 768 83.0911 1142.32 488.708
254 0 67.0275 11.8011 791 85.6852 1142.53 488.593
255 0 69.0458 11.992 828 85.6063 1142.79 487.975
256 0 71.0526 11.2874 802 88.3479 1143.22 487.948
257 0 73.0971 11.7789 861 87.705 1143.15 486.612
258 0 77.1253 12.8751 993 86.0604 1143.29 483.213
259 0 81.092 13.2442 1074 84.6611 1142.62 482.542
260 0 82.079 12.5245 1028 86.5856 1142.47 481.535
261 0 86.0731 12.9192 1112 86.4757 1142.88 479.665
262 0 89.1106 13.04 1162 85.7874 1142.58 478.74
263 0 92.099 13.0403 1201 86.6819 1142.59 476.257
264 0 92.0816 13.26 1221 87.6945 1143.02 475.695
265 0 96.0447 13.2751 1275 86.9169 1142.48 472.919
266 0 99.1758 13.6324 1352 87.8151 1142.54 470.568
267 0 102.198 13.8457 1415 87.0028 1142.37 470.406
268 0 106.241 13.5729 1442 87.6761 1142.14 467.565
269 0 106.223 13.481 1432 88.875 1141.73 467.053
270 0 111.198 14.092 1567 86.4263 1141.9 463.929
271 0 114.214 13.9912 1598 86.2741 1142 463.954
272 0 117.286 13.9829 1640 85.6159 1141.83 459.885
273 0 120.235 12.7334 1531 93.1561 1142.51 455.187
274 0 122.329 13.3819 1637 91.5504 1142.72 452.806
275 0 126.199 11.9414 1507 94.5036 1142.17 449.687
276 0 126.248 12.4913 1577 94.4407 1141.79 447.542
277 0 128.272 12.9179 1657 93.6222 1142.5 444.482
278 0 132.264 12.3011 1627 95.488 1142.81 442.468
279 0 135.174 12.2657 1658 97.0332 1142.35 438.638
280 0 140.195 12.2829 1722 97.3148 1142.78 437.789
281 0 140.195 12.3043 1725 144.227 1143.78 437.831
282 0 150.131 12.7489 1914 96.5355 1142.67 432.719
283 0 152.212 12.6731 1929 97.4142 1142.07 430.19
284 0 158.152 13.2594 2097 94.1941 1142.16 427.116
285 0 163.128 13.5599 2212 93.5597 1142.14 426.71
286 0 168.217 13.328 2242 92.7119 1142.45 418.815
287 0 173.273 13.2911 2303 91.7377 1142.1 421.594
288 0 177.165 13.4056 2375 92.6956 1141.72 415.801
289 0 186.258 14.3618 2675 91.1436 1141.71 410.151
290 0 190.332 14.4064 2742 89.0671 1141.73 408.898
291 0 194.279 13.7894 2679 89.7701 1141.52 406.764
292 0 198.14 12.8445 2545 91.5517 1142.09 407.266
293 0 201.177 12.1386 2442 91.8145 1142.16 408.455
294 0 210.313 13.3278 2803 89.218 1142.38 399.66
295 0 231.279 19.2538 4453 74.4435 1142.05 375.392
296 0 231.258 17.1756 3972 79.9909 1141.81 374.914
297 0 232.276 15.5246 3606 86.2557 1141.3 379.965
298 0 235.353 13.142 3093 93.0058 1142.17 378.829
299 0 246.45 14.6602 3613 89.2128 1141.79 373.71
300 0 249.46 10.5267 2626 96.9497 1141.56 383.086
301 1 61.1031 10.5396 644 71.0528 1141.71 482.161
302 0 65.0876 12.1682 792 76.7917 1141.93 486.136
303 0 68.049 11.5652 787 69.7421 1142.11 487.743
304 0 70.1146 11.3956 799 69.9011 1142.59 486.569
305 0 72.1006 11.8584 855 68.6304 1142.64 486.918
306 0 74.0744 11.8799 880 69.3591 1142.35 484.909
307 0 76.0202 11.7337 892 69.3565 1141.97 485.307
308 0 78.0885 12.0632 942 69.1773 1141.65 484.939
309 0 80.2011 12.0198 964 69.7199 1141.74 483.214
310 0 83.0879 12.3604 1027 69.4722 1142.16 481.861
311 0 86.1435 12.3399 1063 70.4337 1142.27 481.297
312 0 89.1021 12.9627 1155 69.6286 1142 480.5
313 0 90.1987 12.8494 1159 70.2459 1142.33 479.046
314 0 94.07 13.1498 1237 70.443 1141.6 477.998
315 0 97.1552 12.9072 1254 70.9769 1141.47 475.841
316 0 98.1114 12.3125 1208 72.4487 1141.67 473.713
317 0 104.147 11.8294 1232 83.1445 1141.09 473.315
318 0 106.051 12.2866 1303 82.4605 1141.02 473.371
319 0 108.109 12.2377 1323 81.6825 1141.23 471.61
320 0 113.163 12.6278 1429 79.9111 1141.88 470.258
321 0 116.178 11.9988 1394 79.2934 1141.55 468.227
322 1 62.0881 11.2904 701 73.3167 1141.46 495.641
323 0 64.1131 11.1366 714 76.9594 1142.19 493.626
324 0 67.0688 11.1975 751 81.5686 1141.5 493.786
325 0 67.1158 12.4114 833 81.407 1141.24 491.537
326 0 69.0867 12.1297 838 80.0322 1141.2 490.795
327 0 72.1101 12.2313 882 74.0601 1141.46 489.694
328 0 72.104 11.4279 824 75.7282 1140.88 489.761
329 0 74.0657 12.2054 904 73.3031 1139.66 490.748
330 0 74.0434 12.0875 895 74.5508 1139.69 490.07
331 0 76.0922 11.7621 895 82.6425 1141.03 489
332 0 77.0776 11.3652 876 75.2443 1140.67 485.758
333 0 81.094 12.0724 979 74.3882 1140.79 484.342
334 0 81.0902 12.036 976 121.401 1140.79 484.38
335 0 82.1324 10.8362 890 78.7045 1139.6 484.767
336 0 85.0516 11.4989 978 78.2924 1139.65 483.324
337 0 90.0915 11.3773 1025 77.8741 1139.89 481.001
338 0 93.0563 10.8859 1013 78.7512 1139.77 480.843
339 0 94.1194 10.5611 994 82.8954 1139.68 477.6
340 0 100.156 12.3008 1232 80.2784 1139.63 474.622
341 1 55.1065 11.0876 611 81.3142 1139.08 496.239
342 0 57.2236 10.5201 602 80.8754 1138.46 496.156
343 0 58.2167 10.6842 622 82.1977 1137.75 496.551
344 0 58.1786 11.2069 652 81.9233 1138.26 495.672
345 0 61.1721 12.048 737 83.7286 1137.38 493.494
346 0 62.1123 11.6241 722 80.5388 1137.66 493.255
347 0 65.1386 12.5732 819 78.8828 1137.46 493.333
348 0 68.0962 12.2768 836 79.8983 1137.17 492.728
349 0 67.0616 12.5854 844 78.904 1137.26 492.639
350 0 69.0487 11.7019 808 78.5507 1137.86 492.827
351 0 71.0803 11.3815 809 77.466 1137.72 491.572
352 0 71.0388 11.1488 792 78.7336 1137.95 491.183
353 0 74.1142 11.995 889 78.3701 1139.22 488.541
354 0 75.068 11.1099 834 80.2194 1139.24 487.764
355 0 79.1502 11.0297 873 80.4158 1137.87 486.36
356 0 82.128 11.4212 938 79.338 1138.24 484.978
357 0 84.0977 11.2369 945 80.4593 1138.42 482.488
358 0 88.1198 11.4957 1013 80.1658 1138.95 480.651
359 0 90.1223 11.3512 1023 81.0987 1139.23 479.226
360 0 94.1601 11.7778 1109 80.3697 1138.82 477.264
361 0 97.091 11.7004 1136 80.5431 1138.93 474.352
362 1 54.0335 11.789 637 77.752 1138.02 496.597
363 0 54.0335 11.752 635 136.309 1138.02 496.589
364 0 56.0898 11.9273 669 79.5396 1139.21 494.466
365 0 59.0905 11.6093 686 82.3601 1138.68 494.087
366 0 60.0394 12.242 735 81.1061 1137.85 494.21
367 0 60.058 11.6221 698 84.0817 1137.82 494.17
368 0 62.0826 11.5975 720 84.7806 1138.04 493.061
369 0 65.0807 11.9698 779 83.5186 1138.64 492.8
370 0 66.0186 12.0572 796 85.0088 1139.29 490.413
371 0 66.0368 11.7056 773 86.2523 1138.65 489.089
372 0 69.0525 12.0198 830 85.9976 1138.08 487.592
373 0 70.0328 12.1229 849 86.0471 1138.39 488.762
374 0 70.1174 11.5378 809 88.0297 1139.28 485.07
375 0 74.0794 12.0681 894 86.8859 1138.87 485.676
376 0 74.0659 12.2053 904 87.4314 1138.97 482.961
377 0 79.0711 12.0651 954 87.0314 1139.01 482.639
378 0 80.0573 12.2537 981 86.6758 1138.94 479.591
379 0 83.0652 12.4721 1036 86.2336 1139.39 479.79
380 0 86.1158 12.1348 1045 86.6488 1139.16 479.744
381 0 86.0912 11.8944 1024 87.0508 1139 477.043
382 0 89.0846 12.0447 1073 86.6589 1139.63 476.411
383 0 92.0626 12.057 1110 86.7 1140.03 473.448
384 0 95.1813 12.3974 1180 86.5525 1140.12 472.653
385 0 97.1484 12.2699 1192 85.7794 1140.11 471.275
386 0 99.1226 12.4795 1237 86.2013 1140.08 469.432
387 0 101.12 11.9462 1208 86.3675 1140.58 469.238
388 0 106.075 11.5107 1221 78.9337 1140.8 469.667
389 0 107.192 11.8573 1271 79.0865 1139.8 465.328
390 0 113.14 12.5685 1422 78.6266 1139.92 465.413
391 0 114.18 12.0686 1378 80.5276 1139.57 461.628
392 0 118.133 11.978 1415 80.3456 1139.69 460.861
393 0 123.084 12.3655 1522 77.7595 1139.77 459.24
394 0 128.12 11.9264 1528 77.8966 1139.72 458.244
395 0 132.115 12.1561 1606 77.5181 1140.02 455.862
396 0 135.124 11.7744 1591 78.8284 1139.94 453.984
397 0 139.107 10.704 1489 81.7058 1140.31 453.759
398 1 75.0364 10.4349 783 76.8135 1140.21 483.891
399 0 76.033 11.324 861 79.3635 1140.79 481.444
400 0 80.06 11.6413 932 79.2425 1142.64 479.188
401 0 83.0387 11.9342 991 79.6216 1141.88 478.799
402 0 83.09 12.4564 1035 78.7981 1141.25 477.18
403 0 85.1084 11.8555 1009 81.4886 1140.59 475.94
404 0 87.0429 11.7643 1024 86.125 1140.21 476.245
405 0 91.173 12.4818 1138 86.5299 1140.67 475.918
406 0 94.2095 11.5912 1092 88.5147 1140.47 473.444
407 0 97.0811 12.093 1174 84.7888 1141.25 473.129
408 0 100.097 11.6986 1171 84.4782 1140.92 470.473
409 0 102.196 11.8497 1211 85.6738 1141.6 469.031
410 0 106.114 11.7609 1248 83.2572 1141.37 468.814
411 0 106.194 10.9517 1163 83.503 1141.51 466.813
412 0 109.133 10.8492 1184 82.0498 1140.79 464.693
413 0 109.138 10.7937 1178 129.02 1139.8 464.535
414 1 63.1202 10.1552 641 72.0031 1141.47 491.743
415 0 63.065 10.3227 651 72.2919 1141.12 489.886
416 0 63.0446 10.4688 660 73.0485 1141.52 487.923
417 0 68.0928 10.236 697 72.4017 1141.27 487.568
418 0 71.0791 11.1425 792 70.8902 1141.06 487.039
419 0 73.082 11.8087 863 70.5921 1140.61 484.173
420 0 73.0771 11.7136 856 72.368 1140.15 482.424
421 0 79.1059 11.8702 939 71.6432 1139.96 482.834
422 0 80.1482 11.616 931 73.4296 1140.59 481.687
423 0 84.1183 12.423 1045 72.3301 1139.94 481.348
424 0 86.0604 12.2007 1050 73.8848 1139.43 479.183
425 0 87.1466 12.1405 1058 74.9565 1140.21 479.366
426 0 90.15 12.8453 1158 74.3972 1139.63 476.174
427 0 92.1069 12.1815 1122 76.4938 1140.54 476.03
428 0 94.1336 12.1211 1141 77.2401 1140.15 474.968
429 0 97.0517 11.9627 1161 78.9957 1139.9 472.884
430 0 100.056 12.9028 1291 80.4074 1140.04 469.616
431 0 105.074 12.7053 1335 89.5004 1139.9 467.78
432 0 108.083 12.1019 1308 91.1361 1140.21 467.55
433 0 112.11 11.8633 1330 90.4887 1140.4 465.962
434 0 114.097 11.9722 1366 91.2709 1139.77 462.989
435 1 61.0282 10.405 635 87.5276 1140.36 491.321
436 0 63.0118 11.7438 740 85.2662 1139.66 489.949
437 0 67.0237 11.9958 804 85.8595 1139.3 488.872
438 0 69.085 12.0721 834 79.4832 1140.08 487.915
439 0 70.0512 11.877 832 76.7897 1139.45 488.105
440 0 71.1128 11.8825 845 78.916 1139.04 486.815
441 0 74.0487 12.1407 899 77.1068 1138.62 485.912
442 0 78.0545 12.0685 942 77.2261 1138.65 483.735
443 0 80.0982 12.4472 997 78.8385 1139.16 483.329
444 0 80.0569 12.1039 969 81.4902 1138.82 482.615
445 0 83.0247 12.1289 1007 82.0298 1139.28 480.745
446 0 86.1146 12.7504 1098 80.8625 1139.6 480.658
447 0 91.0591 12.0801 1100 80.0145 1138.47 477.227
448 0 91.0832 12.2416 1115 81.2296 1138.44 474.521
449 0 94.1012 11.9233 1122 82.7175 1138.86 474.894
450 0 98.1334 12.7378 1250 81.8368 1138.96 471.938
451 0 101.186 12.6203 1277 84.3524 1139.99 471.834
452 0 100.082 11.5905 1160 89.0819 1139.77 473.959
453 0 101.05 11.044 1116 90.8656 1139.94 471.72
454 0 105.081 11.6672 1226 91.7529 1140.01 469.56
455 0 109.098 11.8975 1298 94.1726 1140.58 468.029
456 0 112.213 12.1287 1361 93.8001 1140.3 466.441
457 1 62.0772 10.3259 641 90.2839 1140.55 489.594
458 0 62.1529 10.4098 647 88.4977 1140.37 487.025
459 0 66.3293 11.4429 759 92.7642 1140.71 487.519
460 0 66.1582 11.0493 731 92.223 1140.26 487.523
461 0 71.2477 11.6074 827 89.0617 1140.23 486.112
462 0 73.2525 11.6856 856 88.535 1140.47 484.777
463 0 73.3244 11.6196 852 89.5352 1140.16 483.101
464 0 76.3298 11.0966 847 90.6919 1140.49 481.519
465 0 77.4125 11.9361 924 90.3712 1140.05 480.47
466 0 80.4564 11.6709 939 90.1076 1140.18 479.061
467 0 83.3624 12.4037 1034 88.5774 1139.69 479.951
468 0 86.1741 12.0338 1037 85.2845 1139.45 480.229
469 0 87.1545 11.7492 1024 86.6396 1140.1 477.598
470 0 90.1788 11.6768 1053 87.755 1139.89 475.292
471 1 45.0796 10.67 481 81.0374 1140.71 497.902
472 0 46.1173 10.6901 493 79.1116 1140.17 498.627
473 0 47.0799 10.9813 517 75.3462 1140.1 499.023
474 0 51.26 11.2368 576 75.842 1138.95 495.844
475 0 51.2044 11.3662 582 76.2509 1138.88 495.414
476 0 52.1912 10.2316 534 82.4438 1140.04 489.133
477 0 51.0947 10.0989 516 86.2771 1139.6 489.039
478 0 50.0876 10.2021 511 89.0372 1139.64 488.986
479 0 52.0816 10.3108 537 89.8119 1139.45 487.54
480 0 54.0295 9.79094 529 88.0321 1139.6 486.871
481 0 56.1668 10.9495 615 86.6846 1139.05 486.761
482 0 59.1323 11.1276 658 86.5881 1139.37 485.581
483 0 58.0172 10.5658 613 88.7374 1139.44 484.194
484 0 61.0332 11.1251 679 87.8292 1139.37 483.396
485 0 62.0889 10.5977 658 91.1915 1138.78 484.533
486 0 66.0699 11.1548 737 89.7286 1138.48 483.809
487 0 67.0532 11.2448 754 89.4125 1139.18 482.027
488 0 70.0539 11.3341 794 89.4849 1139.21 482.317
489 0 69.0459 11.3548 784 156.899 1139.19 482.508
490 0 72.0235 11.5934 835 90.3281 1138.91 479.943
491 0 72.0235 11.5934 835 145.138 1138.89 479.774
492 0 77.0211 11.5553 890 92.5798 1139.65 479.801
493 0 79.0647 12.3696 978 91.5256 1139.7 479.929
494 0 82.0549 12.0895 992 93.6633 1139.58 477.943
495 0 84.1203 12.6961 1068 92.9616 1139.12 476.335
496 0 88.1089 13.8465 1220 100.927 1138.24 478.22
497 1 47.0496 10.5208 495 99.7293 1138.57 499.325
498 0 50.0896 11.0602 554 96.3141 1138.37 499.217
499 0 50.0896 11.1001 556 154.363 1137.37 499.14
500 0 53.0739 11.5688 614 94.3241 1139.49 496.85
501 0 53.0474 11.8762 630 94.3794 1138.99 498.705
502 0 51.0377 11.6776 596 103.096 1138.75 499.215
503 0 52.0401 11.5104 599 103.963 1138.79 497.803
504 0 55.0914 12.0527 664 102.261 1138.65 496.315
505 0 56.1114 12.0296 675 102.486 1138.14 495.982
506 0 58.0714 11.7097 680 103.554 1138.08 494.871
507 0 60.0327 12.7764 767 103.069 1138.88 493.323
508 0 61.0677 12.6581 773 104.228 1139 493.378
509 0 63.0274 12.7564 804 105.488 1138.75 491.944
510 0 64.0783 12.9841 832 107.244 1138.6 491.076
511 0 68.044 13.1386 894 104.855 1138.52 491.751
512 0 68.0913 13.0854 891 106.942 1138.47 491.08
513 0 72.0567 13.4477 969 105.978 1138.19 489.332
514 0 72.1306 13.5726 979 107.389 1138.3 488.453
515 0 76.0724 13.4477 1023 107.771 1138.18 487.36
516 0 78.1414 13.2452 1035 108.807 1138.53 485.165
517 0 82.1558 13.6083 1118 107.487 1138.86 483.61
518 0 84.1607 14.4129 1213 105.265 1138.44 483.373
519 0 86.1452 13.6746 1178 108.24 1138.66 483.244
520 0 90.1596 14.3301 1292 105.101 1138.66 480.358
521 1 49.0494 10.2142 501 107.178 1138.33 499.669
522 0 50.0482 10.5099 526 102.882 1138.46 496.51
523 0 48.024 10.932 525 103.663 1139.84 495.147
524 0 50.048 10.8895 545 105.706 1140.02 493.815
525 0 52.0123 10.6898 556 104.32 1140.46 494.908
526 0 52.0172 10.6503 554 106.211 1139.87 494.13
527 0 54.0089 11.2204 606 104.398 1139.78 493.541
528 0 55.0436 11.0821 610 103.446 1139.98 493.154
529 0 55.0359 10.9565 603 103.143 1139.36 492.514
530 0 57.0653 11.3905 650 100.491 1138.63 492.586
531 0 58.0712 11.7442 682 101.547 1139.05 490.213
532 0 62.0447 11.7496 729 99.7819 1139.24 489.627
533 0 63.0578 11.1961 706 99.7649 1138.4 488.482
534 0 65.0361 12.2086 794 96.6423 1138.79 487.485
535 0 68.0147 11.8357 805 96.7789 1139.19 487.114
536 0 69.0884 12.0715 834 96.4101 1139.16 485.177
537 0 69.0631 12.1049 836 99.4701 1138.89 484.518
538 0 72.0808 11.5565 833 147.138 1138.79 483.49
539 0 73.0291 10.9272 798 94.302 1138.61 481.201
540 0 76.0388 11.0075 837 91.2127 1138.47 479.748
541 0 76.0308 11.1008 844 93.4609 1138.73 478.892
542 0 80.0423 11.4814 919 92.4026 1138.16 477.739
543 0 87.1055 12.6628 1103 104.197 1137.38 482.619
544 0 88.1102 12.3936 1092 102.081 1137.54 480.495
545 0 92.1785 12.4758 1150 100.656 1137.77 480.295
546 0 93.1121 12.0607 1123 100.811 1137.28 478.33
547 0 95.0853 12.4099 1180 98.7568 1138.26 477.05
548 0 98.1103 12.1088 1188 99.4343 1138.48 475.375
549 0 101.096 12.2656 1240 98.7565 1138.13 474.124
550 1 54.0473 11.2679 609 95.5534 1138.36 497.65
551 0 55.0671 10.9503 603 96.2836 1137.67 497.514
552 0 56.0441 11.6515 653 92.9632 1136.69 496.542
553 0 58.0649 11.9521 694 85.7291 1137.63 497.339
554 0 61.0574 12.0051 733 86.0327 1137.64 496.371
555 0 62.0652 12.503 776 85.9562 1137.72 495.835
556 0 63.1007 12.0601 761 88.3075 1137.71 494.623
557 0 63.0806 11.6042 732 91.4071 1137.09 494.978
558 0 66.0643 11.3677 751 91.261 1137.2 492.887
559 0 67.0579 10.4537 701 92.2496 1137.41 493.496
560 0 71.0911 12.0972 860 87.5872 1137.27 491.836
561 0 76.1449 12.2398 932 86.0075 1138.23 490.49
562 0 76.0849 12.2889 935 87.5754 1137.67 489.495
563 0 78.0534 12.0046 937 88.667 1136.9 488.365
564 0 81.0717 11.274 914 90.453 1136.95 487.063
565 0 83.0378 11.3563 943 90.1888 1137.12 483.895
566 0 86.1195 11.4724 988 89.5051 1137.42 483.018
567 0 89.0351 11.1754 995 90.0754 1137.59 481.766
568 0 93.0831 11.7637 1095 90.1196 1136.93 481.489
569 0 94.1403 11.5147 1084 90.8054 1137.85 480.554
570 1 46.0091 9.93281 457 99.3151 1136.86 501.751
571 0 47.106 10.954 516 97.0349 1136.42 501.205
572 0 50.1276 11.1715 560 96.1089 1136.99 499.125
573 0 52.0101 11.1901 582 97.0481 1139.03 498.873
574 0 53.0071 11.1683 592 97.4037 1139.14 497.764
575 0 57.0091 11.086 632 97.0316 1138.5 498.608
576 0 59.0265 12.1132 715 94.3077 1138.88 496.832
577 0 60.0414 11.8585 712 98.0225 1138.52 496.32
578 0 62.0208 11.4961 713 100.321 1138.81 495.241
579 0 64.0185 11.5904 742 100.542 1138.1 494.387
580 0 66.0273 11.783 778 102.103 1138.29 493.316
581 0 69.02 12.1704 840 100.496 1138.55 493.374
582 0 72.0471 12.1726 877 100.414 1139.18 491.791
583 0 75.0793 12.4668 936 98.9199 1138.7 492.178
584 0 77.0676 12.4955 963 101.074 1138.59 489.355
585 0 80.1313 12.517 1003 100.939 1137.6 488.696
586 0 83.1534 12.8678 1070 100.425 1137.78 487.866
587 0 84.1062 13.043 1097 99.8706 1138.2 486.825
588 0 87.1328 12.9343 1127 99.8447 1137.57 485.912
589 0 89.1103 12.939 1153 100.296 1138.37 484.047
590 0 93.1271 12.6386 1177 99.0671 1137.73 483.147
591 0 93.186 12.4589 1161 101.245 1137.62 482.271
592 0 98.2341 12.1954 1198 99.7437 1137.88 481.194
593 0 102.168 12.9199 1320 97.6523 1138.16 478.56
594 1 50.1308 11.4102 572 96.2675 1138.05 503.617
595 0 52.103 11.9379 622 89.0884 1137.32 502.1
596 0 53.1065 12.1642 646 94.3777 1137.83 500.769
597 0 57.0974 12.6451 722 83.1967 1136.76 502.713
598 0 59.0411 12.8554 759 82.4506 1136.86 501.209
599 0 60.0523 12.8721 773 82.9495 1136.45 499.054
600 0 62.1144 12.6058 783 82.0741 1136.73 498.103
601 0 63.0628 12.099 763 84.1062 1137.3 497.608
602 0 67.0999 12.4441 835 82.9102 1136.95 495.968
603 0 69.0837 12.6368 873 81.7595 1136.7 494.867
604 0 71.0381 12.613 896 81.5022 1136.88 494.701
605 0 72.0621 12.5864 907 82.344 1136.43 493.015
606 0 73.0934 12.1899 891 83.3928 1136.12 492.248
607 0 76.0649 12.6471 962 81.9179 1136.72 490.317
608 0 79.0451 12.7396 1007 81.6077 1136.88 488.749
609 0 79.0669 12.7107 1005 83.007 1136.18 489.103
610 0 82.1012 12.9596 1064 82.093 1136.39 487.543
611 0 84.0265 12.4723 1048 83.6164 1136.89 486.897
612 0 87.0425 12.5801 1095 83.0128 1137.59 486.785
613 0 89.0492 12.5773 1120 83.1071 1137.19 484.486
614 0 93.0363 12.8982 1200 82.2433 1136.42 482.265
615 0 96.0475 12.3689 1188 83.5152 1136.58 481.14
616 0 100.076 12.7503 1276 82.565 1136.43 481.265
617 0 103.065 12.3127 1269 83.8479 1136.87 477.414
618 1 52.0484 11.278 587 88.9336 1136.24 503.102
619 0 55.0864 11.8904 655 88 1136.28 500.446
620 0 56.0293 12.2079 684 96.1725 1136.38 500.364
621 0 57.0808 12.5436 716 81.6508 1136.06 499.809
622 0 59.0465 13.2099 780 79.5333 1136.72 498.812
623 0 62.0596 13.0842 812 78.8805 1136.91 497.988
624 0 63.1183 12.4845 788 79.9416 1136.51 496.579
625 0 64.1182 12.321 790 79.9114 1136.88 495.958
626 0 67.0375 12.1723 816 79.7831 1136.83 495.604
627 0 71.0283 12.8822 915 78.3869 1136.39 493.976
628 0 72.0511 12.7132 916 79.4662 1136.36 492.178
629 0 74.0268 13.2249 979 78.8938 1137.37 490.187
630 0 75.0549 13.2436 994 78.992 1137.93 489.829
631 0 78.0348 12.11 945 77.2614 1138.14 486.186
632 0 80.0987 12.2973 985 77.4822 1137.95 484.614
633 0 82.0366 11.6655 957 86.4357 1137.88 480.406
634 0 86.0487 11.9002 1024 85.5088 1138.49 478.665
635 0 86.2196 11.6215 1002 87.2046 1137.96 477.97
636 0 88.0487 11.3801 1002 87.1707 1138.17 476.196
637 0 93.101 11.9333 1111 86.2934 1138.56 474.679
638 0 97.061 11.9513 1160 86.4828 1137.62 471.862
639 1 49.0178 9.58835 470 78.1936 1138.36 496.23
640 0 52.0236 10.4568 544 75.5037 1138.28 496.526
641 0 53.0736 11.2297 596 75.5185 1138.23 496.185
642 0 54.052 10.5824 572 83.9353 1138.26 494.776
643 0 55.0327 11.048 608 84.5822 1138.52 492.171
644 0 55.0371 10.502 578 84.9533 1138.44 490.933
645 0 60.0334 10.8939 654 82.4847 1138.31 491.101
646 0 62.0269 10.3665 643 82.9425 1138.4 490.361
647 0 65.0233 10.9499 712 81.8301 1138.9 489.072
648 0 68.0467 12.0946 823 79.0255 1139.42 487.793
649 0 69.0724 11.64 804 80.0697 1138.82 487.448
650 0 71.0632 11.2717 801 80.3308 1138.78 486.017
651 0 74.0917 11.1619 827 80.7678 1138.65 484.556
652 0 76.066 11.2665 857 80.9895 1138.68 482.666
653 0 79.0256 12.1859 963 78.8754 1138.52 483.675
654 0 81.043 11.5494 936 80.3056 1138.69 481.64
655 0 83.0288 11.3696 944 81.4788 1138.15 481.659
656 0 85.129 12.0171 1023 80.5425 1138.7 481.315
657 0 89.0361 12.5118 1114 80.1364 1139.01 478.786
658 0 90.0737 12.1789 1097 82.1768 1138.32 478.278
659 0 94.0259 11.784 1108 82.8574 1139.11 475.544
660 1 48.0403 11.1157 534 76.1217 1138.13 497.82
661 0 51.079 12.5296 640 81.6922 1138.59 499.006
662 0 51.0688 13.1196 670 82.5806 1138.49 499.137
663 0 51.0477 12.8703 657 84.4855 1138.83 498.146
664 0 54.0549 13.5418 732 82.582 1138.3 496.792
665 0 55.0632 13.6933 754 82.9231 1138.85 495.962
666 0 59.0497 13.3616 789 82.8023 1138.85 495.521
667 0 61.1515 14.0634 860 80.607 1138.77 495.162
668 0 63.1956 14.3048 904 81.3993 1138.79 494.07
669 0 64.1221 13.6458 875 83.1977 1138.44 492.553
670 0 60.1528 12.7342 766 88.7298 1138.7 494.176
671 0 65.0801 13.3374 868 86.7212 1139.19 492.275
672 0 67.1019 13.3677 897 87.1093 1138.81 491.847
673 0 69.0994 13.0826 904 87.8971 1138.98 490.658
674 0 70.0353 13.1648 922 89.0325 1138.5 490.722
675 0 74.0699 13.1362 973 89.184 1138.27 487.763
676 0 75.0983 13.2094 992 90.2802 1139.16 486.62
677 0 78.0979 12.8301 1002 91.1986 1138.86 485.108
678 0 80.0803 13.2492 1061 90.0207 1138.5 483.437
679 0 82.1187 13.2856 1091 90.9285 1138.61 481.871
680 0 84.1011 12.8655 1082 92.903 1138.63 480.726
681 0 85.0583 13.285 1130 92.9327 1138.45 479.468
682 0 89.0578 13.2835 1183 93.1547 1139.31 477.465
683 0 90.0468 13.0155 1172 94.8157 1139.5 474.986
684 0 95.0953 13.4181 1276 93.1332 1139.42 475.563
685 0 98.0856 13.3353 1308 93.0474 1139.64 473.906
686 0 104.164 13.4691 1403 92.5959 1139.42 469.07
687 0 107.121 12.948 1387 93.3857 1140.35 467.336
688 0 107.121 12.8547 1377 138.325 1141.36 467.403
689 1 58.0274 13.1145 761 97.1367 1139.64 492.536
690 0 59.0173 12.7759 754 99.4854 1139.74 493.383
691 0 62.0548 13.6815 849 96.1684 1139.27 491.416
692 0 63.125 13.6079 859 96.4785 1139.99 490.39
693 0 64.1442 13.6255 874 97.9428 1139.67 489.5
694 0 66.0783 13.4991 892 99.1267 1139.27 489.091
695 0 69.193 14.1344 978 97.6943 1139.57 487.836
696 0 70.0866 13.8115 968 99.6343 1139.6 486.732
697 0 71.1686 13.9668 994 100.289 1139.84 485.967
698 0 78.1434 14.435 1128 96.9291 1139.59 485.637
699 0 80.1635 13.9465 1118 99.2308 1139.17 484.57
700 0 80.2112 13.6515 1095 99.9954 1139.02 484.761
701 0 80.2176 13.7501 1103 172.856 1138 484.674
702 0 86.1169 14.3642 1237 98.6605 1139.22 481.329
703 0 90.1805 13.7058 1236 100.853 1139.04 478.922
704 1 46.0818 12.2608 565 103.142 1138.74 499.538
705 0 49.0964 12.7912 628 101.374 1138.92 499.475
706 0 50.0351 13.1508 658 99.81 1137.85 499.795
707 0 51.03 13.8742 708 94.6879 1138.45 500.205
708 0 54.0229 13.6794 739 94.0027 1138.29 496.974
709 0 57.0243 13.2926 758 94.3971 1137.75 498.348
710 0 58.0358 13.9224 808 92.8639 1138.6 494.134
711 0 60.0232 13.6781 821 94.7564 1137.84 495.043
712 0 62.0175 14.254 884 93.5475 1137.83 492.588
713 0 64.0302 14.3057 916 94.6583 1137.97 492.336
714 0 66.0493 14.0198 926 95.9611 1138.83 492.288
715 0 66.0521 14.0495 928 144.07 1139.83 492.275
716 0 70.0284 14.4084 1009 98.1219 1137.91 489.902
717 0 73.0462 14.881 1087 97.0037 1137.74 488.182
718 0 77.0447 15.1471 1167 96.7901 1138.16 487.746
719 0 78.0535 14.5157 1133 100.178 1138.24 488.887
720 0 82.063 14.5498 1194 100.662 1138.26 486.936
721 0 82.0317 14.7382 1209 101.978 1138.74 486.187
722 0 87.0437 14.6133 1272 102.981 1138.24 485.687
723 0 87.0852 14.4341 1257 105.225 1138.16 483.862
724 0 92.0737 14.9228 1374 102.966 1138.2 481.782
725 0 92.0784 14.8678 1369 163.378 1139.19 481.786
726 0 99.0713 14.4946 1436 102.308 1137.65 479.162
727 1 49.0677 12.9617 636 107.794 1137.81 503.124
728 0 52.0392 13.3169 693 107.691 1137.79 501.693
729 0 53.0573 13.7776 731 107.094 1137.45 499.986
730 0 55.068 14.0917 776 104.763 1137.8 500.758
731 0 57.043 13.9193 794 106.397 1137.99 498.558
732 0 60.0319 14.2424 855 104.271 1137.78 497.65
733 0 63.0697 13.826 872 104.5 1137.89 496.26
734 0 62.2077 14.4194 897 105.388 1138.49 495.468
735 0 64.024 14.354 919 107.05 1137.2 493.593
736 0 65.0605 14.9861 975 106.663 1137.42 491.759
737 0 69.0685 14.7969 1022 106.879 1137.8 491.509
738 0 72.0513 14.7534 1063 108.075 1137.6 490.214
739 0 72.0697 15.0965 1088 108.923 1137.77 489.678
740 0 74.0291 13.6298 1009 115.051 1137.45 486.934
741 0 76.0839 14.3789 1094 113.368 1137.28 486.221
742 0 80.0762 14.3988 1153 113.547 1137.1 483.615
743 0 80.0678 14.5377 1164 114.734 1137.19 482.517
744 0 84.0354 14.5653 1224 115.928 1137.78 480.485
745 0 85.0601 14.3428 1220 117.772 1137.29 479.469
746 0 91.0821 14.7559 1344 114.656 1138.09 478.415
747 0 92.076 14.8356 1366 116.216 1138.07 476.993
748 0 96.2591 14.5233 1398 117.115 1137.63 476.361
749 0 103.158 13.0189 1343 119.824 1138.06 476.195
750 0 102.192 14.8153 1514 116.513 1138.35 471.295
751 0 105.121 14.6783 1543 116.743 1138.31 470.192
752 0 107.147 14.7368 1579 119.013 1138.57 467.519
753 0 110.146 14.4808 1595 120.787 1138.32 467.824
754 0 115.127 14.3928 1657 122.2 1138.55 464.193
755 0 118.231 14.8016 1750 120.488 1138.7 462.823
756 0 122.132 15.1066 1845 120.246 1138.35 461.388
757 0 124.226 14.4494 1795 124.373 1138.29 459.507
758 0 130.197 14.6855 1912 124.403 1138.99 458.692
759 0 134.162 14.8179 1988 125.946 1138.74 455.022
760 0 139.153 14.9979 2087 127.128 1138.52 453.485
761 0 141.128 14.8518 2096 128.629 1138.99 450.657
762 0 148.177 14.7324 2183 128.788 1139.08 449.397
763 0 152.172 14.4311 2196 130.684 1139.17 445.886
764 0 155.205 14.3166 2222 130.864 1138.54 444.448
765 0 163.19 14.5965 2382 125.716 1138.69 443.233
766 0 169.27 14.4031 2438 126.095 1138.74 439.625
767 0 174.196 14.0359 2445 127.38 1138.24 438.157
768 0 182.234 15.3593 2799 124.306 1138.35 434.325
769 1 136.126 12.8116 1744 130.499 1138.63 457.142
770 0 142.207 13.8389 1968 135.138 1138.63 454.314
771 0 147.173 13.9156 2048 132.571 1139.06 450.677
772 0 151.167 13.8787 2098 132.408 1139.35 449.365
773 0 158.099 13.7129 2168 131.381 1138.93 446.685
774 0 162.081 14.2583 2311 128.582 1138.63 445.962
775 0 167.145 14.5383 2430 127.46 1139.27 439.865
776 0 174.296 14.504 2528 125.9 1139.38 437.129
777 0 178.21 14.1014 2513 127.75 1139.25 435.461
778 0 186.237 14.5943 2718 124.8 1138.85 433.926
779 0 193.185 14.7061 2841 124.173 1139.42 429.408
780 0 200.307 13.8138 2767 129.145 1139.24 426.28
781 0 205.169 13.7935 2830 129.227 1138.57 423.2
782 0 214.178 14.3479 3073 127.292 1139.25 417.936
783 1 154.168 12.0907 1864 126.708 1138.42 449.174
784 0 160.207 12.927 2071 125.387 1138.71 446.819
785 0 165.224 13.1155 2167 126.6 1138.42 442.224
786 0 170.174 13.1395 2236 127.093 1138.93 437.59
787 0 175.209 13.8006 2418 127.268 1139.11 436.187
788 0 180.162 13.9097 2506 127.894 1139.14 434.348
789 0 186.202 13.7432 2559 128.396 1139.45 432.533
790 0 192.18 13.7735 2647 128.55 1140.15 428.443
791 0 198.282 13.9599 2768 128.297 1139.29 425.054
792 0 202.373 13.7864 2790 130.283 1140.09 422.842
793 0 210.372 14.1036 2967 128.582 1139.49 419.953
794 0 218.353 14.0186 3061 129.932 1139.33 415.21
795 0 222.332 13.3494 2968 131.454 1139.81 411.472
796 0 230.404 14.0926 3247 127.705 1140.43 407.392
797 1 176.341 12.7481 2248 129.447 1139.55 438.526
798 0 182.273 12.7282 2320 130.692 1139.99 434.637
799 1 65.1318 11.2541 733 110.704 1139.44 493.281
800 0 67.2361 11.6009 780 110.305 1139.87 493.441
801 0 71.2054 12.7097 905 107.462 1139.73 492.634
802 0 74.185 12.1992 905 111.69 1139.4 490.526
803 0 77.2396 12.8302 991 110.764 1139.73 489.107
804 0 79.1391 12.7623 1010 111.414 1139.26 489.078
805 0 81.1884 12.8836 1046 112.432 1138.74 487.797
806 0 84.265 12.8523 1083 111.381 1138.86 487.351
807 0 87.1845 13.1331 1145 109.873 1138.62 487.105
808 0 90.1472 12.7236 1147 110.417 1138.49 485.541
809 0 92.176 13.1922 1216 109.964 1139.02 483.564
810 0 94.157 12.8615 1211 110.452 1138.78 482.388
811 0 100.158 12.9396 1296 108.533 1138.78 480.506
812 0 101.163 12.9889 1314 109.134 1139.28 480.365
813 0 103.209 12.6152 1302 110.382 1138.48 478.478
814 0 107.306 13.578 1457 108.233 1137.95 476.453
815 0 110.273 12.723 1403 110.988 1138.32 476.421
816 0 114.272 12.8465 1468 111.156 1138.42 475.641
817 0 118.138 13.789 1629 108.625 1137.58 473.4
818 0 120.2 12.4043 1491 113.745 1138.62 471.195
819 0 126.196 13.2809 1676 112.22 1139.37 468.415
820 0 131.206 13.4521 1765 110.397 1139 466.563
821 1 73.089 12.0948 884 109.484 1138.38 495.012
822 0 73.155 12.9314 946 109.852 1138.6 493.183
823 0 77.1251 13.0956 1010 110.194 1137.54 491.099
824 0 80.0977 13.0341 1044 110.093 1137.68 489.867
825 0 82.0904 12.8273 1053 110.493 1137.47 490.016
826 0 86.0589 13.2932 1144 108.616 1137.42 488.811
827 0 87.0398 13.1204 1142 110.323 1137.43 486.309
828 0 91.0479 13.6082 1239 108.087 1138 483.929
829 0 91.0415 13.5872 1237 150.606 1139 483.956
830 0 99.076 14.3425 1421 102.935 1137.93 484.436
831 0 99.0801 13.5749 1345 105.914 1138.14 480.428
832 0 100.108 13.6352 1365 106.453 1137.88 479.516
833 0 104.069 14.0772 1465 103.611 1138.17 476.855
834 0 106.103 13.7696 1461 103.951 1138.09 478.051
835 0 111.077 14.1524 1572 102.735 1138.2 476.681
836 0 114.156 14.2087 1622 102.702 1138.01 475.663
837 0 117.098 14.1762 1660 102.462 1138.28 472.351
838 0 119.11 13.8192 1646 102.773 1137.96 471.937
839 0 124.142 14.4592 1795 100.55 1137.34 470.392
840 0 127.209 14.4172 1834 101.092 1137 467.13
841 0 131.126 14.3907 1887 101.525 1136.9 464.465
842 0 133.247 14.1467 1885 103.546 1137.65 463.196
843 0 140.283 14.7844 2074 99.5482 1137.19 459.411
844 0 142.224 14.5124 2064 100.583 1137.25 457.037
845 0 149.201 15.067 2248 99.4653 1137.49 457.008
846 0 154.186 15.2219 2347 99.9075 1137.15 452.127
847 0 158.178 14.8061 2342 102.911 1137.62 449.497
848 0 166.179 15.0741 2505 101.939 1137.78 446.364
849 0 168.221 14.9149 2509 104.094 1136.95 441.394
850 0 174.198 15.3791 2679 102.847 1137.85 440.726
851 0 179.115 15.0462 2695 102.833 1137.48 438.723
852 0 185.194 15.4325 2858 102.324 1137.18 433.889
853 0 191.193 15.3562 2936 102.413 1137.64 432.791
854 0 196.224 15.2989 3002 102.872 1138.06 428.05
855 0 200.261 14.5959 2923 104.502 1137.36 429.539
856 0 205.207 14.6096 2998 104.526 1137.99 428.43
857 0 207.258 14.7401 3055 104.643 1137.55 427.675
858 0 213.348 14.2724 3045 106.693 1137.06 425.824
859 1 165.163 13.4291 2218 110.505 1138.08 444.445
860 0 168.256 13.9252 2343 110.136 1138.2 440.154
861 0 173.182 13.789 2388 110.225 1137.95 435.401
862 0 180.237 14.5253 2618 108.041 1138.12 433.643
863 0 185.244 14.5969 2704 108.358 1139.07 428.371
864 0 189.296 14.0098 2652 110.555 1138.08 424.636
865 0 199.277 14.1612 2822 110.036 1137.96 422.346
866 0 206.35 14.3834 2968 109.409 1137.89 417.856
867 0 214.339 15.2189 3262 106.024 1138.18 416.031
868 0 214.339 15.2142 3261 161.82 1139.18 416.064
869 1 52.2213 10.4555 546 84.6465 1138.11 500.392
870 0 54.1271 11.1404 603 81.3051 1137.89 498.839
871 0 54.0716 10.856 587 82.9284 1137.59 498.714
872 0 58.1555 11.1941 651 81.447 1137.07 497.697
873 0 59.0377 10.2477 605 83.5603 1137.55 497.088
874 0 62.1846 10.8065 672 82.9167 1137.74 495.612
875 0 62.1141 10.4807 651 84.1935 1137.47 495.229
876 0 64.1092 10.2949 660 84.4379 1138.02 493.067
877 0 68.1807 10.5602 720 82.1264 1138.19 491.064
878 0 69.1884 10.4208 721 82.6352 1138.12 490.413
879 0 72.079 9.89192 713 83.0856 1138.07 491.16
880 0 73.0918 9.3581 684 84.7295 1137.36 486.93
881 0 78.0768 10.5153 821 82.8222 1137.58 485.9
882 0 80.0887 10.0888 808 83.4629 1137.21 486.234
883 0 82.1485 9.70194 797 83.99 1137.32 485.386
884 0 85.0931 9.5895 816 85.239 1137.23 483.346
885 0 91.1811 9.88143 901 84.111 1137.11 481.608
886 0 92.1519 9.49519 875 84.8171 1137.74 478.931
887 0 94.1699 8.82447 831 86.917 1137.61 478.274
888 0 100.056 8.89506 890 86.1315 1137.91 476.974
889 0 103.095 8.38062 864 88.4896 1137.24 474.909
890 0 102.178 10.3055 1053 95.6771 1136.97 471.422
891 0 105.109 10.2084 1073 96.2246 1136.98 472.981
892 0 108.224 10.2658 1111 97.3951 1137.3 468.761
893 1 58.0653 9.73043 565 90.7805 1137.46 494.177
894 0 60.134 9.77816 588 90.1497 1137.44 494.571
895 0 61.101 10.0326 613 91.0522 1137.36 492.281
896 0 64.1135 10.4346 669 90.0433 1136.99 490.284
897 0 66.0701 10.3526 684 90.6096 1137.54 490.377
898 0 68.1103 10.527 717 89.7587 1137.82 492.222
899 0 72.0909 11.7907 850 86.6965 1138.4 490.339
900 0 72.0913 10.6809 770 91.3221 1137.86 488.339
901 0 76.0995 11.2484 856 91.7593 1137.15 486.375
902 0 79.11 12.0592 954 90.5566 1137.52 485.505
903 0 80.1245 11.0328 884 93.4468 1137.73 483.714
904 0 82.2015 11.9219 980 92.4857 1137.45 482.329
905 0 87.1108 11.9618 1042 92.023 1138.09 481.162
906 0 87.1169 12.4086 1081 92.8649 1138.14 478.1
907 0 91.155 12.1441 1107 93.6757 1138.08 476.753
908 0 96.0794 13.0309 1252 91.2644 1138.08 475.971
909 0 99.1732 13.0479 1294 92.2241 1137.86 473.105
910 0 102.111 12.5843 1285 93.3447 1137.84 472.712
911 0 106.127 13.286 1410 91.9092 1137.87 470.178
912 0 105.11 12.72 1337 146.034 1136.84 468.831
913 0 112.195 13.1645 1477 95.6039 1138.06 466.697
914 0 115.138 13.245 1525 95.4636 1138.03 465.903
915 0 117.355 13.0715 1534 93.6447 1138.4 464.436
916 0 121.22 12.8445 1557 94.0983 1138.58 461.199
917 0 127.256 12.8638 1637 92.9414 1138.04 461.387
918 0 128.146 12.1034 1551 96.5732 1138.03 456.546
919 0 134.249 13.11 1760 93.7909 1138.1 456.091
920 0 135.15 12.8598 1738 94.4597 1137.73 455.404
921 0 140.189 13.0966 1836 94.9793 1137.96 454.129
922 0 143.167 13.5995 1947 94.1602 1138.01 452.532
923 0 149.169 13.0724 1950 96.2128 1137.68 449.685
924 0 153.208 13.4393 2059 94.7873 1137.66 448.296
925 0 152.274 12.4513 1896 98.2774 1137.7 446.941
926 0 151.27 12.3686 1871 146.874 1137.69 446.542
927 1 96.156 8.57981 825 92.1491 1137.47 486.753
928 0 95.2728 9.45706 901 90.9401 1136.87 485.128
929 0 95.2449 10.2368 975 89.8759 1136.75 481.254
930 0 97.3673 10.7942 1051 88.49 1137.47 481.579
931 0 97.2216 11.2218 1091 87.956 1137.3 479.938
932 0 100.326 11.0241 1106 88.2098 1137.08 478.444
933 0 100.269 10.7511 1078 87.4184 1136.58 478.589
934 0 101.284 10.9 1104 87.904 1137.1 477.32
935 0 101.31 10.4531 1059 87.7016 1136.9 479.793
936 0 109.359 10.7993 1181 86.5944 1136.59 477.107
937 0 111.241 10.6256 1182 86.775 1136.25 475.098
938 0 114.287 11.0161 1259 86.4186 1135.9 474.379
939 0 117.251 11.0106 1291 86.0333 1135.76 471.614
940 0 121.29 10.7346 1302 85.4178 1135.62 468.93
941 0 124.204 10.8128 1343 84.102 1135.27 467.061
942 0 124.204 10.8209 1344 143.065 1134.26 466.887
943 0 133.221 11.1244 1482 83.8414 1135.55 462.255
944 0 133.221 11.222 1495 143.258 1137.57 462.323
945 0 142.166 10.6144 1509 84.5136 1135.06 459.86
946 1 51.1095 9.39159 480 76.0021 1136.44 501.59
947 0 56.1988 10.5874 595 73.8303 1136.33 501.509
948 0 54.1046 11.8105 639 74.3631 1136.8 500.85
949 0 54.1257 10.8082 585 67.2103 1136.69 501.292
950 0 55.1334 10.0665 555 74.1874 1137.09 501.477
951 0 59.0856 10.764 636 75.3365 1136.78 502.868
952 0 60.1295 10.3776 624 76.1763 1138.39 500.878
953 0 61.1303 10.5512 645 76.2078 1137.81 500.284
954 0 62.2078 9.37181 583 78.6432 1138.23 502.13
955 0 61.1664 8.58314 525 69.6133 1137.54 504.095
956 0 62.2557 9.65374 601 70.0915 1137.32 498.681
957 0 66.1281 10.3889 687 68.853 1138.1 497.882
958 0 66.1219 9.01365 596 71.2517 1138.23 497.876
959 0 68.1228 9.36544 638 71.0925 1138.08 495.773
960 0 71.2494 8.37901 597 72.2931 1137.81 495.658
961 0 74.1437 9.73785 722 71.1994 1137.75 491.72
962 0 77.1584 9.73322 751 70.8269 1137.73 490.26
963 0 80.1302 9.06026 726 71.135 1138.32 492.138
964 0 82.0758 8.93077 733 71.6521 1137.64 492.604
965 0 85.1395 9.72522 828 73.3043 1138.2 489.644
966 0 86.2043 9.46588 816 73.185 1137.63 488.45
967 0 85.0974 9.09546 774 73.3721 1137.34 489.004
968 0 91.1852 9.82615 896 73.8594 1137.3 483.93
969 0 95.1712 9.26751 882 75.7778 1137.51 482.203
970 0 99.2493 9.95473 988 75.7105 1137.33 480.963
971 0 100.238 9.74685 977 77.6581 1137.59 479.052
972 0 106.269 11.3862 1210 79.7215 1137.87 472.948
973 0 109.228 11.8651 1296 81.9144 1138.73 470.807
974 0 112.344 12.6842 1425 79.4653 1139.19 472.156
975 0 119.195 13.9016 1657 75.7013 1138.67 468.984
976 0 124.212 13.002 1615 76.7251 1139.55 467.778
977 0 123.246 13.6313 1680 76.6321 1139.39 464.543
978 0 123.293 13.4071 1653 83.4761 1139.05 461.634
979 0 122.375 12.1021 1481 89.6043 1139.7 463.858
980 0 126.334 12.4432 1572 88.0592 1140.06 463.457
981 0 127.39 12.1438 1547 87.6716 1139.53 460.681
982 0 132.225 12.5544 1660 77.5241 1139.79 458.404
983 0 135.222 12.5941 1703 76.815 1139.51 455.958
984 0 141.288 12.7045 1795 74.8891 1139.14 455.998
985 0 141.339 12.4806 1764 77.7557 1139.27 451.985
986 0 144.314 11.468 1655 79.3257 1138.75 450.218
987 0 148.405 12.3581 1834 77.0551 1139.49 448.366
988 0 151.363 11.9051 1802 77.0228 1139.48 445.031
989 0 154.393 12.1767 1880 76.3612 1138.6 441.463
990 0 157.329 11.7906 1855 76.9315 1138.62 439.104
991 0 162.217 11.4908 1864 78.2768 1139.27 436.152
992 0 168.338 11.4888 1934 78.6437 1139.49 434.996
993 1 82.2345 11.2483 925 76.6011 1138.62 478.618
994 0 84.2607 13.1141 1105 79.6697 1138.26 476.23
995 0 86.3683 13.2803 1147 78.3078 1138.59 476.338
996 0 88.2203 12.7635 1126 77.143 1138.58 474.528
997 0 92.3143 12.3816 1143 76.3876 1139.15 476.507
998 1 102.192 11.224 1147 80.5388 1138.76 475.26
999 0 102.314 12.5692 1286 78.783 1139.25 471.14
1000 0 102.197 12.9064 1319 78.3616 1138.87 470.644
1001 0 108.299 12.2808 1330 79.988 1139.07 468.285
1002 0 108.253 12.3138 1333 81.4846 1139.14 467.262
1003 0 110.165 12.5085 1378 81.6938 1139.39 467.634
1004 0 111.209 13.4701 1498 80.5033 1139.75 464.822
1005 0 113.218 13.4342 1521 80.6877 1139.7 463.57
1006 0 119.231 13.7464 1639 79.2605 1140.09 462.343
1007 0 123.217 14.5354 1791 78.0235 1140.08 461.204
1008 0 128.403 13.5433 1739 79.9511 1139.78 459.656
1009 0 132.272 14.3795 1902 77.9222 1139.29 456.693
1010 0 135.328 14.4464 1955 78.3862 1140.13 457.294
1011 0 137.233 14.0126 1923 80.7218 1139.45 454.169
1012 0 144.295 14.11 2036 79.9126 1138.81 451.421
1013 0 147.259 14.2538 2099 80.0967 1138.77 448.362
1014 0 150.197 13.7752 2069 82.0503 1139.11 444.573
1015 0 155.216 13.8452 2149 81.3862 1138.57 443.482
1016 1 81.1449 11.1899 908 80.3656 1139.02 476.437
1017 0 81.083 10.8037 876 82.0251 1139.61 474.96
1018 0 82.1294 11.2384 923 81.7454 1140.05 470.148
1019 0 84.1191 11.4243 961 80.9958 1140.01 469.702
1020 0 92.1137 13.1034 1207 79.2527 1140.28 476.358
1021 0 95.09 12.6406 1202 79.772 1140.97 476.003
1022 0 97.107 12.6767 1231 80.8367 1140.58 472.657
1023 0 101.092 12.7607 1290 80.255 1141.44 471.781
1024 0 105.151 13.0004 1367 81.0183 1141.3 469.155
1025 0 107.102 13.053 1398 81.8155 1140.1 466.498
1026 0 112.13 12.967 1454 81.1451 1139.83 465.946
1027 0 115.072 13.3221 1533 81.0972 1140.15 464.599
1028 0 115.198 12.8301 1478 84.2233 1139.28 461.367
1029 0 120.235 12.8083 1540 84.7721 1139.36 458.847
1030 0 121.156 12.7852 1549 86.4261 1138.41 456.216
1031 0 123.126 12.7999 1576 86.9588 1140.43 453.001
1032 0 126.131 12.4711 1573 89.8938 1139.67 447.888
1033 0 132.142 13.1979 1744 88.9994 1139.71 446.072
1034 0 132.142 13.1677 1740 171.818 1139.7 445.821
1035 0 139.195 12.9746 1806 92.4563 1139.5 440.787
1036 0 146.146 13.2676 1939 92.0413 1140.36 437.911
1037 0 148.143 12.8997 1911 95.4422 1140.23 434.322
1038 0 152.156 13.6045 2070 94.1435 1139.86 433.936
1039 0 156.152 13.0386 2036 96.7785 1139.19 430.711
1040 0 161.159 12.8569 2072 98.582 1139.87 427.755
1041 0 165.161 13.284 2194 99.3359 1139.61 424.767
1042 0 171.228 13.1054 2244 99.7754 1139.86 420.072
1043 0 178.149 12.9273 2303 100.204 1140.33 420.396
1044 0 182.172 13.0646 2380 101.174 1139.89 416.377
1045 0 189.152 12.7887 2419 101.964 1139.96 413.815
1046 0 196.304 13.7389 2697 99.8506 1140.18 408.462
1047 0 200.297 13.0057 2605 102.953 1140.16 406.282
1048 0 204.222 12.4864 2550 101.644 1139.6 399.559
1049 0 213.22 11.9501 2548 99.728 1140.48 395.701
1050 1 49.0561 7.35893 361 70.4765 1139.66 488.795
1051 0 58.0885 9.46831 550 76.0527 1138.92 496.311
1052 0 59.0499 10.1948 602 75.8339 1139.5 492.849
1053 0 64.0336 10.1041 647 74.3864 1139.43 493.185
1054 0 62.0189 9.69059 601 76.9601 1139.3 492.008
1055 0 66.0532 10.325 682 75.7889 1140.27 493.264
1056 0 65.0281 8.90384 579 80.7478 1140.78 493.313
1057 0 65.0178 9.08981 591 82.4112 1140.4 493.909
1058 0 66.0733 8.58138 567 82.6085 1141.02 494.705
1059 0 68.0327 8.46651 576 83.2118 1140.7 492.413
1060 0 72.0452 9.53568 687 81.4134 1139.83 489.533
1061 0 72.113 8.36188 603 82.7944 1140.78 490.531
1062 0 76.0435 9.24471 703 81.3883 1140.6 489.633
1063 0 77.1012 8.22296 634 82.8943 1140.22 489.36
1064 0 80.0604 8.89328 712 81.7949 1139.87 489.68
1065 0 85.0626 8.81704 750 81.5027 1138.91 485.289
1066 0 88.1991 9.65996 852 81.4413 1138.97 481.675
1067 0 89.142 8.8174 786 82.3562 1139.97 483.289
1068 0 93.1195 8.91328 830 82.1157 1139.34 481.835
1069 0 96.1293 9.60166 923 81.7833 1140.11 476.47
1070 0 98.1771 9.94122 976 82.2818 1139.91 473.373
1071 0 102.086 10.1483 1036 82.0338 1139.82 474.19
1072 0 105.058 10.5656 1110 81.3135 1139.87 473.725
1073 0 107.311 10.4556 1122 82.287 1139.44 470.692
1074 0 108.145 11.3921 1232 80.7338 1140.18 468.905
1075 0 111.198 10.8455 1206 82.6982 1139.05 468.243
1076 0 117.126 11.7822 1380 94.5623 1139.48 464.963
1077 0 120.124 11.3799 1367 95.9437 1139.31 464.538
1078 0 128.217 10.5758 1356 95.8636 1139.68 464.945
1079 0 126.135 11.4797 1448 97.2942 1139.36 459.67
1080 0 131.198 14.3905 1888 88.3035 1139.83 451.249
1081 0 136.186 16.7419 2280 80.8289 1140.01 450.893
1082 0 138.146 15.6428 2161 84.87 1139.29 456.798
1083 0 141.166 14.7769 2086 86.6218 1139.19 456.284
1084 0 145.193 15.8409 2300 84.0726 1139.5 454.778
1085 0 148.173 15.6979 2326 85.1217 1139.24 452.352
1086 0 152.167 15.7656 2399 82.3564 1140.48 449.423
1087 0 157.189 15.5736 2448 76.0584 1139.97 449.708
1088 0 163.177 16.191 2642 74.022 1140.11 448.141
1089 0 166.21 16.1724 2688 84.0856 1139.97 446.322
1090 0 170.387 15.7289 2680 85.7631 1140.39 441.398
1091 0 174.263 15.8324 2759 87.9155 1139.47 440.018
1092 0 180.263 15.849 2857 89.0168 1139.43 438.163
1093 0 183.387 14.7884 2712 102.414 1139.4 430.537
1094 0 187.352 15.3881 2883 101.486 1139.96 427.035
1095 0 193.357 15.355 2969 101.671 1139.65 427.516
1096 0 199.44 15.5135 3094 100.233 1139.03 421.653
1097 0 204.368 15.6971 3208 100.698 1140.39 417.411
1098 0 209.216 15.9404 3335 96.9055 1139.91 415.715
1099 0 214.219 14.8773 3187 99.9388 1140.83 412.766
1100 0 219.317 15.6531 3433 96.836 1140.58 407.225
1101 0 224.324 16.1329 3619 96.6668 1139.64 402.473
1102 0 231.264 15.4196 3566 97.4748 1139.82 401.473
1103 0 239.295 15.6752 3751 96.35 1140.12 395.988
1104 0 241.343 14.7632 3563 99.11 1139.32 391.115
1105 1 191.283 12.1391 2322 100.802 1139.11 426.227
1106 0 197.206 12.9662 2557 98.1869 1139.37 423.227
1107 0 205.305 12.7956 2627 99.0803 1139.8 422.471
1108 0 206.363 13.2146 2727 104.268 1140.02 409.431
1109 0 207.457 12.7593 2647 104.722 1139.86 402.845
1110 0 215.402 13.0361 2808 104.219 1139.76 400.182
1111 0 219.328 12.2146 2679 102.358 1139.57 396.006
1112 0 229.458 12.8215 2942 101.393 1138.92 394.08
1113 0 237.534 13.5096 3209 98.2434 1138.62 389.445
1114 0 245.408 12.7583 3131 99.5679 1138.38 387.242
1115 0 251.398 13.4727 3387 99.0794 1138.59 380.637
1116 0 259.482 12.8679 3339 101.468 1139.33 378.367
1117 1 304.566 9.83696 2996 106.268 1138.63 376.242
1118 0 304.524 7.99937 2436 106.905 1138.83 389.746
1119 0 297.822 19.9885 5953 80.5575 1139.03 347.678
1120 0 306.622 19.816 6076 80.878 1139.15 335.647
1121 0 307.609 18.2992 5629 88.6742 1138.72 338.559
1122 0 305.382 15.2072 4644 95.6557 1138.39 339.364
1123 0 310.521 11.0846 3442 103.904 1138.45 355.656
1124 0 308.403 8.19059 2526 107.66 1138.74 365.527
1125 1 265.357 6.59111 1749 100.087 1138.85 407.661
1126 0 259.356 8.65605 2245 101.112 1139.3 383.413
1127 0 268.39 12.1875 3271 94.7796 1138.83 374.055
1128 0 269.279 12.2252 3292 95.5887 1138.39 364.857
1129 0 279.43 13.7745 3849 90.8914 1138.9 361.413
1130 0 301.511 23.2297 7004 67.4089 1138.54 335.412
1131 0 304.327 14.3332 4362 88.4546 1138.73 355.799
1132 0 320.321 15.4439 4947 85.4407 1138.86 352.649
1133 0 328.322 14.4736 4752 90.0082 1139.11 344.953
1134 1 38.003 5.02592 191 58.2251 1136.46 504.314
1135 0 36.0291 5.55107 200 59.045 1136.27 501.68
1136 0 41.1349 7.56049 311 59.1961 1137.07 505.804
1137 0 43.0187 8.83337 380 61.3316 1141.19 508.776
1138 0 42.1172 8.4526 356 61.8483 1138.72 510.494
1139 0 41.1018 8.44246 347 63.0403 1139.23 510.135
1140 0 42.1031 8.47919 357 63.3249 1139.12 510.193
1141 0 41.0488 8.79441 361 64.1994 1138.87 509.756
1142 0 44.0653 10.144 447 61.3803 1136.16 506.94
1143 0 44.0879 8.98205 396 65.1237 1137.96 509.376
1144 0 42.1052 9.26251 390 68.1821 1137.99 510.413
1145 0 42.0697 8.53346 359 69.6267 1136.95 507.755
