time division length width area intensity CMx CMy
0 0 53.0362 14.7824 784 121.282 1296.42 491.231
1 0 54.0802 14.1457 765 122.75 1296.74 489.638
2 0 57.0176 14.1711 808 119.376 1296.31 489.166
3 0 56.0446 14.9524 838 117.801 1296.47 489.479
4 0 60.0442 13.8565 832 117.555 1296.87 489.391
5 0 61.0525 14.25 870 116.078 1297.41 488.234
6 0 62.0269 14.01 869 117.063 1297.1 487.685
7 0 62.0781 13.5313 840 118.845 1297.52 487.776
8 0 64.1141 13.7099 879 116.067 1297.65 488.738
9 0 66.0698 13.9549 922 115.689 1297.02 487.073
10 0 69.0461 13.6576 943 115.415 1296.23 486.764
11 0 71.0585 13.9462 991 113.996 1296.78 484.384
12 0 71.0602 13.5519 963 115.184 1296.85 484.76
13 0 74.061 14.029 1039 112.561 1296.19 484.146
14 0 75.1047 13.8873 1043 113.927 1295.36 483.388
15 0 78.0396 13.5316 1056 112.881 1296.37 481.418
16 0 79.1038 13.2863 1051 112.78 1296.18 481.184
17 0 83.1669 13.5992 1131 109.866 1296.01 478.123
18 0 87.0834 14.044 1223 106.917 1295.91 477.532
19 0 87.1326 13.4852 1175 108.031 1295.51 477.273
20 0 93.0296 13.8343 1287 104.552 1295.32 477.142
21 1 47.0318 12.9487 609 105.846 1294.09 495.501
22 0 51.0579 13.1223 670 103.015 1294.29 495.442
23 0 51.0287 13.6198 695 103.929 1294.52 494.445
24 0 52.0386 13.7398 715 106.094 1294.31 493.772
25 0 55.0221 13.7945 759 105.028 1294.65 493.174
26 0 57.0334 14.1671 808 103.436 1294.61 494.422
27 0 58.0436 14.3857 835 104.406 1294.84 491.822
28 0 62.0327 14.0894 874 103.854 1294.76 491.231
29 0 63.0157 14.2028 895 104.078 1294.75 489.448
30 0 65.0331 14.4849 942 105.122 1294.72 488.456
31 0 68.0616 14.957 1018 104.595 1294.13 487.533
32 0 70.0351 14.8069 1037 105.513 1294 486.814
33 0 72.0737 15.0957 1088 105.915 1294.1 485.703
34 0 75.0583 14.8818 1117 106.699 1294.11 484.234
35 0 78.074 14.9602 1168 106.31 1294.31 481.217
36 0 80.0836 14.822 1187 104.908 1293.92 480.685
37 0 83.0503 14.6538 1217 103.986 1294.19 478.882
38 0 84.064 14.7626 1241 102.287 1294.17 477.737
39 0 86.0778 14.4404 1243 103.186 1294.91 475.504
40 0 91.1008 14.676 1337 99.6238 1294.82 473
41 0 94.092 14.8365 1396 97.2915 1294.16 472.103
42 0 96.0924 14.2259 1367 99.4572 1294.46 470.424
43 1 49.0335 11.6859 573 93.1222 1293.93 494.953
44 0 52.0411 13.0282 678 95.146 1293.41 495.735
45 0 53.0268 12.8049 679 93.9131 1294.16 495.091
46 0 54.0313 12.8814 696 87.5474 1293.65 494.787
47 0 54.011 12.4604 673 87.2957 1294.47 493.305
48 0 55.0417 12.4269 684 85.519 1294.2 492.693
49 0 59.0712 12.9674 766 83.0117 1294.4 491.581
50 0 62.0459 12.1684 755 83.0662 1294.53 490.803
51 0 63.0731 12.0178 758 84.1623 1294.69 489.005
52 0 67.0197 12.1457 814 83.9214 1294.11 488.373
53 0 69.0271 12.7631 881 82.2724 1294.24 487.151
54 0 70.0696 12.3021 862 83.2587 1293.84 485.043
55 0 73.031 13.3368 974 80.8686 1294.83 484.538
56 0 73.031 13.3916 978 144.144 1295.84 484.517
57 0 80.0445 13.7798 1103 80.0481 1295.1 481.968
58 0 80.0401 13.6182 1090 80.867 1295.85 481.116
59 0 84.0361 13.7203 1153 81.039 1294.62 479.397
60 0 89.0683 14.0791 1254 81.0319 1295.05 479.109
61 0 90.0803 13.388 1206 84.4428 1295.88 475.95
62 0 95.0313 13.5955 1292 83.4574 1295.08 474.15
63 0 97.0695 13.3822 1299 84.3941 1294.79 472.929
64 0 102.057 13.8452 1413 83.1359 1294.7 471.672
65 0 105.088 12.7417 1339 86.7304 1295.8 468.044
66 1 56.0527 12.0422 675 78.2119 1295.99 494.961
67 0 58.0193 11.9615 694 81.6311 1295.74 492.412
68 0 58.0519 12.2993 714 81.7941 1295.56 491.345
69 0 59.0857 11.661 689 80.4049 1295.95 491.572
70 0 63.042 12.4044 782 78.9335 1296.18 491.731
71 0 65.0291 11.764 765 79.9007 1296.59 490.865
72 0 68.0798 11.9272 812 79.1453 1296.43 487.741
73 0 69.0547 11.947 825 78.5503 1296.18 487.033
74 0 74.0715 12.2044 904 77.7212 1295.58 485.295
75 0 76.0308 11.6532 886 78.9334 1296.29 484.001
76 0 78.0439 11.1476 870 78.6356 1295.69 481.397
77 0 81.0529 11.6837 947 77.5058 1295.91 481.707
78 0 84.0758 11.3231 952 77.0494 1296.14 479.915
79 1 43.0327 10.5036 452 75.1173 1296 499.473
80 0 45.0321 11.081 499 73.2204 1296.54 499.038
81 0 46.0481 10.9234 503 73.1531 1295.96 498.61
82 0 44.0585 9.96402 439 73.6401 1295.62 500.446
83 0 45.0224 10.5725 476 72.7689 1295.17 499.515
84 0 48.0718 10.7339 516 71.7306 1295.57 497.653
85 0 49.1084 9.5503 469 71.6546 1295.49 498.181
86 0 51.1278 10.6791 546 70.3846 1295.52 496.504
87 0 53.0314 10.9369 580 69.5569 1296.16 495.178
88 0 52.027 10.014 521 70.572 1295.92 496.125
89 0 56.1208 10.6021 595 70.5378 1295.21 494.081
90 0 59.1034 11.6914 691 68.848 1295.84 492.74
91 0 60.05 11.224 674 70.4941 1295.36 492.142
92 0 61.0779 11.559 706 71.0694 1295.54 491.19
93 0 62.0524 11.313 702 73.2749 1295.45 491.115
94 0 63.0409 11.7543 741 73.9528 1295.63 489.038
95 0 67.1112 12.2483 822 74.5462 1295.53 488.266
96 0 69.0397 12.0655 833 75.7983 1295.61 488.19
97 0 72.073 11.752 847 77.2444 1295.04 486.945
98 0 74.0849 12.4182 920 77.5685 1295.27 486.053
99 0 78.0453 12.4543 972 80.9352 1294.67 483.21
100 0 80.1893 12.8695 1032 86.2054 1294.82 480.417
101 0 84.1213 13.7777 1159 84.2882 1294.87 479.588
102 0 86.205 13.9087 1199 85.0067 1294.7 477.321
103 0 89.1742 14.3539 1280 84.0602 1295.41 474.039
104 0 91.2965 13.2535 1210 86.595 1295.45 473.482
105 0 94.3101 13.8479 1306 84.9571 1295.59 472.347
106 0 97.2698 13.406 1304 87.0644 1295.33 470.558
107 0 97.2028 13.4873 1311 88.376 1295.36 469.445
108 0 101.279 13.3887 1356 88.5479 1295.45 467.005
109 0 103.289 13.4767 1392 87.9978 1295 467.609
110 0 106.324 12.8194 1363 89.7608 1295.3 466.14
111 0 110.273 13.8293 1525 88.1803 1294.65 463.776
112 0 114.205 14.4302 1648 86.2955 1295.49 462.163
113 0 118.328 14.3923 1703 88.0423 1295.32 460.413
114 0 122.239 14.1035 1724 89.0986 1295.49 458.151
115 0 123.176 13.7202 1690 91.3521 1294.83 455.431
116 0 128.199 14.1031 1808 90.7063 1295.43 453.878
117 0 132.279 14.1217 1868 90.6649 1295.44 453.174
118 0 136.265 14.0828 1919 90.9145 1295.24 451.758
119 0 142.294 14.8285 2110 90.4929 1295.3 448.413
120 0 145.139 14.5241 2108 91.5043 1294.67 446.481
121 0 149.174 15.2641 2277 90.6342 1294.56 445.763
122 0 154.238 14.6397 2258 93.1771 1294.87 441.052
123 0 157.211 14.6937 2310 93.6749 1295.7 439.637
124 0 162.147 14.4066 2336 95.1828 1296.53 438.301
125 0 162.147 14.3943 2334 166.129 1297.52 438.238
126 1 172.153 14.4987 2496 92.2632 1295.95 431.898
127 0 179.169 15.6333 2801 90.7479 1295.86 431.233
128 0 184.154 15.4654 2848 92.6717 1295.48 427.191
129 0 189.241 14.685 2779 93.8906 1295.29 426.834
130 0 193.303 15.1575 2930 93.5925 1294.89 421.451
131 0 199.261 15.2213 3033 93.4352 1294.91 420.551
132 0 205.242 14.7241 3022 94.3117 1295.45 418.522
133 0 209.21 14.4974 3033 95.5562 1295.71 414.553
134 0 216.21 14.5368 3143 96.0379 1295.76 412.159
135 0 223.311 14.5492 3249 96.0782 1295.95 408.523
136 0 233.26 15.5492 3627 93.2346 1296.08 403.961
137 0 240.266 15.3788 3695 93.9448 1295.47 400.509
138 1 66.0545 12.1264 801 89.382 1294.71 486.461
139 0 70.0311 12.78 895 86.7676 1294.29 485.914
140 0 72.0826 11.9446 861 91.0105 1293.79 485.166
141 0 73.1027 12.0515 881 91.6663 1294.17 484.24
142 0 75.0607 12.6031 946 92.0338 1294.25 482.712
143 0 79.0848 12.1136 958 94.4906 1294.13 480.034
144 0 83.1056 12.4179 1032 93.3217 1294.34 478.516
145 0 85.0655 12.5903 1071 93.0999 1294.26 479.154
146 0 89.1836 13.3881 1194 91.0327 1294.69 477.961
147 0 92.071 12.5447 1155 93.0329 1294.25 474.858
148 0 93.033 12.458 1159 93.5324 1295 473.192
149 1 48.1403 10.5733 509 85.0196 1295.06 498.183
150 0 49.0455 11.3772 558 76.8082 1295.1 497.527
151 0 51.0439 10.9905 561 77.0998 1294.41 496.435
152 0 53.033 11.4834 609 75.555 1294.34 496.913
153 0 55.0564 11.5518 636 76.6116 1294.5 494.684
154 0 55.0746 11.203 617 77.906 1294.67 495.122
155 0 58.039 11.6129 674 75.7226 1294.8 493.042
156 0 61.0859 11.803 721 74.1234 1295.14 492.965
157 0 62.0755 11.8404 735 74.268 1295.01 490.824
158 0 64.027 12.0106 769 75.2666 1294.38 490.033
159 0 66.0524 12.0359 795 70.5635 1294.55 487.586
160 0 68.073 11.4877 782 73.2609 1295.08 487.005
161 0 68.0936 11.2345 765 74.3137 1295.17 484.922
162 0 70.072 10.689 749 75.271 1294.93 484.928
163 0 74.0995 11.4171 846 74.5177 1295.58 483.592
164 0 77.0755 12.2218 942 71.3875 1294.8 481.748
165 0 82.0828 12.2316 1004 70.0129 1294.61 480.216
166 0 83.0768 12.3621 1027 71.2356 1294.25 479.124
167 0 88.0986 12.3952 1092 70.9689 1294.94 478.28
168 0 86.0938 12.6025 1085 146.676 1295.93 478.515
169 1 47.0978 11.4867 541 73.5804 1295.47 496.039
170 0 46.0227 10.2341 471 74.9363 1293.43 493.019
171 0 50.0449 11.7295 587 74.6235 1294.55 495
172 0 50.0449 11.7694 589 140.691 1294.56 494.975
173 0 51.0373 11.7365 599 68.4357 1294.51 495.215
174 0 50.0442 10.7505 538 71.7212 1295.09 495.965
175 0 50.038 10.3321 517 72.7563 1294.21 496.532
176 0 52.016 10.6121 552 72.5707 1294.02 496.458
177 0 54.0448 9.73267 526 74.9468 1294.27 494.586
178 0 56.0647 10.2739 576 75.2778 1294.36 494.016
179 0 57.0281 10.714 611 75.7889 1294.65 493.39
180 0 59.1286 10.9253 646 75.322 1295.17 491.226
181 0 61.0347 11.1084 678 75.8053 1295.45 490.392
182 0 62.0739 10.6808 663 76.7994 1294.55 490.873
183 0 64.0403 10.8057 692 77.3671 1295.44 489.455
184 0 64.0403 10.6964 685 133.715 1296.43 489.553
185 0 69.0256 11.4885 793 78.396 1295.09 486.459
186 0 73.0209 11.079 809 79.0049 1294.94 484.967
187 0 75.0256 11.0229 827 80.6723 1295.07 484.452
188 0 78.0436 11.9933 936 80.0459 1295.63 482.127
189 0 81.0377 11.9697 970 80.8629 1296.35 482.092
190 0 85.0469 12.3226 1048 80.3387 1295.58 480.265
191 1 47.0383 10.8847 512 82.8223 1294.91 498.863
192 0 47.0771 12.0653 568 82.1532 1294.27 497.849
193 0 47.0698 12.2159 575 83.3757 1294.32 497.315
194 0 49.0417 12.1325 595 83.6622 1294.43 496.55
195 0 47.0344 11.077 521 76.6161 1293.55 500.392
196 0 46.0405 11.8157 544 77.2574 1293.35 498.419
197 0 49.0286 10.9528 537 77.1564 1293.28 498.648
198 0 50.0393 11.1912 560 75.9714 1294.18 497.5
199 0 52.0299 11.455 596 76.1007 1293.78 496.018
200 0 55.0498 11.3897 627 75.2201 1293.79 495.415
201 0 55.0323 12.102 666 75.2838 1293.5 494.057
202 0 57.0547 11.0245 629 97.0382 1293.29 494.512
203 0 61.0288 11.2734 688 93.3866 1293.25 492.836
204 0 61.0547 11.2031 684 93.1038 1293.76 492.813
205 0 63.0393 11.4532 722 91.9211 1293.23 491.28
206 0 64.0313 11.182 716 92.3966 1293.76 490.691
207 0 66.0916 11.9531 790 89.6709 1293.39 490.147
208 0 68.0616 11.8275 805 89.4037 1293.19 487.908
209 0 68.0616 11.7541 800 132.715 1293.17 488.004
210 0 73.0666 11.8385 865 89.1029 1293.05 485.486
211 0 75.0323 11.6883 877 89.9111 1293.07 485.111
212 0 77.0461 11.4866 885 90.0181 1293.63 483.332
213 0 80.1017 11.5728 927 89.8544 1293.62 481.286
214 0 84.0544 12.8726 1082 86.0323 1293.78 479.696
215 0 87.0438 12.0399 1048 87.3139 1293.66 477.148
216 0 90.0532 11.4044 1027 87.1908 1293.67 476.66
217 0 93.107 11.8358 1102 85.1207 1294.27 474.434
218 0 93.107 11.8681 1105 118.7 1295.29 474.395
219 0 99.1641 11.4558 1136 83.2218 1292.9 471.087
220 1 52.0696 11.4846 598 85.01 1293.06 492.773
221 0 55.0456 11.3724 626 83.3003 1293 492.31
222 0 52.0111 10.5747 550 80.5709 1293.22 495.824
223 0 53.0292 10.8431 575 81.5652 1293.5 492.67
224 0 56.04 11.3312 635 80.3244 1293.82 491.63
225 0 58.0217 11.0821 643 79.367 1293.71 491.792
226 0 60.0411 11.4755 689 78.0972 1293.76 490.453
227 0 60.0594 11.0724 665 78.6105 1293.2 489.392
228 0 62.0375 10.8966 676 78.8047 1293.82 490.459
229 0 65.026 11.5031 748 78.2848 1293.93 486.995
230 0 65.0205 11.5041 748 78.8489 1294.15 486.578
231 0 67.0421 11.2765 756 80.0622 1294.19 485.47
232 0 71.0433 11.5704 822 79.6144 1294.05 485.421
233 0 71.0759 11.6495 828 81.6449 1294.44 483.465
234 0 75.0333 11.0218 827 82.1258 1294.51 481.895
235 0 78.0365 11.4946 897 81.2586 1294.15 480.884
236 0 80.0498 11.6552 933 81.5552 1294.53 480.254
237 0 83.0432 12.054 1001 79.0849 1294.05 478.511
238 0 86.0251 12.1476 1045 77.3847 1294.09 477.759
239 0 90.0795 12.6 1135 74.7868 1293.27 477.193
240 0 94.0876 12.212 1149 77.8938 1294.03 475.265
241 0 95.2085 12.3518 1176 79.3895 1293.39 473.668
242 0 98.158 13.0504 1281 79.0609 1293.64 471.831
243 0 102.11 12.653 1292 81.8313 1292.87 470.7
244 0 105.135 12.8121 1347 84.8211 1293.13 470.004
245 0 107.224 13.3272 1429 83.7922 1293.52 467.004
246 1 58.0441 11.0778 643 81.8631 1294.1 491.521
247 0 56.0256 10.5309 590 78.2814 1294.16 488.653
248 0 59.0657 10.2936 608 78.3158 1294.21 487.5
249 0 60.0881 11.2668 677 77.4948 1293.75 492.44
250 0 63.0349 12.2155 770 75.3078 1293.94 491.271
251 0 65.0267 11.2569 732 76.2719 1293.67 490.193
252 0 69.0374 11.8342 817 74.6365 1292.5 490.843
253 0 70.0421 12.207 855 73.5357 1292.78 489.094
254 0 72.032 12.3834 892 75.9182 1292.93 485.498
255 0 75.1332 12.1118 910 77.5429 1293.26 484.362
256 0 77.0432 12.7072 979 78.0061 1293.66 482.892
257 0 81.0793 12.642 1025 78.0371 1293.63 481.563
258 0 84.0361 12.685 1066 78.6229 1293.96 480.352
259 0 85.0739 13.5412 1152 77.7283 1293.39 478.64
260 0 89.1641 13.0546 1164 78.9098 1293.24 477.199
261 0 91.1806 12.9523 1181 80.6918 1293.74 474.825
262 0 95.0878 13.4718 1281 79.7994 1293.41 472.859
263 0 97.115 13.4377 1305 81.1985 1293.41 473.813
264 0 99.1271 13.2759 1316 83.0334 1293.85 472.345
265 0 102.132 13.1007 1338 83.7167 1293.36 469.952
266 0 107.114 13.3783 1433 83.3098 1293.5 467.524
267 0 111.131 13.3716 1486 83.3304 1293.46 466.972
268 0 112.096 13.1584 1475 85.8827 1293.14 464.292
269 0 117.116 14.1142 1653 83.5221 1292.93 462.417
270 0 121.118 13.1937 1598 84.9712 1292.99 462.329
271 1 63.0489 11.3404 715 88.4014 1293.5 490.578
272 0 65.0523 12.1287 789 86.9354 1293.27 489.124
273 0 66.0535 12.5656 830 85.0217 1293.55 487.519
274 0 69.0327 12.5737 868 80.75 1293.88 487.683
275 0 68.0561 11.9901 816 84.3002 1293.41 488.43
276 0 70.0815 12.3998 869 85.5811 1293 486.054
277 0 72.0464 11.6314 838 88.0012 1293.85 484.791
278 0 74.0658 11.9488 885 88.2927 1294.22 485.238
279 0 77.1319 11.8239 912 90.1798 1293.71 481.751
280 0 79.0605 12.4715 986 89.2708 1294.07 483.588
281 0 79.0605 12.4968 988 143.297 1294.08 483.589
282 0 84.1243 11.7921 992 92.248 1293.99 478.605
283 0 86.1092 12.008 1034 93.5812 1293.43 477.703
284 0 88.1171 11.6436 1026 93.4708 1293.37 477.42
285 0 91.0662 11.4532 1043 92.8082 1293.44 476.08
286 0 94.0394 12.1013 1138 90.8541 1293.79 473.73
287 0 98.0372 11.9445 1171 89.6251 1293.4 472.284
288 0 101.11 12.1551 1229 89.0106 1293.09 471.253
289 0 102.053 11.3961 1163 93.454 1293.33 469.322
290 0 106.137 11.4946 1220 91.8959 1293.14 467.248
291 0 109.089 11.2018 1222 89.081 1292.94 465.867
292 1 57.073 10.2676 586 87.2065 1293.81 492.555
293 0 61.0308 11.2402 686 84.0758 1293.88 491.19
294 0 61.0451 11.254 687 88.2955 1293.9 489.815
295 0 59.0845 9.88414 584 77.2003 1293.02 492.642
296 0 63.0985 10.9511 691 74.2533 1292.7 490.702
297 0 63.0586 10.5933 668 74.1452 1292.36 491.741
298 0 69.0465 11.1664 771 72.5772 1293.22 490.049
299 0 71.0402 10.9797 780 73.9923 1292.89 489.836
300 0 72.0345 11.3557 818 74.1455 1292.81 488.996
301 0 75.0763 11.4284 858 73.4231 1292.65 487.583
302 0 77.1395 11.3042 872 73.8681 1292.77 487.056
303 0 79.0688 10.649 842 76.1259 1293.68 487.046
304 0 82.0334 11.9951 984 75.6352 1293.02 483.314
305 0 83.0947 11.3485 943 75.2768 1293.36 484.501
306 0 85.0306 10.6667 907 77.0849 1292.97 483.513
307 0 88.0405 11.6992 1030 76.2612 1292.56 481.456
308 0 91.0624 12.2553 1116 76.3011 1292.24 477.821
309 0 94.0329 10.9855 1033 78.4298 1292.47 477.591
310 0 97.0485 11.6746 1133 77.7749 1292.95 476.762
311 0 101.074 13.4258 1357 76.5829 1293.19 475.39
312 1 56.0258 10.9949 616 75.9675 1292.85 498.273
313 0 55.0184 10.5964 583 77.7033 1293.05 498.475
314 0 59.0321 11.5191 680 76.4779 1292.39 496.741
315 0 61.1088 10.9968 672 76.5179 1292.96 495.698
316 0 60.1282 11.6751 702 77.3832 1292.88 495.724
317 0 62.0623 11.9074 739 76.8579 1292.63 495.541
318 0 63.0722 11.6692 736 78.1984 1292.54 494.921
319 0 64.0249 11.558 740 79.1081 1292.56 493.739
320 0 69.1079 11.7932 815 77.4969 1293.41 492.553
321 0 70.119 11.7942 827 77.7376 1293.17 491.759
322 0 73.0802 12.0005 877 78.0057 1292.56 490.544
323 0 76.0976 12.4314 946 77.7865 1293.1 489.86
324 0 76.0976 12.2606 933 79.0472 1292.36 488.005
325 0 80.101 12.2845 984 78.6667 1291.83 488.186
326 0 84.1039 12.8769 1083 77.2872 1291.69 485.526
327 0 86.1017 12.8917 1110 78.2631 1291.9 485.135
328 0 89.1171 12.1077 1079 79.9861 1291.36 484.551
329 0 92.0609 12.5026 1151 79.7037 1291.58 482.769
330 0 94.0835 12.3401 1161 80.77 1291.57 480.229
331 0 97.0868 11.9996 1165 91.1159 1291.88 478.908
332 1 52.0714 11.4458 596 84.448 1291.61 498.799
333 0 53.1013 12.0901 642 85.0685 1292.14 498.199
334 0 53.1013 12.0148 638 128.984 1293.14 498.379
335 0 56.0717 12.4305 697 83.3156 1291.07 497.524
336 0 58.0756 12.5526 729 85.9218 1291.11 497.166
337 0 61.1021 12.4709 762 90.5499 1291.22 495.684
338 0 62.115 12.8793 800 91.9925 1290.63 493.516
339 0 65.1249 12.5605 818 93.3215 1290.47 493.477
340 0 67.1849 13.0684 878 92.033 1290.45 492.625
341 0 67.1932 12.7245 855 94.069 1290.77 491.613
342 0 69.1842 12.7052 879 93.9067 1290.31 491.866
343 0 73.1136 12.2139 893 93.7872 1289.44 490.552
344 0 74.0769 12.5815 932 93.809 1289.99 490.35
345 0 77.1089 12.2165 942 93.7314 1289.34 489.077
346 0 80.0675 12.2272 979 92.2074 1289.85 487.467
347 0 83.1135 12.513 1040 92.574 1289.64 485.948
348 0 84.1792 11.9982 1010 95.499 1289.31 483.55
349 0 88.0978 12.5769 1108 93.7238 1289.2 482.859
350 0 92.1077 11.8557 1092 92.3773 1289.64 481.064
351 1 44.0402 10.0363 442 84.405 1290.22 503.373
352 0 48.0147 9.95528 478 85.7029 1290.38 503.6
353 0 50.0605 11.8257 592 78.8243 1290.32 503.157
354 0 51.0353 11.835 604 75.8957 1290.28 501.568
355 0 53.0723 11.7952 626 76.3994 1290.1 501.834
356 0 53.048 11.5744 614 76.5831 1290.53 499.524
357 0 55.0917 12.0708 665 74.8406 1290.43 500.262
358 0 55.0478 11.4083 628 75.715 1290.88 499.505
359 0 58.106 11.2037 651 73.9754 1290.94 498.24
360 0 58.1031 10.6879 621 74.8293 1290.37 496.736
361 0 59.0644 11.6314 687 72.5109 1290.49 496.985
362 0 62.0657 11.3428 704 70.9261 1289.75 495.351
363 0 62.0657 11.2623 699 112.648 1288.76 495.456
364 0 65.1161 11.3643 740 69.8338 1290.84 494.507
365 0 67.076 11.3006 758 70.0369 1290.57 491.815
366 0 69.0821 10.7987 746 70.6086 1290.08 491.655
367 0 71.1233 11.5714 823 71.0826 1290 490.305
368 0 74.1888 11.7268 870 71.0264 1290.09 491.515
369 0 76.0625 11.2145 853 73.1524 1290.68 488.018
370 0 79.1754 11.8724 940 74.0926 1291.21 485.75
371 0 80.0962 11.9107 954 75.4298 1290.56 483.174
372 0 84.1691 12.4392 1047 76.1127 1289.88 483.302
373 0 84.1691 12.4036 1044 137.409 1287.9 483.282
374 0 90.0991 11.7315 1057 79.0095 1290.76 480.598
375 0 92.0863 12.1191 1116 79.6658 1290.57 478.354
376 0 95.1031 12.0921 1150 78.6652 1290.57 477.015
377 0 97.1045 12.502 1214 80.2224 1290.95 477.984
378 0 102.1 12.6739 1294 80.9343 1290.98 475.098
379 0 105.117 12.8809 1354 82.4173 1291.32 462.081
380 0 108.226 12.9451 1401 82.7323 1291.05 470.564
381 0 111.203 12.8864 1433 83.7327 1290.72 469.022
382 0 114.333 13.1633 1505 83.9209 1290.98 466.794
383 0 116.273 12.8061 1489 85.8314 1291.31 466.281
384 0 120.321 12.7908 1539 87.1196 1291.17 463.507
385 1 62.3043 11.2352 700 88.9343 1290.78 491.64
386 0 64.2594 11.7181 753 88.8911 1290.81 491.309
387 0 63.2589 11.5873 733 90.8731 1291.4 490.787
388 0 67.3215 11.8833 800 89.9175 1291.88 489.939
389 0 69.2558 12.23 847 91.5336 1290.94 488.475
390 0 70.391 12.3595 870 94.2678 1290.99 486.602
391 0 73.1868 13.0215 953 93.1417 1290.7 486.278
392 0 74.2904 13.528 1005 96.3323 1290.59 483.879
393 0 77.3505 13.0962 1013 98.5192 1290.67 483.597
394 0 78.2801 13.2984 1041 98.8521 1290.76 481.396
395 0 82.2392 13.327 1096 94.3239 1291.16 475.494
396 0 84.1426 13.2038 1111 93.1809 1291.24 478.66
397 0 87.0836 13.1942 1149 82.349 1292.07 479.857
398 0 90.1276 13.7361 1238 80.9871 1292.45 478.575
399 0 92.1171 12.8749 1186 84.1568 1292.37 476.053
400 0 93.0491 13.38 1245 83.747 1292.77 473.362
401 0 96.1989 13.1083 1261 88.0999 1292.56 472.875
402 0 100.071 12.9908 1300 85.0662 1292.13 470.365
403 0 102.134 13.5312 1382 83.958 1292.38 470.077
404 0 104.109 12.4389 1295 86.5266 1292.31 469.974
405 0 108.094 13.8861 1501 84.3731 1292.21 470.035
406 0 112.092 13.9528 1564 83.759 1291.97 468.283
407 0 115.182 14.0039 1613 84.0118 1292.24 465.989
408 0 117.125 14.2412 1668 89.1499 1292.25 464.826
409 0 119.196 13.7253 1636 90.4853 1293.03 462.078
410 0 124.174 13.3924 1663 90.8154 1292.44 460.906
411 0 128.144 14.3589 1840 87.6799 1292.51 460.37
412 0 131.118 14.1628 1857 88.6031 1291.83 456.438
413 0 131.118 14.1323 1853 157.28 1291.84 456.404
414 0 140.231 14.2337 1996 89.5977 1292.18 453.368
415 0 144.215 14.2634 2057 88.9543 1291.87 450.432
416 0 148.312 14.0515 2084 90.5058 1292.47 447.5
417 0 152.294 14.2028 2163 90.6426 1292.54 445.989
418 0 157.187 13.8434 2176 91.6769 1291.98 443.602
419 0 161.22 14.5143 2340 90.7038 1292.17 438.877
420 0 165.194 14.0683 2324 91.994 1291.87 436.542
421 0 171.214 14.2804 2445 91.7947 1291.86 434.849
422 0 176.183 14.6212 2576 90.1949 1292.2 430.626
423 0 183.262 15.295 2803 88.3282 1291.36 427.775
424 0 188.306 14.8057 2788 89.9258 1290.79 424.971
425 0 194.287 14.7617 2868 90.5136 1291.24 422.279
426 0 197.189 14.585 2876 92.0076 1291.08 420.252
427 0 204.431 15.1445 3096 90.9173 1291.37 417.192
428 0 210.288 15.1126 3178 90.0642 1291.37 414.956
429 0 216.274 14.9857 3241 90.5754 1290.75 411.78
430 0 221.326 14.3544 3177 90.7658 1290.66 408.417
431 0 229.396 14.8477 3406 88.9639 1290.58 404.598
432 0 238.282 14.5248 3461 89.4675 1290.72 400.655
433 1 259.383 12.0632 3129 93.4749 1291.11 402.651
434 0 257.356 13.4638 3465 92.9434 1291.24 395.44
435 0 264.446 12.8911 3409 93.7269 1291.12 388.494
436 1 58.1952 10.9116 635 83.2583 1290.49 484.898
437 0 60.336 11.1376 672 83.3497 1290.06 483.241
438 0 63.1484 11.5601 730 83.7151 1290.51 479.714
439 0 65.1219 11.8547 772 84.0492 1289.54 480.552
440 0 65.1187 11.6403 758 82.1675 1289.54 486.943
441 0 67.1542 11.2577 756 83.2659 1289.67 487.729
442 0 68.1593 11.6639 795 83.0855 1290.02 486.635
443 0 70.1577 11.0323 774 84.8295 1290.18 485.213
444 0 72.1476 11.4072 823 85.0292 1290.75 485.955
445 0 75.0912 11.6392 874 85.3638 1291.05 483.662
446 0 76.1147 11.6272 885 85.7503 1291.14 483.36
447 0 79.1921 11.8699 940 86.0234 1290.35 480.274
448 0 80.1101 11.3843 912 87.761 1290.22 479.262
449 0 83.2459 11.46 954 88.0304 1290.39 478.232
450 0 85.1892 11.6799 995 87.7417 1290.3 476.51
451 0 90.2802 11.7301 1059 87.0227 1290.57 473.721
452 0 90.1145 10.9416 986 88.6795 1290.17 474.578
453 0 96.2303 11.8362 1139 87.0729 1290.51 469.083
454 0 100.214 11.5254 1155 88.5706 1290.68 468.402
455 0 101.125 10.7293 1085 89.3429 1291.36 471.048
456 0 105.238 10.2244 1076 90.9926 1290.8 464.338
457 0 110.09 10.8638 1196 88.1865 1290.13 466.025
458 0 110.213 8.32023 917 92.5812 1290.11 472.304
459 1 58.0742 12.0019 697 90.9813 1289.88 490.217
460 0 61.1251 12.0409 736 86.1821 1290.24 488.091
461 0 60.1538 12.5844 757 86.3897 1290.42 486.554
462 0 64.0446 12.5225 802 86.3005 1290.68 486.65
463 0 64.1466 12.4403 798 86.5201 1290.4 485.318
464 0 67.1118 12.0396 808 86.5173 1290.95 483.787
465 0 68.0936 11.6751 795 88.1509 1290.46 483.595
466 0 71.0873 12.3791 880 85.2807 1290.61 481.442
467 0 71.1057 12.615 897 85.2352 1290.26 482.294
468 0 73.1169 12.268 897 86.1081 1290.07 481.203
469 0 70.1309 10.9224 766 91.641 1290.49 481.79
470 0 75.3036 11.3939 858 89.2075 1290.74 476.802
471 0 76.1425 11.3734 866 89.9122 1290.82 470.07
472 0 78.1835 11.6137 908 89.4405 1290.5 466.991
473 0 81.1636 11.6431 945 88.9862 1290.51 467.322
474 0 84.2015 11.2231 945 88.9556 1290.14 468.828
475 1 47.0749 10.855 511 87.0391 1289.63 491.403
476 0 47.0262 11.164 525 86.3943 1289.81 493.286
477 0 49.019 11.6281 570 85.3772 1289.5 493.075
478 0 51.0736 12.1981 623 85.3547 1290.84 493.812
479 0 54.1421 11.6545 631 85.8732 1290.7 491.881
480 0 54.1589 11.9094 645 85.0341 1290.8 492.453
481 0 56.1076 11.8522 665 84.1263 1290.91 490.25
482 0 56.1453 12.2895 690 83.7319 1291.02 490.119
483 0 57.0869 12.7175 726 82.4725 1290.61 488.428
484 0 60.0784 12.5003 751 81.9561 1290.59 488.071
485 0 58.1325 11.7146 681 85.1498 1290.49 489.172
486 0 59.0952 11.9299 705 85.4355 1290.24 486.843
487 0 59.0739 11.3587 671 87.1401 1290.6 488.051
488 0 64.2319 11.8321 760 84.8184 1290.27 484.789
489 0 64.2319 11.801 758 149.933 1290.27 484.788
490 0 69.2642 12.7339 882 83.4546 1290 483.375
491 0 69.2642 12.7627 884 145.991 1289.99 483.328
492 0 71.3003 12.833 915 84.2306 1290.83 482.139
493 0 75.336 12.8226 966 84.1946 1290.87 480.39
494 0 78.3366 13.008 1019 83.2306 1290.7 480.979
495 0 80.4761 12.4633 1003 84.8345 1290.23 478.67
496 0 82.2312 12.6959 1044 84.8975 1289.67 478.171
497 0 85.1879 13.1591 1121 83.6869 1290.48 475.85
498 0 86.1776 13.0312 1123 85.0151 1290.3 474.041
499 0 86.179 13.0658 1126 139.478 1290.3 474
500 0 95.2059 13.6021 1295 82.1691 1290.03 470.642
501 0 98.2474 13.0487 1282 81.876 1290.18 471.158
502 1 52.1807 12.3226 643 85.9689 1290.48 494.218
503 0 56.1066 13.3139 747 83.0094 1290.78 491.406
504 0 56.128 12.7387 715 83.8895 1290.49 491.726
505 0 58.0683 13.0708 759 82.3478 1289.88 490.991
506 0 58.0998 14.0104 814 81.0418 1290.01 489.531
507 0 62.1136 13.4753 837 81.9032 1289.9 487.14
508 0 63.2779 13.8595 877 81.0251 1290.08 484.128
509 0 65.158 12.7383 830 84.3506 1289.91 482.696
510 0 67.3191 13.4286 904 83.1869 1289.97 481.796
511 0 68.2121 13.5753 926 83.433 1290.07 480.875
512 0 71.2137 13.8597 987 83.3576 1290.1 480.163
513 0 74.1905 14.3684 1066 82.773 1289.85 478.608
514 0 77.1336 13.6776 1055 85.11 1290.02 477.628
515 0 78.1598 13.5492 1059 86.6686 1289.85 478.035
516 0 82.2081 13.9037 1143 86.0455 1290 476.363
517 0 84.1328 13.7402 1156 87.9265 1290.16 475.358
518 0 88.2414 14.3923 1270 86.8921 1289.82 474.569
519 0 91.1694 14.0288 1279 89.0399 1290.03 472.896
520 0 94.2157 14.4668 1363 88.2817 1289.9 472.038
521 0 97.303 14.3161 1393 89.2836 1289.94 468.995
522 0 99.3528 14.3831 1429 89.6074 1290.22 469.051
523 0 101.321 13.8273 1401 92.863 1290.41 468.607
524 0 105.205 13.773 1449 93.2878 1290.26 465.866
525 0 108.378 13.5359 1467 93.1902 1290.72 465.055
526 0 109.201 12.5456 1370 94.7693 1290.29 466.463
527 0 115.157 12.0444 1387 93.2329 1290.26 464.271
528 0 122.163 13.1218 1603 93.1135 1290.35 461.287
529 0 126.199 13.5104 1705 94.7179 1290.34 458.517
530 0 132.193 13.382 1769 93.2849 1289.58 457.648
531 1 61.1598 13.0968 801 97.3995 1289.72 488.85
532 0 62.2004 12.8295 798 99.7719 1290.42 489.373
533 0 66.1401 13.0178 861 98.6539 1289.54 487.051
534 0 68.1623 12.6903 865 99.0173 1289.88 485.32
535 0 69.2173 12.2513 848 99.9269 1290.38 485.305
536 0 69.1765 12.7066 879 100.561 1290.19 482.882
537 0 74.2324 13.4038 995 99.3095 1290 481.634
538 0 77.1719 12.5305 967 161.263 1290.02 479.64
539 0 79.2131 12.6242 1000 98.888 1290.06 478.513
540 0 81.1143 13.3515 1083 97.2872 1289.79 477.683
541 0 81.1583 13.4182 1089 97.955 1290.18 476.997
542 0 86.1398 13.571 1169 96.2686 1289.47 476.82
543 0 89.1752 13.7706 1228 97.0358 1289.05 475.327
544 0 92.3123 13.3243 1230 97.2236 1289.08 472.894
545 0 92.2719 12.9725 1197 100.033 1289.41 471.792
546 0 98.1715 13.4968 1325 97.0294 1288.91 470.149
547 0 102.188 12.9761 1326 98.6538 1289.62 469.761
548 0 104.108 12.6215 1314 101.581 1289.74 467.144
549 0 109.275 13.434 1468 100.768 1289.48 465.068
550 1 57.1454 9.27459 530 95.3075 1290.45 491.217
551 0 59.076 9.85172 582 96.3849 1289.99 489.143
552 0 63.0764 11.383 718 92.6657 1289.12 489.89
553 0 63.0689 11.0673 698 96.1705 1289.53 488.294
554 0 67.0576 11.0502 741 97.3549 1289.53 486.232
555 0 70.0993 11.3553 796 97.3216 1289.51 485.598
556 0 74.1431 11.9229 884 97.009 1289.59 485.673
557 0 73.0702 11.8106 863 99.9687 1289.03 484.226
558 0 77.1458 11.8347 913 99.5476 1289.17 481.367
559 0 80.1691 11.6504 934 100.758 1289.6 480.211
560 0 82.0491 12.2244 1003 100.247 1289.35 478.569
561 0 84.1571 11.7875 992 100.976 1290.29 476.849
562 1 46.0829 8.41962 388 89.5979 1290.42 500.242
563 0 49.0711 10.2504 503 97.0417 1289.44 502.469
564 0 50.0374 11.4714 574 94.7875 1289.61 502.075
565 0 51.0195 12.1326 619 88.8611 1289.69 503.137
566 0 52.0384 10.6652 555 88.218 1289 501.668
567 0 54.0921 11.4804 621 87.7246 1290.07 500.449
568 0 56.0464 11.2764 632 87.6551 1289.4 498.926
569 0 56.0616 11.309 634 88.8328 1290.26 497.527
570 0 58.0718 11.5374 670 89.6896 1289.76 497.83
571 0 59.0421 11.7205 692 89.5491 1289.47 497.113
572 0 63.0346 12.041 759 87.1713 1289.5 496.402
573 0 64.0592 11.9109 763 89.0852 1289.69 494.934
574 0 66.2411 12.5149 829 87.1013 1289.75 494.264
575 0 69.0924 11.5353 797 90.4028 1289.26 494.025
576 0 70.0742 12.3726 867 88.9112 1289.84 491.947
577 0 73.1345 12.0189 879 92.6337 1289.26 491.258
578 0 74.0794 11.5957 859 92.1874 1289.39 490.943
579 0 74.1211 11.1035 823 93.7047 1288.7 490.07
580 0 79.1491 11.3836 901 93.061 1289.37 488.488
581 1 42.0255 9.94634 418 94.4067 1290.1 506.847
582 0 43.0422 10.3852 447 91.4072 1289.88 506.846
583 0 45.1526 10.9185 493 91.0365 1289.22 504.475
584 0 47.0767 11.2795 531 99.6309 1290.07 502.704
585 0 43.1494 10.3362 446 98.3475 1288.24 504.978
586 0 45.1274 10.3042 465 97.8022 1288.29 506.245
587 0 46.1144 10.192 470 98.7128 1288.38 505.566
588 0 47.0767 10.8546 511 97.6908 1287.64 504.98
589 0 47.1064 10.7204 505 99.0832 1288.58 504.251
590 0 50.1048 10.5179 527 98.6509 1287.8 503.704
591 0 52.1607 10.6977 558 98.31 1287.91 503.079
592 0 53.0584 11.6664 619 96.9855 1288.16 502.053
593 0 54.1441 10.4905 568 99.9806 1288.32 501.35
594 0 55.2757 11.0175 609 98.4631 1288 500.481
595 0 57.0937 11.1921 639 98.1487 1287.33 499.419
596 0 59.1043 11.1159 657 99.9117 1287.73 498.023
597 0 61.0986 11.4569 700 100.064 1287.34 496.763
598 0 63.052 11.5777 730 98.8945 1287.51 495.418
599 0 66.1127 11.6014 767 98.2334 1287.19 493.885
600 0 68.1068 11.2911 769 97.5124 1287.38 493.341
601 0 71.1586 11.6079 826 96.2845 1287.92 493.253
602 0 71.0763 10.7631 765 99.5098 1287.74 489.392
603 0 74.1721 10.7453 797 98.8482 1287.69 488.385
604 0 75.2517 10.3652 780 100.188 1288.14 487.417
605 0 79.2116 10.9832 870 98.2195 1287.53 486.055
606 0 80.1216 10.4217 835 97.0754 1286.71 487.105
607 0 79.1242 9.76945 773 97.934 1287.3 489.481
608 0 78.1581 8.99459 703 100.475 1287.47 489.219
609 0 85.1122 9.66959 823 99.6476 1286.9 485.931
610 0 88.0963 10.0345 884 98.8292 1287.38 483.554
611 0 93.1806 11.2148 1045 96.3187 1287.95 483.303
612 0 97.2308 9.44146 918 98.7451 1288.61 483.856
613 0 97.0894 11.0002 1068 97.073 1288.25 479.637
614 1 146.369 11.3002 1654 102.608 1287.78 452.863
615 1 56.048 11.1868 627 100.418 1287.21 496.29
616 0 58.0859 10.9837 638 101.124 1287.22 496.133
617 0 59.0508 11.905 703 99.3684 1287.02 494.956
618 0 62.0876 11.5482 717 99.9135 1287.47 494.238
619 0 62.0446 11.6046 720 101.003 1286.84 491.954
620 0 66.0864 11.9995 793 99.1892 1287.7 491.612
621 0 66.0544 12.0961 799 99.234 1287.13 490.641
622 0 67.0422 11.7687 789 98.9252 1287.67 487.853
623 0 72.077 11.4738 827 98.6638 1287.83 487.728
624 0 74.0376 10.8594 804 100.182 1287.19 485.752
625 0 75.0479 11.5659 868 97.8664 1287.41 483.758
626 0 78.0583 10.9021 851 99.7321 1287.41 482.441
627 1 41.0099 9.43675 387 92.6822 1287.16 502.173
628 0 43.0211 9.94861 428 92.2921 1286.47 501.871
629 0 46.0261 10.342 476 90.1387 1287.74 500.908
630 0 47.0171 11.1023 522 83.1284 1288.06 499.077
631 0 48.035 10.9087 524 81.9179 1288.76 498.809
632 0 49.0256 10.9127 535 84.6879 1289.22 498.092
633 0 50.0195 10.8158 541 85.451 1289.24 496.747
634 0 51.0405 11.5791 591 83.4112 1289.75 496.629
635 0 52.0266 10.9559 570 85.4053 1289.13 496.367
636 0 53.02 10.7129 568 86.419 1289.03 495.349
637 0 54.0205 10.496 567 87.0547 1289.66 494.168
638 0 56.0227 10.4065 583 88.2487 1288.73 491.566
639 0 58.0247 10.754 624 88.1378 1288.98 490.24
640 0 60.0451 11.125 668 87.8114 1288.99 490.265
641 0 64.0745 11.7519 753 86.494 1288.87 490.016
642 0 62.0685 10.8267 672 90.6027 1289.28 490.068
643 0 68.0596 11.534 785 88.4624 1289.65 488.65
644 0 69.1022 11.8954 822 88.1679 1289.52 486.511
645 0 69.0164 11.6059 801 90.2022 1289.46 486.19
646 0 74.0467 12.087 895 88.6346 1289.49 484.901
647 0 73.0467 11.6912 854 90.1534 1289.55 482.766
648 0 78.0414 11.9296 931 88.5607 1290.13 482.544
649 0 82.0939 12.2299 1004 87.7341 1289.59 480.996
650 0 85.1315 12.4513 1060 87.1387 1289.55 479.198
651 0 88.054 13.0942 1153 85.9445 1289.54 478.414
652 0 89.0772 12.5958 1122 87.9287 1289.68 476.345
653 0 93.0687 12.1308 1129 87.597 1289.56 476.777
654 0 96.1135 12.4332 1195 87.4469 1289.58 474.326
655 0 101.086 12.9692 1311 86.624 1289.13 472.061
656 0 103.143 12.2355 1262 88.3946 1289.54 470.908
657 0 106.217 13.0205 1383 88.6428 1289.89 468.499
658 1 52.0953 10.9799 572 97.8392 1288.61 494.934
659 0 57.1891 11.9079 681 98.0132 1289.31 494.122
660 0 57.0682 11.9506 682 98.9941 1288.83 492.63
661 0 60.1251 12.474 750 97.496 1289.2 491.275
662 0 60.1132 12.7426 766 97.2232 1289.33 489.337
663 0 63.0542 12.402 782 97.1841 1289.62 487.748
664 0 64.0325 12.3062 788 97.7995 1289.01 487.197
665 0 66.0612 13.0485 862 96.2947 1289.63 485.858
666 0 68.0913 12.6595 862 97.2552 1289.84 484.955
667 0 71.0387 13.0492 927 94.2837 1289.48 484.931
668 0 72.079 12.9441 933 94.9914 1289.48 483.279
669 0 76.0567 13.0297 991 92.776 1289.11 482.433
670 0 79.0834 13.1886 1043 90.5839 1289.31 480.983
671 0 81.0728 13.198 1070 90.9654 1289.74 480.032
672 0 82.0838 12.9502 1063 91.4468 1289.53 477.665
673 0 84.1232 13.0047 1094 88.1792 1289.62 475.139
674 0 87.0568 12.8881 1122 88.9964 1289.17 474.163
675 0 91.0888 13.5802 1237 87.4656 1288.91 473.463
676 0 92.0738 12.957 1193 89.834 1289.72 471.474
677 0 97.0308 13.439 1304 88.3896 1289.46 470.701
678 0 99.1044 13.0569 1294 87.8702 1289.19 468.909
679 0 102.054 12.8756 1314 89.3546 1289.43 467.954
680 0 107.076 12.8413 1375 88.8458 1289.25 466.14
681 0 112.085 13.0526 1463 85.8947 1288.94 464.98
682 0 111.092 13.2502 1472 88.5455 1289.77 462.96
683 0 117.089 13.605 1593 86.8136 1289.95 462.029
684 0 119.052 13.1035 1560 87.4603 1289.88 462.488
685 0 123.065 12.7575 1570 88.1369 1290.13 459.657
686 0 126.138 12.8748 1624 88.2297 1289.79 457.869
687 1 64.038 12.3677 792 87.9028 1290.41 487.889
688 0 64.0339 12.3372 790 139.984 1291.41 487.791
689 0 70.0667 12.7593 894 85.8468 1290.19 485.983
690 0 71.0566 12.5111 889 86.9843 1290.77 485.197
691 0 74.0549 12.6798 939 84.9318 1290.12 486.002
692 0 77.0687 13.3388 1028 83.6119 1290.77 483.922
693 0 79.0379 12.7281 1006 84.9145 1290.35 483.256
694 0 82.1369 13.0514 1072 84.0756 1289.96 482.306
695 0 82.048 12.5049 1026 85.0926 1290.28 481.066
696 0 85.0707 12.7423 1084 83.7232 1290.5 478.692
697 0 88.088 13.0097 1146 82.6483 1290.5 478.881
698 0 87.0876 12.6424 1101 137.593 1290.49 478.1
699 1 43.0312 10.5505 454 75.4471 1289.24 501.403
700 0 44.0145 10.1558 447 76.6957 1289.09 499.723
701 0 44.0145 10.133 446 119.538 1289.09 499.836
702 0 47.0113 10.423 490 78.7531 1289.18 499.171
703 0 49.0255 10.2804 504 79.2381 1289.06 497.397
704 0 50.0161 10.4966 525 77.7429 1289.07 496.83
705 0 52.0175 11.4 593 76.3491 1289.2 495.408
706 0 55.0178 10.851 597 76.1709 1288.32 493.74
707 0 55.0442 11.5543 636 75.5283 1288.76 494.208
708 0 59.0333 11.3834 672 74.9881 1288.68 493.488
709 0 60.0474 11.5409 693 74.772 1288.32 494.082
710 0 61.0203 12.1927 744 73.7056 1289.11 492.055
711 0 62.0483 11.7489 729 75.1811 1288.31 493.08
712 0 65.0703 11.6489 758 73.8852 1288.31 491.489
713 0 65.0271 11.4106 742 75.6914 1288.44 488.829
714 0 67.0187 11.5639 775 75.6374 1289.36 488.361
715 0 67.0187 11.5789 776 122.691 1290.37 488.394
716 0 71.0454 10.993 781 76.0845 1288.71 485.648
717 0 74.0434 10.926 809 74.78 1288.6 483.799
718 0 75.0746 10.9758 824 74.4794 1289.12 484.035
719 0 79.0408 10.7666 851 71.0517 1289.23 482.542
720 1 36.0346 8.10333 292 67.9178 1289.61 505.688
721 0 36.034 9.07477 327 67.8716 1289.94 504.419
722 0 38.0388 9.41145 358 67.5475 1289.43 505.771
723 0 41.0222 8.92201 366 68.8197 1289.33 503.317
724 0 43.0668 10.4024 448 65.9844 1289.18 503.375
725 0 43.0668 10.4024 448 95.5312 1290.18 503.375
726 0 46.0293 10.2543 472 67.2585 1289.01 502.492
727 0 49.0174 11.2205 550 66.5164 1289.08 502.105
728 0 50.0107 10.9177 546 67.9139 1289.03 500.504
729 0 50.0208 11.3153 566 67.8728 1288.79 499.668
730 0 50.0531 10.8285 542 69.1089 1288.98 499.236
731 0 55.0682 11.5675 637 69.2653 1289.08 497.923
732 0 56.0626 11.7547 659 72.2367 1288.86 498.329
733 0 58.1047 11.6858 679 75.3667 1288.75 496.607
734 0 62.0573 12.1501 754 75.13 1289.45 496.158
735 0 62.0706 11.8575 736 78.1861 1288.14 494.512
736 0 66.046 12.2188 807 79.1239 1288.36 492.906
737 0 68.1717 12.6885 865 87.6751 1288.74 494.227
738 0 72.0391 12.7708 920 87.3174 1288.46 493.1
739 0 73.1383 12.825 938 89.7932 1288.76 492.358
740 0 76.1504 12.7117 968 91.2913 1288.41 488.935
741 0 78.1681 12.601 985 92.1706 1288.15 488.193
742 0 80.1506 12.5888 1009 93.995 1287.89 485.248
743 0 82.1345 13.2222 1086 93.5589 1288.04 484.097
744 0 85.1614 13.0458 1111 93.7219 1288.81 483.824
745 0 86.2228 12.9432 1116 94.6667 1288.2 483.941
746 1 46.1894 11.258 520 94.9731 1288.67 503.544
747 0 48.2029 11.5138 555 92.3189 1288.55 502.4
748 0 44.0372 11.5357 508 91.4508 1288.74 503.996
749 0 46.072 11.3735 524 91 1289.02 504.363
750 0 50.0283 11.9732 599 89.1336 1289.36 503.249
751 0 49.0449 12.0706 592 90.9054 1289.43 501.514
752 0 53.0458 12.4232 659 89.563 1289.65 500.416
753 0 54.0681 12.5582 679 92.0486 1289.46 499.355
754 0 57.05 12.0947 690 95.0493 1289.8 496.949
755 0 60.0225 13.1451 789 92.0748 1290.09 496.726
756 0 61.0912 12.2604 749 97.6502 1289.71 494.72
757 0 64.036 13.0083 833 99.8487 1289.49 493.571
758 0 66.0561 12.9435 855 100.53 1290.25 492.549
759 0 69.111 13.1817 911 100.027 1290.07 491.988
760 0 71.1181 12.7253 905 102.171 1289.69 491.013
761 0 72.0996 12.3163 888 103.955 1290.14 489.134
762 0 76.0975 13.2462 1008 102.239 1290.36 488.063
763 0 78.1695 13.2277 1034 104.175 1290.36 486.934
764 0 83.154 13.7336 1142 102.744 1289.86 487.146
765 0 85.1755 13.7363 1170 104.351 1289.85 486.856
766 0 87.2524 13.9137 1214 104.545 1289.8 485.336
767 0 90.0969 13.5077 1217 106.99 1289.56 482.365
768 0 94.1807 13.7077 1291 107.188 1289.7 480.302
769 0 95.23 13.9137 1325 108.857 1290.02 478.622
770 0 99.1912 14.1343 1402 107.751 1290.1 476.277
771 0 102.133 13.923 1422 108.495 1290.32 474.577
772 0 104.153 14.1426 1473 108.926 1290.63 472.507
773 0 107.245 14.7046 1577 106.159 1290.2 471.162
774 0 109.192 15.0103 1639 104.093 1289.79 472.217
775 0 109.237 14.1344 1544 107.345 1290.28 470.144
776 0 113.212 13.4703 1525 107.685 1290.4 468.626
777 0 117.188 13.6704 1602 107.297 1290.29 466.952
778 0 120.13 13.7101 1647 106.937 1290.05 465.627
779 0 125.166 13.7896 1726 106.236 1290.52 462.782
780 0 130.115 13.6802 1780 106.857 1290.39 461.796
781 0 133.107 13.3953 1783 108.648 1289.71 458.329
782 0 138.148 13.1092 1811 109.255 1290.35 455.071
783 0 145.199 14.7177 2137 104.149 1289.68 452.857
784 0 149.098 13.9104 2074 107.226 1289.85 449.588
785 0 156.223 14.0248 2191 107.578 1289.62 448.916
786 0 160.165 13.9357 2232 107.61 1290.26 444.975
787 1 83.0691 11.665 969 102.05 1290.58 485.714
788 0 86.071 11.8855 1023 102.772 1290.52 483.37
789 0 89.1075 12.3222 1098 103.407 1290.65 484.797
790 1 49.0641 11.6786 573 104.387 1291.07 499.778
791 0 49.0325 11.7065 574 99.4564 1290.41 497.275
792 0 50.0283 11.9532 598 96.6154 1291.81 499.57
793 0 51.0238 11.426 583 92.8885 1291.03 500.818
794 0 53.0317 11.4648 608 92.4408 1290.95 499.701
795 0 53.0256 11.089 588 93.7415 1291.29 497.168
796 0 55.0122 11.143 613 92.4861 1291.81 497.152
797 0 56.0924 11.4454 642 90.4611 1290.91 498.463
798 0 58.0752 11.0891 644 90.9255 1291.46 496.348
799 0 61.0221 11.3565 693 88.8442 1291.54 495.886
800 0 63.0275 11.2015 706 89.2946 1291.84 495.132
801 0 65.0228 11.519 749 89.2657 1291.92 493.271
802 0 66.0892 11.0003 727 89.9422 1291.53 492.805
803 0 71.0356 11.3605 807 87.2986 1292.03 492.315
804 0 73.0582 11.4566 837 86.9713 1291.51 490.74
805 0 75.0385 11.3542 852 87.5434 1290.98 490.083
806 0 77.0791 10.8071 833 87.9616 1291.12 489.687
807 0 80.0876 11.2002 897 86.8885 1290.93 488.446
808 0 84.0616 11.0157 926 87.0745 1290.8 485.705
809 1 45.0745 11.004 496 86.8286 1291.59 503.964
810 0 45.0786 10.9808 495 85.7778 1290.97 504.576
811 0 47.0105 11.1039 522 85.0115 1290.68 502.284
812 0 48.057 11.6944 562 84.4715 1290.76 502.612
813 0 50.0111 11.5374 577 81.9255 1289.96 501.712
814 0 48.0333 11.4087 548 82.4927 1289.81 502.104
815 0 49.0475 11.2748 553 82.774 1290.17 502.544
816 0 53.0399 11.3499 602 82.4103 1290.46 501.618
817 0 53.0701 11.4 605 82.8992 1289.64 501.598
818 0 54.0674 11.5042 622 83.381 1290.16 500.076
819 0 56.1143 11.3518 637 83.9215 1290.31 499.863
820 0 58.0435 11.4914 667 83.3568 1290 497.982
821 0 59.0243 11.4698 677 85.3043 1290.04 498.074
822 0 63.0435 11.4366 721 85.6394 1290.23 496.961
823 0 64.1044 12.0585 773 85.7917 1289.25 496.255
824 0 67.0834 12.2832 824 85.2415 1289.22 494.886
825 0 70.1064 12.1387 851 86.5746 1288.9 495.693
826 0 72.0485 12.2834 885 87.3412 1288.66 493.866
827 0 74.0974 12.0517 893 89.6428 1288.52 493.718
828 0 75.0613 11.3907 855 91.6643 1289.09 492.795
829 0 75.0613 11.404 856 131.952 1289.08 492.828
830 0 79.0555 11.7512 929 93.0344 1288.83 491.381
831 0 83.0705 11.4722 953 93.9297 1288.99 488.861
832 0 85.2032 11.7953 1005 95.2159 1288.43 489.264
833 0 89.2513 11.8206 1055 94.3981 1288.72 486.973
834 1 49.1195 11.5025 565 97.5133 1288.14 507.405
835 0 51.0589 11.5357 589 99.6927 1288.32 506.591
836 0 46.0669 10.4848 483 93.3975 1289.76 508.569
837 0 50.0377 10.9517 548 90.1442 1289.97 507.119
838 0 51.0218 10.9561 559 91.322 1289.6 505.381
839 0 52.0908 11 573 91.3665 1288.9 505.382
840 0 55.1266 11.0292 608 91.2089 1288.51 503.523
841 0 58.1071 11.5649 672 89.2262 1288.28 502.85
842 0 61.1154 10.881 665 91.3699 1289.17 501.994
843 0 62.1697 11.1147 691 90.0043 1288.52 499.724
844 0 63.1086 11.8843 750 88.3747 1288.63 498.876
845 0 65.2777 11.5047 751 89.4341 1288.84 498.573
846 0 69.1707 11.8403 819 87.7961 1288.43 497.637
847 0 70.203 11.0679 777 91.4389 1289.1 497.008
848 0 72.2215 11.7693 850 91.0424 1289.12 492.732
849 0 74.2438 11.6104 862 91.9188 1288.39 492.464
850 0 76.2878 11.4173 871 93.4282 1289.27 492.603
851 0 78.2247 11.5309 902 93.8625 1288.88 490.559
852 0 83.3439 11.7585 980 93.2327 1287.91 486.681
853 0 84.2569 11.2276 946 96.4313 1288.71 488.523
854 0 87.2861 12.0523 1052 93.6407 1289.29 488.467
855 0 90.2352 12.0795 1090 94.111 1288.66 486.749
856 0 92.1917 11.8666 1094 96.7294 1289.19 484.527
857 1 48.1354 12.3817 596 100.359 1288.74 504.401
858 0 50.0847 11.6203 582 104.304 1288.31 503.713
859 0 51.0682 11.5728 591 106.386 1289.45 503.066
860 0 53.0598 12.1938 647 104.046 1289.66 503.277
861 0 55.0312 13.1743 725 100.677 1287.77 501.662
862 0 55.0095 12.7978 704 104.224 1287.93 499.739
863 0 56.0312 12.386 694 104.7 1288.69 498.304
864 0 57.0289 11.9939 684 106.923 1287.92 497.349
865 0 58.0255 12.7358 739 105.483 1287.76 496.357
866 0 62.0376 11.9927 744 105.649 1287.75 495.547
867 0 62.0394 12.1374 753 100.693 1288.21 492.652
868 0 64.1414 12.0671 774 106.5 1289.23 489.006
869 0 64.0578 12.1765 780 105.351 1288.86 489.318
870 0 67.0246 12.488 837 107.742 1288.27 490.464
871 0 71.0326 12.7688 907 105.668 1288.08 490.671
872 0 72.0362 13.0629 941 101.108 1287.62 487.73
873 0 74.0343 13.0075 963 105.617 1288.01 488.304
874 0 76.0286 12.8504 977 108.158 1288.21 485.03
875 0 79.0715 13.355 1056 108.133 1288.44 480.681
876 0 80.0697 13.0886 1048 108.152 1288.76 484.965
877 0 82.037 13.3964 1099 107.495 1288.53 482.804
878 0 84.0577 13.3242 1120 107.53 1288.34 480.512
879 0 87.0344 13.7417 1196 105.117 1288.96 483.104
880 0 89.0705 13.0795 1165 108.198 1288.11 477.906
881 0 92.0383 13.3423 1228 106.033 1288.19 478.075
882 0 94.0911 13.3275 1254 106.258 1288.93 476.123
883 0 97.1175 13.8698 1347 104.817 1288.97 474.132
884 0 99.0777 13.7569 1363 105.018 1288.71 474.131
885 0 102.145 13.1185 1340 104.851 1287.92 461.604
886 0 103.053 13.362 1377 108.163 1288.4 460.876
887 0 109.11 14.0225 1530 103.416 1288.56 468.99
888 0 109.181 13.647 1490 105.842 1289.1 466.072
889 0 114.184 14.2665 1629 101.324 1288.47 465.127
890 0 118.267 13.7063 1621 102.326 1288.5 461.41
891 0 123.174 14.1669 1745 99.3542 1288.61 461.528
892 0 127.155 13.6762 1739 100.117 1288.92 458.96
893 0 131.132 13.6275 1787 99.366 1289.16 456.644
894 0 136.154 14.6892 2000 95.7115 1289.33 456.244
895 0 139.217 13.8201 1924 98.9272 1289.17 452.127
896 1 72.0815 11.265 812 103.979 1289.02 484.516
897 0 75.1206 11.7012 879 107.922 1288.57 486.35
898 0 80.1175 12.5441 1005 106.28 1289.12 486.146
899 0 83.2109 13.5199 1125 98.3004 1289.69 484.8
900 0 85.1255 13.3333 1135 97.2546 1289.02 483.181
901 0 87.1496 13.3449 1163 98.6423 1288.28 482.336
902 0 91.1081 13.5663 1236 97.8981 1288.72 480.373
903 0 95.1216 13.8034 1313 95.5217 1288.86 478.685
904 0 97.1103 13.531 1314 96.6606 1288.84 476.397
905 0 100.114 13.4547 1347 97.9963 1289.43 474.722
906 0 103.173 13.6567 1409 97.9468 1289.46 472.568
907 0 105.148 13.3906 1408 99.6946 1289.46 470.696
908 1 56.0932 11.6948 656 105.866 1289.79 493.956
909 0 57.0665 11.8984 679 103.947 1289.16 494.158
910 0 60.034 13.0926 786 99.0356 1288.38 492.324
911 0 60.034 13.1759 791 147.685 1287.39 492.293
912 0 60.0289 13.227 794 146.994 1286.38 492.315
913 0 64.0335 12.9151 827 99.6505 1290.26 491.713
914 0 67.026 12.607 845 97.9834 1290.16 490.434
915 0 69.0315 12.8782 889 98.2126 1290.16 489.736
916 0 71.0524 12.906 917 98.1865 1290.47 488.616
917 0 72.012 12.8867 928 98.3815 1289.84 487.605
918 0 76.036 13.5594 1031 95.8099 1290.04 486.874
919 0 77.0554 13.4838 1039 97.0029 1290.1 486.295
920 0 81.066 13.5815 1101 94.7775 1289.88 486.947
921 0 81.0401 12.7098 1030 98.1583 1290.09 484.92
922 0 85.024 13.655 1161 95.0319 1290.3 482.622
923 0 86.0426 12.5984 1084 92.5959 1289.66 480.924
924 0 86.0364 12.0995 1041 93.757 1288.66 478.944
925 0 93.1264 13.1112 1221 97.8575 1289.17 482.561
926 0 90.1227 12.2611 1105 159.642 1289.24 480.495
927 0 98.1153 13.107 1286 98.902 1289.36 479.795
928 0 99.1581 12.3237 1222 100.064 1288.19 478.73
929 1 52.0662 11.6006 604 96.707 1287.62 501.917
930 0 53.0241 11.8437 628 96.9188 1287.84 500.688
931 0 53.0329 11.7474 623 90.8299 1288.4 496.61
932 0 56.1485 12.3245 692 96.4798 1288.28 498.503
933 0 58.0828 12.7232 739 93.7348 1287.7 500.288
934 0 60.091 12.3812 744 94.3562 1288.36 498.634
935 0 57.0499 10.6573 608 89.9375 1287.91 501.304
936 0 61.0397 11.2058 684 89.1725 1287.47 500.383
937 0 63.0653 11.4802 724 88.8191 1287.3 499.807
938 0 63.0109 11.7599 741 90.6451 1286.85 498.109
939 0 66.0195 12.254 809 88.8504 1286.71 497.967
940 0 70.0603 11.5757 811 88.635 1286.58 496.58
941 0 71.1484 11.975 852 88.3955 1286.3 495.593
942 0 75.1144 12.0749 907 87.3275 1286.26 493.691
943 0 76.0552 12.1754 926 87.7786 1286.43 492.516
944 0 76.0552 12.2411 931 144.646 1286.4 492.373
945 0 82.0985 12.6068 1035 88.1749 1286.18 490.941
946 0 84.1481 13.1673 1108 88.3096 1286.24 487.008
947 0 88.1509 12.9437 1141 88.2577 1286.09 486.011
948 0 91.164 13.0644 1191 89.8606 1286.66 483.503
949 0 91.1706 12.7124 1159 92.0595 1287.03 481.917
950 0 96.1472 13.2089 1270 98.526 1287.6 480.037
951 0 99.1857 13.5806 1347 101.432 1287.31 480.76
952 0 102.132 14.1777 1448 101.544 1288.98 478.264
953 0 104.242 13.4303 1400 105.531 1288.4 476.408
954 0 107.234 13.7363 1473 105.79 1288.73 472.559
955 0 111.198 13.4805 1499 95.2722 1287.96 469.518
956 0 115.133 14.0968 1623 93.0308 1287.81 470.297
957 0 116.299 13.5083 1571 95.648 1288.66 466.379
958 0 123.273 14.4639 1783 94.5883 1288.59 464.661
959 0 128.203 13.6658 1752 97.6056 1288.4 464.325
960 0 132.246 13.7546 1819 98.0764 1288.05 462.43
961 1 69.0534 11.0349 762 89.4488 1288.12 495.353
962 0 72.0684 10.9063 786 89.5013 1288.16 493.738
963 0 76.1361 11.138 848 87.6474 1288.31 493.316
964 0 79.1027 11.7442 929 87.7352 1288.37 492.617
965 0 82.0414 12.0549 989 88.6957 1288.58 490.613
966 0 83.0731 11.1709 928 90.7586 1288.74 488.512
967 0 87.0396 11.9716 1042 88.8599 1288.67 485.853
968 0 90.1413 12.314 1110 88.073 1288.61 486.186
969 0 93.053 12.7562 1187 88.6681 1288.7 482.974
970 0 98.0373 12.7095 1246 88.4936 1288.48 482.254
971 0 100.057 12.133 1214 91.1689 1288.45 479.487
972 0 104.068 12.3189 1282 89.4423 1288.51 477.835
973 0 108.083 12.5182 1353 88.6962 1289 476.24
974 1 59.0195 10.8947 643 88.9067 1289.29 499.723
975 0 60.0472 11.6575 700 86.6214 1288.98 498.44
976 0 63.0469 12.229 771 85.9637 1289.91 497.34
977 0 64.0251 12.1983 781 86.4763 1289.68 496.472
978 0 69.0996 12.1708 841 89.7265 1289.31 495.225
979 0 71.0639 12.7209 904 91.3684 1290.87 494.325
980 0 72.1603 12.0565 870 93.8011 1291.37 492.609
981 0 75.1106 13.1806 990 91.0283 1290.75 491.627
982 0 76.0881 12.2753 934 84.2762 1291.01 491.075
983 0 79.0799 12.7213 1006 83.7684 1290.66 490.283
984 0 81.1511 13.5426 1099 84.9991 1290.38 490.565
985 0 84.1512 13.8322 1164 83.3204 1290.54 486.243
986 0 87.0694 13.4605 1172 84.9804 1290.02 484.805
987 0 90.119 13.1937 1189 87.1463 1290.78 483.901
988 0 91.1206 13.0925 1193 87.6002 1290.78 482.067
989 0 93.057 13.121 1221 88.267 1289.86 480.258
990 0 96.1271 12.8788 1238 89.7068 1289.75 478.599
991 0 98.1212 13.2795 1303 89.2878 1290.49 478.404
992 0 103.088 13.6 1402 89.0064 1290.86 476.292
993 0 104.078 13.6916 1425 89.0575 1290.27 475.188
994 0 110.185 13.5408 1492 103.599 1289.82 472.131
995 0 112.096 14.095 1580 102.656 1290.11 471.054
996 0 115.127 13.1855 1518 105.508 1290.38 467.797
997 1 59.0684 11.2074 662 96.2311 1289.28 497.926
998 0 60.0445 11.6081 697 95.6126 1288.71 496.274
999 0 64.0628 12.8312 822 97.6898 1289.36 494.511
1000 0 67.0409 12.4103 832 99.9579 1290.04 494.032
1001 0 69.189 12.1985 844 99.5711 1290.3 492.47
1002 0 70.1331 12.7329 893 99.6125 1290.26 490.952
1003 0 74.1135 12.7642 946 97.1406 1290.36 491.408
1004 0 73.1759 12.2171 894 99.7371 1290.71 490.179
1005 0 78.1132 12.5075 977 97.6592 1290.77 489.016
1006 0 80.1335 12.7662 1023 96.2669 1291.22 487.831
1007 0 83.1214 13.366 1111 96.3033 1291.22 486.653
1008 0 85.0872 12.8339 1092 97.1502 1290.9 485.181
1009 0 88.1334 12.7761 1126 97.7922 1290.5 482.504
1010 0 91.1865 12.8747 1174 98.2888 1291.32 481.113
1011 0 93.1281 13.2076 1230 97.8854 1290.74 480.061
1012 0 97.2149 13.1358 1277 97.2576 1290.17 478.567
1013 0 98.3385 12.6909 1248 99.5248 1290.18 476.506
1014 1 54.1006 11.4416 619 93.5153 1290.5 499.984
1015 0 55.115 11.1403 614 92.5928 1289.87 498.451
1016 0 55.1415 12.3138 679 89.3726 1289.79 496.193
1017 0 57.0461 12.0078 685 86.3825 1291.1 498.996
1018 0 59.025 11.5375 681 87.696 1291.51 496.743
1019 0 60.0629 11.1383 669 88.272 1291.43 496.396
1020 0 64.0248 12.3546 791 85.9418 1291.25 494.798
1021 0 65.0754 11.8785 773 86.6818 1292.15 494.969
1022 0 68.0661 12.3263 839 85.5948 1291.74 493.83
1023 0 70.0378 11.9792 839 86.5578 1292.64 493.33
1024 0 74.0525 11.8565 878 86.8064 1292.65 490.353
1025 0 76.0798 12.7629 971 85.5829 1291.57 489.51
1026 0 77.0499 12.3167 949 88.3393 1291.22 487.423
1027 0 79.1105 12.2613 970 89.7897 1291.54 486.296
1028 0 81.1173 12.9565 1051 90.9353 1290.62 485.416
1029 0 86.1436 13.315 1147 90.9241 1290.89 484.235
1030 0 87.1759 12.9852 1132 92.9178 1290.09 483.086
1031 0 91.1751 14.1596 1291 91.7676 1292 481.153
1032 0 93.0803 13.859 1290 93.8845 1291.29 480.353
1033 0 93.1156 13.886 1293 97.3302 1291.36 479.119
1034 0 93.1156 13.9504 1299 156.321 1291.35 479.055
1035 0 100.04 14.1244 1413 96.0545 1291.05 476.94
1036 0 103.095 14.0161 1445 99.6554 1291.97 476.736
1037 0 106.087 13.7435 1458 99.0919 1291.86 474.772
1038 0 108.107 14.2822 1544 98.7733 1291.43 473.736
1039 0 112.114 14.7083 1649 96.8314 1290.75 470.936
1040 0 114.141 13.7988 1575 97.1854 1291.29 468.743
1041 1 61.0554 10.9409 668 87.3683 1290.16 494.714
1042 0 63.0337 10.7403 677 86.9675 1290.67 488.154
1043 0 63.1022 12.3926 782 86.1816 1291.7 495.73
1044 0 67.075 12.6127 846 85.2187 1291.35 493.877
1045 0 70.0599 13.2886 931 83.2653 1291.49 492.821
1046 0 71.0448 12.5836 894 85.8557 1291.69 491.933
1047 0 74.0657 12.4619 923 86.0563 1291.71 491.193
1048 0 77.0774 13.5578 1045 82.7579 1291.06 490.564
1049 0 77.0448 12.8886 993 85.7936 1291.82 487.078
1050 0 79.0471 12.8025 1012 85.8626 1291.24 486.035
1051 0 83.1448 12.4121 1032 86.6986 1290.79 484.191
1052 0 87.1681 12.7225 1109 85.5392 1291.09 483.237
1053 0 90.0901 12.3654 1114 85.3375 1290.93 480.576
1054 0 92.0529 12.9925 1196 88.1087 1291.46 479.425
1055 0 94.0816 12.1171 1140 90.9982 1291.28 478.621
1056 0 99.0952 12.5637 1245 89.641 1291.67 478.214
1057 1 50.0495 10.9691 549 91.5556 1291.58 503.135
1058 0 52.0756 11.2529 586 91.4215 1291.78 501.713
1059 0 53.071 12.097 642 90.5156 1291.42 499.475
1060 0 55.0814 11.8552 653 92.6447 1291.1 500.038
1061 0 55.0581 11.3335 624 88.5561 1291.09 502.407
1062 0 56.0573 12.0234 674 87.7834 1290.99 501.585
1063 0 57.073 11.4765 655 89.4489 1291.19 501.476
1064 0 59.062 11.2763 666 90.6411 1290.92 500.164
1065 0 60.0647 11.4876 690 90.1101 1290.59 498.038
1066 0 63.1067 11.4251 721 90.4258 1290.71 497.993
1067 0 65.0256 12.1029 787 89.2986 1291.22 495.139
1068 0 68.0349 12.3025 837 89.5759 1290.89 495.166
1069 0 69.0543 12.4829 862 90.0603 1290.91 495.434
1070 0 71.0543 12.0893 859 91.7567 1290.69 494.168
1071 0 74.0739 12.1635 901 92.3196 1290.57 493.21
1072 0 76.0523 12.2021 928 93.7338 1290.59 491.736
1073 0 77.0486 12.4856 962 93.501 1290.42 490.162
1074 0 81.06 12.2008 989 94.4712 1290.81 488.532
1075 0 84.024 12.425 1044 96.3343 1290.12 487.071
1076 0 86.0341 13.0065 1119 96.487 1290.78 484.739
1077 0 88.0662 13.1151 1155 97.8087 1290.64 483.354
1078 0 91.0837 12.9551 1180 98.9364 1290.59 480.1
1079 0 93.061 12.9163 1202 99.4617 1290.76 482.507
1080 0 96.1354 12.5448 1206 100.301 1291.02 482.685
1081 0 99.1466 13.3943 1328 97.195 1291.07 481.899
1082 0 102.064 12.5118 1277 100.148 1290.46 478.652
1083 1 59.0321 11.3498 670 103.925 1290.6 498.849
1084 0 62.0795 11.9202 740 100.884 1290.69 497.966
1085 0 62.0815 11.2111 696 93.8807 1289.84 493.243
1086 0 66.0725 12.8041 846 97.6619 1290.29 497.226
1087 0 66.0579 12.4285 821 100.191 1289.81 496.213
1088 0 70.0873 13.0837 917 97.9258 1290.57 495.012
1089 0 73.1083 13.8288 1011 108.585 1290.85 494.496
1090 0 74.1011 12.7798 947 111.059 1291.26 493.139
1091 0 76.0812 12.9073 982 110.424 1290.6 491.88
1092 0 78.052 13.4269 1048 109.846 1290.56 491.628
1093 0 80.0687 13.1887 1056 111.053 1290.63 489.411
1094 0 84.1012 13.6621 1149 109.3 1291.13 488.178
1095 0 85.0592 13.5082 1149 111.632 1290.8 487.36
1096 0 88.1916 14.0376 1238 108.801 1289.95 486.298
1097 0 91.0906 13.9092 1267 108.6 1291.35 485.226
1098 0 93.3135 13.8458 1292 109.562 1290.64 484.234
1099 0 95.1857 14.4559 1376 106.616 1292.14 483.288
1100 0 98.2052 13.8995 1365 109.936 1291.29 479.655
1101 0 104.276 14.0109 1461 108.598 1290.34 476.927
1102 0 104.305 13.8345 1443 109.711 1290.52 476.429
1103 0 109.351 13.8819 1518 111.837 1290.87 472.605
1104 0 110.427 13.6199 1504 111.321 1290.33 461.164
1105 1 55.0729 10.8583 598 103.676 1290.08 489.018
1106 0 56.1349 12.2027 685 101.523 1290.38 487.731
1107 0 61.2381 12.6392 774 91.9703 1290.58 490.335
1108 0 60.1462 12.9684 780 93.9346 1291.07 494.937
1109 0 66.068 13.8948 918 98.951 1291.27 497.049
1110 0 66.0388 13.2044 872 103.584 1291.08 496.894
1111 0 68.0961 13.2901 905 102.767 1290.81 495.534
1112 0 69.0619 13.22 913 104.065 1290.16 494.576
1113 0 70.0953 12.6399 886 106.262 1289.97 492.963
1114 0 74.1004 12.753 945 106.179 1289.27 491.659
1115 0 78.0472 13.889 1084 102.363 1289.4 489.966
1116 0 80.0527 12.9789 1039 105.607 1289.97 489.127
1117 0 83.0544 13.6055 1130 104.224 1289.35 487.841
1118 0 84.0815 13.3085 1119 105.939 1289.63 485.909
1119 0 90.1575 14.1419 1275 102.43 1289.52 484.513
1120 0 92.044 14.0368 1292 103.133 1289.59 482.642
1121 0 93.0817 13.558 1262 105.332 1289.52 481.021
1122 0 98.0839 13.7331 1347 104.507 1289.19 480.257
1123 0 103.127 14.4095 1486 102.172 1289.45 477.303
1124 1 52.0404 12.2213 636 110.825 1289.19 500.947
1125 0 54.1206 12.2874 665 113.621 1289.6 497.716
1126 0 56.1075 13.1177 736 109.784 1289.73 498.071
1127 0 58.0753 13.2931 772 109.338 1289.6 497.052
1128 0 59.0719 13.2381 782 111.843 1289.5 495.964
1129 0 64.0387 13.6792 876 108.841 1290.05 496.242
1130 0 64.0205 13.7768 882 109.892 1289.52 494.477
1131 0 67.0363 13.7388 921 109.347 1289.98 494.473
1132 0 67.0372 13.7386 921 111.059 1290.02 494.193
1133 0 70.0292 12.9375 906 111.705 1289.69 493.666
1134 0 70.1336 12.519 878 106.466 1289.3 493.47
1135 0 73.074 13.2605 969 111.002 1289.02 493.556
1136 0 75.0893 12.8514 965 113.041 1288.83 493.027
1137 0 78.151 12.9365 1011 114.238 1289.55 489.872
1138 0 80.0467 13.3672 1070 113.669 1288.96 488.717
1139 0 83.0539 13.5213 1123 112.713 1289.39 487.3
1140 0 86.0896 13.6253 1173 112.049 1289.28 486.064
1141 0 87.1037 13.6848 1192 112.17 1289.07 484.028
1142 0 90.1433 13.5007 1217 112.498 1288.8 482.189
1143 0 93.0663 13.442 1251 111.608 1288.47 480.171
1144 0 95.0912 13.2925 1264 112.458 1288.36 479.384
1145 0 99.1593 13.3623 1325 112.318 1288.7 476.359
1146 1 54.0622 10.9688 593 113.358 1288.5 497.086
1147 0 56.0805 11.5192 646 111.008 1289.15 496.257
1148 0 56.037 11.5103 645 112.775 1289.57 495.623
1149 0 59.0686 12.3754 731 94.7688 1288.8 500.86
1150 0 61.0389 12.5494 766 94.9817 1288.39 500.678
1151 0 64.0447 12.8816 825 94.2861 1288.34 499.201
1152 0 66.0531 12.4143 820 96.9024 1287.78 497.57
1153 0 67.0347 11.8894 797 99.7491 1288.47 497.754
1154 0 70.0236 12.9242 905 97.7193 1287.95 496.432
1155 0 72.0402 13.1454 947 97.905 1288.06 495.178
1156 0 74.0463 12.9784 961 99.6524 1287.33 493.186
1157 0 76.066 13.015 990 100.427 1287.96 492.206
1158 0 78.1025 12.522 978 102.531 1288.43 491.359
1159 0 81.1317 12.7447 1034 101.5 1288.13 491.994
1160 0 83.1102 12.7782 1062 103.218 1288.27 489.008
1161 0 85.0984 12.6442 1076 104.138 1288.22 488.999
1162 0 86.1107 12.5071 1077 105.329 1288.2 487.527
1163 0 88.1039 12.542 1105 106.374 1288.54 484.368
1164 0 91.0837 12.8453 1170 105.56 1288.12 484.391
1165 0 93.2438 12.7837 1192 105.96 1288.41 483.939
1166 0 97.2082 13.2191 1285 104.547 1288.72 481.1
1167 0 97.1867 13.1705 1280 149.896 1288.71 480.959
1168 0 101.203 13.0629 1322 104.505 1288.48 476.376
1169 0 104.093 13.2958 1384 103.094 1288.49 476.429
1170 0 110.114 13.0955 1442 102.5 1288.25 474.777
1171 0 113.206 12.888 1459 101.709 1288.09 472.502
1172 0 118.099 13.2093 1560 98.3179 1287.99 472.909
1173 0 122.113 12.4312 1518 102.336 1288 467.164
1174 1 65.0788 11.0789 721 102.237 1288.25 494.914
1175 0 69.1416 12.0622 834 96.8813 1288.24 492.713
1176 0 72.0714 12.6264 910 98.0714 1289.08 484.056
1177 0 74.1162 12.8312 951 100.485 1288.07 491.531
1178 0 76.1148 13.2432 1008 100.218 1287.29 491.562
1179 0 78.2551 12.9576 1014 100.169 1287.83 490.863
1180 0 79.1386 13.0657 1034 100.973 1287.99 489.401
1181 0 81.1874 12.7606 1036 101.651 1287.92 487.691
1182 0 82.1512 13.5604 1114 101.683 1287.89 486.716
1183 0 87.136 13.3584 1164 101.96 1287.88 484.186
1184 0 90.1712 13.3635 1205 100.873 1288.13 484.281
1185 0 90.0645 12.7464 1148 105.829 1288.41 479.86
1186 0 94.1331 13.4172 1263 104.514 1288.81 478.795
1187 0 98.2441 13.1713 1294 103.471 1288.56 477.726
1188 0 97.0892 12.5864 1222 108.139 1287.79 477.05
1189 0 102.113 13.1031 1338 105.278 1288.38 473.795
1190 0 104.141 12.6847 1321 107.574 1288.74 472.671
1191 0 106.134 12.7292 1351 107.905 1288.97 471.217
1192 0 110.151 13.3726 1473 106.701 1289.41 471.577
1193 0 112.065 13.6171 1526 106.796 1288.41 467.84
1194 0 116.068 13.8281 1605 105.938 1288.53 467.113
1195 0 120.071 13.5503 1627 107.13 1288.65 466.735
1196 0 124.17 13.8922 1725 105.692 1288.39 462.55
1197 0 125.083 13.7029 1714 107.306 1287.87 463.17
1198 0 130.113 14.0262 1825 107.113 1287.77 459.912
1199 0 132.111 13.587 1795 108.863 1287.59 458.672
1200 0 135.174 14.093 1905 108.543 1287.84 458.55
1201 0 140.148 13.9282 1952 106.727 1287.97 456.652
1202 0 143.164 13.9211 1993 102.899 1288.13 450.071
1203 0 143.212 13.3997 1919 105.172 1287.67 445.231
1204 0 148.174 13.5651 2010 105.578 1287.98 442.346
1205 0 149.144 13.2221 1972 107.735 1288.46 438.904
1206 0 154.203 13.5535 2090 106.868 1288.66 438.427
1207 0 162.165 13.8254 2242 104.896 1289.14 437.593
1208 0 167.163 13.4719 2252 105.689 1288.92 433.457
1209 0 177.225 14.0104 2483 104.077 1288.92 431.154
1210 0 181.16 13.6288 2469 105.217 1288.7 429.467
1211 0 186.322 13.2727 2473 105.086 1288.29 427.904
1212 1 104.118 9.95984 1037 96.4407 1288.19 474.292
1213 0 108.157 11.3816 1231 95.1438 1288.56 473.907
1214 0 113.141 12.4005 1403 96.6201 1287.9 467.662
1215 0 117.092 12.4091 1453 95.3703 1288.97 472.398
1216 0 122.08 12.1478 1483 105.548 1289.48 469.536
1217 0 125.142 12.6576 1584 103.148 1288.75 465.71
1218 0 128.145 12.4469 1595 100.683 1288.84 464.081
1219 0 132.143 11.9265 1576 102.05 1288.81 461.832
1220 0 136.086 11.8454 1612 101.146 1288.88 460.241
1221 0 142.097 12.3929 1761 96.9682 1289.23 460.444
1222 0 144.156 12.1327 1749 98.0577 1288.54 456.611
1223 0 149.294 12.4117 1853 98.1479 1288.45 453.354
1224 0 153.199 12.1606 1863 98.8873 1288.7 450.899
1225 0 157.187 12.0621 1896 99.5601 1289.22 447.346
1226 0 162.21 12.2187 1982 100.043 1289.31 445.884
1227 0 167.184 11.3169 1892 101.713 1288.96 442.87
1228 1 315.265 14.372 4531 104.437 1288.9 363.103
1229 1 100.09 10.3507 1036 92.3552 1289.23 478.783
1230 0 105.057 11.0606 1162 91.1695 1289.17 475.275
1231 0 108.089 10.7041 1157 93.3587 1288.37 472.975
1232 0 112.126 11.2374 1260 90.3071 1289.05 474.196
1233 0 115.097 11.0863 1276 91.7461 1289.22 470.386
1234 0 119.121 10.9636 1306 91.6057 1289 468.877
1235 0 123.132 11.1263 1370 92.719 1289.35 465.56
1236 0 123.122 10.8672 1338 94.4111 1289.46 465.654
1237 0 130.188 11.7292 1527 92.7341 1289.04 464.175
1238 1 72.0971 9.33463 673 93.2184 1288.61 491.727
1239 0 77.063 9.39491 724 92.3481 1288.87 491.123
1240 0 78.0987 10.4739 818 91.0868 1288.66 489.874
1241 0 79.1481 10.1455 803 91.8966 1288.89 489.286
1242 0 84.1783 11.5707 974 87.8419 1288.85 489.681
1243 0 85.1801 11.8338 1008 88.8393 1288.28 485.915
1244 0 90.2202 13.068 1179 86.8041 1289.01 485.151
1245 0 90.2101 12.615 1138 87.4033 1289.15 482.232
1246 0 93.2011 12.6822 1182 86.2665 1288.89 482.952
1247 0 96.1435 12.6582 1217 88.0707 1288.18 479.573
1248 0 98.1591 12.5103 1228 90.8347 1288.47 478.504
1249 0 102.196 12.7696 1305 90.1341 1288.55 477.554
1250 0 104.189 12.8229 1336 91.259 1288.55 475.105
1251 0 107.124 13.2557 1420 89.7901 1288.09 475.144
1252 0 110.228 13.4812 1486 90.4233 1288.62 473.835
1253 0 113.193 13.4726 1525 90.7567 1288.8 472.363
1254 0 115.119 12.8302 1477 94.174 1288.83 471.594
1255 0 114.181 11.184 1277 98.3148 1289.46 473.729
1256 0 116.163 11.1568 1296 98.9992 1288.39 470.901
1257 0 119.216 11.2485 1341 100.055 1289.36 468.908
1258 0 122.193 11.6209 1420 99.75 1288.5 464.68
1259 0 119.253 10.6329 1268 103.339 1288.43 450.139
1260 1 70.1288 10.0529 705 101.382 1288.55 481.433
1261 0 74.1428 10.8439 804 98.704 1288.47 483.17
1262 0 73.0902 11.219 820 94.6573 1288.74 474.104
1263 0 73.1114 10.6823 781 90.6031 1287.85 480.955
1264 0 78.0697 10.132 791 91.2604 1288.88 478.889
1265 0 73.133 9.81772 718 95.7883 1288.7 473.364
1266 0 82.1521 10.298 846 92.6265 1288.84 475.092
1267 0 83.0972 10.59 880 92.667 1289.07 473.897
1268 1 93.191 12.2007 1137 96.299 1289.14 480.078
1269 0 94.171 11.734 1105 98.3475 1288.6 477.301
1270 0 99.1874 12.552 1245 95.4627 1289.08 478.301
1271 0 102.162 12.8228 1310 94.8237 1288.82 476.843
1272 0 105.262 12.7397 1341 95.1499 1288.78 475.648
1273 0 107.201 12.3972 1329 95.8284 1288.69 474.704
1274 0 111.154 12.4782 1387 95.7102 1289.72 472.937
1275 0 113.163 12.4952 1414 96.3515 1289.72 470.081
1276 0 113.155 12.4608 1410 158.357 1289.74 469.996
1277 0 119.129 12.3899 1476 96.4566 1289.87 465.129
1278 1 64.1145 10.0601 645 87.955 1290.38 495.603
1279 0 65.0594 10.8055 703 82.8805 1290.39 494.676
1280 0 68.094 10.7498 732 82.7568 1289.52 493.034
1281 0 69.0572 11.7004 808 80.4394 1288.16 490.52
1282 0 72.0677 11.6973 843 82.2313 1290.02 491.571
1283 0 73.0805 11.111 812 84.3177 1290.37 491.425
1284 0 73.13 11.377 832 84.4639 1290.61 488.345
1285 0 79.1248 12.3476 977 81.3623 1290.36 488.546
1286 0 83.0501 12.7273 1057 79.4579 1290.55 488.734
1287 0 83.0501 12.7273 1057 129.69 1290.54 488.598
1288 0 84.0839 12.4994 1051 82.2322 1290.72 485.941
1289 0 87.0997 12.4225 1082 82.6636 1290.29 485.4
1290 0 90.1466 12.4242 1120 83.0438 1290.67 484.614
1291 0 93.2444 12.6764 1182 84.0178 1290.39 481.981
1292 0 95.1114 12.9637 1233 83.9765 1289.56 481.032
1293 0 98.1165 12.8928 1265 85.0775 1288.95 481.058
1294 0 100.196 12.5853 1261 86.8033 1289.51 478.991
1295 0 101.135 13.2496 1340 86.1224 1289.24 478.197
1296 0 104.091 12.9311 1346 88.6048 1289.58 475.68
1297 0 108.14 13.4085 1450 87.6145 1288.86 471.648
1298 0 110.115 12.6958 1398 88.2818 1289.03 472.862
1299 0 113.181 12.8114 1450 89.2007 1289.8 470.611
1300 0 116.189 12.9358 1503 91.829 1289.85 469.81
1301 0 117.208 12.3967 1453 93.6538 1289.56 467.021
1302 0 120.144 12.6515 1520 92.3553 1289.87 465.253
1303 0 125.149 12.4013 1552 91.6869 1289.11 464.2
1304 0 129.244 12.9368 1672 90.1651 1289.6 462.679
1305 0 132.303 12.5772 1664 92.488 1289.35 459.827
1306 0 134.228 12.7321 1709 93.6899 1289.21 458.136
1307 0 139.339 12.7029 1770 94.296 1289.04 455.281
1308 0 145.342 13.2997 1933 94.4827 1288.17 453.404
1309 0 149.26 13.3593 1994 94.9609 1288.17 450.889
1310 0 152.306 13.7618 2096 95.2696 1288.54 450.136
1311 0 156.304 13.4162 2097 96.5799 1288.94 447.941
1312 0 161.242 13.7805 2222 95.3839 1288.98 448.9
1313 0 165.254 13.3431 2205 97.7469 1288.19 444.545
1314 0 170.201 13.8601 2359 97.1878 1288.89 442.351
1315 0 175.292 13.7199 2405 97.4358 1288.78 439.8
1316 0 178.288 13.9718 2491 97.9201 1288.36 437.029
1317 0 182.281 13.6438 2487 99.8573 1288.04 434.508
1318 0 189.204 13.4141 2538 101.154 1288.25 431.662
1319 0 194.18 13.9201 2703 101.097 1287.88 427.267
1320 0 202.2 13.551 2740 101.702 1288.42 427.058
1321 0 207.167 13.8101 2861 102.023 1287.96 421.461
1322 0 214.174 13.2042 2828 103.854 1288.03 418.283
1323 0 219.191 13.8418 3034 103.892 1287.67 412.89
1324 0 224.204 13.7687 3087 105.465 1289.36 410.238
1325 0 230.166 14.3332 3299 105.484 1289.8 407.04
1326 0 235.188 14.0186 3297 108.869 1288.79 401.808
1327 0 241.17 13.8326 3336 110.529 1290.13 397.839
1328 0 248.201 13.8073 3427 112.496 1288.31 395.6
1329 0 256.183 14.5833 3736 112.516 1288.48 392.27
1330 0 261.204 15.0419 3929 112.85 1288.12 385.06
1331 0 270.192 15.1374 4090 112.916 1288.12 383.852
1332 0 278.246 15.3677 4276 112.77 1288.25 379.931
1333 0 287.332 15.0244 4317 115.141 1288.57 373.932
1334 0 296.244 15.1699 4494 115.471 1288.26 369.728
1335 1 321.298 21.8115 7008 93.6568 1287.84 343.977
1336 0 318.414 21.9651 6994 96.1178 1287.82 343.047
1337 0 312.304 16.0549 5014 116.838 1288.24 362.905
1338 0 320.335 15.5993 4997 117.555 1288.13 356.548
1339 0 329.37 15.7331 5182 118.82 1287.97 349.43
1340 0 339.519 15.6221 5304 120.048 1287.86 345.851
1341 0 350.455 15.9792 5600 118.736 1288.9 339.543
1342 1 65.1336 9.35001 609 88.9212 1288.46 495.365
1343 0 66.0568 9.61294 635 87.2331 1287.78 496.181
1344 0 64.0289 8.12133 520 86.6192 1287.63 501.354
1345 0 65.0204 8.79724 572 84.8934 1287.18 499.617
1346 0 68.0096 8.19001 557 85.3124 1286.96 499.558
1347 0 68.0245 8.23232 560 85.6554 1287.57 499.88
1348 0 70.0431 7.89514 553 85.6944 1287.83 498.501
1349 0 73.0411 8.1461 595 84.6538 1287.08 497.345
1350 0 76.0242 8.26052 628 84.992 1287.84 494.373
1351 0 78.0768 8.04336 628 83.2611 1288.52 494.689
1352 0 79.0392 8.32498 658 83.1459 1287.97 489.138
1353 0 81.0876 7.63372 619 84.1131 1288.07 489.223
1354 0 80.1212 6.71483 538 85.4814 1286.43 483.182
1355 0 86.094 8.04934 693 83.2468 1287.15 484.636
1356 0 86.0817 7.49289 645 84.2217 1288.09 488.428
1357 0 97.0793 9.32228 905 79.5282 1286.9 486.149
1358 0 92.1036 9.14188 842 81.6116 1286.31 481.866
1359 0 158.273 8.37795 1326 94.4472 1287.34 453.806
1360 0 172.38 13.5224 2331 85.1236 1287.52 440.857
1361 0 174.52 12.9555 2261 86.7324 1286.99 439.672
1362 0 179.593 13.9816 2511 84.2095 1287.28 434.726
1363 0 182.548 13.2896 2426 86.7663 1287.54 433.387
1364 0 185.647 13.6065 2526 86.1857 1287.59 430.364
1365 0 189.6 13.6551 2589 87.596 1287.76 429.623
1366 0 191.582 13.7696 2638 87.8503 1287.95 429.991
1367 0 194.643 13.7174 2670 89.5981 1287.68 424.352
1368 0 198.451 13.6256 2704 91.6716 1288.08 422.038
1369 0 204.391 13.8363 2828 90.1517 1287.96 422.321
1370 0 204.391 13.8705 2835 146.598 1287.96 422.243
1371 1 162.118 8.46912 1373 93.1449 1287.52 454.493
1372 0 162.14 7.10497 1152 97.9019 1288.47 452.063
1373 0 166.129 7.41594 1232 98.5049 1288.05 449.161
1374 0 165.138 7.71478 1274 96.8077 1287.95 450.045
1375 0 170.185 10.7118 1823 89.3637 1287.74 447.252
1376 0 171.215 9.70707 1662 92.5193 1287.59 442.268
1377 0 171.252 10.359 1774 84.9402 1287.19 441.495
1378 0 173.363 11.0577 1917 85.1189 1287.21 439.26
1379 1 111.045 7.52846 836 72.061 1288.08 482.53
1380 0 110.135 8.53496 940 72.3894 1288.31 477.845
1381 0 108.128 6.64954 719 75.0056 1288 482.412
1382 0 108.146 8.41452 910 73.3692 1288.24 476.414
1383 0 107.127 8.33592 893 73.3572 1288.09 473.48
1384 0 109.135 9.16294 1000 71.706 1287.23 473.975
1385 0 110.122 7.40995 816 71.7439 1287.58 482.635
1386 0 110.128 8.481 934 70.6724 1287.21 477.343
1387 0 112.034 7.97973 894 70.1454 1287.5 476.609
1388 0 111.131 8.60244 956 68.8682 1287.36 478.728
1389 0 108.151 7.84089 848 69.3314 1287.99 476.651
1390 0 110.111 6.32996 697 69.6786 1286.76 482.914
1391 0 103.131 7.40802 764 69.9202 1287.01 476.475
1392 0 112.108 7.18058 805 68.087 1287.63 479.771
1393 0 110.145 7.20871 794 67.8111 1287.13 475.95
1394 0 111.11 8.26212 918 66.7712 1287.42 471.541
1395 0 108.137 6.72295 727 67.923 1287.6 472.722
1396 0 108.202 8.12368 879 65.9443 1287.16 471.332
1397 1 200.224 10.5532 2113 93.2144 1286.97 409.203
1398 0 199.214 9.66801 1926 97.1033 1287.29 399.187
1399 0 209.29 9.14043 1913 97.5572 1287.16 396.808
1400 0 204.105 8.14777 1663 103.437 1287.05 388.065
1401 0 208.181 9.0066 1875 147.934 1287.1 396.902
1402 0 207.119 9.1059 1886 101.51 1287.17 381.951
1403 0 208.247 9.67602 2015 101.216 1286.61 385.777
1404 0 217.246 8.88394 1930 102.512 1285.86 386.631
1405 1 64.0317 12.7125 814 119.934 1285.73 379.975
1406 0 65.0422 12.9608 843 119.593 1286.15 379.725
1407 0 67.1306 12.5427 842 119.778 1286.06 378.787
1408 0 69.0875 13.273 917 118.737 1285.73 375.715
