time division length width area intensity CMx CMy
0 0 70.0487 13.8332 969 115.507 1220.91 482.143
1 0 72.0705 13.6255 982 115.186 1221.25 480.295
2 0 74.1576 13.9028 1031 112.831 1220.91 479.974
3 0 77.1363 13.703 1057 112.155 1221.05 478.485
4 0 78.0638 13.0662 1020 110.617 1221.4 478.676
5 0 84.048 13.3971 1126 110.87 1222.08 475.621
6 0 87.139 13.8744 1209 106.743 1221.72 474.256
7 1 45.056 11.9629 539 111.356 1222.3 495.102
8 0 47.037 12.1181 570 107.647 1222.47 494.389
9 0 48.0365 12.9069 620 104.718 1221.63 493.76
10 0 51.1139 12.7558 652 104 1220.56 494.937
11 0 47.0425 12.4781 587 97.1687 1221.25 494.847
12 0 50.0462 11.929 597 95.1524 1221.48 495.578
13 0 49.0095 11.8752 582 95.6993 1220.64 494.082
14 0 53.0161 12.449 660 94.0864 1219.91 492.486
15 0 54.0276 11.9754 647 93.3725 1220.85 491.955
16 0 57.0196 12.2063 696 90.8534 1220.77 491.151
17 0 58.0166 12.031 698 91.5659 1220.59 490.943
18 0 60.0207 12.9122 775 90.0503 1220.53 489.632
19 0 61.0193 13.3728 816 90.011 1219.98 488.482
20 0 65.0738 13.5846 884 89.526 1219.83 487.394
21 0 68.0334 13.0083 885 93.722 1218.6 485.15
22 0 73.0149 14.4628 1056 92.6667 1218.57 484.517
23 0 74.0966 14.1032 1045 93.3923 1218.99 484.178
24 0 77.0774 14.453 1114 93.5027 1218.69 481.557
25 0 80.0942 14.1708 1135 94.9392 1219.16 480.774
26 0 84.0848 14.5329 1222 93.5213 1219.08 480.831
27 0 83.0494 14.389 1195 96.4962 1219.37 478.92
28 0 89.0996 15.5893 1389 92.0806 1219.33 478.302
29 0 90.0938 14.7846 1332 95.3836 1219.31 476.095
30 0 94.0833 14.9442 1406 95.7909 1219.31 474.796
31 0 97.1095 14.6639 1424 97.4256 1218.7 472.762
32 0 100.146 15.0181 1504 97.1562 1218.5 471.43
33 0 103.046 14.9351 1539 98.8005 1218.53 470.451
34 0 106.096 14.911 1582 100.051 1218.45 468.191
35 0 110.238 15.2761 1684 98.6235 1218.6 467.043
36 0 114.085 15.7689 1799 97.4997 1218.14 464.41
37 0 116.178 14.9684 1739 99.8574 1218.44 462.217
38 0 121.175 14.9701 1814 99.0044 1218.41 460.862
39 1 66.0868 12.0145 794 100.671 1219.12 490.005
40 0 69.0381 12.848 887 99.9808 1219.05 486.971
41 0 70.0514 13.2189 926 99.2905 1218.48 485.58
42 0 74.0901 13.2001 978 99.5204 1218.77 482.928
43 0 74.0488 13.2615 982 99.4756 1218.13 485.189
44 0 79.0411 14.2078 1123 97.0695 1217.76 481.088
45 0 81.0717 13.8149 1120 97.8268 1218.39 480.408
46 0 84.0543 14.098 1185 97.5713 1217.78 479.135
47 0 87.0741 14.7001 1280 96.0836 1218.64 477.205
48 0 90.0507 14.6362 1318 94.3832 1218.41 475.662
49 0 91.0567 13.9144 1267 95.5533 1218.59 476.204
50 0 94.0886 13.6148 1281 96.5043 1218.66 473.686
51 0 98.1788 13.8115 1356 95.4742 1218.86 470.701
52 0 102.076 14.5087 1481 93.7421 1218.25 470.773
53 0 107.118 14.134 1514 94.2695 1218.43 467.383
54 0 109.137 13.68 1493 94.8265 1218.21 465.559
55 0 113.126 13.7987 1561 93.0179 1219.1 464.163
56 0 116.172 13.5747 1577 90.9518 1218.83 459.503
57 1 64.0408 12.1485 778 88.5681 1219.31 486.261
58 0 66.0394 13.3859 884 91.4321 1220.16 487.411
59 0 66.0524 12.1419 802 81.9264 1219.32 489.1
60 0 68.0532 11.7408 799 82.1051 1219.85 489.549
61 0 71.0226 11.9962 852 83.027 1220.56 487.744
62 0 73.0268 11.8997 869 84.6824 1219.88 485.484
63 0 78.0366 12.8786 1005 82.8547 1219.53 483.281
64 0 79.0213 12.4776 986 84.1146 1219.27 483.281
65 0 83.0509 11.6435 967 85.2565 1220.12 482.207
66 0 86.0479 12.4814 1074 83.3734 1219.87 480.047
67 0 89.1276 12.5663 1120 84.4205 1219.65 477.914
68 0 92.041 12.049 1109 86.4013 1219.54 475.474
69 1 46.0121 11.0406 508 82.3307 1219.72 497.839
70 0 49.0142 10.956 537 82.0875 1220.06 498.564
71 0 50.0189 12.6152 631 78.4849 1220.55 497.401
72 0 52.0203 12.4182 646 79.1548 1220.43 496.073
73 0 53.0242 12.0511 639 78.5837 1220.49 495.036
74 0 53.0426 11.1231 590 81.1203 1219.23 496.339
75 0 55.0395 10.5379 580 81.7621 1219.88 496.788
76 0 56.0802 11.1091 623 81.1734 1219.39 492.95
77 0 58.0676 11.3488 659 79.9803 1219.63 491.816
78 0 60.0797 11.1019 667 79.7586 1219.99 491.711
79 0 61.0412 10.7632 657 79.7641 1219.72 491.481
80 0 63.0431 11.1194 701 78.9757 1220.51 491.509
81 0 64.0453 10.0554 644 81.6165 1220.15 490.48
82 0 68.0477 11.5066 783 79.2886 1220.19 486.802
83 0 70.0244 11.0961 777 78.843 1219.7 487.483
84 0 73.0442 11.6231 849 78.3687 1220.16 484.171
85 0 76.0577 11.82 899 77.0845 1220.11 483.932
86 0 79.0385 11.3362 896 76.9542 1220.17 483.453
87 0 82.0446 11.6278 954 75.9507 1221.05 479.624
88 0 84.0716 11.8589 997 75.339 1221.04 477.692
89 0 85.0415 11.0534 940 77.6096 1220.12 476.609
90 0 91.0886 12.0652 1099 75.5587 1220.61 475.383
91 0 91.1376 11.7624 1072 78.4468 1220.06 472.451
92 0 96.0933 12.2589 1178 77.8769 1220.49 472.153
93 0 99.1057 12.6935 1258 79.4913 1220.41 470.408
94 1 50.0109 10.4377 522 80.9387 1220.5 493.546
95 0 50.0248 10.8146 541 80.5915 1220.34 492.965
96 0 52.0501 11.316 589 76.3956 1220.61 492.676
97 0 55.0346 11.5745 637 74.6484 1219.88 493.224
98 0 57.0399 12.6227 720 76.45 1219.92 493.079
99 0 58.0225 12.8915 748 76.0842 1219.63 492.693
100 0 59.0343 12.823 757 77.2034 1219.86 491.964
101 0 58.0626 12.4349 722 79.1676 1219.88 490.669
102 0 58.0188 11.5308 669 84.0284 1219.61 491.922
103 0 60.0304 11.6108 697 84.4778 1220.08 490.146
104 0 62.0299 12.1232 752 85.2221 1220.17 489.043
105 0 64.0681 12.0965 775 83.6 1220.21 490.837
106 0 66.0242 12.6469 835 84.3066 1219.91 487.553
107 0 68.0284 12.0832 822 86.4696 1220.07 487.686
108 0 71.0507 12.2729 872 86.1089 1220.13 485.552
109 0 73.0404 12.1987 891 87.6105 1219.79 484.558
110 0 76.0281 12.3375 938 86.9616 1220.37 481.848
111 0 77.0511 12.8097 987 86.9291 1219.21 480.208
112 0 79.0372 12.1082 957 88.8945 1220.45 480.568
113 0 80.0349 12.2322 979 90.9377 1220.29 478.46
114 0 84.0312 13.0547 1097 89.5515 1220.12 477.002
115 0 85.0484 12.44 1058 90.9877 1219.43 477.531
116 0 89.0342 11.8157 1052 93.0238 1220.04 476.792
117 1 49.055 11.4361 561 90.8485 1219.87 495.422
118 0 50.0167 10.8564 543 89.6538 1219.77 494.604
119 0 52.0279 12.2242 636 88.4733 1219.51 494.599
120 0 52.0202 12.3606 643 88.7543 1218.68 493.866
121 0 51.0619 11.0258 563 84.4885 1219.07 496.643
122 0 51.0263 11.0923 566 86.0866 1219.3 494.491
123 0 54.0442 11.1946 605 84.9636 1220.25 494.38
124 0 56.0529 11.7032 656 83.436 1220.92 493.485
125 0 56.0529 11.7211 657 145.988 1221.92 493.455
126 0 61.0428 11.8605 724 78.7141 1220.52 491.659
127 0 61.0695 12.1501 742 79.7588 1220.22 490.194
128 0 62.1361 11.0886 689 82.7431 1219.93 489.685
129 0 65.1013 10.4145 678 82.7625 1219.98 489.937
130 0 68.0878 11.7055 797 81.3626 1219.53 486.992
131 0 69.0424 10.7036 739 82.8417 1219.55 487.33
132 0 73.056 10.9642 801 81.4694 1220.08 486.14
133 1 38.0198 10.9154 415 83.1325 1220.2 501.53
134 0 40.0676 10.9315 438 85.1438 1220.5 501.667
135 0 40.0755 11.1789 448 85.9196 1220.52 499.917
136 0 43.0699 12.2359 527 81.5541 1220.96 499.015
137 0 43.026 11.8301 509 77.332 1219.86 499.749
138 0 41.0703 11.176 459 81.6688 1218.83 501.538
139 0 41.0175 10.1908 418 83.6842 1218.7 502.024
140 0 41.0119 10.2653 421 83.5724 1218.07 502.311
141 0 45.0159 11.0405 497 80.4567 1218.6 501.03
142 0 45.0226 11.2166 505 82.0574 1218.77 500.368
143 0 44.0119 11.2242 494 84.5223 1219.01 499.107
144 0 45.0494 11.2543 507 83.8284 1219.24 498.771
145 0 47.0188 11.1232 523 83.652 1219.03 498.591
146 0 48.0457 11.7805 566 81.8781 1219.27 498.08
147 0 51.0094 11.6449 594 80.0118 1218.53 496.815
148 0 51.0192 11.3683 580 81.3672 1219 495.529
149 0 53.0285 11.4467 607 81.5667 1218.83 495.514
150 0 55.0306 11.5209 634 82.3801 1219.2 494.533
151 0 57.0335 12.0455 687 80.6754 1218.47 492.569
152 0 58.0788 12.0698 701 80.107 1218.47 492.964
153 0 61.0369 11.534 704 81.4759 1218.61 491.55
154 0 63.0414 11.5638 729 81.6296 1218.66 490.501
155 0 66.0335 11.8425 782 80.5243 1218.81 488.22
156 0 68.0396 11.5962 789 81.1825 1218.76 487.227
157 0 69.07 11.2495 777 83.1429 1218.69 485.92
158 0 71.0963 11.6321 827 84.8827 1217.73 484.648
159 0 75.0838 11.6936 878 80.8679 1218.12 482.402
160 1 37.0318 10.9095 404 84.4901 1218.19 499.901
161 0 40.0212 10.6943 428 83.4182 1218.13 499.498
162 0 41.0284 11.0168 452 84.8473 1217.85 498.462
163 0 41.0332 11.1861 459 85.8976 1218.23 497.468
164 0 39.0066 10.1521 396 82.6162 1219.42 500.396
165 0 39.0375 11.3737 444 81.3536 1219.28 500.953
166 0 40.0041 10.5239 421 82.696 1218.96 500.081
167 0 43.0227 10.5061 452 81.0575 1219.08 499.805
168 0 43.0249 10.5288 453 123.667 1218.08 499.762
169 0 43.0207 10.3903 447 83.1163 1219.75 499.098
170 0 46.0671 10.0071 461 84.026 1219.41 497.536
171 0 46.0253 11.0157 507 81.7456 1220.05 496.377
172 0 46.0253 10.8636 500 125.274 1220.07 496.446
173 0 52.0244 11.533 600 78.5617 1219.56 494.38
174 0 53.0449 11.6505 618 78.0793 1219.6 493.523
175 0 55.0643 11.9133 656 77.2713 1218.91 492.96
176 0 55.0127 11.4882 632 79.5269 1218.74 492.525
177 0 57.0841 11.3342 647 80.3153 1218.83 491.337
178 0 58.0299 11.9766 695 80.6014 1219.09 489.853
179 0 61.053 12.268 749 81.1295 1219.34 488.351
180 0 62.0442 12.201 757 81.3316 1219.91 487.662
181 0 62.0352 11.8159 733 83.412 1220.12 488.453
182 0 65.0241 12.6261 821 82.1924 1219.15 487.049
183 0 67.1082 11.623 780 85.6154 1219.81 485.471
184 0 71.1149 12.0228 855 86.0444 1219.62 485.073
185 0 71.073 12.5927 895 87.1665 1219.91 483.84
186 0 74.0456 12.6949 940 88.2851 1219.72 482.349
187 0 75.065 12.7623 958 89.7109 1219.85 481.936
188 0 77.064 12.8465 990 90.0818 1220.03 480.07
189 0 81.0692 13.0753 1060 90.0717 1220.8 478.023
190 0 81.0531 13.0532 1058 91.4036 1220.29 476.385
191 0 85.1248 13.1337 1118 91.3676 1220.11 474.179
192 0 89.156 13.1455 1172 91.3899 1219.32 474.563
193 0 91.0979 13.3593 1217 92.2104 1218.68 472.073
194 0 93.0811 12.6771 1180 93.5593 1218.34 470.134
195 0 95.1096 13.2899 1264 92.606 1218.46 468.797
196 1 49.0299 10.7893 529 90.225 1218.57 490.134
197 0 50.0208 11.2553 563 88.5542 1218.71 490.439
198 0 53.0498 11.9699 635 86.0173 1219.41 489.409
199 0 53.0288 11.8426 628 84.6815 1219.22 493.701
200 0 54.099 12.1074 655 84.7313 1219.17 493.311
201 0 57.0698 12.7213 726 83.6708 1218.83 492.249
202 0 59.0319 12.8575 759 106.473 1218.7 491.094
203 0 58.0576 13.056 758 106.976 1218.61 490.547
204 0 60.0429 12.8408 771 108.095 1219.06 489.184
205 0 63.0926 13.1711 831 107.126 1218.12 488.821
206 0 65.0234 12.3802 805 109.887 1218.72 488.707
207 0 68.0264 13.3772 910 107.7 1218.26 486.337
208 0 68.0623 13.2672 903 109.336 1218.09 485.177
209 0 68.0623 13.2966 905 136.824 1218.09 485.244
210 0 74.041 13.6816 1013 107.863 1218.07 482.694
211 0 78.0532 13.4011 1046 117.125 1217.66 482.246
212 0 79.0378 13.3101 1052 118.651 1217.93 480.051
213 0 81.0445 13.4001 1086 118.566 1217.65 479.025
214 0 84.0628 13.6208 1145 117.003 1218.01 478.046
215 0 87.0512 13.4863 1174 117.313 1217.97 476.051
216 0 90.048 13.3484 1202 116.491 1217.63 475.266
217 0 93.0468 14.1327 1315 114.064 1218.47 473.225
218 0 93.0468 14.1327 1315 152.353 1219.48 473.078
219 0 99.0843 14.0587 1393 111.041 1217.21 470.743
220 0 101.041 13.5984 1374 112.664 1217.27 468.822
221 0 104.086 13.998 1457 110.966 1217.48 468.933
222 0 109.14 14.0462 1533 108.999 1217.12 466.23
223 1 59.0388 11.4501 676 106.601 1217.01 491.747
224 0 59.0713 11.4438 676 108.854 1217.37 489.419
225 0 61.0398 11.8447 723 107.394 1217.46 488.012
226 0 65.113 12.6703 825 102.553 1217.51 487.45
227 0 66.0304 12.6154 833 100.94 1216.69 487.745
228 0 69.1547 13.0288 901 100.408 1218.04 486.06
229 0 71.1447 13.2968 946 99.4514 1218.07 485.656
230 0 72.1483 12.8069 924 100.961 1218.32 483.49
231 0 75.1227 13.2982 999 99.6406 1218.13 483.746
232 0 77.0748 13.5972 1048 99.0954 1218.12 483.137
233 0 79.0719 13.0388 1031 100.597 1218.26 480.608
234 0 82.061 13.3437 1095 98.8886 1218.41 479.491
235 0 83.1146 12.8016 1064 100.838 1218.06 478.246
236 0 86.1246 13.2599 1142 99.0736 1218.5 477.15
237 0 88.0572 12.8212 1129 98.5323 1218.06 476.692
238 0 90.0645 13.0684 1177 96.1427 1218.11 474.389
239 0 95.1781 13.7637 1310 91.129 1217.39 474.37
240 0 97.1336 13.4145 1303 95.1167 1218.15 472.8
241 0 100.201 13.2134 1324 94.6813 1217.69 471.338
242 0 103.105 12.8122 1321 93.8478 1218.09 469.213
243 0 107.173 13.3989 1436 93.2813 1217.32 468.258
244 0 108.136 12.6693 1370 87.3117 1217.46 467.036
245 0 112.2 12.4777 1400 87.685 1217.91 465.242
246 0 116.187 12.0495 1400 89.3007 1218.06 463.6
247 0 119.15 12.371 1474 88.2436 1218.06 461.174
248 0 124.158 12.2264 1518 93.4051 1218.13 458.652
249 0 128.176 12.5686 1611 95.4426 1217.97 455.906
250 1 66.1003 11.0438 730 91.2767 1218.38 488.181
251 0 68.1118 11.9509 814 89.5197 1218.18 486.125
252 0 68.1403 11.6818 796 91.8279 1217.08 485.785
253 0 73.1142 12.6241 923 91.0173 1217.33 482.917
254 0 72.0503 11.3254 816 96.587 1217.8 483.609
255 0 73.0306 12.0771 882 97.1973 1218.13 481.618
256 0 75.0983 11.2253 843 99.7023 1218.45 481.306
257 0 79.0434 12.2844 971 97.7271 1218.43 479.365
258 0 81.0427 12.1047 981 98.055 1218.53 477.781
259 0 83.0497 11.9447 992 98.5585 1218.04 476.009
260 0 85.1142 12.4656 1061 97.9925 1217.88 473.365
261 0 88.0452 12.5731 1107 98.3406 1218.32 472.672
262 0 90.0375 12.1394 1093 97.9909 1218.15 472.836
263 0 92.0595 11.8184 1088 99.0119 1218.08 472.322
264 0 97.0609 12.5591 1219 97.6825 1218.36 468.346
265 0 101.057 11.9635 1209 98.402 1217.85 466.409
266 1 54.0523 10.1938 551 96.6515 1218.44 489.8
267 0 58.0475 11.0082 639 94.7105 1218.13 490.269
268 0 59.1244 11.349 671 95.0104 1218.12 489.608
269 0 58.1282 10.0468 584 85.9623 1216.19 491.524
270 0 60.1404 10.7249 645 83.9581 1216.4 490.095
271 0 62.0696 10.2627 637 85.2684 1216.67 489.945
272 0 64.0553 9.78841 627 84.689 1216.45 489.188
273 0 65.0512 10.2227 665 82.6917 1217.7 487.543
274 0 70.0406 9.90855 694 82.2349 1218.01 486.464
275 0 73.0744 11.112 812 80.7094 1217.25 485.676
276 0 73.1716 10.1542 743 83.5868 1217.15 484.756
277 0 76.1708 11.041 841 84.566 1218.06 481.222
278 0 79.0884 10.7348 849 85.7527 1218.45 480.112
279 0 81.0735 11.0887 899 85.7675 1217.81 479.814
280 0 83.052 10.7884 896 87.1027 1218.11 477.589
281 0 83.052 10.7403 892 126.515 1219.11 477.571
282 0 91.0876 11.5383 1051 86.1332 1217.96 475.311
283 1 49.0846 10.5736 519 86.1098 1217.84 496.434
284 0 51.0141 10.0168 511 86.6614 1217.9 496.35
285 0 52.0729 9.9668 519 86.6898 1217.84 494.923
286 0 53.0962 11.1496 592 85.6807 1218.45 494.076
287 0 54.0394 10.8069 584 86.1678 1217.97 491.156
288 0 51.0447 8.81581 450 88.02 1216.42 495.722
289 0 53.0414 9.20035 488 87.2398 1216.52 492.955
290 0 56.0277 10.4234 584 82.9709 1216.74 492.697
291 0 56.0683 9.59543 538 81.671 1216.32 493.383
292 0 59.0863 9.83308 581 80.9415 1216.9 492.157
293 0 61.0634 10.9394 668 77.6272 1217.16 490.168
294 0 59.037 9.48558 560 79.4089 1217.36 490.373
295 0 61.0785 9.43048 576 78.809 1216.51 489.064
296 0 64.0445 9.85252 631 76.9002 1216.62 488.813
297 0 65.0691 10.2199 665 76.5158 1216.5 487.522
298 0 67.0759 8.95999 601 77.5857 1217.16 485.74
299 0 69.0665 10.2076 705 76.461 1217.11 485.339
300 0 73.0613 9.67681 707 76.1499 1216.94 484.041
301 0 75.0424 10.3541 777 75.2304 1216.88 481.458
302 0 76.129 10.5216 801 75.3433 1216.88 480.089
303 0 81.0949 10.9995 892 74.7052 1217.53 479.492
304 0 83.1015 10.9384 909 74.7085 1216.98 479.207
305 0 87.079 10.9785 956 74.0335 1217.42 476.61
306 1 45.0646 9.96347 449 72.9532 1216.44 496.782
307 0 47.0901 10.1083 476 73.5672 1216.2 496.971
308 0 48.1062 10.4976 505 73.6158 1216.22 496.719
309 0 49.0319 11.4211 560 74.7393 1217.09 495.398
310 0 50.0587 10.9871 550 75.0327 1217.1 496.324
311 0 46.0313 8.75491 403 73.5285 1217.37 499.151
312 0 50.0325 10.0135 501 71.7365 1216.14 497.892
313 0 50.0535 8.7906 440 73.1886 1217.58 498.42
314 0 52.0234 9.74562 507 71.7357 1216.68 497.112
315 0 53.0108 9.96023 528 71.928 1216.95 495.621
316 0 54.0162 10.4783 566 71.7138 1217.27 495.691
317 0 57.0336 10.0292 572 71.6976 1216.97 494.117
318 0 56.0517 9.27715 520 74.8788 1216.93 492.6
319 0 60.0355 10.2939 618 74.5453 1217.02 492.405
320 0 62.0997 10.2094 634 75.3233 1218 491.707
321 0 64.0361 10.5722 677 75.325 1217.46 491.746
322 0 65.024 10.4423 679 75.4624 1217.21 492.458
323 0 69.053 10.7598 743 75.8829 1217.59 490.279
324 0 70.1129 10.2406 718 77.4652 1216.95 490.078
325 0 74.0843 10.866 805 76.5528 1216.65 488.708
326 0 75.0877 11.5731 869 75.6617 1216.45 485.49
327 0 79.0938 11.2651 891 76.4332 1216.7 486.476
328 0 81.0971 11.1595 905 77.5967 1216.24 486.193
329 0 85.1264 11.0072 937 79.1761 1216.38 483.301
330 1 46.0589 11.0077 507 78.6765 1216.59 503.071
331 0 47.0312 10.9289 514 86.5467 1216.8 502.42
332 0 49.0164 11.588 568 81.1004 1215.64 499.03
333 0 51.038 11.6776 596 82.401 1216.02 498.121
334 0 51.038 11.6972 597 136.861 1215.99 498.142
335 0 53.0983 12.3544 656 83.4238 1214.8 497.349
336 0 57.1707 12.6289 722 83.5526 1214.72 495.528
337 0 58.063 12.2453 711 85.0464 1216.35 496.505
338 0 60.0614 13.07 785 83.2841 1216.11 494.875
339 0 61.0544 12.7919 781 85.589 1215.94 494.787
340 0 62.1294 12.3452 767 86.3977 1215.82 493.33
341 0 59.0827 11.7463 694 80.4251 1214.15 495.821
342 0 62.1495 11.3597 706 81.1742 1213.66 495.585
343 0 64.1321 12.4119 796 80.1533 1212.8 493.717
344 0 66.0969 11.7101 774 82.5013 1213.32 495.332
345 0 66.0536 11.6118 767 85.2907 1212.59 493.493
346 0 72.0523 11.6998 843 83.9454 1213.19 491.76
347 0 71.1208 11.3047 804 87.1331 1212.98 491.443
348 0 73.0977 12.3944 906 86.0232 1212.68 487.2
349 0 76.1223 12.1121 922 86.1649 1212.59 487.447
350 0 77.1982 12.2412 945 84.9323 1213.36 484.898
351 0 80.1169 11.9575 958 85.4123 1213.04 483.926
352 0 81.1475 12.1754 988 87.2318 1213.4 482.688
353 0 84.1592 12.3932 1043 87.6635 1213.38 481.429
354 0 85.1038 12.6551 1077 88.6054 1213.29 478.919
355 0 89.1212 13.0496 1163 88.233 1213.27 476.671
356 0 93.107 13.1462 1224 87.107 1213.66 475.415
357 0 96.0928 13.0291 1252 86.8083 1213.74 473.502
358 0 94.0464 11.9196 1121 90.2337 1214.5 473.955
359 0 97.0904 10.928 1061 91.131 1214.55 473.853
360 0 100.125 11.8153 1183 89.2773 1213.92 471.141
361 1 52.0793 11.0217 574 88.6794 1213.91 493.634
362 0 54.0372 11.0109 595 86.8992 1214.17 493.45
363 0 54.0372 10.8999 589 143.552 1214.14 493.489
364 0 60.0903 12.7142 764 81.8259 1214.4 492.001
365 0 60.1399 12.737 766 79.1227 1214.21 493.124
366 0 63.0876 12.7125 802 78.0761 1213.58 492.54
367 0 65.1157 12.3319 803 80.8356 1213.97 491.134
368 0 66.0987 13.0865 865 80.0197 1213.75 489.476
369 0 68.1015 12.452 848 82.2264 1214.36 488.317
370 0 70.093 13.2966 932 82.221 1214.98 486.847
371 0 72.1514 13.4855 973 83.2909 1214.43 484.427
372 0 71.0454 11.936 848 90.5955 1213.59 486.483
373 0 73.1421 11.9357 873 91.8362 1213.91 483.759
374 0 75.1306 11.6996 879 93.4619 1214.45 481.737
375 0 75.0593 11.2578 845 96.7314 1214.27 482.581
376 0 78.1695 11.6158 908 96.7952 1214.28 479.428
377 0 79.0622 11.902 941 96.8193 1214.53 478.083
378 0 83.1045 11.7803 979 96.8907 1214.63 475.558
379 0 84.1111 12.5192 1053 96.0133 1216.2 474.994
380 0 86.0914 11.906 1025 98.7922 1215.72 473.509
381 0 92.2216 12.9471 1194 94.6039 1215.3 473.368
382 0 93.2741 12.9511 1208 96.2483 1215.52 470.12
383 0 97.1717 13.5842 1320 94.3894 1215.96 462.812
384 0 99.0737 13.5354 1341 95.66 1215.89 459.172
385 0 103.149 13.9216 1436 93.1365 1215.94 457.939
386 0 101.116 12.4114 1255 99.5857 1215.97 457.423
387 0 104.127 12.1198 1262 100.563 1216.6 455.808
388 0 110.138 12.684 1397 97.6256 1216.97 453.965
389 0 114.212 12.3105 1406 97.9531 1216 453.893
390 0 114.138 12.8441 1466 99.545 1216.16 447.671
391 0 120.167 12.7489 1532 99.2526 1215.85 445.72
392 0 124.106 12.7391 1581 99.9266 1215.77 443.886
393 0 130.144 12.4862 1625 100.308 1215.84 443.074
394 0 133.157 13.4728 1794 98.8696 1215.95 439.989
395 0 138.112 13.2139 1825 100.68 1216.19 435.835
396 0 144.084 13.2978 1916 100.499 1216.01 435.517
397 0 147.117 12.9829 1910 102.486 1216.26 434.081
398 0 151.175 13.3223 2014 102.581 1216.6 428.894
399 0 158.153 13.7399 2173 101.925 1216.66 425.696
400 0 164.145 13.4455 2207 103.044 1217.16 422.816
401 1 93.1046 10.6654 993 102.936 1216.48 459.54
402 0 93.0514 11.4345 1064 104.04 1216.11 456.48
403 0 98.0959 11.8965 1167 102.48 1216.32 453.229
404 0 104.09 13.2097 1375 98.6058 1216.14 460.87
405 0 105.225 12.8677 1354 100.97 1216.04 460.095
406 0 109.143 12.5523 1370 102.131 1215.87 454.901
407 0 112.212 12.6278 1417 101.183 1216.06 456.656
408 0 113.069 13.0363 1474 101.552 1216.35 447.342
409 0 117.136 12.7288 1491 101.793 1217.07 446.06
410 0 119.117 13.0712 1557 102.297 1216.51 442.278
411 0 126.067 13.3421 1682 100.191 1216.65 441.999
412 0 129.12 13.2667 1713 101.177 1216.04 438.44
413 0 129.12 13.3209 1720 151.261 1216.03 438.399
414 0 136.081 13.2789 1807 101.83 1216.44 431.979
415 0 142.186 12.8072 1821 102.044 1216.13 430.851
416 1 80.0795 10.3522 829 103.151 1216.16 460.381
417 0 82.1041 10.6816 877 101.964 1216.46 459.835
418 0 82.1191 11.3981 936 102.057 1216.04 458.437
419 0 85.0986 10.9167 929 103.893 1216.16 456.875
420 0 95.0734 12.6113 1199 96.0234 1215.77 468.515
421 0 96.0422 12.0051 1153 97.7398 1215.46 463.57
422 0 100.041 12.195 1220 96.2344 1215.88 462.317
423 0 102.091 12.1558 1241 96.4053 1215 460.023
424 0 105.142 12.3642 1300 96.4785 1215.12 458.949
425 0 110.112 12.3238 1357 96.2004 1215.49 456.049
426 0 113.103 13.3065 1505 93.3621 1215.36 452.979
427 0 114.093 12.4811 1424 95.8251 1216.15 453.657
428 0 122.061 13.0672 1595 92.3969 1216.05 451.238
429 0 124.091 12.797 1588 92.5378 1214.84 445.797
430 0 126.164 12.6819 1600 93.0725 1215.18 444.951
431 1 64.0914 9.81411 629 89.2067 1214.07 475.583
432 0 66.0459 10.0688 665 89.4361 1215.2 476.639
433 0 75.0419 10.9272 820 91.5744 1214.86 481.417
434 0 78.0851 11.1801 873 89.5888 1215.44 480.253
435 0 78.085 10.9496 855 90.7579 1215.51 479.212
436 0 82.134 11.3717 934 89.0032 1215.13 477.556
437 0 85.1152 11.3376 965 88.056 1214.53 476.91
438 0 88.0567 11.2882 994 88.6429 1214.37 475.932
439 0 90.0543 10.427 939 89.3387 1213.81 474.607
440 0 93.0973 11.2678 1049 88.2641 1213.61 472.975
441 0 94.1038 10.7541 1012 88.1947 1213.7 471.907
442 0 96.022 10.5809 1016 87.8356 1213.92 469.443
443 0 99.0586 11.0238 1092 86.3077 1214.05 469.322
444 0 102.142 10.7497 1098 87.8133 1214.2 468.337
445 0 106.128 11.081 1176 86.7568 1214.43 466.741
446 0 109.097 11.531 1258 85.2814 1214.74 466.462
447 0 109.188 10.9444 1195 85.349 1214.38 463.528
448 0 113.226 10.9251 1237 86.2846 1214.41 459.091
449 0 118.152 10.5034 1241 85.6382 1214.53 457.927
450 1 59.088 8.8512 523 77.4685 1214.3 489.069
451 0 61.0973 10.0332 613 74.9282 1214.45 489.63
452 0 62.094 11.3054 702 76.8476 1213.86 487.021
453 0 67.0762 11.1664 749 76.3885 1213.9 486.692
454 0 67.0928 11.1338 747 76.5622 1214.45 485.016
455 0 70.2171 11.7635 826 75.4298 1214.96 484.81
456 0 73.1446 11.4294 836 77.061 1214.55 484.301
457 0 73.1507 11.8523 867 77.376 1214.67 483.527
458 0 77.1163 12.1894 940 76.9011 1214.85 481.311
459 0 79.2284 10.5013 832 85.8486 1214.85 481.069
460 0 79.1268 12.739 1008 79.5565 1215.14 478.485
461 0 83.2105 12.5705 1046 79.565 1215.32 476.775
462 0 85.201 12.0538 1027 82.1947 1215.58 475.633
463 0 84.2134 11.3759 958 85.5605 1215.42 476.874
464 0 86.1387 12.0852 1041 85.0692 1215.52 474.229
465 0 86.0975 11.487 989 88.1011 1215 473.895
466 0 88.1534 11.5254 1016 88.3652 1215.13 472.478
467 0 89.1311 11.6345 1037 88.9662 1214.81 471.211
468 0 95.1525 12.1594 1157 87.771 1214.62 469.364
469 0 97.1063 12.3576 1200 87.7158 1215.39 465.359
470 0 100.099 12.3877 1240 88.4234 1215.15 463.994
471 0 104.111 13.0822 1362 86.9552 1215.56 462.09
472 0 106.164 12.801 1359 88.092 1215.54 460.447
473 1 56.0675 10.3982 583 91.199 1216.48 485.46
474 0 58.0428 11.0953 644 89.9519 1215.82 484.731
475 0 63.1183 11.8666 749 88.518 1214.65 486.543
476 0 65.1694 10.6799 696 92.6121 1214.75 485.629
477 0 68.0732 11.3407 772 91.3459 1214.36 485.648
478 0 71.1067 11.7992 839 91.8534 1214.61 485.126
479 0 74.1427 11.842 878 91.5421 1214.45 484.024
480 0 75.053 11.3253 850 90.1847 1215.64 483.762
481 0 76.0638 10.8725 827 92.1052 1214.97 481.937
482 0 81.1428 11.7201 951 91.5973 1215.32 479.344
483 0 82.1668 11.5132 946 92.2093 1215.27 478.895
484 0 86.1011 11.9859 1032 92.5271 1215.32 477.371
485 0 89.1351 12.1838 1086 92.3545 1215.18 476.432
486 0 91.1235 11.8959 1084 93.8828 1214.71 475.108
487 1 45.0898 9.18167 414 88.0411 1215.58 499.024
488 0 47.0343 10.8006 508 83.9154 1215.47 498.183
489 0 47.0343 10.7794 507 133.878 1215.47 498.308
490 0 49.0313 11.1969 549 80.031 1215 496.393
491 0 49.0417 11.2353 551 126.927 1214.03 496.368
492 0 51.0392 11.403 582 79.4055 1215.21 496.948
493 0 53.1378 11.1032 590 80.4068 1215.42 496.28
494 0 51.0398 9.87464 504 84.7024 1215.31 497.23
495 0 54.0807 10.4289 564 84.1117 1214.95 495.176
496 0 57.0517 10.8673 620 81.8839 1214.86 494.827
497 0 58.0998 9.7935 569 84.3216 1215.65 493.436
498 0 60.1116 10.6302 639 84.2191 1215.21 493.095
499 0 60.1116 10.6469 640 127.455 1215.2 492.806
500 0 63.049 10.5156 663 87.7873 1214.91 492.876
501 0 64.1429 10.8196 694 88.1282 1215.02 492.736
502 0 66.1033 10.892 720 85.7681 1215.5 491.318
503 0 69.083 10.5525 729 87.1317 1215.64 489.071
504 0 70.0768 10.4599 733 87.0709 1215.56 488.625
505 0 72.1384 11.0344 796 87.2827 1214.66 486.295
506 0 75.1149 10.7435 807 86.7955 1214.83 486.896
507 0 78.0703 11.6818 912 86.0263 1214.62 485.054
508 0 78.1094 11.4967 898 86.2283 1214.72 485.17
509 0 81.0639 11.3861 923 86.0758 1214.75 482.67
510 0 84.1198 11.8165 994 85.7314 1213.83 482.22
511 0 85.1199 10.8083 920 86.7261 1214.03 482.841
512 0 88.1332 11.1649 984 86.814 1214.08 480.527
513 0 90.1242 10.8184 975 86.9508 1213.81 479.91
514 0 93.0922 10.9891 1023 87.3099 1213.91 477.588
515 0 98.197 10.8455 1065 87.0667 1213.68 476.215
516 0 101.224 11.0745 1121 86.2516 1213.84 475.132
517 0 103.164 11.2733 1163 87.3629 1214.05 472.98
518 1 57.094 10.1061 577 85.2842 1213.45 495.18
519 0 62.0473 11.3301 703 86.1309 1214.57 493.893
520 0 63.0577 12.2428 772 87.285 1214.61 493.359
521 0 59.1277 10.4181 616 85.362 1213.53 495.295
522 0 62.1346 10.6865 664 83.2364 1213.93 494.669
523 0 66.0773 11.0325 729 83.3032 1214.14 493.918
524 0 68.0385 11.5817 788 84.1713 1213.66 490.857
525 0 70.1093 11.1397 781 83.379 1214.36 491.962
526 0 72.0594 11.6154 837 82.9403 1213.69 490.811
527 0 74.1014 11.0389 818 85.4731 1213.68 488.549
528 0 75.0801 11.3745 854 84.9052 1214.21 488.17
529 0 77.1259 11.5655 892 86.8307 1213.9 486.52
530 0 79.1484 11.4974 910 86.889 1213.24 486.547
531 0 81.0883 11.7526 953 87.0902 1213.18 486.675
532 0 83.0949 11.2883 938 90.0757 1213.92 483.515
533 0 86.1363 11.6908 1007 88.5343 1212.98 482.751
534 0 89.1384 12.1048 1079 87.0334 1213.39 480.437
535 0 91.1082 12.1504 1107 86.0958 1213.88 481.407
536 0 94.0866 11.8827 1118 86.3676 1213.81 479.745
537 0 97.0737 11.9085 1156 87.9161 1213.55 476.108
538 0 103.117 10.2311 1055 148.109 1213.64 472.954
539 1 50.0347 9.93311 497 82.0221 1213.41 496.217
540 0 53.1334 11.217 596 80.0654 1214.19 495.606
541 0 53.0553 10.8754 577 84.9567 1213.14 494.397
542 0 53.0184 11.1848 593 84.2766 1212.41 493.256
543 0 55.2037 10.3435 571 83.648 1213.41 493.587
544 0 58.0708 10.7972 627 81.3317 1213.35 492.447
545 0 60.1378 11.7231 705 80.9447 1213.61 492.318
546 0 62.0852 11.3715 706 81.7337 1212.96 492.082
547 0 62.0882 10.8555 674 80.5935 1213.9 489.737
548 0 63.101 10.4911 662 84.0287 1213.95 489.749
549 0 66.0615 11.5347 762 79.7638 1213.72 488.482
550 0 66.0342 10.8883 719 81.669 1214.65 487.004
551 0 70.0247 11.7958 826 81.6174 1214.12 488.063
552 0 72.0412 11.5351 831 82.5692 1213.05 486.212
553 0 75.1288 11.2207 843 80.3096 1213.6 485.382
554 0 76.0858 11.3687 865 82.1052 1213.6 484.393
555 0 80.0483 11.6679 934 82.5396 1213.65 483.721
556 0 81.0976 12.3925 1005 83.4139 1213.62 481.711
557 0 82.0564 11.6627 957 86.4901 1213.11 480.162
558 0 87.0615 12.6118 1098 84.1421 1213.33 478.213
559 0 89.0649 12.5526 1118 85.288 1213.83 478.274
560 0 94.114 12.2511 1153 86.7979 1213.55 477.062
561 0 95.0961 11.6303 1106 88.632 1214.51 476.363
562 0 97.1132 12.1611 1181 89.3709 1214.05 475.064
563 0 101.098 11.6422 1177 91.2073 1213.29 474.035
564 0 104.104 11.9784 1247 90.8741 1213.46 471.929
565 0 108.061 11.8359 1279 90.8428 1213.24 472.07
566 1 54.0145 10.0158 541 82.0961 1213.05 498.336
567 0 55.0362 11.556 636 80.6761 1213.21 497.14
568 0 56.0826 11.7327 658 82.617 1213.04 495.872
569 0 59.0881 10.3743 613 84.3703 1213.85 495.993
570 0 60.0417 11.3588 682 84.3035 1213.37 495.425
571 0 62.0498 11.6358 722 84.5679 1213.02 494.535
572 0 64.0741 12.1578 779 84.7484 1213.16 493.184
573 0 67.0563 12.2136 819 85.1551 1213.66 492.254
574 0 68.0966 11.9389 813 86.4908 1213.66 490.351
575 0 70.1072 11.5965 813 88.4576 1213.09 489.226
576 0 71.0608 11.6942 831 89.3622 1213.55 486.188
577 0 76.0977 11.7218 892 91.1435 1212.93 486.263
578 0 78.0518 11.7742 919 92.4831 1213.19 484.719
579 0 80.0806 12.2377 980 92.1214 1212.5 485.584
580 0 83.0806 12.518 1040 94.351 1213.17 483.076
581 0 88.092 12.3621 1089 96.4674 1213.48 482.617
582 0 89.1739 11.6177 1036 98.5714 1213.8 481.053
583 0 92.1536 11.98 1104 97.577 1213.43 479.424
584 0 95.1498 11.9391 1136 99.1761 1213.73 476.195
585 0 99.2418 11.5979 1151 101.372 1213.76 475.066
586 0 101.177 11.6528 1179 102.478 1213.71 474.296
587 0 103.113 12.3844 1277 100.592 1213.81 472.868
588 0 107.227 12.1331 1301 101.277 1213.13 471.238
589 1 59.1972 10.3383 612 96.6814 1213.65 496.273
590 0 61.1437 10.4835 641 94.7488 1212.95 496.552
591 0 63.1265 11.8334 747 94.7604 1212.94 494.054
592 0 65.1339 12.1596 792 95.3649 1213.06 494.03
593 0 69.1438 13.1899 912 92.9934 1213.27 492.805
594 0 70.1508 11.9172 836 95.1603 1213.02 491.091
595 0 72.2271 12.793 924 95.842 1212.37 490.468
596 0 75.1387 12.6699 952 96.7742 1212.88 488.952
597 0 79.2185 13.5448 1073 101.255 1212.56 486.895
598 0 82.1513 12.6109 1036 105.064 1212.49 486.379
599 0 85.2347 12.2955 1048 107.518 1212.13 483.599
600 0 88.2103 12.7763 1127 103.295 1212.32 482.813
601 0 90.1213 12.7717 1151 103.609 1212.86 481.263
602 0 91.1394 12.4973 1139 102.88 1212.71 478.924
603 0 95.1197 13.1834 1254 96.3182 1212.68 479.119
604 0 99.1385 13.2542 1314 96.7603 1213.24 477.33
605 0 101.138 12.9427 1309 99.7731 1212.77 476.245
606 1 55.0783 10.6212 585 99.7897 1213.03 499.545
607 0 54.0257 10.4395 564 101.076 1213.55 496.482
608 0 57.0604 11.076 632 99.9541 1212.95 493.547
609 0 59.0472 11.5162 680 95.5985 1212.95 499.903
610 0 60.1283 11.6252 699 96.4392 1213.24 499.19
611 0 60.1047 11.3968 685 98.4686 1213.61 499.755
612 0 62.0322 11.8326 734 98.0817 1214.28 497.88
613 0 64.069 11.3627 728 99.4409 1214.03 498.012
614 0 67.0568 11.9004 798 99.9098 1213.05 495.632
615 0 69.0508 12.136 838 99.8854 1212.9 495.032
616 0 72.0814 12.1668 877 100.512 1212.82 494.25
617 0 73.0598 12.2366 894 102.197 1212.85 492.378
618 0 74.1007 11.8353 877 105.269 1212.92 492.216
619 0 75.0771 11.5881 870 107.244 1212.52 489.816
620 0 77.1231 12.2791 947 106.968 1213.43 488.589
621 0 81.0915 12.3687 1003 106.032 1212.74 487.323
622 0 83.0629 12.4845 1037 105.072 1213.44 484.84
623 0 86.0465 12.0168 1034 108.201 1213.68 482.657
624 0 88.0928 13.009 1146 106.87 1213.09 480.195
625 0 90.0738 12.4342 1120 109.448 1213.32 478.391
626 0 92.1239 11.9513 1101 111.584 1213.33 477.918
627 0 97.1234 12.2936 1194 110.838 1212.95 476.548
628 0 101.093 12.6221 1276 111.161 1212.52 473.991
629 1 54.0463 10.639 575 108.993 1213.91 496.929
630 0 55.0531 10.4808 577 109.256 1214.45 494.042
631 0 54.0221 11.1436 602 107.605 1214.37 490.11
632 0 57.0128 11.0326 629 105.38 1213.72 485.057
633 0 61.1118 12.338 754 96.3064 1212.29 497.032
634 0 64.1203 12.3518 792 95.6869 1213.02 495.146
635 0 66.0427 12.613 833 98.437 1212.16 494.551
636 0 67.0317 12.9789 870 98.1195 1212.08 493.054
637 0 68.0509 12.6817 863 99.8019 1212.78 492.192
638 0 71.0466 12.7944 909 99.3311 1211.96 490.862
639 0 73.0238 13.4477 982 97.7525 1212.28 490.808
640 0 74.0211 13.1584 974 99.1704 1212.51 488.102
641 0 77.0756 13.104 1010 99.4802 1212.75 488.679
642 0 80.1245 12.6927 1017 100.147 1213.23 487.161
643 0 81.1409 13.0021 1055 100.549 1213.73 485.707
644 0 84.2271 13.3449 1124 99.581 1213.47 483.317
645 0 86.1499 12.4666 1074 102.616 1213.39 481.102
646 0 88.2198 12.9109 1139 102.04 1213.48 480.637
647 0 88.2852 11.5195 1017 105.895 1213.49 481.971
648 0 91.172 12.2077 1113 104.022 1214.01 480.261
649 0 94.1665 12.1593 1145 105.005 1213.57 477.592
650 0 96.2253 11.868 1142 105.71 1213.63 475.265
651 0 99.1456 11.6294 1153 105.772 1213.35 476.22
652 0 102.147 11.6009 1185 105.745 1213.53 473.229
653 0 105.227 11.9836 1261 103.366 1213.28 471.847
654 0 108.175 12.1562 1315 102.314 1213.29 468.536
655 1 60.1608 9.92341 597 96.1809 1212.82 493.861
656 0 57.1155 9.64712 551 92.9546 1213.79 486.376
657 0 58.1424 9.35635 544 90.1746 1213.78 480.533
658 0 61.0416 9.94403 607 88.2603 1213.1 480.928
659 0 64.0944 9.64202 618 78.9838 1214.73 488.319
660 0 68.0901 10.0161 682 78.5924 1214.15 485.721
661 0 69.0684 10.6706 737 78.1574 1214.38 485.703
662 0 71.1046 9.77433 695 79.6604 1214.67 482.783
663 0 74.137 10.2108 757 79.3474 1215.01 482.07
664 0 75.0827 10.1222 760 79.8329 1214.32 480.604
665 0 78.1986 10.3199 807 80.461 1214.89 479.447
666 0 82.1617 10.5889 870 80.3678 1215.19 479.144
667 0 83.1708 11.0976 923 80.6436 1214.66 478.052
668 0 85.1202 10.4323 888 82.4347 1214.75 477.393
669 0 87.0767 10.1979 888 83.6014 1214.4 474.471
670 0 89.1007 11.212 999 82.038 1213.59 474.104
671 0 94.1137 11.433 1076 82.4703 1214.87 472.733
672 0 96.1028 12.497 1201 91.4005 1214.46 476.318
673 0 98.0827 11.8166 1159 90.8292 1214.54 475.296
674 0 102.143 10.9161 1115 92.835 1214.07 473.979
675 0 104.089 11.5382 1201 91.9875 1214.29 471.422
676 0 109.126 10.7307 1171 93.9197 1214.74 472.532
677 1 58.0499 11.7657 683 93.1684 1214.78 495.148
678 0 61.0373 11.8944 726 91.1061 1214.01 495.303
679 0 61.025 12.2573 748 90.484 1213.82 494.259
680 0 57.0402 10.5715 603 97.2405 1214.16 496.615
681 0 62.0434 12.3301 765 92.3712 1213.84 494.91
682 0 65.0314 10.9024 709 94.8406 1214.55 495.504
683 0 64.0241 11.3395 726 95.3512 1214.71 494.924
684 0 71.0362 11.0366 784 94.1492 1214.6 494.962
685 0 70.0342 11.5801 811 95.4858 1215.01 493.295
686 0 71.0268 11.559 821 96.2448 1214.79 493.788
687 0 75.0335 11.5815 869 97 1215.23 490.849
688 0 75.0335 11.5682 868 145.154 1216.22 490.986
689 0 80.0685 12.3145 986 95.856 1215.03 490.087
690 0 81.0674 11.3239 918 99.5904 1215.52 489.087
691 0 83.0579 11.811 981 98.1162 1214.87 488.842
692 0 86.0649 11.7818 1014 99.0799 1215.5 487.524
693 0 90.1026 12.0196 1083 98.2179 1215.36 486.035
694 0 92.0856 12.7273 1172 98.1741 1214.95 484.445
695 0 94.0787 11.5754 1089 100.361 1215.27 483.233
696 0 98.0881 12.3562 1212 98.953 1215.26 479.752
697 0 101.105 12.7887 1293 97.0959 1215.49 479.601
698 0 102.155 12.1091 1237 99.4495 1215.23 477.184
699 0 107.171 11.7942 1264 99.1226 1214.84 478.075
700 0 108.154 11.6777 1263 98.7696 1214.59 476.127
701 0 108.154 11.65 1260 147.963 1213.59 476.143
702 0 118.113 12.7928 1511 95.5347 1214.61 472.077
703 0 121.223 12.2584 1486 97.0633 1214.25 469.97
704 0 126.15 13.1589 1660 95.6554 1214.33 467.749
705 1 68.0295 11.0981 755 99.9576 1214.12 496.702
706 0 71.0454 12.2738 872 99.0745 1213.08 493.922
707 0 75.0411 12.6597 950 97.2958 1213.51 492.221
708 0 77.1213 13.3167 1027 97.4421 1213.27 490.08
709 0 79.0797 13.3283 1054 96.7533 1213.06 489.639
710 0 82.0814 13.5232 1110 87.918 1214.31 489.519
711 0 83.1247 13.1489 1093 90.3586 1213.48 488.72
712 0 85.2 13.2629 1130 90.4265 1213.47 485.967
713 0 87.1172 13.6483 1189 90.5635 1213.44 487.737
714 0 91.1129 14.0156 1277 89.4628 1214.31 486.395
715 0 91.1119 13.9718 1273 149.41 1215.31 486.486
716 0 95.1875 12.9954 1237 92.6233 1213.02 483.914
717 0 99.1786 13.5211 1341 91.1447 1212.9 480.39
718 0 102.098 13.585 1387 91.1839 1213.49 480.317
719 0 104.172 13.0457 1359 92.972 1213.58 477.743
720 0 108.188 12.8295 1388 93.3451 1213.62 477.792
721 1 52.1242 11.0697 577 99.1594 1213.79 503.541
722 0 55.038 12.1189 667 95.5172 1213.07 503.277
723 0 55.0334 11.5203 634 98.0726 1213.2 502.178
724 0 56.0439 11.7943 661 97.6445 1213.15 500.887
725 0 56.0439 11.7943 661 119.2 1214.15 500.887
726 0 62.1012 12.0932 751 95.526 1212.76 498.652
727 0 62.0415 11.589 719 101.05 1212.78 497.385
728 0 66.0336 12.3876 818 98.7689 1212.7 495.98
729 0 69.0482 12.2378 845 98.5858 1212.38 494.876
730 0 71.0734 12.0157 854 97.2927 1212.82 494.151
731 0 72.0933 12.3035 887 97.8985 1212.95 493.411
732 0 76.0683 12.2127 929 97.7578 1213.29 490.765
733 0 76.0444 12.2692 933 99.4416 1212.77 490.592
734 0 78.0611 12.0675 942 100.437 1213.6 487.516
735 0 84.1436 12.1102 1019 100.317 1212.33 486.272
736 0 88.0952 14.0189 1235 95.5101 1212.61 486.164
737 0 91.077 13.6588 1244 95.5635 1213.59 485.682
738 0 93.1618 14.3084 1333 96.5814 1212.73 483.237
739 0 97.0809 13.7926 1339 94.7513 1213.55 483.12
740 0 99.0943 13.7041 1358 96.0795 1213.16 479.785
741 1 48.119 11.8872 572 103.549 1212.79 504.724
742 0 49.0843 12.8758 632 98.4636 1212.52 502.693
743 0 50.0857 12.838 643 96.5708 1211.73 502.928
744 0 51.0309 12.8158 654 97.1407 1213.26 502.067
745 0 55.033 13.4465 740 93.9541 1213.26 501.573
746 0 56.0282 12.7793 716 95.6103 1213.99 501.559
747 0 57.0506 13.3566 762 93.9173 1213.39 501.402
748 0 54.0168 12.1444 656 101.506 1213.38 502.387
749 0 56.0211 12.2989 689 99.8142 1213.83 501.28
750 0 58.0168 12.4102 720 99.1181 1214.06 500.249
751 0 59.0585 11.4293 675 100.239 1214.11 499.664
752 0 64.0542 11.9586 766 98.9125 1214.43 498.283
753 0 63.0426 12.1822 768 101.625 1214.21 496.047
754 0 65.057 12.0356 783 101.66 1214.21 495.092
755 0 68.0522 11.8879 809 99.534 1214.4 494.253
756 0 71.0287 12.1359 862 97.5325 1213.81 493.642
757 0 72.0182 11.4693 826 100.726 1213.9 492.62
758 0 75.0386 12.5935 945 96.8159 1214.77 490.851
759 0 76.0761 12.0274 915 100.509 1214.59 489.451
760 0 80.0676 11.9149 954 102.377 1214.37 487.879
761 0 82.0618 12.4175 1019 101.447 1214.8 487.373
762 1 46.0311 11.2315 517 105.126 1215.12 503.064
763 0 47.0696 11.5149 542 104.435 1215 502.79
764 0 48.0408 12.302 591 99.4061 1213.11 503.168
765 0 47.0599 11.5172 542 97.9889 1213.61 503.893
766 0 49.111 11.1584 548 98.3321 1213.52 503.1
767 0 49.0712 11.6362 571 99.3363 1212.96 502.41
768 0 49.1501 11.2106 551 100.96 1212.97 501.16
769 0 51.0659 11.5733 591 100.724 1213.03 500.487
770 0 54.0665 12.6881 686 96.3746 1213.33 500.71
771 0 57.0789 12.1761 695 96.9424 1213.51 499.196
772 0 59.0446 12.4821 737 96.4763 1213.97 499.028
773 0 58.1584 12.2252 711 99.1997 1213.54 497.927
774 0 63.0751 12.6992 801 97.1973 1213.18 498.014
775 0 64.0717 12.3611 792 99.024 1213.76 495.764
776 0 64.068 12.8457 823 98.8226 1213.92 494.243
777 0 67.0844 12.4768 837 99.0657 1213.95 494.07
778 0 70.2039 12.8056 899 99.2903 1213.7 492.756
779 0 73.1002 13.1874 964 97.1961 1214.23 491.273
780 0 75.0741 13.187 990 99.4616 1214.14 489.239
781 0 77.1024 12.5158 965 100.533 1213.47 488.956
782 0 81.1107 12.637 1025 100.07 1214.11 486.638
783 0 85.0617 13.0376 1109 97.7304 1213.39 485.344
784 0 85.1535 12.73 1084 98.5618 1213.65 483.354
785 1 46.0151 11.7353 540 101.352 1213.05 501.881
786 0 49.0592 12.434 610 92.8361 1213.83 501.121
787 0 50.0211 12.0349 602 92.2973 1214.01 501.937
788 0 50.0455 11.3097 566 95.447 1214.15 499.938
789 0 52.11 11.8403 617 100.203 1214.11 500.267
790 0 54.091 11.7949 638 100.136 1214.98 499.13
791 0 55.2129 11.7002 646 99.969 1214.12 499.389
792 0 54.0547 11.9879 648 101.336 1215.02 497.394
793 0 56.0948 11.4984 645 102.229 1214.47 497.124
794 0 57.0629 11.2858 644 102.373 1214.27 496.216
795 0 58.1011 11.2046 651 102.942 1214.76 494.475
796 0 62.0812 11.34 704 101.183 1215.29 493.736
797 0 62.0435 11.6531 723 100.58 1214.95 494.993
798 0 64.0486 11.9128 763 100.722 1215.52 493.4
799 0 66.1288 12.143 803 100.606 1214.93 492.665
800 0 70.1247 12.4635 874 99.2391 1215.56 492.392
801 0 72.0375 12.1187 873 100.013 1216 491.058
802 0 74.0426 12.0741 894 101.034 1215.73 491.161
803 0 76.014 12.524 952 101.186 1216.22 490.247
804 0 78.0873 12.0506 941 102.774 1215.82 488.722
805 0 79.0343 12.2225 966 102.563 1215.43 487.61
806 0 82.0387 11.8846 975 103.125 1215.63 485.444
807 0 85.0416 12.0412 1024 102.618 1215.46 486.303
808 0 87.0358 12.9372 1126 102.271 1215.37 483.21
809 0 89.08 12.1127 1079 105.823 1215.4 483.015
810 1 45.0467 10.6112 478 102.542 1215.77 506.341
811 0 46.0404 11.0338 508 102.785 1215.81 504.494
812 0 49.0528 12.2725 602 101.317 1215.27 503.867
813 0 51.0144 12.2122 623 101.851 1214.19 502.995
814 0 51.014 12.1339 619 96.504 1213.63 502.473
815 0 51.0841 12.3522 631 93.122 1214.06 504.285
816 0 54.0582 12.727 688 91.718 1214.28 503.6
817 0 55.0295 13.0839 720 91.2625 1213.53 503.296
818 0 57.0171 13.1013 747 90.8554 1214.04 500.133
819 0 60.0377 13.275 797 89.4316 1214.75 500.093
820 0 63.0792 13.0154 821 88.4361 1214.43 498.981
821 0 61.0457 12.9903 793 91.5032 1214.39 497.386
822 0 64.042 13.0539 836 91.1615 1214.57 497.547
823 0 65.0379 12.6542 823 92.8627 1213.55 495.478
824 0 70.0595 13.3173 933 90.1951 1213.76 494.777
825 0 72.0871 12.9011 930 91.4602 1213.56 495.238
826 0 73.0734 13.0143 951 92.0305 1213.29 494.968
827 0 76.05 13.0178 990 92.6182 1213.24 493.347
828 0 77.1436 13.0536 1007 92.8113 1213.77 492.005
829 0 77.1489 13.0527 1007 133.057 1214.77 492.005
830 0 82.1744 12.7655 1049 93.2374 1213.43 490.859
831 0 84.1031 13.2813 1117 93.2954 1213.86 487.194
832 0 88.0615 13.5701 1195 92.7925 1213.81 485.104
833 0 90.0508 13.2481 1193 95.5205 1213.94 485.547
834 0 92.0603 13.0458 1201 102.837 1213.68 484.893
835 0 96.1172 13.109 1260 102.363 1213.79 483.359
836 1 51.0788 10.7677 550 99.1364 1213.27 505.385
837 0 55.1079 12.158 670 96.1313 1213.34 503.513
838 0 53.0683 12.3049 653 94.4747 1212.77 502.482
839 0 55.0464 12.1534 669 94.9567 1212.59 502.096
840 0 59.065 13.1211 775 102.348 1212.08 499.791
841 0 61.0416 12.8109 782 102.882 1211.74 498.188
842 0 63.0912 13.5201 853 100.959 1212.71 498.005
843 0 65.0815 12.7993 833 100.969 1212.26 496.247
844 0 68.1088 13.1701 897 99.9967 1212.44 493.274
845 0 71.0895 13.5885 966 98.7412 1212.67 493.289
846 0 73.0808 13.0814 956 99.9236 1212.2 491.122
847 0 76.0555 13.5296 1029 98.4295 1212.65 491.138
848 0 79.0962 13.8313 1094 97.7495 1212.86 488.232
849 0 80.1139 13.0814 1048 101.302 1212.01 486.138
850 0 84.068 13.5367 1138 99.7935 1212.81 485.889
851 0 86.115 13.0523 1124 100.666 1212.55 485.375
852 0 88.0804 13.5785 1196 99.9214 1212.43 484.967
853 0 93.0633 13.1953 1228 100.426 1212.81 484.713
854 1 48.0257 11.4522 550 97.0655 1212.89 505.827
855 0 51.031 11.8555 605 93.3719 1212.24 503.906
856 0 51.0221 12.1516 620 95.0387 1213.42 502.663
857 0 52.0166 12.8036 666 90.9219 1213.03 502.883
858 0 54.0322 12.9367 699 92.186 1212.12 501.97
859 0 55.0338 12.992 715 93.0881 1213.05 501.256
860 0 57.0595 13.4947 770 91.5455 1213.29 500.768
861 0 59.0225 13.9438 823 90.4022 1212.97 499.435
862 0 61.0631 13.2486 809 92.0581 1213.12 499.068
863 0 61.0564 13.1518 803 93.4234 1213.95 498.873
864 0 63.0526 13.576 856 92.396 1212.99 497.264
865 0 64.0408 13.0542 836 94.4773 1212.99 496.64
866 0 65.0381 13.0539 849 95.3204 1212.99 494.988
867 0 67.0551 13.556 909 91.2651 1213.24 493.739
868 0 70.0245 13.381 937 93.5304 1213.41 492.309
869 0 71.0548 13.1307 933 95.1726 1213.27 490.938
870 0 74.0306 13.2783 983 94.3103 1213.22 489.476
871 0 75.0502 13.5243 1015 95.1084 1212.86 488.419
872 0 79.0477 14.0928 1114 97.3178 1212.47 487.188
873 0 81.0556 13.9287 1129 97.7006 1212.77 486.068
874 0 84.0259 13.8291 1162 97.4983 1213.14 483.12
875 0 88.0592 14.2064 1251 95.6747 1212.78 483.177
876 0 90.0654 14.012 1262 95.8019 1213.39 481.161
877 0 91.1034 13.5999 1239 96.3067 1213.2 478.666
878 0 94.019 14.0184 1318 94.4112 1213.32 477.149
879 0 97.0712 12.9184 1254 96.0375 1213.7 477.052
880 1 50.0466 11.8689 594 90.0067 1212.47 499.549
881 0 51.022 11.8772 606 89.8944 1212.69 499.586
882 0 53.0726 12.5489 666 87.7688 1212.56 498.575
883 0 54.0507 11.8037 638 84.4326 1212.59 499.878
884 0 55.0454 11.8811 654 84.5902 1212.63 499.335
885 0 57.0612 12.0572 688 84.4491 1212.59 496.562
886 0 60.0674 12.6358 759 83.1607 1213.36 495.715
887 0 62.0976 12.7058 789 83.2636 1213.44 494.648
888 0 63.051 12.6088 795 85.3069 1213.55 493.489
889 0 64.0252 12.8699 824 86.4575 1212.96 491.448
890 0 68.0794 13.1464 895 85.1453 1212.95 490.623
891 0 69.0477 13.411 926 86.2981 1213.02 490.595
892 0 69.0626 12.6552 874 88.5458 1213.08 490.77
893 0 72.0203 12.9824 935 89.2834 1213.46 487.305
894 0 76.0388 13.3484 1015 88.3507 1213.55 488.21
895 0 78.0287 13.3925 1045 89.1541 1213.57 486.449
896 0 79.0236 13.3504 1055 89.9735 1213.04 484.851
897 0 82.0755 13.1586 1080 90.6546 1213.67 483.075
898 0 85.0823 13.152 1119 90.3896 1214.04 483.35
899 0 87.1063 13.6615 1190 89.321 1214.56 481.221
900 0 88.0531 13.6849 1205 91.044 1214.12 478.811
901 0 90.0671 13.8119 1244 92.6206 1213.4 475.902
902 0 92.0543 13.8723 1277 92.8105 1213.84 475.677
903 0 96.0788 13.8012 1326 93.0204 1213.96 473.056
904 0 97.0886 13.6473 1325 95.2815 1213.67 471.229
905 0 101.088 13.978 1413 94.6214 1214.35 467.595
906 0 105.031 13.7484 1444 95.2916 1214.17 468.038
907 0 106.074 13.2738 1408 97.3345 1213.94 464.274
908 0 112.071 14.0179 1571 95.5971 1214.02 464.437
909 0 116.063 13.7167 1592 97.0854 1213.57 461.177
910 0 118.113 13.5125 1596 98.2162 1213.86 461.32
911 1 63.1346 10.9607 692 100.35 1213.75 484.88
912 0 65.1439 11.3902 742 154.774 1213.68 486.057
913 0 70.0543 12.7044 890 97.2876 1214.13 485.766
914 0 72.0565 12.1294 874 98.6934 1213.9 489.148
915 0 75.141 13.3615 1004 95.2141 1214.1 488.737
916 0 76.1338 12.5568 956 98.4937 1214.39 486.444
917 0 78.0466 13.1972 1030 97.1417 1213.79 486.117
918 0 81.1002 13.0826 1061 97.9868 1213.85 484.393
919 0 83.1436 13.0497 1085 98.3889 1213.92 483.577
920 0 84.0705 12.8583 1081 99.3145 1213.65 482.354
921 0 89.0503 13.745 1224 97.5417 1213.8 480.975
922 0 90.0693 12.8568 1158 99.4508 1214.18 480.108
923 0 95.1016 13.1123 1247 98.7763 1213.78 478.16
924 0 96.1368 13.0023 1250 99.9088 1213.96 473.946
925 0 99.0944 12.5234 1241 99.9952 1214.09 472.405
926 0 99.0944 12.5133 1240 147.063 1214.08 472.432
927 0 106.175 12.7619 1355 99.7225 1213.93 468.582
928 1 57.2604 10.3562 593 96.9444 1213 492.12
929 0 62.1172 11.1885 695 94.6014 1213.03 494.233
930 0 64.0953 12.0446 772 101.016 1212.7 495.892
931 0 66.0452 11.9766 791 101.913 1212.57 494.74
932 0 69.1117 12.4291 859 99.837 1212.21 494.595
933 0 68.0318 12.0238 818 91.0611 1212.24 498.119
934 0 70.0901 11.7135 821 92.6602 1212.83 496.005
935 0 71.2289 11.6385 829 94.0084 1212.54 496.288
936 0 75.2301 12.1494 914 92.7363 1212.06 494.603
937 0 75.0744 11.6817 877 95.8062 1211.77 493.883
938 0 80.1608 11.8387 949 95.0832 1211.35 492.51
939 0 84.1026 12.3659 1040 96.1 1211.15 490.199
940 0 85.1268 11.7942 1004 92.8994 1210.96 488.426
941 0 87.0459 11.6835 1017 93.47 1210.79 487.56
942 0 91.0646 11.9146 1085 92.5843 1210.96 486.113
943 0 93.0746 11.1094 1034 94.4961 1211.18 484.199
944 0 93.0746 11.0556 1029 141.029 1211.17 484.28
945 1 53.0603 11.8356 628 91.5748 1210.83 504.694
946 0 55.0551 12.3694 681 89.5624 1210.93 503.004
947 0 55.052 12.1885 671 90.5931 1210.38 501.083
948 0 56.0355 12.6527 709 88.4993 1210.71 500.749
949 0 58.0639 13.089 760 86.8408 1210.95 499.614
950 0 60.0476 13.023 782 91.766 1211.24 497.643
951 0 63.0702 13.0807 825 94.3406 1210.97 500.359
952 0 65.0706 13.2625 863 94.1078 1212.66 498.263
953 0 66.0445 13.2032 872 95.0321 1212.01 498.07
954 0 66.0771 12.5459 829 98.3112 1212.45 498.879
955 0 68.085 13.1013 892 88.7063 1211.6 496.068
956 0 70.1245 12.5063 877 90.3626 1211.66 496.634
957 0 71.1196 11.783 838 93.1599 1212.4 494.617
958 0 75.1558 12.6005 947 91.472 1212.6 493.452
959 0 76.1898 12.6264 962 92.7058 1212.35 491.084
960 0 79.1467 12.6727 1003 94.1097 1212.01 488.914
961 0 84.0781 13.4042 1127 92.3301 1212 488.583
962 0 84.1463 13.322 1121 94.8689 1212.13 486.662
963 0 87.1928 13.4874 1176 97.5935 1212.6 486.122
964 0 89.1994 13.5539 1209 99.5087 1212.23 483.189
965 0 91.2102 13.6936 1249 100.077 1212.61 482.387
966 0 94.0965 13.3692 1258 100.37 1212.61 479.018
967 0 97.1233 12.7776 1241 100.38 1212.73 478.232
968 0 101.158 12.6338 1278 100.034 1212.66 477.157
969 0 105.213 12.8692 1354 98.8538 1212.87 476.253
970 0 108.206 12.8736 1393 99.0057 1212.72 473.322
971 0 111.092 12.6921 1410 99.8631 1213.07 470.432
972 1 57.0561 10.6737 609 99.2677 1212.53 497.737
973 0 59.077 12.1875 720 95.2931 1212.97 494.742
974 0 61.0746 12.3292 753 95.0266 1213.58 493.336
975 0 61.0217 12.0449 735 94.9265 1213.67 497.359
976 0 64.0267 12.3698 792 94.1465 1214.62 495.778
977 0 65.1044 11.1052 723 97.5671 1214.36 493.882
978 0 66.074 11.8655 784 101.261 1214.08 492.945
979 0 69.0767 11.8564 819 104.469 1214.73 492.336
980 0 73.0636 12.4412 909 103.666 1215.06 493.047
981 0 76.0342 12.4023 943 104.278 1214.39 491.805
982 0 76.0961 11.9586 910 97.4703 1214.79 491.927
983 0 78.0747 12.2831 959 97.3618 1214.59 489.496
984 0 80.024 12.6837 1015 96.1911 1214.17 487.544
985 0 84.0692 12.6325 1062 97.1695 1214.34 486.38
986 0 86.1183 12.3086 1060 98.9717 1213.8 484.925
987 0 86.0775 12.5468 1080 100.056 1214.48 483.594
988 0 90.0745 12.3675 1114 100.447 1214.55 482.074
989 0 92.0913 12.379 1140 101.482 1213.9 481.56
990 0 94.0878 12.4246 1169 101.92 1213.94 478.921
991 0 98.1831 12.7721 1254 100.136 1214.59 477.193
992 0 100.129 12.1044 1212 102.123 1214.92 475.753
993 0 103.114 13.0632 1347 99.9666 1214.33 472.578
994 0 108.168 12.4436 1346 100.2 1213.98 471.268
995 0 112.139 12.868 1443 98.5364 1214.47 466.432
996 0 116.188 13.0048 1511 98.5202 1214.35 465.762
997 1 63.1066 11.029 696 100.32 1214.16 493.999
998 0 63.0652 11.052 697 102.881 1213.45 490.496
999 0 65.0209 11.9808 779 100.28 1213.75 491.878
1000 0 70.1641 12.6846 890 99.9742 1213.86 493.1
1001 0 68.1248 12.2569 835 97.1737 1213.99 493.382
1002 0 69.1238 12.5716 869 98.0506 1214.07 491.533
1003 0 72.0958 12.1644 877 98.4892 1214.26 490.659
1004 0 75.031 12.9546 972 97.2737 1214.54 490.123
1005 0 76.0532 12.6622 963 100.051 1214.7 488.908
1006 0 80.0721 13.2381 1060 97.4264 1215.24 488.553
1007 0 81.0861 12.9245 1048 100.483 1215.18 485.621
1008 0 85.0676 13.5069 1149 99.2715 1214.83 484.627
1009 0 89.0637 13.5184 1204 99.4203 1214.46 483.733
1010 0 91.0838 12.9331 1178 102.008 1215.24 481.767
1011 0 93.0907 13.9541 1299 100.6 1214.56 479.942
1012 0 95.0683 13.7901 1311 102.594 1213.85 477.841
1013 0 98.0975 13.7822 1352 102.792 1213.81 476.805
1014 0 100.052 14.1027 1411 102.901 1213.98 474.612
1015 0 105.122 14.5545 1530 100.617 1213.48 473.682
1016 0 105.203 14.011 1474 105.18 1214.5 470.301
1017 0 108.206 13.9826 1513 106.594 1214.92 466.61
1018 0 112.147 14.2314 1596 105.113 1215.16 460.383
1019 0 116.186 13.8657 1611 105.256 1215.09 459.145
1020 0 121.142 14.5862 1767 103.177 1215.22 456.165
1021 0 124.217 13.7984 1714 106.563 1216 455.493
1022 0 129.215 14.085 1820 106.096 1215.66 452.456
1023 0 133.204 13.6632 1820 108.257 1216.58 449.749
1024 0 138.128 14.0811 1945 107.603 1216.43 447.649
1025 0 143.262 13.6743 1959 109.399 1215.28 444.074
1026 0 147.168 13.8345 2036 109.554 1214.92 443.713
1027 0 152.135 14.0796 2142 109.386 1215.27 441.136
1028 0 156.211 13.9875 2185 110.605 1214.82 437.887
1029 0 161.203 14.1746 2285 109.926 1215.27 435.141
1030 0 166.196 14.5371 2416 108.129 1214.36 432.558
1031 0 169.142 14.6386 2476 108.372 1216.19 429.232
1032 0 175.15 15.107 2646 107.288 1215.44 424.959
1033 0 178.141 14.786 2634 108.423 1215.39 422.178
1034 0 178.148 14.8079 2638 170.074 1216.39 422.365
1035 0 186.183 14.6684 2731 108.003 1214.84 419.876
1036 0 193.159 14.7909 2857 105.954 1215.65 417.953
1037 0 199.243 15.5388 3096 103.977 1215.46 413.923
1038 0 206.141 15.1158 3116 104.21 1215.1 410.495
1039 0 213.269 14.6153 3117 105.895 1214.48 407.267
1040 1 37.0508 9.50046 352 74.1051 1216.18 498.026
1041 0 42.1361 9.99144 421 71.8029 1214.74 500.38
1042 0 43.0529 10.9865 473 79.1353 1214.44 506.592
1043 0 44.0536 11.3725 501 80.1357 1214.63 506.413
1044 0 47.0388 11.9051 560 78.5821 1214.35 505.087
1045 0 48.0538 11.8201 568 80.0546 1214.39 504.731
1046 0 48.0355 11.4707 551 81.5826 1214.4 503.555
1047 0 50.0319 11.033 552 81.1069 1214.61 504.112
1048 0 53.0329 12.1434 644 79.1335 1214.02 501.828
1049 0 54.0198 10.959 592 80.7331 1215 500.851
1050 0 54.0721 11.8176 639 81.784 1214.31 498.836
1051 0 51.0417 9.93305 507 86.3037 1214.98 501.702
1052 0 54.0299 10.6423 575 84.927 1215.16 500.123
1053 0 55.0386 10.2837 566 85.9576 1215.08 498.693
1054 0 57.0341 10.257 585 89.7265 1215.53 498.185
1055 0 59.0316 10.1641 600 90.2983 1215.27 498.133
1056 0 60.0645 10.3389 621 90.8003 1215.5 499.103
1057 0 64.0563 11.2557 721 89.3551 1214.91 497.95
1058 0 65.0609 10.7899 702 90.2108 1215.52 496.467
1059 0 66.0614 11.0957 733 89.7162 1215.27 496.393
1060 0 68.0248 10.8931 741 90.7854 1214.59 494.625
1061 0 71.045 10.4159 740 91.5959 1214.68 494.596
1062 0 72.0786 10.1417 731 93.0233 1214.43 494.665
1063 0 75.0594 10.565 793 92.8323 1214.49 492.946
1064 0 78.066 10.3374 807 92.1561 1214.43 492.261
1065 0 80.1336 10.495 841 91.7146 1214.06 491.069
1066 1 45.0731 11.0043 496 88.6573 1214.37 506.752
1067 0 45.0399 11.1679 503 86.66 1215.41 505.99
1068 0 48.0529 11.1336 535 84.9364 1214.45 505.503
1069 0 49.0749 11.8187 580 83.7 1214.34 504.412
1070 0 51.0671 11.2793 576 85.0903 1214.07 504.304
1071 0 51.047 11.8518 605 85.1388 1214.26 503.808
1072 0 52.1009 11.1131 579 88.1347 1214.24 503.38
1073 0 54.1113 11.0883 600 86.7367 1214.19 501.982
1074 0 56.0163 11.9965 672 85.2083 1214.74 500.808
1075 0 57.0371 12.0974 690 85.5652 1213.91 500.025
1076 0 59.0632 12.0041 709 85.3709 1215.19 499.968
1077 0 60.018 11.9797 719 87.2712 1215.05 499.395
1078 0 62.043 13.0393 809 85.0927 1215.43 499.993
1079 0 64.0546 12.8328 822 84.8054 1215.05 500.109
1080 0 66.0682 13.6828 904 83.979 1215.27 498.041
1081 0 67.0254 13.7411 921 83.3583 1215.2 497.43
1082 0 69.0495 14.0768 972 82.4609 1214.55 496.203
1083 0 72.0405 13.895 1001 83.5375 1214.28 495.818
1084 0 74.0496 12.9103 956 85.8232 1214.55 494.157
1085 0 75.0493 14.0974 1058 85.0605 1214.35 493.491
1086 0 77.0529 13.9774 1077 85.8375 1215.55 490.798
1087 0 80.0644 13.8888 1112 86.4353 1214.85 490.66
1088 0 82.0415 14.1392 1160 85.8466 1215.2 488.712
1089 0 84.0938 13.4968 1135 99.1595 1215.14 486.491
1090 0 87.0286 14.0988 1227 104.394 1215.31 485.886
1091 0 90.0597 14.3571 1293 103.736 1214.57 484.712
1092 0 92.1026 14.0821 1297 103.218 1214.54 484.571
1093 1 50.0448 11.7095 586 102.392 1214.52 504.57
1094 0 50.0545 11.1678 559 102.8 1215.08 504.25
1095 0 54.012 11.8307 639 97.4147 1215.17 503.845
1096 0 55.0591 12.6773 698 91.6246 1214.32 502.628
1097 0 57.019 13.3289 760 101.404 1215.74 500.851
1098 0 54.0174 11.2556 608 93.9326 1215.16 504.015
1099 0 56.0445 11.937 669 92.6188 1216.72 503.493
1100 0 60.0359 12.3926 744 92.0981 1215.97 500.683
1101 0 61.0203 11.6682 712 92.7149 1215.17 499.93
1102 0 64.034 12.7901 819 90.8046 1215.37 497.968
1103 0 64.046 11.9758 767 94.7627 1215.59 495.424
1104 0 68.0394 12.6838 863 92.7683 1214.94 496.048
1105 0 71.0407 12.8236 911 92.9265 1214.84 493.941
1106 0 73.1006 12.4623 911 94.6334 1215.16 493.723
1107 0 76.0863 12.8012 974 93.3296 1215.31 492.898
1108 0 77.0302 12.3977 955 96.1194 1215.56 491.374
1109 0 80.0344 13.6192 1090 99.3872 1215.39 488.683
1110 0 83.0963 13.5144 1123 100.722 1215.39 488.331
1111 0 84.0944 13.2589 1115 101.505 1214.97 487.197
1112 0 89.1368 14.2253 1268 98.3612 1214.27 486.025
1113 0 90.2078 13.8236 1247 97.7418 1214.02 482.906
1114 0 92.0972 13.6595 1258 99.0866 1213.71 481.665
1115 0 94.2472 13.5919 1281 100.383 1213.99 477.664
1116 0 97.3099 14.274 1389 100.03 1214.87 478.205
1117 0 100.246 14.3547 1439 101.089 1214.06 474.943
1118 0 106.325 14.7566 1569 99.4175 1214.24 472.88
1119 0 110.146 14.617 1610 99.4807 1214.11 471.462
1120 0 114.248 14.2584 1629 99.9331 1214.19 469.583
1121 0 114.183 13.9425 1592 101.773 1214.17 471.526
1122 1 63.0816 12.3491 779 100.457 1213.79 498.96
1123 0 64.0431 12.4916 800 100.93 1213.95 496.619
1124 0 65.0595 12.3118 801 98.9276 1214.29 498.256
1125 0 67.1176 11.8747 797 98.1995 1214.46 496.979
1126 0 69.0918 12.042 832 98.9519 1215.01 494.617
1127 0 71.0583 12.2998 874 99.8913 1214.61 493.198
1128 0 74.0663 12.3808 917 101.795 1214.2 491.881
1129 0 75.0686 12.5219 940 102.615 1214.76 492.057
1130 0 78.0357 12.1098 945 104.737 1214.29 491.193
1131 0 79.0581 12.6742 1002 106.297 1214.68 489.521
1132 0 84.057 12.9079 1085 106.371 1214.7 489.373
1133 0 85.1112 12.3016 1047 112.225 1215.05 486.772
1134 0 87.073 12.5986 1097 111.476 1214.53 486.057
1135 0 90.0291 12.9403 1165 111.017 1214.17 484.411
1136 0 94.0352 12.6442 1189 115.841 1214.33 483.462
1137 0 95.0956 12.5032 1189 119.352 1214.77 482.083
1138 0 100.052 12.8833 1289 117.214 1214.08 481.911
1139 0 100.067 12.2518 1226 121.497 1214.53 479.721
1140 0 104.038 13.1395 1367 120.623 1214.39 479.236
1141 0 109.103 13.1619 1436 121.495 1214.2 476.34
1142 0 111.053 13.1649 1462 124.587 1213.79 474.564
1143 0 114.076 12.9212 1474 126.832 1213.46 471.876
1144 0 119.057 13.0274 1551 124.613 1213.55 471.077
1145 0 122.1 13.4644 1644 125.786 1213.52 466.513
1146 0 128.082 13.3431 1709 126.187 1213.47 466.181
1147 1 71.0932 11.7451 835 118.232 1213.81 495.823
1148 0 74.0867 12.2559 908 120.344 1213.9 492.979
1149 0 77.0449 12.4213 957 105.061 1214.41 493.304
1150 0 79.1192 12.854 1017 104.615 1214.03 492.986
1151 0 82.107 12.435 1021 106.246 1214.01 490.399
1152 0 84.0725 12.2632 1031 107.668 1213.52 489.656
1153 0 87.0639 12.5195 1090 107.075 1214.26 488.797
1154 0 88.052 12.0951 1065 109.163 1213.44 487.186
1155 0 90.0423 12.6829 1142 109.969 1213.65 484.593
1156 0 94.0589 11.95 1124 111.399 1212.77 483.78
1157 0 97.0889 13.0911 1271 110.654 1213.39 481.955
1158 0 98.1183 12.4136 1218 112.92 1213.85 480.53
1159 0 102.122 12.7299 1300 111.725 1213.4 478.175
1160 0 104.034 11.9865 1247 114.388 1213.7 475.386
1161 0 106.081 12.0945 1283 114.549 1213.87 475.594
1162 0 110.149 12.6556 1394 113.059 1213.88 474.1
1163 0 114.096 11.9986 1369 114.421 1214.06 471.371
1164 1 64.0594 11.0054 705 107.498 1213.26 497.83
1165 0 64.0335 10.7444 688 108.039 1213.9 495.558
1166 0 66.0471 11.4615 757 107.765 1214.26 495.349
1167 0 66.0471 11.4615 757 135.581 1215.26 495.306
1168 0 70.0831 11.9002 834 114.191 1213.22 493.088
1169 0 71.1168 11.5866 824 115.262 1213.33 492.444
1170 0 75.1156 11.3425 852 115.478 1213 490.143
1171 0 77.1069 11.4905 886 114.252 1212.81 489.467
1172 0 78.1611 11.9369 933 113.676 1212.8 489.147
1173 0 80.1213 11.6074 930 113.995 1212.81 486.989
1174 0 84.1689 11.7621 990 112.255 1213 484.712
1175 0 86.1885 11.7533 1013 114.175 1212.79 484.21
1176 0 89.1342 11.6902 1042 113.202 1213.32 482.64
1177 0 90.1 11.5316 1039 113.853 1212.83 480.078
1178 0 96.1789 12.2064 1174 110.571 1212.39 480.065
1179 0 97.2765 12.3668 1203 108.297 1212.53 480.973
1180 0 99.1996 12.248 1215 103.123 1212.61 478.43
1181 0 104.259 12.0662 1258 103.597 1212.65 476.473
1182 0 107.338 11.9995 1288 106.927 1212.67 472.73
1183 0 110.238 11.7654 1297 108.503 1212.63 469.621
1184 0 113.418 11.5149 1306 108.584 1212.9 467.763
1185 0 116.309 11.6242 1352 108.2 1213.27 467.476
1186 0 120.316 11.6111 1397 108.863 1212.88 465.399
1187 0 123.318 11.1906 1380 109.231 1212.79 463.106
1188 0 127.388 11.8378 1508 108.751 1212.54 462.988
1189 0 131.279 11.1823 1468 109.64 1212.21 460.461
1190 1 71.1747 10.8747 774 105.08 1212.52 488.696
1191 0 72.2746 11.1104 803 105.416 1212.71 486.793
1192 0 74.4178 11.8386 881 105.211 1213.13 485.275
1193 0 75.1774 11.6258 874 102.261 1212.74 486.696
1194 0 78.1258 12.0575 942 101.546 1212.79 485.798
1195 0 81.3588 12.5371 1020 100.581 1213.03 484.234
1196 0 82.3122 11.9788 986 103.071 1212.93 482.331
1197 0 85.3406 11.7881 1006 103.298 1212.42 481.657
1198 0 87.2848 12.0869 1055 103.131 1212.27 479.786
1199 0 91.2404 12.2753 1120 101.674 1212.13 478.996
1200 0 94.2675 12.5176 1180 101.132 1212.24 477.869
1201 0 98.2476 12.2446 1203 101.203 1212.41 477.433
1202 0 99.2954 12.5887 1250 100.222 1212.43 476.805
1203 0 101.216 11.352 1149 103.692 1212.13 476.634
1204 0 103.166 10.9823 1133 106.071 1212.35 474.699
1205 1 59.0533 10.0587 594 105.364 1213.62 495.168
1206 0 57.0853 10.1953 582 107.796 1213.96 486.747
1207 0 59.0882 10.7467 635 105.463 1214.57 486.17
1208 0 63.2104 11.8651 750 100.28 1214.15 496.089
1209 0 63.144 11.4975 726 103.284 1214.03 496.534
1210 0 65.1688 11.5239 751 101.561 1213.84 496.755
1211 0 67.0935 11.0443 741 100.972 1213.53 495.316
1212 0 68.0549 10.947 745 101.137 1213.49 494.235
1213 0 70.0971 11.0704 776 101.323 1214.11 493.012
1214 0 74.0302 11.2657 834 99.0635 1213.46 491.163
1215 0 76.1402 11.5182 877 99.0764 1213.63 490.642
1216 0 78.0712 11.387 889 99.9494 1213.99 488.89
1217 0 79.2041 11.4262 905 100.678 1213.44 487.465
1218 0 83.0958 12.0463 1001 97.7253 1213.5 486.33
1219 0 83.1962 11.9957 998 99.1072 1213.51 484.763
1220 0 88.1898 11.9175 1051 98.4814 1213.61 483.122
1221 0 90.286 12.1503 1097 98.732 1214.06 479.278
1222 0 92.293 11.7777 1087 99.7415 1213.61 477.018
1223 0 93.2846 11.6096 1083 101.423 1213.88 471.125
1224 0 97.2814 11.9859 1166 99.6647 1214.09 467.641
1225 0 98.1382 11.6672 1145 102.26 1214.56 464.611
1226 0 101.248 11.3286 1147 103.232 1214.66 464.897
1227 0 105.24 11.431 1203 102.697 1214.42 463.762
1228 1 57.1657 8.64155 494 96.9676 1214.48 486.506
1229 0 59.1625 9.19502 544 94.7904 1214.41 484.432
1230 0 61.1448 10.0908 617 93.3485 1213.83 482.536
1231 0 65.1416 11.3906 742 98.1752 1213.26 492.28
1232 0 68.1643 11.6483 794 96.2229 1213.78 491.778
1233 0 70.1071 11.8676 832 97.5132 1213.97 490.131
1234 0 73.1886 12.379 906 97.2914 1213.69 491.748
1235 0 76.1 11.3141 861 79.5784 1213.99 489.672
1236 0 78.1169 10.8299 846 80.7281 1214.01 489.754
1237 0 78.1625 9.26276 724 92.0843 1213.08 483.796
1238 0 83.2153 11.4042 949 103.12 1213.68 488.208
1239 0 86.197 11.6709 1006 102.487 1213.81 486.931
1240 1 100.228 9.33869 936 107.482 1213.41 486.637
1241 0 100.192 9.32209 934 104.998 1213.78 486.792
1242 0 99.2083 10.5334 1045 106.271 1213.75 482.324
1243 0 100.348 11.5498 1159 104.375 1213.7 481.091
1244 0 98.2522 11.8165 1161 105.297 1214.12 478.336
1245 0 102.329 11.6291 1190 100.267 1214.07 478.2
1246 0 103.123 10.0851 1040 94.2096 1213.36 473.815
1247 0 105.08 9.47852 996 96.0863 1212.59 468.532
1248 0 108.155 9.37543 1014 96.8817 1213.44 470.182
1249 0 112.126 9.64985 1082 96.293 1213.38 469.209
1250 0 114.081 10.1507 1158 95.0708 1214.17 468.65
1251 0 117.106 9.94821 1165 95.9639 1213.15 466.668
1252 0 122.093 10.2299 1249 95.2298 1213.97 467.31
1253 1 64.0771 8.87993 569 84.4499 1214.15 495.116
1254 0 66.1043 10.317 682 84.4575 1213.99 494.771
1255 0 69.2046 10.9675 759 85.4335 1214.85 493.316
1256 0 73.0612 11.114 812 81.8929 1213.08 492.629
1257 0 73.1012 11.0942 811 82.8755 1213.25 490.2
1258 0 75.0673 11.2832 847 82.2066 1212.32 490.606
1259 0 78.0345 12.2254 954 79.6436 1212.36 489.252
1260 0 80.0656 12.0151 962 80.947 1212.86 488.381
1261 0 82.105 11.5705 950 82.6968 1212.76 486.699
1262 0 84.0639 11.8957 1000 80.864 1212.47 484.948
1263 0 88.0616 12.5026 1101 80.3233 1212.25 483.494
1264 0 89.1041 12.2441 1091 82.7534 1213.06 483.392
1265 0 91.0395 12.3353 1123 82.4978 1213.74 481.348
1266 0 95.0797 11.9899 1140 84.2482 1213.85 479.94
1267 0 96.0554 12.0659 1159 84.9758 1213.8 479.619
1268 0 99.1851 11.8264 1173 86.202 1213.57 477.59
1269 0 103.051 12.6927 1308 84.9885 1213.04 477.125
1270 0 104.087 11.3655 1183 88.3043 1213.29 473.925
1271 0 106.087 11.6037 1231 89.1608 1213.08 473.396
1272 0 106.095 10.4623 1110 92.6369 1213.12 476.571
1273 0 109.09 10.4226 1137 93.423 1212.96 475.914
1274 0 112.105 10.6151 1190 94.7849 1213.89 473.313
1275 0 114.097 10.9556 1250 94.788 1213.96 472.686
1276 0 114.097 10.9906 1254 138.607 1213.95 472.594
1277 0 122.099 11.3351 1384 96.8996 1214.06 466.504
1278 0 127.097 11.6683 1483 97.1666 1214.22 464.964
1279 0 131.174 12.0756 1584 98.149 1214.56 464.566
1280 0 134.157 12.3065 1651 100.268 1214 458.646
1281 0 139.152 12.6408 1759 102.429 1213.13 455.892
1282 0 143.166 13.0967 1875 104.23 1214.02 453.557
1283 0 144.165 13.1863 1901 149.161 1214.02 454.047
1284 0 154.16 12.5843 1940 106.472 1214.74 449.255
1285 0 156.195 12.3115 1923 108.006 1214.42 447.329
1286 0 162.183 12.8435 2083 106.337 1214.58 444.313
1287 1 91.0996 10.3952 947 97.6156 1214.74 483.841
1288 0 93.1323 11.2528 1048 94.7185 1215.11 482.75
1289 0 96.0571 10.9414 1051 97.4034 1214.92 480.597
1290 0 99.0885 11.2526 1115 96.4906 1215.25 482.539
1291 0 101.096 11.3753 1150 99.187 1214.86 478.01
1292 0 105.118 11.9866 1260 97.4198 1214.14 477.394
1293 0 108.088 12.0087 1298 99.7072 1213.53 476.69
1294 0 110.179 11.3906 1255 102.583 1213.98 472.653
1295 0 112.17 11.3399 1272 102.943 1212.88 469.871
1296 0 117.212 11.5261 1351 102.907 1213.3 466.853
1297 0 120.23 10.8376 1303 103.266 1212.72 466.444
1298 0 127.218 11.948 1520 99.2789 1212.9 465.234
1299 0 130.252 11.7311 1528 99.6741 1213.65 464.37
1300 0 135.244 12.0892 1635 98.852 1213.68 461.706
1301 0 139.256 12.2939 1712 98.722 1213.65 459.444
1302 0 143.31 12.2462 1755 99.3225 1213.73 456.348
1303 0 146.252 12.0887 1768 99.4604 1212.9 456.941
1304 0 152.2 11.866 1806 100.763 1213.37 452.618
1305 1 84.0949 10.5952 891 94.1863 1212.68 487.691
1306 0 85.143 10.8993 928 92.9224 1212.79 486.641
1307 0 89.2071 10.896 972 91.5082 1212.58 485.829
1308 0 93.1116 11.1909 1042 92.3369 1211.94 483.916
1309 0 95.1652 11.5904 1103 91.3753 1211.94 484.401
1310 0 96.1578 11.8555 1140 92.1728 1212.22 480.777
1311 0 101.157 11.8825 1202 92.0233 1212.64 480.39
1312 0 101.139 11.6671 1180 93.4356 1212.66 479.112
1313 0 105.121 11.5391 1213 95.235 1211.87 477.895
1314 0 107.187 11.6619 1250 96.8288 1212.44 477.467
1315 0 111.138 11.7511 1306 96.9709 1212.37 476.433
1316 0 114.202 12.3115 1406 99.4673 1212.05 473.669
1317 0 116.194 12.2639 1425 102.867 1211.75 471.292
1318 0 120.24 12.4667 1499 100.406 1211.96 471.783
1319 0 123.144 11.9291 1469 101.553 1211.66 469.179
1320 0 128.176 12.6077 1616 99.1392 1212.24 466.877
1321 0 132.11 12.5502 1658 98.0712 1211.76 466.118
1322 0 136.13 12.5763 1712 99.2173 1212.03 463.383
1323 0 140.157 12.7429 1786 99.6579 1211.76 461.8
1324 0 145.188 12.873 1869 100.156 1213.47 459.132
1325 0 149.135 13.5649 2023 101.714 1214.07 455.377
1326 0 154.202 13.6833 2110 101.858 1213.37 453.4
1327 0 161.169 13.582 2189 100.69 1214.75 453.35
1328 0 165.081 12.8785 2126 101.243 1213.07 448.724
1329 0 171.155 13.368 2288 103.74 1212.87 447.306
1330 1 67.0448 10.7242 719 98.0974 1212.15 495.865
1331 0 68.0849 10.6778 727 94.5846 1212.63 492.916
1332 0 73.0328 11.7755 860 95.7093 1212.23 495.269
1333 0 72.0591 11.4073 822 99.3978 1212.59 494.399
1334 0 78.0719 12.0274 939 96.3216 1212.4 493.841
1335 0 79.0436 11.8542 937 97.7076 1211.93 491.692
1336 0 79.053 12.0679 954 98.0461 1211.89 490.763
1337 0 82.0688 11.6975 960 98.324 1212.28 488.931
1338 0 84.1424 12.0985 1018 97.4715 1212.18 487.239
1339 0 87.0741 11.9553 1041 98.1614 1212.08 486.765
1340 0 89.0938 12.0098 1070 98.7953 1212.14 484.674
1341 0 93.0663 12.3998 1154 96.4705 1213.29 485.709
1342 0 96.0417 12.5571 1206 97.4635 1212.62 484.44
1343 0 96.0818 11.688 1123 100.011 1212.39 484.193
1344 0 101.051 12.9043 1304 96.8781 1211.97 482.258
1345 0 105.114 12.2438 1287 96.1274 1211.71 480.587
1346 0 106.108 12.082 1282 97.2949 1211.58 479.531
1347 0 109.053 12.1134 1321 96.1824 1211.88 478.285
1348 0 111.167 11.7571 1307 96.7896 1212.32 476.227
1349 0 116.09 11.8443 1375 96.3651 1211.5 474.517
1350 0 119.135 12.2802 1463 95.093 1212.04 473.396
1351 0 120.136 11.72 1408 96.8736 1212.14 470.656
1352 0 124.139 12.2846 1525 95.0984 1211.75 469.184
1353 0 129.17 12.921 1669 93.8119 1211.34 464.768
1354 0 127.164 11.6228 1478 96.3552 1211.19 461.286
1355 0 128.18 9.58024 1228 98.9292 1211.56 469.304
1356 0 129.114 6.82343 881 99.2009 1211.17 478.709
1357 0 128.145 5.08018 651 96.9877 1211.17 489.433
1358 0 129.111 4.80208 620 95.921 1211.83 495.047
1359 1 83.043 10.9943 913 88.149 1212.4 491.17
1360 0 86.0962 11.673 1005 87.2289 1212.71 487.13
1361 0 87.0617 11.601 1010 87.2723 1211.91 485.967
1362 0 92.0813 12.6736 1167 82.8937 1213.1 486.696
1363 0 95.049 12.4567 1184 83.4865 1213.22 485.853
1364 0 96.0693 13.0739 1256 82.492 1213.16 483.814
1365 0 98.1063 12.7413 1250 83.5712 1213.15 484.004
1366 0 97.0919 11.2883 1096 87.562 1213.26 485.805
1367 0 101.044 11.9849 1211 86.1916 1213.03 483.978
1368 0 104.084 11.8365 1232 85.9821 1212.85 482.343
1369 0 107.071 12.3937 1327 84.9729 1212.8 481.271
1370 0 107.071 12.4404 1332 141.375 1211.78 481.191
1371 0 115.083 12.1043 1393 85.379 1211.79 478.497
1372 0 118.085 12.7112 1501 88.8261 1212.77 473.827
1373 0 122.078 13.3604 1631 89.0092 1212.36 473.599
1374 0 125.061 12.4099 1552 90.1044 1212.14 473.368
1375 0 129.069 12.993 1677 88.0853 1211.93 469.305
1376 0 133.072 13.1733 1753 86.9555 1211.7 468.487
1377 0 135.098 13.0868 1768 83.6985 1211.05 465.764
1378 0 136.169 13.3511 1818 85.258 1211.15 464.862
1379 0 138.12 13.148 1816 86.0319 1211.55 465.11
1380 0 139.168 13.4801 1876 88.4659 1212.02 463.662
1381 0 141.145 13.4401 1897 91.3289 1211.63 461.738
1382 0 145.14 13.2768 1927 90.2195 1211.76 460.11
1383 0 150.136 13.6077 2043 87.7651 1211.66 458.116
1384 0 153.163 13.0907 2005 87.609 1210.81 455.836
1385 0 160.202 13.021 2086 86.0825 1210.94 453.497
1386 0 162.159 12.0992 1962 86.8986 1210.85 451.619
1387 0 169.127 12.1802 2060 84.8932 1211.12 450.111
1388 1 91.0846 11.6705 1063 80.1834 1210.94 487.365
1389 0 92.1125 12.0071 1106 81.1266 1211.52 486.974
1390 0 96.1069 12.5277 1204 83.789 1210.99 484.33
1391 0 96.096 12.55 1206 145.576 1210 484.193
1392 0 100.073 12.4809 1249 88.8343 1211.8 481.847
1393 0 101.064 12.2694 1240 90.8274 1211.25 479.185
1394 0 106.061 12.4646 1322 90.5673 1211.58 478.493
1395 0 107.095 12.755 1366 92.5081 1211.72 476.827
1396 0 110.132 12.6938 1398 92.8898 1211.46 473.646
1397 0 113.068 11.9485 1351 90.8845 1211.94 476.34
1398 0 115.101 11.9026 1370 93.5044 1211.84 474.305
1399 1 62.0164 10.3199 640 93.9125 1212.22 500.486
1400 0 65.0524 11.2371 731 93.8276 1211.9 499.254
1401 0 65.0524 11.2063 729 151.15 1212.9 499.395
1402 0 67.0707 12.375 830 96.3795 1211.71 497.336
1403 0 68.0602 11.5633 787 96.7154 1211.59 500.912
1404 0 70.0255 11.7529 823 98.2843 1211.12 501.111
1405 0 70.101 11.997 841 100.998 1211.27 498.864
1406 0 71.0453 12.0064 853 103.327 1211.62 498.101
1407 0 74.0599 12.2333 906 103.5 1211.43 496.765
1408 0 77.0496 12.4725 961 103.512 1211.01 495.903
1409 0 80.0351 12.2446 980 104.301 1211.12 494.914
1410 0 82.086 12.6331 1037 106.482 1212.13 491.396
1411 0 85.0855 12.5521 1068 107.893 1211.51 490.394
1412 0 86.0828 12.5461 1080 109.177 1211.87 490.102
1413 0 89.2606 12.4355 1110 110.279 1211.89 488.215
1414 0 91.1122 12.4242 1132 112.553 1210.66 486.738
1415 0 93.1316 12.9602 1207 111.341 1210.55 485.125
1416 0 95.1442 12.3602 1176 113.923 1210.46 483.716
1417 0 97.1162 12.7888 1242 113.091 1210.64 482.727
1418 0 101.114 12.8667 1301 112.511 1210.69 478.533
1419 0 105.195 13.7363 1445 108.682 1211.13 474.861
1420 0 108.128 13.7245 1484 107.246 1210.68 468.525
1421 0 111.188 13.8864 1544 106.688 1211.36 466.436
1422 0 111.157 13.9262 1548 149.135 1212.35 466.37
1423 0 116.139 12.5625 1459 109.389 1211.39 464.005
1424 1 64.1029 10.7171 687 102.047 1211.05 489.76
1425 0 66.0978 12.0428 796 104.29 1211.36 497.598
1426 0 69.03 12.328 851 99.913 1210.52 494.429
1427 0 71.0462 12.4285 883 111.608 1211.13 496.708
1428 0 74.0743 12.8115 949 109.249 1210.46 494.067
1429 0 74.0743 12.771 946 159.998 1209.47 494.116
1430 0 81.0607 12.3364 1000 109.666 1210.74 494.248
1431 0 81.0607 12.3858 1004 166.517 1212.75 494.249
1432 0 85.1134 13.2529 1128 104.872 1211.27 492.094
1433 0 86.0927 12.6956 1093 107.242 1211.49 489.604
1434 0 89.0994 13.21 1177 107.336 1211.52 488.491
1435 0 92.1522 13.4017 1235 105.6 1210.67 486.87
1436 0 94.0977 13.3053 1252 106.237 1211.57 486.001
1437 0 96.0634 13.0955 1258 106.412 1210.78 484.771
1438 0 99.1045 12.8349 1272 105.087 1211.51 484.02
1439 0 103.173 12.891 1330 105.965 1212.04 483.186
1440 0 106.122 13.7013 1454 104.786 1211.62 482.06
1441 0 109.12 13.0407 1423 107.442 1211.91 479.528
1442 0 111.218 12.9746 1443 108.054 1211.37 476.782
1443 1 60.1225 11.4599 689 105.338 1211.61 502.862
1444 0 60.1273 11.5588 695 105.291 1211.8 500.511
1445 0 65.138 12.5733 819 93.5433 1211.46 499.54
1446 0 66.0818 12.9688 857 93.8868 1211.5 497.498
1447 0 70.0718 13.3863 938 91.5789 1211.63 497.827
1448 0 69.0898 13.6199 941 93.3528 1210.5 496.002
1449 0 71.0386 13.5138 960 95.9302 1211.53 494.327
1450 0 75.0552 13.7632 1033 94.7919 1211.52 494.875
1451 0 74.0888 13.7943 1022 98.1634 1211.29 492.976
1452 0 74.0905 13.8884 1029 142.772 1210.3 493.052
1453 0 81.101 13.699 1111 98.9334 1211.47 491.087
1454 0 84.0536 13.7174 1153 100.48 1211.74 490.006
1455 0 83.0869 13.8048 1147 102.962 1211.92 487.622
1456 0 87.0913 13.4686 1173 103.529 1211.57 487.756
1457 0 89.0778 14.3358 1277 102.945 1212.45 485.479
1458 0 92.0867 14.3452 1321 102.637 1211.99 484.574
1459 0 93.0934 13.9215 1296 107.539 1211.39 482.76
1460 0 93.092 13.9217 1296 143.741 1212.4 482.69
1461 0 99.075 13.2324 1311 110.68 1211.22 479.813
1462 0 103.111 13.8782 1431 107.15 1211.76 477.934
1463 0 106.119 14.0596 1492 106.841 1211.11 475.252
1464 0 110.117 14.0668 1549 107.389 1211 474.107
1465 0 114.038 14.2233 1622 107.731 1211.24 472.973
1466 0 118.068 14.2121 1678 106.837 1210.68 471.645
1467 0 122.101 14.1358 1726 107.622 1210.72 469.679
1468 1 62.029 12.3168 764 112.688 1210.81 498.454
1469 0 64.0471 12.1005 775 108.73 1212.38 495.543
1470 0 68.0759 13.4115 913 111.552 1211.06 495.998
1471 0 72.0584 13.5168 974 110.811 1210.81 495.652
1472 0 72.056 13.5034 973 163.059 1210.82 495.538
1473 0 75.0755 13.1468 987 113.1 1211.18 493.183
1474 0 79.027 13.4131 1060 109.835 1210.79 492.461
1475 0 81.0164 13.5281 1096 110.075 1210.93 489.479
1476 0 84.0247 13.0438 1096 111.962 1210.57 489.974
1477 0 85.0568 13.685 1164 111.774 1211.56 486.387
1478 0 88.0345 13.5061 1189 111.622 1211.16 485.017
1479 0 89.0256 13.3108 1185 113.154 1211.32 484.435
1480 0 91.0451 14.026 1277 110.38 1211.97 483.066
1481 0 93.0235 13.416 1248 112.113 1211.4 481.544
1482 0 97.1295 13.8166 1342 111.958 1212.41 480.428
1483 0 98.1453 13.6125 1336 112.769 1212.18 480.247
1484 0 101.117 13.4695 1362 113.463 1212.05 477.235
1485 0 105.097 12.6454 1329 115.004 1212.07 475.838
1486 0 110.158 13.1357 1447 112.636 1213.47 473.9
1487 1 57.052 11.6035 662 112.631 1212.91 498.61
1488 0 60.1403 12.0385 724 110.645 1213.19 497.347
1489 0 62.0451 12.9583 804 106.439 1213.23 495.905
1490 0 64.1113 13.5234 867 106.068 1212.94 496.307
1491 0 66.0635 13.4719 890 97.7562 1213.28 494.96
1492 0 67.0951 13.5628 910 97.5901 1212.93 494.37
1493 0 70.1407 13.0595 916 98.881 1212.79 491.6
1494 0 71.2723 13.1748 939 100.377 1212.65 490.838
1495 0 76.1473 13.8022 1051 100.618 1212.35 490.262
1496 0 77.1718 13.2691 1024 104.319 1213.26 491.072
1497 0 79.17 13.7805 1091 105.067 1212.97 489.371
1498 0 82.1868 13.7613 1131 104.525 1212.64 488.609
1499 0 82.1588 13.4617 1106 108.223 1212.83 485.307
1500 0 88.2079 13.3435 1177 107.691 1212.68 482.643
1501 0 90.1174 14.3036 1289 102.565 1213.24 482.373
1502 0 91.1868 14.2784 1302 102.255 1212.8 480.807
1503 0 92.0696 13.6527 1257 105.333 1212.97 479.313
1504 0 97.1985 14.0023 1361 102.137 1212.5 477.455
1505 0 98.2426 13.375 1314 104.954 1212.89 475.781
1506 0 100.152 13.1001 1312 105.069 1212.79 476.133
1507 1 53.0233 11.7118 621 106.834 1212.92 497.787
1508 0 55.0403 12.0457 663 101.736 1212.66 496.291
1509 0 58.1818 12.9594 754 105.887 1213.03 498.365
1510 0 60.0229 12.6118 757 105.621 1212.27 497.449
1511 0 61.023 12.5526 766 107.167 1212.55 495.839
1512 0 65.0182 12.6272 821 105.365 1211.95 495.219
1513 0 67.0566 12.9443 868 105.498 1211.58 494.444
1514 0 70.0697 13.0013 911 105.046 1212.37 493.415
1515 0 71.0521 12.8216 911 106.213 1212.59 492.012
1516 0 74.0786 13.3507 989 104.658 1212.64 490.419
1517 0 77.0543 13.6916 1055 102.9 1212.62 490.329
1518 0 78.06 13.1694 1028 105.501 1212.11 489.286
1519 0 80.1027 13.4577 1078 105.201 1212.24 487.044
1520 0 82.0652 13.2334 1086 106.38 1212.95 486.293
1521 0 85.1017 13.0785 1113 105.474 1212.59 485.302
1522 1 40.0149 10.4961 420 100.914 1212.24 506.693
1523 0 43.0133 11.3686 489 99.7771 1212.1 506.712
1524 0 44.046 11.5107 507 98.9546 1212.29 505.984
1525 0 44.0809 11.3655 501 98.5669 1211.84 504.645
1526 0 48.0795 11.8762 571 97.338 1212.31 504.305
1527 0 47.0971 12.6759 597 97.1993 1212.57 502.695
1528 0 50.116 13.2493 664 98.3057 1212.1 503.345
1529 0 50.021 13.5943 680 99.8794 1213.59 503.293
1530 0 52.0366 13.2983 692 101.929 1213.32 503.581
1531 0 54.0426 12.9527 700 102.674 1213.79 503.779
1532 0 56.1518 13.3388 749 101.387 1213.87 502.356
1533 0 57.1278 13.3735 764 102.336 1213.85 501.997
1534 0 58.0717 12.9839 754 104.552 1213.8 501.3
1535 0 59.1754 13.4008 793 105.705 1213.29 499.375
1536 0 59.1846 13.365 791 157.006 1213.31 499.317
1537 0 64.0648 13.4863 864 106.209 1212.26 496.97
1538 0 66.112 13.6738 904 105.631 1212.81 496.064
1539 0 68.1563 14.2467 971 104.524 1213.46 495.363
1540 0 69.0786 13.6945 946 107.332 1212.86 494.057
1541 0 70.109 13.9925 981 107.345 1212.73 493.453
1542 0 72.1614 14.3567 1036 106.486 1212.92 491.952
1543 0 76.1302 13.6477 1039 108.26 1213.5 490.175
1544 0 77.2124 14.0651 1086 108.458 1213.52 489.645
1545 0 81.1032 13.9698 1133 108.339 1212.98 485.6
1546 0 84.1919 14.3244 1206 108.343 1212.61 483.475
1547 0 84.2728 13.7886 1162 111.52 1213.14 484.867
1548 0 85.3288 14.1101 1204 111.592 1213.3 484.62
1549 0 90.1415 14.4883 1306 109.171 1213.07 479.997
1550 1 48.1079 11.4534 551 110.628 1212.64 502.628
1551 0 47.0695 11.9186 561 111.002 1212.69 501.376
1552 0 48.1156 12.4076 597 108.734 1212.77 497.621
1553 0 50.169 12.6771 636 108.462 1212.28 496.602
1554 0 52.1236 12.95 675 107.176 1212.53 495.684
1555 0 55.0141 12.6876 698 99.3854 1212.45 497.784
1556 0 58.0465 13.2824 771 102.896 1212.25 499.424
1557 0 59.0135 12.3023 726 102.946 1213.11 496.522
1558 0 61.0163 13.3079 812 103.172 1213.01 496.608
1559 0 64.0621 12.5815 806 106.084 1213.91 494.847
1560 0 65.0973 13.549 882 104.883 1213.4 495.586
1561 0 68.0605 13.8553 943 105.755 1213.14 495.614
1562 0 67.0716 13.4781 904 109.685 1213.41 493.417
1563 0 71.0789 14.1814 1008 107.947 1213.54 493.454
1564 0 72.103 13.2865 958 109.373 1213.06 492.288
1565 0 75.0619 14.0018 1051 107.57 1213.32 489.949
1566 0 73.0724 14.0682 1028 146.246 1214.31 490.592
1567 0 82.0962 12.9482 1063 109.378 1213.12 489.002
1568 0 82.0773 14.1696 1163 106.69 1213.41 486.707
1569 0 83.0699 13.6752 1136 107.793 1213.9 487.177
1570 0 84.045 13.8497 1164 108.611 1213.11 486.101
1571 0 86.05 13.957 1201 107.327 1213.4 485.361
1572 0 89.096 13.6257 1214 108.82 1213.92 483.918
1573 0 93.0755 14.225 1324 106.809 1214.28 481.455
1574 0 95.1481 13.7575 1309 108.656 1214.1 480.134
1575 0 96.0644 13.7928 1325 109.521 1213.38 479.495
1576 0 101.092 13.6311 1378 109.204 1212.99 476.866
1577 0 102.044 13.6608 1394 108.749 1212.83 476.511
1578 0 105.092 13.864 1457 108.279 1212.78 474.258
1579 0 111.134 13.9561 1551 106.886 1212.53 471.432
1580 0 114.116 13.7142 1565 108.004 1211.8 470.2
1581 0 117.107 13.9445 1633 107.484 1212.77 467.69
1582 0 119.088 13.6202 1622 109.154 1212.86 466.596
1583 0 124.07 13.5568 1682 107.812 1212.76 466.479
1584 0 126.089 13.7839 1738 107.858 1213.23 463.356
1585 0 130.105 14.1885 1846 107.489 1213.07 463.086
1586 0 135.174 13.8488 1872 109.114 1213.31 458.558
1587 0 140.101 14.2254 1993 107.366 1212.51 457.101
1588 0 143.14 13.9514 1997 108.668 1212.76 455.425
1589 0 148.152 13.7157 2032 108.506 1212.52 451.393
1590 0 154.197 14.021 2162 107.472 1212.5 448.175
1591 0 159.267 14.1335 2251 106.926 1212.28 446.114
1592 0 165.186 14.069 2324 106.29 1212.01 443.783
1593 0 169.315 14.2161 2407 106.332 1212.59 440.705
1594 0 174.271 13.7946 2404 108.003 1212.63 437.029
1595 0 181.308 14.6657 2659 104.574 1212.42 433.319
1596 0 187.283 14.3366 2685 105.615 1212.25 428.937
1597 0 193.451 14.0294 2714 106.91 1211.55 424.077
1598 1 44.0854 8.73304 385 87.5403 1211.45 504.868
1599 0 47.0639 8.96654 422 87.609 1211.67 501.277
1600 0 49.1592 9.6218 473 86.9958 1211.75 500.856
1601 0 50.1256 9.6358 483 86.4224 1212.32 499.95
1602 0 50.2753 10.7607 541 86.183 1211.67 499.636
1603 0 52.0982 11.3056 589 87.3463 1212.61 500.302
1604 0 54.0478 11.5453 624 84.9551 1212.55 500.835
1605 0 54.0456 11.0092 595 128.173 1211.58 500.234
1606 0 57.0663 10.6543 608 81.2401 1212.56 499.959
1607 0 57.0389 10.9048 622 81.3087 1212.18 498.629
1608 0 61.0724 11.7238 716 79.6732 1212.19 497.475
1609 0 62.0835 10.808 671 82.5455 1212.39 496.571
1610 0 64.0926 11.3586 728 82.0467 1212.14 496.431
1611 0 66.1692 10.3523 685 82.3635 1212.66 491.445
1612 0 66.0929 10.4852 693 86.3247 1212.71 490.547
1613 0 68.0406 10.6113 722 87.6039 1213.02 491.537
1614 0 70.0531 10.5634 740 88.7622 1212.96 490.323
1615 0 72.0958 10.8883 785 89.4752 1212.32 490.201
1616 0 76.1 10.3022 784 91.5115 1212.37 489.078
1617 0 77.0749 10.9893 847 91.6494 1212.03 485.338
1618 0 80.0966 10.7995 865 93.2474 1212.21 485.368
1619 0 81.0551 10.6718 865 95.1884 1212.55 484.03
1620 0 85.1232 10.6316 905 95.7735 1212.84 482.337
1621 0 87.0684 10.8421 944 96.6261 1212.99 480.084
1622 0 91.1346 11.0167 1004 98.9771 1213.3 479.604
1623 1 50.0172 9.8966 495 92.6384 1212.41 500.305
1624 0 51.053 10.2834 525 90.1829 1212.53 498.815
1625 0 53.0425 10.9535 581 89.7659 1213.25 499.305
1626 0 56.0999 11.1408 625 91.232 1213.36 499.09
1627 0 56.1361 10.8308 608 91.2352 1212.85 498.633
1628 0 57.0498 10.6398 607 90.7183 1213.17 496.191
1629 0 58.0946 11.0682 643 90.5054 1213.03 495.381
1630 0 57.0545 9.55226 545 98.1266 1213.34 497.417
1631 0 60.0645 11.2546 676 96.395 1212.77 495.473
1632 0 61.0441 10.6808 652 97.1779 1213.15 496.403
1633 0 62.0579 10.6352 660 97.9409 1212.61 494.298
1634 0 66.1031 11.3459 750 96.1187 1211.81 493.42
1635 0 68.0937 12.1744 829 97.0796 1211.73 491.861
1636 0 69.0774 11.4654 792 99.0404 1211.17 490.979
1637 0 68.0526 11.1972 762 101.936 1211.6 489.497
1638 0 72.0924 11.7072 844 99.1493 1211.24 487.628
1639 0 73.0798 12.2469 895 98.4257 1211.87 485.372
1640 0 76.0549 12.5041 951 98.5468 1211.94 487.461
1641 0 77.0684 12.0932 932 99.7854 1211.9 486.614
1642 0 82.073 12.5985 1034 98.0377 1211.82 484.467
1643 0 83.1781 12.6596 1053 97.0456 1211.65 483.028
1644 0 86.1043 12.4384 1071 97.7787 1211.61 483.15
1645 0 88.0827 13.2262 1165 96.5322 1211.91 480.101
1646 0 93.1092 13.6399 1270 94.9126 1211.2 478.43
1647 0 96.1488 13.3127 1280 96.8766 1211.74 474.76
1648 0 98.056 13.4923 1323 94.4361 1211.53 476.284
1649 0 101.09 14.6998 1486 91.1272 1211.46 473.735
1650 0 102.035 13.9854 1427 93.5235 1211.39 470.783
1651 0 103.077 12.7187 1311 97.3883 1211.08 470.459
1652 1 58.0319 11.0284 640 93.7156 1210.88 495.644
1653 0 59.0666 11.6309 687 92.4396 1211 492.109
1654 0 58.2212 10.941 637 85.4992 1211.36 486.272
1655 0 61.0727 10.4138 636 78.8318 1212.08 487.108
1656 0 66.0872 11.9236 788 76.5241 1211.54 493.377
1657 0 66.1103 10.422 689 80.656 1211.35 492.971
1658 0 68.0727 10.5329 717 80.7699 1211.73 493.96
1659 0 70.1089 11.0542 775 78.7794 1212 493.361
1660 0 74.0774 10.597 785 80.1669 1212.01 491.753
1661 0 74.0788 11.0828 821 80.6504 1211.93 490.037
1662 0 78.0743 11.4891 897 79.6466 1211.96 487.479
1663 0 82.0849 11.7196 962 78.6674 1212.09 486.377
1664 0 84.1189 12.09 1017 78.6529 1211.82 483.722
1665 0 89.1394 11.6447 1038 79.5934 1211.4 483.708
1666 0 91.093 12.1634 1108 79.2744 1211.79 482.203
1667 0 92.2109 12.4389 1147 79.1325 1211.03 480.119
1668 1 51.1236 10.5431 539 80.0835 1211.91 503.506
1669 0 51.0439 11.4215 583 83.2384 1212.2 503.123
1670 0 51.0262 11.9938 612 83.8415 1211.21 501.485
1671 0 55.0864 11.9449 658 82.3313 1210.7 501.078
1672 0 55.1078 12.2669 676 82.1686 1211.05 500.899
1673 0 57.1167 12.5708 718 81.0905 1211.45 499.599
1674 0 59.1069 12.3843 732 81.5437 1210.89 499.44
1675 0 60.0929 12.7802 768 81.431 1210.75 497.251
1676 0 62.0524 12.9246 802 81.0449 1210.7 497.011
1677 0 63.0648 12.6695 799 81.8874 1211.59 496.622
1678 0 65.0392 12.9153 840 80.8321 1211.49 495.129
1679 0 67.104 13.2332 888 80.5473 1211.21 494.488
1680 0 69.136 12.3525 854 82.8513 1210.9 492.879
1681 0 71.1235 13.2024 939 81.5751 1211.16 491.638
1682 0 74.106 12.4686 924 82.9816 1211 491.239
1683 0 75.0701 12.2552 920 84.4609 1211.34 490.437
1684 0 78.1942 12.4434 973 83.7564 1211.76 487.899
1685 0 80.2174 12.9772 1041 84.2229 1211.38 487.685
1686 0 81.1456 12.3728 1004 86.9412 1211.77 486.563
1687 0 84.2133 12.9789 1093 84.5096 1211.92 484.86
1688 0 87.1295 13.061 1138 84.6371 1212.07 484.591
1689 0 88.1333 11.9024 1049 87.0982 1212.34 482.921
1690 0 91.1702 13.7655 1255 86.1865 1211.92 480.681
1691 0 95.0911 12.8719 1224 94.3423 1211.49 479.352
1692 0 97.1288 12.0253 1168 96.7885 1211.08 478.679
1693 0 101.141 12.7643 1291 95.56 1211 475.667
1694 0 102.168 12.7731 1305 96.4107 1211.16 477.317
1695 0 102.156 11.2867 1153 91.6167 1211.02 476.754
1696 0 108.224 11.6795 1264 89.8157 1211.42 474.318
1697 1 60.2057 11.4109 687 90.3624 1211.32 496.997
1698 0 60.1024 11.0145 662 92.8082 1211.02 497.142
1699 0 64.0686 11.2067 718 91.4095 1211.48 495.82
1700 0 66.1256 11.705 774 94.1292 1211.77 493.659
1701 0 67.1239 12.5291 841 87.5791 1211.52 493.307
1702 0 67.1309 11.5893 778 91.2275 1212.33 495.168
1703 0 70.1049 11.8965 834 91.295 1212.45 493.536
1704 0 70.1816 10.9145 766 94.312 1211.83 492.829
1705 0 75.1055 11.0778 832 92.7392 1211.98 491.71
1706 0 77.0729 10.7171 826 93.6489 1212.01 491.294
1707 0 80.1173 11.0588 886 92.9199 1211.33 490.038
1708 0 84.0805 11.9409 1004 91.492 1210.49 486.91
1709 0 85.0708 11.0379 939 93.0799 1210.99 487.449
1710 0 87.1169 11.9495 1041 92.8501 1211.79 484.603
1711 0 91.1092 11.4588 1044 93.318 1211.42 482.943
1712 0 94.1421 11.557 1088 94.182 1211.24 482.112
1713 0 96.1794 11.5513 1111 94.7714 1211.91 480.348
1714 0 98.1449 11.5442 1133 96.3027 1212.2 479.08
1715 0 102.141 11.8464 1210 95.5645 1212.44 476.819
1716 0 107.13 11.8454 1269 94.6391 1212.36 476.135
1717 0 110.218 11.3684 1253 96.095 1212.71 473.607
1718 1 54.0227 12.2541 662 96.6042 1211.88 497.616
1719 0 58.1328 12.523 728 98.4835 1211.62 498.078
1720 0 58.1296 12.4205 722 100.339 1211.86 497.965
1721 0 61.1624 12.3442 755 100.309 1212.16 497.073
1722 0 61.2519 12.6527 775 101.012 1211.93 495.943
1723 0 62.2189 12.3757 770 102.634 1212.26 494.866
1724 0 66.1984 12.9308 856 100.644 1212.09 494.284
1725 0 67.2115 12.5127 841 101.565 1212.24 492.473
1726 0 68.2576 11.984 818 103.775 1212.45 491.405
1727 0 68.2681 11.9822 818 152.092 1212.45 491.479
1728 0 74.2121 12.9898 964 100.851 1212.7 486.693
1729 0 75.2119 12.8437 966 100.375 1212.35 487.569
1730 0 77.1787 12.5682 970 103.273 1212.76 485.193
1731 0 79.2187 12.9641 1027 102.47 1212.38 484.459
1732 0 81.1789 12.3431 1002 103.792 1211.8 481.765
1733 0 84.1973 12.4113 1045 101.838 1212.84 481.649
1734 0 87.1653 12.2526 1068 101.488 1212.15 479.485
1735 0 89.0952 12.3351 1099 99.8162 1211.81 479.211
1736 0 87.1012 10.9987 958 90.4791 1211.35 480.147
1737 0 91.171 10.6503 971 90.7199 1211.7 479.307
1738 0 94.1715 10.672 1005 90.394 1212.04 476.943
1739 0 97.1933 11.5749 1125 88.0996 1212.95 476.178
1740 0 97.1718 10.4763 1018 91.3674 1213.06 475.224
1741 0 103.196 11.4927 1186 89.2386 1213.4 473.342
1742 0 107.189 11.5777 1241 93.137 1212.83 467.4
1743 0 110.187 11.5803 1276 93.268 1212.97 465.817
1744 0 114.14 11.4771 1310 92.5817 1212.1 465.038
1745 1 59.1245 10.2496 606 78.8465 1211.84 494.913
1746 0 60.2571 11.1356 671 85.5946 1212.33 493.355
1747 0 59.1171 9.94636 588 81.4745 1212.37 495.986
1748 0 62.1276 9.43221 586 81.6382 1212.2 494.691
1749 0 63.1149 9.20543 581 82.938 1212.36 493.418
1750 0 65.1198 8.81452 574 82.6655 1211.82 491.692
1751 0 70.0895 10.244 718 79.3579 1211.45 490.755
1752 0 71.1753 10.2704 731 79.6566 1212.17 488.792
1753 0 75.1027 10.2793 772 79.6878 1211.77 488.51
1754 0 77.1082 10.375 800 79.9125 1211.49 486.291
1755 0 80.1285 10.6204 851 78.1821 1211.2 487.512
1756 0 83.1838 10.7834 897 77.9064 1211.66 484.552
1757 0 85.1007 10.799 919 77.58 1211.64 484.616
1758 0 86.0692 10.4335 898 78.7996 1211.55 482.296
1759 0 91.0632 10.4323 950 78.7737 1211.61 480.561
1760 0 95.2027 11.0501 1052 77.5219 1212.11 479.247
1761 0 97.1187 10.8733 1056 80.1828 1212.31 474.823
1762 0 100.119 10.907 1092 80.5366 1212.36 474.252
1763 0 103.165 11.2054 1156 80.3962 1211.66 473.573
1764 1 55.0227 9.59604 528 73.7652 1211.93 497.735
1765 0 58.0483 10.1295 588 73.7483 1211.93 498.252
1766 0 59.031 10.4521 617 73.2609 1211.86 497.951
1767 0 62.0955 11.3213 703 72.1053 1212.71 496.542
1768 0 65.1099 12.4098 808 69.87 1211.61 494.802
1769 0 69.1354 11.1954 774 82.5995 1211.86 493.013
1770 0 70.1265 10.5381 739 84.3383 1211.45 491.543
1771 0 72.1058 11.4554 826 82.977 1211.52 490.735
1772 0 74.1194 11.3331 840 83.0619 1211.56 489.399
1773 0 75.1248 11.0616 831 82.8279 1211.55 486.717
1774 0 77.1605 11.8066 911 82.8749 1211.65 485.67
1775 0 82.1826 11.4623 942 75.2824 1211.35 485.959
1776 0 83.1615 12.2292 1017 75.1278 1211.54 483.536
1777 0 87.1883 12.1117 1056 82.7358 1212.56 482.975
1778 0 89.0877 11.8759 1058 78.7694 1213.1 481.101
1779 0 88.0897 11.6699 1028 137.375 1213.15 480.66
1780 1 49.0081 10.4677 513 76.6199 1211.82 501.93
1781 0 48.0514 10.0101 481 76.7796 1211.62 501.135
1782 0 49.0215 11.5052 564 79.3901 1211.38 501.821
1783 0 52.0368 11.7417 611 78.4043 1211.65 500.921
1784 0 53.028 11.8428 628 79.5557 1211.08 499.295
1785 0 53.0774 12.4723 662 78.4607 1211.67 500.076
1786 0 56.0724 11.7883 661 80.1407 1211.67 499.123
1787 0 57.1349 11.7966 674 80.6409 1211.46 497.921
1788 0 60.0742 12.2515 736 80.0326 1211.16 497.745
1789 0 59.0551 12.1751 719 81.8679 1212.06 498.533
1790 0 63.1161 12.5483 792 80.5619 1211.9 496.802
1791 0 63.1161 12.2314 772 131.031 1211.91 496.558
1792 0 65.1061 12.8252 835 80.4168 1211.68 496.023
1793 0 67.0778 12.0755 810 83.2185 1212.01 495.154
1794 0 70.1481 12.1885 855 83.324 1211.33 494.402
1795 0 71.0845 13.0268 926 83.041 1210.58 493.384
1796 0 71.0748 12.522 890 86.0438 1211.45 492.509
1797 0 75.0624 12.8293 963 86.0208 1210.31 491.99
1798 0 75.0429 13.1658 988 87.5911 1211.18 490.056
1799 0 78.1078 12.5212 978 89.5184 1211.31 491.814
1800 0 81.1522 13.0372 1058 91.2807 1211.03 489.66
1801 0 83.141 13.4591 1119 91.6452 1210.96 486.894
1802 0 85.1321 13.8256 1177 91.9898 1211.26 487.551
1803 0 89.0985 14.0182 1249 90.9263 1210.63 484.797
1804 0 89.1065 12.2774 1094 97.0439 1210.97 486.473
1805 0 91.0867 11.9666 1090 95.7183 1210.74 484.479
1806 1 48.0268 10.6399 511 96.2544 1210.51 504.393
1807 0 50.0132 11.317 566 92.6466 1210.53 503.191
1808 0 47.0417 10.8202 509 90.8703 1211.27 494.096
1809 0 51.0224 11.0148 562 92.6441 1212.83 497.922
1810 0 51.0224 11.0148 562 147.95 1212.89 498.037
1811 0 51.0224 10.9364 558 147.746 1212.91 498.072
1812 0 51.0224 10.9364 558 147.403 1212.91 498.072
1813 0 55.0401 11.21 617 88.7374 1212.07 496.843
1814 0 56.0701 11.2716 632 89.7516 1211.75 493.886
1815 0 59.0256 10.9952 649 89.678 1211.72 493.384
1816 0 61.063 10.9231 667 89.4603 1211.47 493.316
1817 0 63.0445 11.484 724 87.8978 1211.59 493.834
1818 0 60.0408 10.5595 634 91.5237 1211.51 491.112
1819 0 62.0464 11.2174 696 90.75 1211.37 491.253
1820 0 67.1 11.699 785 90.4127 1211.05 487.968
1821 0 69.0852 10.8996 753 92.4529 1211.64 489.505
1822 0 72.0828 12.0001 865 90.4751 1211.35 486.912
1823 0 73.051 12.0738 882 89.6213 1212.03 486.052
1824 0 75.0613 12.1101 909 92.0033 1212.16 483.799
1825 0 78.1166 12.0717 943 91.8749 1211.74 484.41
1826 0 81.106 12.0583 978 92.5992 1211.41 483.355
1827 0 83.1134 12.4649 1036 92.8205 1212.12 482.188
1828 0 86.109 12.7513 1098 94.8588 1211.63 479.856
1829 0 87.1913 12.3292 1075 97.4391 1211.47 479.775
1830 0 89.3021 11.769 1051 100.671 1211.16 479.488
1831 0 91.1118 12.567 1145 97.7721 1210.52 477.549
1832 1 48.0275 10.0359 482 97.3942 1210.95 496.577
1833 0 53.0193 10.5433 559 93.3435 1211.13 498.163
1834 0 57.0521 12.4097 708 97.065 1211.1 498.853
1835 0 57.1165 12.6758 724 91.1133 1211.29 498.294
1836 0 58.0678 13.0365 757 92.5865 1212.18 497.827
1837 0 59.032 12.9252 763 93.4246 1211.68 496.473
1838 0 62.0687 12.8728 799 94.0876 1211.76 495.22
1839 0 63.0619 13.1934 832 94.1442 1211.69 495.477
1840 0 66.0484 13.3084 879 95.2901 1211.1 493.866
1841 0 67.057 13.1679 883 96.4077 1211.49 492.566
1842 0 71.0567 13.3133 946 92.149 1210.85 489.366
1843 0 73.059 13.4412 982 92.8747 1210.7 488.937
1844 0 73.0254 13.242 967 95.8976 1211.78 488.012
1845 0 74.0334 12.805 948 104.518 1211.51 486.905
1846 0 78.0517 13.1964 1030 103.048 1212.31 485.216
1847 0 81.1049 13.4517 1091 102.925 1212.09 484.47
1848 0 81.056 13.941 1130 102.876 1211.76 483.497
1849 0 85.0816 14.3392 1220 101.746 1212.53 484.23
1850 0 86.0426 14.2023 1222 103.296 1212.03 481.251
1851 0 89.0673 14.1578 1261 102.925 1212.37 481.286
1852 0 92.0824 14.2481 1312 102.594 1212.02 480.671
1853 0 94.0837 14.9016 1402 101.991 1211.53 477.162
1854 0 94.0716 14.0425 1321 105.937 1212.06 475.989
1855 0 100.053 14.5923 1460 102.825 1212.64 475.958
1856 0 101.103 13.9264 1408 105.746 1211.53 473.764
1857 1 52.0443 10.8946 567 101.755 1211.86 498.34
1858 0 54.148 11.8379 641 99.1435 1212.05 496.842
1859 0 54.0615 11.3759 615 102.553 1212.14 495.717
1860 0 57.0593 13.0391 744 100.065 1211.86 494.833
1861 0 60.0711 13.3675 803 100.506 1211.82 496.026
1862 0 60.064 12.8197 770 102.855 1211.65 495.339
1863 0 65.0571 14.0799 916 97.6452 1212.23 494.574
1864 0 64.0409 13.507 865 101.936 1211.87 492.941
1865 0 68.0471 13.9609 950 99.6537 1212.62 492.441
1866 0 69.0902 13.8804 959 100.678 1212.01 490.739
1867 0 74.0597 15.0824 1117 94.9678 1212.04 487.814
1868 0 73.0562 14.1946 1037 101.145 1211.68 487.954
1869 0 76.0289 14.2314 1082 101.556 1211.48 487.87
1870 0 76.0624 13.8702 1055 104.77 1211.31 485.705
1871 0 79.0614 13.9132 1100 104.324 1211.43 484.053
1872 0 83.0332 13.7174 1139 104.011 1212 483.166
1873 0 84.081 14.0579 1182 104.293 1210.97 482.242
1874 0 85.1421 14.0471 1196 104.446 1211.74 480.273
1875 1 43.0097 11.1138 478 106.174 1211.91 500.151
1876 0 46.0102 11.4757 528 104.195 1212.03 499.142
1877 0 46.0586 12.0064 553 104.183 1211.54 497.989
1878 0 47.0311 12.3961 583 103.667 1212.32 496.798
1879 0 50.0592 12.3853 620 107.632 1211.41 498.131
1880 0 50.0462 12.5284 627 103.451 1212.27 499.684
1881 0 52.1056 12.7434 664 102.931 1211.91 499.413
1882 0 54.059 12.3939 670 104.349 1212.3 497.684
1883 0 55.028 13.1751 725 102.732 1211.57 497.164
1884 0 55.0673 13.202 727 104.538 1212.43 496.487
1885 0 57.0726 12.8082 731 106.096 1212.31 495.758
1886 0 60.0373 12.9086 775 105.068 1211.89 494.792
1887 0 60.0373 13.0419 783 154.158 1210.9 494.931
1888 0 63.0845 13.4581 849 105.35 1211.8 493.005
1889 0 64.0617 13.1748 844 107.442 1211.3 492.231
1890 0 64.0617 13.1748 844 145.226 1211.3 492.242
1891 0 71.0271 13.3048 945 107.091 1211.83 489.503
1892 0 72.0468 13.63 982 108.405 1211.96 488.411
1893 0 76.103 13.3766 1018 108.638 1212.37 485.727
1894 0 77.0284 12.7096 979 110.353 1212.38 485.368
1895 0 77.0765 13.3374 1028 110.268 1212.08 483.507
1896 0 79.0309 13.4251 1061 110.834 1212.74 481.678
1897 0 83.0587 13.7613 1143 108.317 1212.43 481.192
1898 0 86.0603 14.025 1207 106.21 1211.75 477.156
1899 0 86.0355 13.2039 1136 107.808 1212.38 477.191
1900 0 90.0949 12.8975 1162 107.759 1211.72 473.774
1901 0 93.1182 13.1446 1224 106.767 1211.65 473.034
1902 1 48.0555 10.6335 511 104.305 1211.61 496.18
1903 0 54.0524 12.2289 661 103.71 1211.13 496.82
1904 0 56.0655 12.6816 711 104.181 1211.47 497.661
1905 0 56.0177 12.1569 681 93.5786 1211.58 499.012
1906 0 59.0719 12.2393 723 91.7593 1212.17 497.925
1907 0 61.0217 12.176 743 92.1467 1211.29 497.821
1908 0 63.0268 12.344 778 92.2288 1211.63 495.105
1909 0 66.0216 12.4353 821 90.9793 1212.43 495.217
1910 0 69.0591 12.8006 884 89.3925 1211.88 493.743
1911 0 70.0137 12.3976 868 90.5703 1212.51 493.328
1912 0 71.0235 12.4747 886 91.3296 1211.66 491.876
1913 0 76.0245 12.7985 973 89.1583 1211.58 490.119
1914 0 76.0197 12.8914 980 90.6684 1211.58 488.872
1915 0 79.0384 13.0063 1028 90.463 1212.21 489.371
1916 0 82.042 13.0909 1074 91.7207 1210.91 487.439
1917 0 86.0259 12.9031 1110 92.3315 1211.12 485.135
1918 0 88.0708 12.7057 1119 92.5853 1211.7 484.35
1919 0 92.0967 12.6063 1161 93.255 1210.92 483.222
1920 0 93.0858 12.2253 1138 94.1626 1211.13 482.081
1921 1 50.0168 10.9163 546 93.0678 1211.78 503.859
1922 0 50.0168 10.8763 544 137.599 1211.76 503.903
1923 0 56.0456 12.0438 675 99.6993 1211.59 499.978
1924 0 60.057 12.255 736 97.8845 1211.81 500.465
1925 0 58.1044 11.6686 678 92.4351 1211.47 499.333
1926 0 61.0592 12.0539 736 90.7514 1211.65 498.217
1927 0 65.0322 12.4092 807 89.0347 1211.59 497.777
1928 0 67.0524 11.8862 797 91.207 1211.75 495.563
1929 0 68.0811 12.1767 829 90.7346 1211.41 495.695
1930 0 68.0612 11.8423 806 92.5868 1210.99 494.361
1931 0 71.0471 12.1187 861 91.8235 1210.61 493.323
1932 0 76.0328 12.3105 936 90.8152 1209.93 490.828
1933 0 77.0481 11.5382 889 92.5197 1210.12 489.706
1934 0 82.094 12.5344 1029 90.0972 1210.08 487.889
1935 0 84.0875 12.3205 1036 91 1210.43 486.959
1936 0 88.096 11.9869 1056 91.7831 1210.71 485.312
1937 0 90.0477 11.9159 1073 92.1016 1210.4 483.568
1938 0 92.042 12.2335 1126 92.3153 1210.05 481.794
1939 0 96.0986 11.9773 1151 92.5647 1210.01 480.317
1940 1 51.0164 10.428 532 92.4098 1209.73 504.836
1941 0 53.0447 10.9907 583 89.7256 1210.39 503.4
1942 0 53.0266 11.5225 611 91.144 1210.9 501.645
1943 0 54.0151 11.8115 638 92.0596 1210.47 501.226
1944 0 57.0256 12.2401 698 90.4069 1210.77 501.351
1945 0 56.0252 11.5305 646 91.952 1210.41 500.759
1946 0 58.0405 11.1474 647 93.9645 1210.35 502.419
1947 0 60.0156 10.9305 656 93.8765 1211 500.622
1948 0 62.058 11.6182 721 92.6352 1210.82 499.175
1949 0 64.0116 11.3729 728 93.2898 1210.35 498.71
1950 0 66.0485 12.0669 797 91.3614 1209.92 497.962
1951 0 67.0334 12.0537 808 93.0718 1209.88 496.861
1952 0 69.0542 11.3534 784 93.2997 1210.15 495.885
1953 0 72.0522 11.3529 818 93.3606 1210.24 494.8
1954 0 75.1219 11.0487 830 94.5518 1210.26 492.458
1955 0 76.0627 11.1224 846 93.7766 1210.83 491.528
1956 0 81.041 11.9939 972 92.107 1210.04 490.905
1957 0 84.0621 11.4439 962 93.0198 1209.35 486.497
1958 0 85.0592 10.7572 915 94.824 1210.08 487.671
1959 0 85.0592 10.6161 903 138.973 1211.07 487.826
1960 1 46.0476 11.5533 532 96.6936 1209.72 505.16
1961 0 50.0204 11.9151 596 98.2852 1210.96 503.669
1962 0 52.0121 11.3627 591 99.0558 1210.64 503.218
1963 0 53.0518 10.9139 579 100.461 1211.65 501.623
1964 0 54.0178 11.5517 624 98.476 1211.15 503.099
1965 0 56.0151 11.5326 646 97.9319 1211.76 500.44
1966 0 56.0432 11.6874 655 99.687 1211.85 499.298
1967 0 60.0275 12.5942 756 95.1865 1211.4 498.995
1968 0 62.0547 11.8122 733 96.5293 1211.99 498.54
1969 0 61.0309 12.1742 743 97.7012 1210.8 498.637
1970 0 64.0241 12.0111 769 97.7191 1210.98 497.854
1971 0 66.0373 11.7358 775 98.1613 1210.98 497.323
1972 0 69.0613 12.3079 850 96.5188 1210.7 496.345
1973 0 71.0642 12.4254 883 96.8562 1211.04 494.125
1974 0 74.0813 12.2028 904 97.7732 1211.28 492.302
1975 0 75.0719 12.2682 921 98.3985 1211.1 491.503
1976 0 77.0623 12.5094 964 97.8392 1211.58 490.831
1977 0 79.1726 12.138 961 99.0073 1211.34 491.249
1978 0 83.1087 12.4054 1031 98.3346 1210.53 487.317
1979 0 87.1474 13.1387 1145 95.1572 1210.39 487.59
1980 1 45.052 10.4768 472 94.6165 1211.02 508.831
1981 0 45.0367 11.1909 504 94.9583 1210.74 507.944
1982 0 48.0562 11.008 529 86.8771 1210.97 507.087
1983 0 48.0343 11.1171 534 89.8221 1209.11 506.32
1984 0 49.0395 12.0311 590 80.7898 1210.61 505.646
1985 0 50.0356 12.2313 612 79.6569 1209.81 505.404
1986 0 53.0698 12.3234 654 78.9113 1209.68 504.008
1987 0 55.0388 11.4283 629 80.5501 1209.69 503.797
1988 0 54.0329 11.5115 622 80.6061 1209.18 502.314
1989 0 58.0538 12.3162 715 77.8643 1209.64 502.045
1990 0 60.0763 11.9182 716 78.0587 1209.64 501.541
1991 0 62.1033 11.9478 742 78.8046 1209.66 501.034
1992 0 61.0593 11.9883 732 79.9071 1208.7 498.664
1993 0 64.0589 12.4573 798 77.0201 1209.23 498.716
1994 0 67.0616 11.8548 795 77.5283 1208.97 497.98
1995 0 69.115 12.3562 854 76.3548 1209.05 495.391
1996 0 69.0908 12.129 838 78.8819 1208.8 495.205
1997 0 70.0725 12.1303 850 78.4353 1208.7 494.475
1998 0 74.187 11.835 878 77.738 1209.15 493.446
1999 0 76.1256 11.0344 840 76.8298 1209.06 490.087
2000 0 76.1481 10.9786 836 77.4522 1210.33 487.746
2001 0 78.0957 10.9993 859 77.5262 1209.76 487.433
2002 0 80.1019 11.0859 888 77.8131 1210.05 486.348
2003 0 83.0869 10.0016 831 79.9206 1209.92 485.219
2004 1 46.0399 9.05735 417 76.036 1209.16 503.307
2005 0 45.0323 9.97063 449 74.7216 1209.65 501.726
2006 0 49.0396 10.7464 527 71.9791 1209.02 501.769
2007 0 47.0337 10.7157 504 73.9603 1209.25 502.653
2008 0 52.0711 11.4459 596 76.396 1210.3 502.065
2009 0 53.0787 10.588 562 76.9982 1209.25 501.534
2010 0 53.0808 11.0398 586 76.4386 1209.83 501.674
2011 0 57.0826 11.8425 676 74.1257 1209.34 500.679
2012 0 59.0755 11.917 704 73.9872 1209.38 499.388
2013 0 61.1062 11.6191 710 74.7197 1209.54 499.159
2014 0 61.1028 12.0944 739 74.4073 1209.17 497.529
2015 0 63.1485 11.9084 752 74.8165 1208.78 497.376
2016 0 66.0874 11.621 768 74.6797 1209.42 495.775
2017 0 68.1739 12.0867 824 74.2658 1209.39 494.911
2018 0 70.074 11.9302 836 75.1017 1209.33 494.134
2019 0 74.071 12.6905 940 73.3213 1209.08 492.093
2020 0 76.0913 12.669 964 73.528 1209.24 490.006
2021 0 78.0914 12.8439 1003 74.1675 1208.77 489.211
2022 0 80.118 12.569 1007 75.5482 1209.42 487.214
2023 0 83.0809 12.1207 1007 76.9295 1208.71 485.882
2024 0 86.0945 12.6373 1088 75.9246 1209.42 485.313
2025 0 89.1383 11.9589 1066 78.5103 1209.25 482.916
2026 0 92.1043 12.8224 1181 77.4005 1209.14 482.852
2027 0 94.1151 12.4103 1168 78.5394 1209.6 480.971
2028 0 97.1408 12.5591 1220 78.9746 1209.66 479.33
2029 0 100.087 12.8288 1284 79.3769 1210.29 477.19
2030 0 102.096 11.9006 1215 90.0486 1209.65 475.444
2031 0 108.081 12.3981 1340 88.2381 1209.98 473.219
2032 1 56.0196 11.2282 629 88.0509 1211 499.828
2033 0 58.0525 11.4551 665 89.8917 1211.02 498.717
2034 0 61.021 11.9303 728 83.9423 1210.15 497.745
2035 0 64.0379 12.3521 791 80.0063 1211.25 497.013
2036 0 63.0793 11.7947 744 79.8293 1209.68 495.34
2037 0 69.0653 12.0176 830 77.2759 1210.25 495.164
2038 0 70.038 12.3362 864 77.64 1210.72 493.3
2039 0 71.0398 12.4719 886 78.6885 1210.48 493.074
2040 0 75.0581 12.1239 910 78.0571 1210.52 490.115
2041 0 79.0543 12.2068 965 78.8974 1211.1 488.013
2042 0 81.0574 12.3246 999 78.8298 1211.3 488.122
2043 0 84.0636 12.7166 1069 77.8906 1211.44 486.699
2044 0 85.07 12.6014 1072 79.3666 1211.31 485.699
2045 0 88.0524 12.061 1062 80.9529 1211.74 485.223
2046 0 91.0938 12.6573 1153 79.0234 1211.06 481.533
2047 0 94.096 12.2747 1155 78.0329 1209.96 480.387
2048 1 49.0264 11.7284 575 81.5652 1210.56 504.115
2049 0 51.0389 11.3835 581 86.1153 1210.96 503.205
2050 0 53.035 12.0109 637 84.1884 1210.21 502.071
2051 0 53.033 12.1057 642 87.8894 1210.76 501.023
2052 0 55.0323 11.684 643 88.1509 1211.14 499.798
2053 0 58.1679 12.2576 713 85.5512 1209.72 499.804
2054 0 54.0615 11.3944 616 80.9594 1209.81 501.157
2055 0 56.1105 11.1566 626 80.738 1210.15 500.319
2056 0 59.0493 10.8723 642 79.3427 1209.76 500.243
2057 0 60.0128 10.8477 651 80.0722 1209.81 499.252
2058 0 63.0809 10.6847 674 79.9629 1209.19 496.999
2059 0 64.0737 11.7053 750 77.924 1208.8 497.292
2060 0 66.0487 11.2796 745 78.4403 1208.92 497.123
2061 0 68.0593 11.6957 796 77.6621 1209.24 496.063
2062 0 72.0464 11.5204 830 77.4036 1209.19 494.255
2063 0 72.0495 11.3672 819 78.6044 1209.33 493.308
2064 0 74.0671 10.99 814 79.8391 1209.14 492.826
2065 0 78.0264 11.7012 913 78.6002 1209.33 490.031
2066 0 79.0654 11.2059 886 79.9007 1209.95 490.647
2067 0 81.1136 11.4531 929 80.6362 1209.58 487.778
2068 0 85.1599 11.8835 1012 80.2708 1210.25 487.878
2069 0 83.1179 10.3949 864 75.456 1210.52 481.431
2070 0 87.0846 11.0467 962 74.895 1210.43 480.597
2071 0 91.0804 11.2428 1024 74.5088 1210.21 479.648
2072 0 91.0429 10.885 991 76.779 1209.62 475.129
2073 0 94.0573 11.5143 1083 76.5974 1209.8 474.933
2074 0 97.0985 11.8642 1152 76.3576 1209.08 473.213
2075 0 99.0929 11.8777 1177 77.9201 1209.56 472.223
2076 0 100.062 12.2724 1228 78.4715 1209.55 470.382
2077 0 107.2 11.875 1273 79.3079 1209.32 470.98
2078 0 109.104 12.5935 1374 79.9796 1209.35 467.792
2079 0 113.1 12.7675 1444 79.2632 1209.7 463.492
2080 0 115.213 12.4726 1437 83.366 1209.19 461.003
2081 0 122.172 13.1127 1602 86.2865 1209.61 462.294
2082 1 64.0767 10.7527 689 88.8418 1209.33 491.443
2083 0 64.1075 10.7944 692 144.197 1209.34 491.516
2084 0 68.0694 11.6793 795 89.7447 1209.88 489.039
2085 0 72.0444 12.3951 893 93.2363 1209.2 487.976
2086 0 74.1092 11.9553 886 93.0316 1209.53 488.843
2087 0 80.1136 12.6445 1013 90.5943 1210 488.315
2088 0 82.0727 12.2209 1003 92.7866 1209.9 487.856
2089 0 83.103 12.0694 1003 93.993 1210.42 485.93
2090 0 86.1131 12.5184 1078 92.7078 1210.23 483.853
2091 0 89.1451 12.7657 1138 90.5852 1210.06 483.938
2092 0 90.1546 12.4342 1121 91.9706 1209.6 482.874
2093 0 93.1205 11.8771 1106 93.3861 1210.09 479.471
2094 0 96.0776 12.1464 1167 92.8158 1211.03 479.489
2095 1 48.0663 10.111 486 89.1132 1210.2 501.428
2096 0 52.0316 11.051 575 84.5565 1209.95 500.889
2097 0 52.0236 11.687 608 79.8487 1211.39 500.289
2098 0 52.0183 11.5921 603 80.0348 1211.28 499.015
2099 0 56.0255 12.1909 683 78.022 1211.43 496.529
2100 0 53.0512 9.29291 493 78.4199 1211 493.773
2101 0 57.0337 10.485 598 82.7893 1211.07 497.007
2102 0 57.0322 9.73135 555 85.6216 1210.69 496.697
2103 0 59.0553 9.99063 590 85.9 1211.64 497.131
2104 0 63.0665 10.7823 680 84.0338 1211.32 495.144
2105 0 62.0438 9.89623 614 87.0244 1211.03 495.876
2106 0 65.047 10.8998 709 85.8237 1211.04 492.636
2107 0 68.0548 10.5209 716 85.8883 1210.77 491.419
2108 0 72.1039 10.8732 784 88.8138 1211.28 490.181
2109 0 72.0254 11.371 819 89.4823 1210.99 489.266
2110 0 75.1084 10.6912 803 91.9278 1211.76 489.939
2111 0 78.0959 11.6139 907 91.8754 1211.48 485.525
2112 0 80.084 11.2882 904 93.5664 1211.87 485.549
2113 0 82.0347 11.5073 944 94.5646 1211.91 482.081
2114 0 87.0521 11.9469 1040 92.8615 1211.48 482.127
2115 0 88.0473 11.6188 1023 94.8778 1211.23 480.163
2116 1 49.0356 10.6453 522 97.7299 1211.5 498.228
2117 0 49.0202 11.3423 556 97.3255 1211.19 498.962
2118 0 51.0243 11.8571 605 96.443 1211.62 497.866
2119 0 51.0115 11.468 585 101.875 1209.47 496.142
2120 0 53.0493 12.0077 637 100.584 1209.57 494.736
2121 0 52.038 11.9336 621 101.799 1210.01 493.77
2122 0 56.0191 12.2101 684 99.8143 1210.18 494.879
2123 0 57.0182 12.4522 710 99.5296 1210.32 493.885
2124 0 58.0371 11.9923 696 100.966 1210.3 493.461
2125 0 61.0377 12.8281 783 95.8506 1209.67 490.166
2126 0 61.0559 12.4804 762 97.1903 1210.1 488.57
2127 0 64.0283 12.4789 799 95.2753 1211.12 488.61
2128 0 62.0907 11.2416 698 99.0716 1211.39 492.974
2129 0 63.0658 11.1312 702 101.14 1210.74 489.148
2130 0 66.0992 11.165 738 99.0244 1211.4 487.398
2131 0 67.0956 11.9233 800 98.76 1211.14 483.346
2132 0 72.035 11.897 857 98.0408 1210.67 481.153
2133 0 74.045 12.2763 909 97.7899 1210.63 479.023
2134 0 75.0748 12.068 906 100.134 1210.98 478.024
2135 0 77.1199 12.5389 967 99.3237 1211.43 476.148
2136 0 81.0337 12.5873 1020 98.2951 1210.95 475.845
2137 0 83.1241 12.8964 1072 98.1595 1211.1 473.353
2138 0 83.0803 12.2412 1017 100.975 1210.65 471
2139 0 89.0417 12.3538 1100 99.2518 1210.98 469.528
2140 0 94.0731 12.6497 1190 97.6395 1211.12 468.582
2141 1 48.0116 11.3514 545 101.248 1210.85 489.481
2142 0 49.0338 11.5838 568 100.012 1209.7 488.854
2143 0 50.0111 12.3573 618 97.8123 1210.38 488.089
2144 0 51.0561 12.7898 653 97.1302 1210.73 486.057
2145 0 53.0372 12.6326 670 96.6478 1210.64 485.776
2146 0 54.0493 12.3776 669 96.5441 1210.6 485.41
2147 0 57.0997 12.2943 702 97.7849 1210.85 485.147
2148 0 57.0288 12.4148 708 97.4068 1212.05 491.333
2149 0 60.0399 12.3251 740 98.6905 1210.68 491.138
2150 0 59.0769 11.849 700 102.109 1210.72 488.321
2151 0 64.0734 12.0643 773 100.084 1211.14 487.705
2152 0 67.1223 12.3357 828 99.6039 1211.88 487.912
2153 0 66.0421 12.0983 799 101.287 1211.03 482.3
2154 0 68.0593 12.636 860 101.521 1211.79 480.127
2155 0 72.1458 12.849 927 99.89 1210 478.357
2156 0 75.0614 13.016 977 99.9734 1211.2 478.124
2157 0 76.0757 12.343 939 102.064 1211.4 477.34
2158 0 80.1084 12.92 1035 100.678 1210.75 475.17
2159 0 83.1342 13.0752 1087 100.418 1211.52 474.943
2160 0 83.1763 12.744 1060 103.211 1211.87 472.666
2161 0 88.0496 12.6974 1118 102.462 1211.52 471.592
2162 0 91.1516 12.1775 1110 103.258 1211.13 469.873
2163 0 94.1073 12.1882 1147 103.499 1211.95 468.754
2164 0 97.0979 12.8015 1243 102.175 1211.7 467.586
2165 1 57.0472 10.2722 586 94.4949 1212.17 489.346
2166 0 58.1069 10.2225 594 96.4141 1212.13 491.419
2167 0 61.0769 11.33 692 93.1734 1212.2 491.13
2168 0 63.0702 11.4158 720 90.3986 1212.35 490.342
2169 0 65.0462 11.8685 772 82.7837 1211.79 489.42
2170 0 67.1075 11.7573 789 83.5906 1212.74 488.569
2171 0 66.1073 11.1334 736 87.4008 1211.96 485.557
2172 0 72.0453 11.8259 852 84.4965 1212.03 486.897
2173 0 75.0409 11.5137 864 85.7685 1211.99 485.884
2174 0 78.0457 12.2236 954 85.9581 1212.71 485.019
2175 0 79.0622 12.0412 952 87.7353 1212.67 483.763
2176 0 81.0623 12.3732 1003 88.2064 1212.53 483.589
2177 0 84.1043 12.0565 1014 89.4379 1212.93 481.312
2178 0 86.0768 12.1287 1044 90.6398 1213 480.259
2179 0 91.026 12.469 1135 89.4502 1212.81 478.778
2180 0 94.1293 12.3128 1159 91.0147 1213.22 478.096
2181 0 96.0635 12.117 1164 91.0962 1212.65 474.535
2182 0 98.0871 12.7846 1254 97.0638 1213.04 477.041
2183 1 53.0422 11.0101 584 97.7021 1213.34 500.288
2184 0 53.0979 11.1115 590 109.178 1212 498.922
2185 0 55.1662 11.5107 635 107.973 1210.75 497.087
2186 0 57.1356 11.534 659 102.889 1210.84 497.349
2187 0 58.0367 11.8546 688 90.4971 1212.17 497.057
2188 0 59.0967 11.7435 694 90.4438 1212.66 495.098
2189 0 62.0663 12.0355 747 88.7082 1212.1 494.498
2190 0 63.0879 11.5712 730 89.6205 1212.51 493.584
2191 0 64.0592 11.2552 721 90.4743 1212.59 492.985
2192 0 68.0765 11.9865 816 87.9877 1212.27 491.67
2193 0 70.0672 11.4176 800 88.835 1212.62 490.033
2194 0 68.0765 9.21023 627 96.2616 1212.11 483.518
2195 0 72.1351 9.53765 688 94.7398 1212.47 483.907
2196 0 77.0884 10.4555 806 99.3337 1213.22 486.819
2197 0 79.1262 10.8055 855 98.5497 1212.92 485.29
2198 0 82.0832 10.3432 849 98.7538 1212.69 484.716
2199 0 83.088 10.1459 843 92.777 1211.77 478.237
2200 0 84.0482 10.0894 848 88.8986 1211.67 478.285
2201 0 88.1038 10.8735 958 87.3434 1211.43 477.947
2202 0 88.1038 10.9076 961 128.248 1211.44 477.943
2203 0 94.0832 10.5013 988 91.3644 1211.2 474.945
2204 0 97.11 11.2656 1094 89.8218 1211.15 473.121
2205 0 97.0697 8.96263 870 96.6862 1212 469.272
2206 1 54.0268 9.05107 489 81.1186 1211.95 494.867
2207 0 55.105 9.01915 497 80.4064 1211.84 496.394
2208 0 60.1434 11.14 670 89.6104 1211.75 499.036
2209 0 61.1674 12.1143 741 94.1107 1211.31 496.86
2210 0 62.1031 11.9801 744 80.6532 1211.78 496.44
2211 0 64.0463 11.4448 733 82.6221 1212.19 495.441
2212 0 65.0276 11.5336 750 81.8427 1211.39 494.559
2213 0 67.0546 11.0656 742 81.8208 1211.47 492.155
2214 0 68.1875 10.5591 720 80.2333 1212.15 488.361
2215 0 67.0818 10.8524 728 79.8558 1211.8 484.437
2216 0 73.1551 11.0177 806 78.7593 1211.83 484.933
2217 0 74.186 11.3499 842 78.152 1211.65 481.656
2218 0 74.1144 10.6052 786 80.7328 1211.63 480.622
2219 0 75.0738 11.522 865 80.5283 1211.57 477.646
2220 0 77.1063 11.348 875 81.1223 1212.24 477.698
2221 0 83.0976 10.9389 909 84.3091 1211.25 477.78
2222 0 89.0643 13.451 1198 87.3022 1211.71 482.946
2223 0 92.1499 12.7944 1179 88.9652 1211.46 482.378
2224 0 94.0794 13.0528 1228 88.2842 1211.76 479.15
2225 0 95.1687 12.8298 1221 89.2473 1210.96 479.505
2226 0 100.15 13.3799 1340 86.85 1211.39 478.206
2227 0 98.1394 11.7282 1151 93.1442 1210.69 479.586
2228 0 101.165 11.2786 1141 95.1411 1211.14 478.443
2229 0 107.173 12.6525 1356 92.5583 1210.99 476.404
2230 0 108.194 12.3574 1337 94.982 1211.28 473.129
2231 0 110.083 11.6094 1278 93.3991 1211.49 472.612
2232 0 113.118 12.4295 1406 92.0633 1211.91 471.597
2233 0 117.169 12.674 1485 92.2579 1210.7 470.009
2234 0 121.128 12.6561 1533 92.696 1210.59 468.967
2235 0 124.166 12.6524 1571 91.7066 1210.65 467.624
2236 0 128.217 12.666 1624 91.8264 1210.08 465.693
2237 0 132.201 13.124 1735 91.0968 1210.3 462.535
2238 0 132.201 13.1693 1741 149.248 1210.32 462.642
2239 0 139.134 12.2688 1707 92.0644 1210.38 459.789
2240 0 143.324 12.3845 1775 91.9189 1209.61 457.598
2241 0 150.161 12.3068 1848 91.0514 1210.24 454.902
2242 0 154.167 12.8627 1983 90.4266 1210.52 451.584
2243 0 158.204 12.9769 2053 90.7896 1210.72 443.027
2244 0 161.256 13.2584 2138 90.1445 1210.29 442.828
2245 0 165.277 13.2868 2196 91.0323 1209.5 440.404
2246 0 171.198 13.3647 2288 90.8108 1209.94 438.246
2247 0 176.307 13.1872 2325 90.8641 1209.43 436.403
2248 0 180.197 12.6695 2283 91.7705 1210.34 433.12
2249 0 183.301 12.7604 2339 89.3826 1209.82 431.404
2250 0 188.252 12.7542 2401 90.5723 1210.72 430.063
2251 0 193.344 12.6148 2439 91.2263 1210.28 426.95
2252 1 207.117 10.3468 2143 93.3887 1210.38 431.498
2253 0 206.215 12.5936 2597 90.6746 1210.31 420.684
2254 0 215.25 12.8734 2771 89.3418 1210.76 416.472
2255 0 222.335 12.9624 2882 88.4299 1210.76 411.398
2256 1 168.119 11.9856 2015 92.0442 1210.57 435.82
2257 0 174.223 12.8513 2239 92.2506 1211.09 431.13
2258 0 180.155 12.5337 2258 91.4885 1210.93 427.046
2259 0 187.153 13.0749 2447 89.9779 1210.37 425.635
2260 0 196.235 13.5756 2664 87.4204 1210.69 424.255
2261 0 197.147 12.8584 2535 89.1479 1210.1 417.55
2262 0 209.139 13.3022 2782 87.3199 1210.15 416.267
2263 0 212.344 12.9036 2740 88.6555 1210.55 412.826
2264 0 224.271 14.3888 3227 84.2256 1210.57 410.873
2265 0 231.249 13.639 3154 87.1975 1210.34 407.645
2266 0 239.362 14.2462 3410 88.6628 1210.51 398.04
2267 0 248.461 14.0062 3480 89.6089 1210.46 395.27
2268 1 257.388 13.4816 3470 89.534 1210.72 391.873
2269 1 206.397 12.1417 2506 87.1369 1210.98 421.204
2270 0 210.45 12.1122 2549 87.7026 1211.47 418.93
2271 0 218.461 13.3708 2921 86.569 1210.81 411.88
2272 0 222.398 13.3904 2978 88.04 1210.76 405.041
2273 0 228.272 13.1904 3011 88.4533 1210.73 399.534
2274 0 236.285 13.179 3114 88.3757 1210.95 399.218
2275 0 244.439 13.5167 3304 88.161 1210.84 393.271
2276 0 252.364 13.8055 3484 87.3347 1210.72 389.457
2277 0 261.226 13.6051 3554 88.2524 1210.67 386.439
2278 0 269.218 13.7992 3715 87.5271 1210.67 381.197
2279 0 279.287 13.6741 3819 88.1807 1211.06 376.157
2280 1 234.163 10.8813 2548 90.9584 1211.36 409.735
2281 0 231.134 10.3274 2387 93.6632 1211.06 408.752
2282 0 235.217 11.5255 2711 90.6245 1211.39 407.779
2283 0 233.157 12.4723 2908 90.5144 1211.41 399.522
2284 0 242.357 14.3425 3476 89.338 1211.3 404.361
2285 0 251.286 14.6487 3681 90.2062 1211.55 404.702
2286 0 257.285 14.342 3690 88.9214 1210.72 392.313
2287 0 266.241 14.3254 3814 91.6827 1210.73 391.753
2288 1 298.637 22.5156 6724 70.3343 1210.48 355.825
2289 0 359.722 20.4964 7373 70.6872 1210.07 354.36
2290 0 362.379 22.5151 8159 67.5671 1210.24 337.159
2291 0 308.475 16.8312 5192 89.0815 1210.26 367.718
2292 0 317.368 15.6222 4958 90.2029 1209.67 363.397
2293 1 225.156 12.5069 2816 94.1953 1209.59 414.923
2294 0 231.183 12.4793 2885 95.4215 1209.79 412.298
2295 0 242.2 12.7168 3080 95.601 1209.83 404.816
2296 0 248.265 12.4826 3099 95.5505 1210.38 400.84
2297 0 250.267 12.3668 3095 160.945 1210.39 400.499
2298 1 265.294 13.4907 3579 96.7605 1210.31 391.455
2299 0 272.239 13.2384 3604 99.2228 1210.73 389.18
2300 0 282.232 13.0743 3690 100.164 1209.97 386.389
2301 0 291.195 13.2729 3865 100.772 1210.08 381.335
2302 0 300.255 12.9124 3877 102.391 1209.64 373.162
2303 0 310.276 15.6667 4861 92.6521 1210.29 359.974
2304 0 318.372 14.1376 4501 104.397 1210.7 366.289
2305 0 330.368 14.5323 4801 104.909 1209.91 361.903
2306 0 338.323 15.5827 5272 103.099 1209.47 350.121
2307 0 351.354 16.314 5732 103.928 1209.6 343.519
2308 0 361.305 15.8038 5710 103.844 1210.58 339.713
2309 0 371.423 16.0033 5944 101.214 1210.9 325.906
2310 0 385.307 15.3877 5929 102.072 1211.03 320.679
2311 0 386.231 9.86975 3812 117.696 1210.1 340.998
2312 1 60.1541 11.0383 664 91.7756 1211.44 438.452
2313 0 59.0803 10.8835 643 94.5443 1210.09 465.883
2314 0 60.1264 10.9602 659 93.4537 1210.64 490.566
2315 0 61.0466 10.6312 649 94.3713 1211.33 497.612
2316 0 63.0851 10.684 674 94.5163 1210.85 497.378
2317 0 66.0946 8.60887 569 88.812 1211.41 497.895
2318 0 65.061 9.14527 595 88.8605 1211.77 495.738
2319 0 69.025 9.35893 646 88.0851 1211.3 494.525
2320 0 75.083 13.2254 993 78.6405 1211.08 487.333
2321 0 78.0794 12.4233 970 81.0031 1211.24 487.554
2322 0 77.0657 11.2631 868 85.6636 1211.66 486.152
2323 1 100.312 12.4811 1252 72.0631 1211.09 478.804
2324 0 96.0718 14.3851 1382 69.6715 1211.77 475.24
2325 0 89.0604 13.3729 1191 80.6717 1210.7 474.966
2326 0 88.1439 11.0728 976 89.9918 1211.63 474.011
2327 0 91.1414 11.4767 1046 87.2189 1211.87 479.154
2328 0 93.1605 11.711 1091 86.5591 1211.65 479.771
2329 0 96.1212 11.319 1088 86.9733 1211.73 478.214
2330 0 100.132 11.5947 1161 86.8208 1211.44 475.981
2331 0 102.09 11.5976 1184 87.962 1212.32 473.225
2332 0 107.056 12.2366 1310 89.2878 1212.15 473.763
2333 1 64.0341 10.9785 703 90.1536 1212.63 493.687
2334 0 65.0563 11.4055 742 89.4973 1212.23 493.757
2335 0 66.1507 11.8517 784 89.7258 1211.15 491.528
2336 0 69.1645 12.0438 833 89.3421 1211.88 491.785
2337 0 71.0712 11.9036 846 90.0236 1210.5 492.319
2338 0 73.0828 11.7264 857 91.1657 1210.63 490.854
2339 0 75.0828 12.0667 906 90.8885 1210.62 489.838
2340 0 75.0302 11.4621 860 93.8151 1211.58 491.307
2341 0 77.0485 11.1229 857 94.881 1211.42 490.013
2342 0 78.0618 11.9008 929 94.2293 1211.11 488.341
2343 0 78.0768 11.3478 886 95.4966 1210.63 488.247
2344 0 80.0613 11.8035 945 93.9884 1210.48 486.502
2345 0 83.1132 11.743 976 93.4887 1211.06 486.663
2346 0 85.1298 11.9817 1020 92.8912 1211.15 485.472
2347 0 87.0669 11.405 993 94.5227 1210.54 484.575
2348 0 87.156 11.7261 1022 94.6957 1210.68 484.645
2349 0 90.1165 11.7404 1058 93.9726 1210.71 484.052
2350 0 93.1651 12.1075 1128 92.391 1210.49 483.527
2351 0 96.1903 11.4149 1098 93.123 1210.43 481.565
2352 0 99.1846 11.2013 1111 93.6877 1210.1 480.347
2353 0 102.151 11.297 1154 93.1508 1210.06 479.111
2354 0 104.163 11.3284 1180 92.2568 1209.35 478.931
2355 0 107.082 11.7387 1257 93.1782 1210.51 476.662
2356 0 111.085 11.9818 1331 92.6536 1209.8 475.896
2357 0 112.08 11.9201 1336 92.7043 1209.8 476.281
2358 0 118.123 11.5134 1360 93.4338 1209.52 474.482
2359 1 65.0606 11.0359 718 87.1407 1209.88 500.515
2360 0 64.0543 10.6628 683 84.8799 1209.34 501.52
2361 0 69.086 11.6956 808 79.4666 1209.33 501.004
2362 0 68.0797 11.0312 751 81.4181 1208.42 499.996
2363 0 68.0851 10.6044 722 84.4252 1208.27 499.778
2364 0 70.027 10.4103 729 84.6269 1208.32 500.956
2365 0 72.025 10.3297 744 84.8401 1208.49 498.34
2366 0 75.0194 11.3037 848 82.8797 1207.81 496.062
2367 0 81.034 8.41622 682 86.2331 1207.67 498.575
2368 0 81.0402 10.3652 840 84.8369 1207.54 494.067
2369 0 79.0337 10.9067 862 84.6821 1209.02 492.531
2370 0 84.0292 11.4722 964 83.7075 1208.07 490.169
2371 0 86.0508 11.4932 989 82.8605 1208.98 488.549
2372 0 90.055 11.493 1035 80.9932 1209.19 485.864
2373 0 92.0587 11.2537 1036 81.5454 1208.59 485.693
2374 0 97.0588 11.6836 1134 81.9242 1208.28 485.121
2375 0 95.0869 10.8322 1030 84.0573 1207.96 485.971
2376 0 102.098 11.1461 1138 83.9903 1208.51 482.098
2377 0 106.097 11.4141 1211 83.6301 1208.25 480.973
2378 0 109.089 11.0735 1208 85.6755 1208.9 478.999
2379 0 111.107 11.1335 1237 85.3565 1209.17 475.497
2380 1 63.0573 11.323 714 84.2591 1208.58 498.112
2381 0 65.0946 11.6446 758 77.6293 1209.03 498.001
2382 0 65.1316 11.8529 772 79.6943 1209.18 496.833
2383 0 69.046 11.8761 820 76.4463 1208.6 496.801
2384 0 69.0629 11.6995 808 78.177 1208.97 495.213
2385 0 71.0843 12.042 856 80.6495 1208.3 494.701
2386 0 73.0566 12.1413 887 81.1432 1208.98 493.043
2387 0 75.0973 12.1709 914 80.1214 1208.52 491.648
2388 0 79.0782 12.6078 997 78.6379 1208.14 488.87
2389 0 80.0392 12.0316 963 82.2461 1208.26 487.393
2390 0 83.087 12.7577 1060 81.1509 1208.7 487.267
2391 0 85.0473 12.4989 1063 81.4412 1209.19 484.457
2392 0 88.0389 13.1646 1159 81.7127 1209.19 483.635
2393 0 91.0945 12.8438 1170 83.8231 1209.58 482.637
2394 0 92.0577 13.0353 1200 83.3992 1209.36 481.141
2395 0 95.0578 13.0131 1237 84.2239 1209.72 479.62
2396 0 98.0743 12.8372 1259 85.4019 1209.89 476.832
2397 0 102.076 13.6467 1393 84.1493 1210.02 476.261
2398 0 102.149 12.8245 1310 87.2145 1209.68 473.281
2399 0 108.046 13.0686 1412 85.5042 1210.18 472.222
2400 0 111.137 13.2 1467 85.5174 1210.54 469.508
2401 0 114.158 13.1923 1506 85.9336 1210.24 467.932
2402 0 119.087 13.6455 1625 84.2578 1210.38 468.217
2403 0 121.215 13.7277 1664 83.6094 1210.06 467.013
2404 0 124.156 12.5487 1558 86.527 1210.92 466.884
2405 0 126.103 12.2519 1545 91.1689 1210.85 466.812
2406 1 70.0397 11.8076 827 89.5599 1210.96 493.852
2407 0 72.0706 12.238 882 90.0669 1210.86 491.735
2408 0 74.0961 11.4716 850 91.9918 1210.71 487.245
2409 0 77.0518 12.4592 960 93.7219 1211.07 488.603
2410 0 77.0439 10.9548 844 86.0711 1211.34 491.519
2411 0 81.0417 11.2288 910 86.5033 1211.75 488.552
2412 0 82.0772 11.343 931 86.9796 1209.76 488.882
2413 0 85.1121 12.1604 1035 86.114 1209.6 486.789
2414 0 86.1165 12.5179 1078 85.8265 1210.49 486.323
2415 0 89.0694 11.4405 1019 87.6457 1210.61 485.486
2416 0 91.1154 11.9519 1089 87.2351 1210.33 484.295
2417 0 93.0954 12.6322 1176 86.2083 1210.15 481.974
2418 0 96.0801 12.4896 1200 86.8717 1209.93 481.655
2419 0 98.0749 12.7352 1249 87.4924 1210.12 478.701
2420 0 102.06 12.8943 1316 87.4384 1210.15 478.233
2421 0 105.153 12.905 1357 88.7207 1209.9 475.674
2422 0 110.086 13.5258 1489 86.5044 1210.01 473.419
2423 0 112.089 13.9888 1568 86.8508 1210.05 473.339
2424 0 117.111 14.26 1670 86.2844 1210.58 470.772
2425 1 63.1231 11.6598 736 92.7188 1210.77 497.717
2426 0 66.1043 11.9962 793 91.5876 1211.28 496.618
2427 0 67.0965 13.4433 902 91.5721 1211.38 496.651
2428 0 70.0638 12.9025 904 91.1692 1210.45 494.947
2429 0 69.0929 12.6641 875 89.4149 1210.04 495.568
2430 0 73.0767 12.9179 944 88.0943 1210.25 493.735
2431 0 76.0831 13.0384 992 87.8196 1210.32 492.745
2432 0 77.0937 13.3085 1026 87.9717 1210.03 491.395
2433 0 81.1222 13.5721 1101 90.406 1210.33 490.575
2434 0 81.1135 13.6599 1108 88.4829 1209.83 489.138
2435 0 84.0581 13.3003 1118 88.3614 1210.47 489.269
2436 0 87.0832 13.0794 1139 88.9473 1210.2 486.031
2437 0 89.1599 13.0888 1167 88.9606 1210.42 485.306
2438 0 94.1264 13.1525 1238 87.853 1210.22 484.015
2439 0 92.1057 11.8017 1087 93.9816 1210.24 483.968
2440 0 96.0778 12.7189 1222 91.3879 1210.4 482.217
2441 0 97.0935 11.9266 1158 92.7729 1210.14 480.756
2442 0 101.119 11.3826 1151 93.9157 1209.55 480.242
2443 0 104.102 11.6232 1210 94.0554 1209.82 478.699
2444 0 108.084 12.0276 1300 92.57 1210 477.018
2445 0 111.057 12.21 1356 92.1969 1209.97 475.362
2446 0 114.135 12.4152 1417 91.3634 1210.09 473.81
2447 0 118.094 12.4392 1469 90.3547 1209.95 472.349
2448 0 121.127 12.6396 1531 92.4422 1211.07 470.457
2449 0 127.109 12.8472 1633 91.2094 1211.16 465.194
2450 0 128.096 12.0613 1545 90.6777 1210.92 463.588
2451 0 130.134 10.981 1429 93.4017 1211.47 458.898
2452 1 73.0394 10.7613 786 88.5254 1211.94 493.691
2453 0 75.0509 11.3656 853 78.3283 1211.48 492.205
2454 0 74.0811 10.88 806 83.7593 1211.16 493.346
2455 0 77.0699 11.1198 857 84.7736 1209.6 491.505
2456 0 80.0983 11.4859 920 83.9054 1209.03 492.687
2457 0 81.0574 10.9305 886 86.0124 1209.87 491.271
2458 0 86.0842 11.3726 979 85.4699 1209.99 490.046
2459 0 88.052 11.8566 1044 86.0479 1210.78 488.636
2460 0 90.1069 11.7971 1063 88.2474 1210.46 486.79
2461 0 92.0962 11.7377 1081 89.5846 1209.9 485.565
2462 0 96.0996 11.9355 1147 89.8038 1210.04 483.755
2463 0 98.0591 11.9214 1169 91.4354 1211.01 482.065
2464 0 101.134 11.8555 1199 91.8449 1210.85 482.424
2465 0 102.124 11.8288 1208 93.3858 1210.64 479.065
2466 0 107.096 12.5775 1347 94.784 1210.64 476.915
2467 0 109.148 13.019 1421 91.5355 1210.78 476.827
2468 0 114.097 13.173 1503 92.4864 1210.72 473.983
2469 0 115.113 12.188 1403 95.0378 1210.67 473.721
2470 0 120.119 12.2046 1466 93.1276 1210.46 471.05
2471 1 70.0422 10.2224 716 90.743 1210.04 495.894
2472 0 71.023 9.77149 694 90.0274 1210.3 495.061
2473 0 74.0623 10.6667 790 80.962 1210.29 494.284
2474 0 76.1177 11.4428 871 78.3387 1209.45 492.524
2475 0 77.1576 9.83701 759 76.0158 1209.63 488.464
2476 0 80.1195 9.9726 799 76.2028 1210.41 487.807
2477 0 82.0757 10.7096 879 75.4471 1210.91 486.902
2478 0 83.1909 10.7945 898 76.6771 1210.22 486.203
2479 0 84.0987 9.77422 822 78.7883 1210.07 484.693
2480 0 87.0466 10.4197 907 78.5215 1210.99 482.902
2481 0 93.0698 11.0455 1028 77.5642 1210.68 482.37
2482 0 95.0755 11.6118 1104 77.24 1210.32 482.31
2483 0 98.1247 11.6994 1148 73.926 1210.49 478.151
2484 0 102.109 11.6738 1192 77.6191 1210.79 479.143
2485 0 105.113 12.1774 1280 79.4531 1210.58 477.513
2486 0 106.177 11.688 1241 79.3586 1210.77 475.362
2487 0 113.154 12.6907 1436 79.4687 1210.73 476.118
2488 0 114.208 11.7417 1341 81.4213 1210.29 470.009
2489 0 117.154 10.6014 1242 90.2754 1210.85 465.785
2490 0 123.176 12.6892 1563 95.6123 1211.07 469.269
2491 1 66.0301 10.6315 702 94.3632 1211.69 497.406
2492 0 70.0658 10.7899 756 92.8796 1210.85 497.146
2493 0 70.0937 11.3562 796 92.4397 1210.49 496.008
2494 0 72.0533 11.7968 850 86.4435 1209.98 496.92
2495 0 74.1318 12.235 907 86.2359 1210.07 494.054
2496 0 76.0582 12.7534 970 91.0619 1209.75 493.592
2497 0 77.1159 12.4488 960 92.8531 1209.79 492.055
2498 0 80.1089 13.1945 1057 90.3264 1210.04 491.02
2499 0 80.1224 12.9053 1034 92.1422 1209.84 490.577
2500 0 83.1443 13.3262 1108 91.8745 1209.82 488.973
2501 0 83.1195 12.2835 1021 94.7414 1210.11 488.016
2502 0 86.1033 12.7637 1099 94.0883 1209.72 487.87
2503 0 90.1383 13.1908 1189 92.9807 1210.26 485.592
2504 0 92.1674 13.1717 1214 93.5634 1209.69 485.639
2505 0 92.1448 12.947 1193 94.9053 1209.64 483.803
2506 0 94.1019 12.5502 1181 96.2904 1209.54 483.616
2507 0 95.1346 13.0026 1237 95.2854 1209.71 481.669
2508 0 100.143 13.2011 1322 93.7905 1210.43 479.849
2509 0 101.192 12.8469 1300 94.8054 1210.73 478.352
2510 0 105.139 13.544 1424 92.5948 1210.41 478.218
2511 0 105.134 13.1547 1383 93.7093 1209.91 476.313
2512 0 107.137 12.2926 1317 95.5573 1210.34 475.075
2513 0 108.14 11.0505 1195 85.9615 1211.27 476.381
2514 0 112.058 11.2709 1263 85.0388 1210.88 474.078
2515 0 113.108 11.1398 1260 84.5103 1210.58 471.95
2516 0 119.096 11.4697 1366 83.3448 1211.06 469.073
2517 0 120.046 10.246 1230 84.6943 1210.85 468.01
2518 0 126.076 10.4144 1313 84.8858 1210.37 462.885
2519 0 130.111 11.5671 1505 85.7887 1210.28 458.096
2520 0 132.111 11.2027 1480 87.2162 1209.97 454.949
2521 0 139.065 11.2537 1565 86.8128 1209.97 453.996
2522 0 143.153 11.1 1589 86.6929 1210.2 449.086
2523 1 78.0393 10.8791 849 76.3322 1210.79 487.074
2524 0 78.0996 10.2817 803 80.8032 1210.31 484.067
2525 0 81.0822 10.5695 857 75.3442 1210.18 484.562
2526 0 82.1439 10.3599 851 75.5852 1209.56 482.746
2527 0 84.1002 10.2259 860 76.7151 1210.81 483.227
2528 0 88.0563 10.4479 920 76.4467 1210.49 482.404
2529 0 91.0735 10.519 958 76.9217 1210.81 479.954
2530 0 92.0482 10.3859 956 78.0774 1210.59 477.268
2531 0 97.1007 11.0401 1072 78.1446 1210.24 475.024
2532 0 99.0947 10.5253 1043 79.2704 1210.1 473.229
2533 0 101.085 10.9314 1105 79.9973 1209.78 471.857
2534 0 106.079 10.9352 1160 79.0948 1209.63 472.257
2535 0 106.126 11.4016 1210 79.9645 1209.74 468.931
2536 0 112.088 11.8032 1323 79.6561 1209.41 468.583
2537 0 113.032 11.6781 1320 80.4826 1209.74 465.503
2538 0 116.288 11.8155 1374 80.5852 1209.95 462.742
2539 0 122.138 12.0847 1476 80.832 1209.1 463.454
2540 0 125.123 12.4278 1555 82.8135 1209.46 460.021
2541 0 129.175 12.4095 1603 82.398 1209.17 458.246
2542 0 131.261 12.38 1625 83.0868 1209.48 455.296
2543 0 139.178 12.5882 1752 81.8653 1209.33 454.97
2544 0 141.198 12.3444 1743 83.9816 1208.76 451.661
2545 0 145.325 12.1177 1761 85.1562 1209.03 452.117
2546 0 149.33 12.6766 1893 85.4443 1209.44 446.36
2547 0 154.225 12.3002 1897 86.4623 1209.69 446.149
2548 0 157.269 12.6407 1988 87.5599 1209.78 444.541
2549 0 160.216 12.3209 1974 89.4276 1208.62 441.616
2550 0 165.282 12.4212 2053 90.945 1209.23 435.134
2551 0 170.272 12.8677 2191 90.7668 1209.18 437.382
2552 0 174.481 12.8496 2242 91.7703 1210.08 434.379
2553 0 179.274 13.3595 2395 92.2388 1211.35 431.645
2554 0 184.263 12.9218 2381 94.2264 1211.68 429.283
2555 0 190.248 12.7465 2425 95.9534 1212.14 425.079
2556 0 193.334 12.7654 2468 98.0729 1211.66 422.516
2557 0 202.375 12.8919 2609 98.941 1211.08 422.738
2558 0 209.235 12.9424 2708 100.284 1211.4 418.472
2559 0 212.183 13.215 2804 101.222 1210.05 419.416
2560 0 221.252 12.9264 2860 99.5969 1209.17 413.654
2561 0 227.183 13.0115 2956 98.1786 1209.64 410.936
2562 1 47.0102 9.44476 444 82.973 1209.56 500.667
2563 0 51.0284 10.1708 519 80.4586 1209.29 500.58
2564 0 53.0804 10.6066 563 85.206 1211.03 497.393
2565 0 54.047 10.7684 582 84.7268 1210.62 496.914
2566 0 56.0759 11.6628 654 83.4006 1211.22 496.183
2567 0 54.038 10.6777 577 86.8769 1210.41 495.655
2568 0 59.0525 11.3289 669 83.3229 1210.92 494.489
2569 0 59.0257 11.4357 675 84.7052 1210.95 493.541
2570 0 59.0524 10.9056 644 85.9829 1211.34 492.643
2571 0 62.044 11.5724 718 84.571 1211.62 493.145
2572 0 64.0974 11.7633 754 87.6326 1211.09 491.704
2573 0 65.0838 11.7387 764 88.5288 1211.46 490.406
2574 0 69.0984 12.1566 840 86.319 1211.85 490.749
2575 0 67.1026 11.6389 781 90.6927 1211.52 489.474
2576 0 69.0666 11.8147 816 90.8811 1211.35 488.775
2577 0 72.1088 11.6491 840 90.9131 1211.48 486.563
2578 0 74.0774 12.3114 912 89.8827 1211.24 485.534
2579 0 75.0576 11.671 876 91.1712 1211.63 484.501
2580 0 78.0821 10.9628 856 90.1063 1212.04 483.589
2581 0 80.0801 10.989 880 88.6068 1211.77 482.589
2582 0 84.1005 10.6064 892 88.2085 1211.21 481.993
2583 1 42.0098 10.1881 428 79.0514 1212.63 502.687
2584 0 41.0929 9.15 376 77.5479 1211.74 502.896
2585 0 44.035 10.1056 445 73.8899 1211.16 503.16
2586 0 44.0225 10.4492 460 74.1935 1211.75 501.53
2587 0 42.0602 9.15354 385 76.1247 1211.46 504.405
2588 0 44.1439 10.1033 446 75.6547 1211.07 500.442
2589 0 46.1348 10.0791 465 74.0301 1210.45 503.271
2590 0 50.0923 10.3609 519 73.2235 1211.05 502.083
2591 0 51.1178 11.1703 571 72.5499 1210.88 501.243
2592 0 53.0971 10.396 552 74.654 1210.78 500.589
2593 0 51.1312 10.3655 530 75.2113 1211.35 500.606
2594 0 54.0914 11.1108 601 74.2479 1211.51 498.754
2595 0 54.1161 10.6253 575 76.1043 1210.91 499.51
2596 0 57.0466 10.8508 619 76.2391 1210.59 497.887
2597 0 58.0854 11.2249 652 75.8298 1210.66 497.741
2598 0 60.1061 11.1969 673 75.4205 1210.75 496.196
2599 0 62.0554 11.0708 687 76.1528 1210.4 495.827
2600 0 62.036 10.9614 680 77.6132 1210.41 495.154
2601 0 64.0561 11.1153 712 76.3483 1210.42 494.913
2602 0 64.1164 10.6681 684 77.7105 1210.69 494.268
2603 0 68.0487 11.771 801 74.4856 1210.84 492.825
2604 0 69.0444 10.9784 758 75.4142 1210.96 492.173
2605 0 72.1142 11.0519 797 74.8369 1210.31 491.179
2606 0 75.0854 11.5069 864 74.1725 1210.85 489.993
2607 0 76.132 11.1911 852 76.2359 1211.04 489.586
2608 0 78.1028 11.152 871 76.682 1210.77 488.366
2609 0 80.0711 10.8279 867 77.7128 1210.46 487.107
2610 0 84.0806 11.156 938 76.951 1210.73 485.445
2611 1 47.0726 11.1955 527 75.2808 1210.14 503.323
2612 0 47.0242 10.9305 514 75.93 1210 503.167
2613 0 48.0323 10.8677 522 77.3295 1209.99 501.259
2614 0 50.0731 11.7229 587 75.8535 1210.38 500.133
2615 0 52.0301 12.6081 656 74.6509 1210.64 499.433
2616 0 54.0198 12.1992 659 75.8467 1210.29 498.721
2617 0 53.2096 12.1031 644 75.9239 1210.57 499.759
2618 0 53.0533 10.7251 569 77.8436 1211.21 500.032
2619 0 54.0549 11.2478 608 77.472 1210.64 499.434
2620 0 56.0544 11.0607 620 77.4145 1211.39 498.511
2621 0 56.052 10.8114 606 78.2904 1211.19 496.14
2622 0 57.0267 9.57446 546 78.1648 1211.16 498.181
2623 0 59.0671 11.0383 652 76.4141 1210.41 496.86
2624 0 61.0651 10.6607 651 76.9109 1210.26 494.777
2625 0 63.0428 11.0718 698 76.8782 1210.02 491.926
2626 0 66.0499 10.7343 709 77.0959 1210.15 491.769
2627 0 66.0339 11.7515 776 76.8595 1210.31 491.537
2628 0 70.045 11.8067 827 77.26 1210.38 488.891
2629 0 73.097 11.902 870 77.9874 1210.42 488.618
2630 0 75.0444 12.1128 909 78.5292 1210.6 487.987
2631 0 77.0496 11.7976 909 79.4488 1210.86 487.628
2632 0 80.0685 11.665 934 81.2966 1210.83 486.48
2633 0 83.0962 12.2027 1014 81.1824 1210.92 485.044
2634 0 85.07 12.1782 1036 82.5695 1211.47 483.774
2635 0 88.0297 12.439 1095 83 1210.89 481.891
2636 0 91.0408 12.7415 1160 83.4922 1210.74 480.493
2637 0 92.056 12.2208 1125 85.4507 1211.38 479.634
2638 0 94.0624 12.3641 1163 86.2322 1210.77 478.225
2639 0 97.0884 12.7513 1238 85.5889 1210.98 476.691
2640 0 101.035 12.5105 1264 86.9897 1211.04 474.619
2641 1 56.0312 10.976 615 87.6016 1210.17 498.779
2642 0 57.0536 11.8836 678 85.6106 1210.32 498.364
2643 0 59.0202 11.8603 700 86.76 1210.69 497.446
2644 0 58.0774 11.984 696 86.3362 1211.68 493.898
2645 0 61.0209 12.6186 770 83.3662 1210.66 495.177
2646 0 63.0423 12.2933 775 89.5071 1210.78 494.036
2647 0 65.0505 12.1752 792 89.2891 1211.55 494.061
2648 0 67.0727 12.7921 858 88.5862 1211.78 490.997
2649 0 68.0647 13.0611 889 88.4634 1211.39 491.978
2650 0 72.0689 13.0153 938 87.8124 1211.21 490.924
2651 0 72.0404 13.0482 940 88.9755 1211.33 488.494
2652 0 76.0512 13.0833 995 88.6714 1210.41 488.733
2653 0 78.0584 12.6059 984 90.6311 1210.96 486.493
2654 0 78.0571 13.2852 1037 91.7975 1210.89 486.473
2655 0 82.1269 13.3574 1097 92.3172 1210.44 484.143
2656 0 85.06 13.6727 1163 91.7713 1209.81 484.285
2657 0 86.091 13.1721 1134 93.9189 1211.04 482.364
2658 0 89.0928 13.6824 1219 93.8138 1210.7 480.893
2659 0 91.0927 13.7552 1253 94.2626 1210.44 478.929
2660 0 95.0279 13.7854 1310 94.2641 1210.66 478.998
2661 0 97.0558 13.7859 1338 96.3572 1210.37 477.194
2662 0 100.112 13.9144 1393 96.4121 1210.54 475.029
2663 0 102.107 14.0636 1436 96.5237 1210.29 474.249
2664 0 107.103 14.1733 1518 96.6568 1210.55 473.488
2665 0 109.055 13.7545 1500 97.2773 1210.32 472.917
2666 0 112.054 13.5203 1515 98.1696 1210.77 467.947
2667 1 59.0506 12.5994 744 91.6304 1210.47 495.362
2668 0 60.0315 12.66 760 87.6289 1209.84 492.374
2669 0 63.0248 12.8521 810 86.4593 1210.37 495.063
2670 0 67.0555 13.0936 878 85.4362 1210.5 494.259
2671 0 67.0064 13.4315 900 86.77 1211.3 492.391
2672 0 68.026 12.848 874 88.7334 1211.72 491.511
2673 0 71.0535 13.8206 982 86.4338 1212.13 489.981
2674 0 73.0399 13.9787 1021 87.4858 1212 488.589
2675 0 75.0461 13.1652 988 90.6346 1211.49 487.315
2676 0 77.0712 13.1307 1012 91.4951 1211.4 487.363
2677 0 80.0544 12.8538 1029 92.137 1210.95 487.773
2678 0 82.0325 13.007 1067 92.9644 1211.35 485.574
2679 0 85.0889 12.9982 1106 94.5335 1210.87 484.379
2680 0 87.0473 13.5903 1183 93.4015 1210.56 482.622
2681 0 92.0319 13.9191 1281 92.3903 1210.14 483.649
2682 0 94.0483 13.3974 1260 94.0246 1210.44 483.157
2683 0 96.0873 13.4877 1296 94.6435 1209.74 482.885
2684 0 96.107 13.3497 1283 97.4879 1210.09 480.364
2685 0 100.173 13.2969 1332 98.3183 1209.38 478.455
2686 0 104.092 13.1422 1368 97.663 1209.89 478.068
2687 0 107.239 13.055 1400 98.3214 1209.53 475.634
2688 0 113.236 13.8648 1570 94.435 1209.5 474.091
2689 0 115.196 13.6898 1577 94.9049 1210.2 471.859
2690 1 61.0771 12.3778 756 94.8188 1210.58 497.8
2691 0 61.146 11.6443 712 98.3104 1210.44 494.709
2692 0 66.1006 13.0256 861 92.0337 1210.32 495.437
2693 0 67.0496 13.2887 891 91.0438 1211.18 495.099
2694 0 64.0258 12.7292 815 90.3325 1211.17 495.148
2695 0 68.0228 12.29 836 87.8182 1210.87 495.474
2696 0 72.0892 12.1932 879 88.0535 1210.86 494.142
2697 0 73.1273 12.4167 908 89.163 1210.88 492.254
2698 0 75.0584 12.4303 933 90.0268 1210.99 491.108
2699 0 77.1073 12.3853 955 90.0702 1210.59 490.222
2700 0 78.1038 12.2657 958 90.596 1211 488.518
2701 0 82.0443 12.3348 1012 89.3785 1210.29 487.581
2702 0 85.1212 12.723 1083 89.3259 1210.45 485.589
2703 0 87.1334 12.9112 1125 90.1458 1210.56 484.116
2704 0 87.0813 12.0921 1053 93.3134 1210.74 482.973
2705 0 87.0813 12.0462 1049 155.731 1211.73 483.049
2706 0 93.174 12.9006 1202 92.9293 1210.72 478.088
2707 0 98.1776 13.2617 1302 91.7642 1211.63 476.965
2708 0 100.172 12.7481 1277 92.9483 1211.83 476.457
2709 0 103.269 13.3341 1377 92.6899 1211.18 472.291
2710 0 105.25 12.5795 1324 94.9418 1211.49 469.875
2711 0 109.112 13.1334 1433 96.4906 1211.27 464.087
2712 1 55.0335 11.1023 611 95.5205 1211.01 492.52
2713 0 57.0408 11.746 670 91.5179 1211.06 492.579
2714 0 61.0343 12.2063 745 91.9235 1210.72 490.999
2715 0 62.0488 12.7319 790 90.6519 1209.42 492.597
2716 0 65.0921 13.0277 848 90.8019 1209.74 491.33
2717 0 65.0627 12.5571 817 93.2974 1209.75 489.425
2718 0 67.0898 12.6547 849 94.5512 1209.67 486.623
2719 0 69.0581 12.7139 878 94.1264 1209.79 486.821
2720 0 72.0935 12.8167 924 94.2284 1209.19 485.211
2721 0 73.0468 12.9232 944 94.3517 1209.56 484.518
2722 0 75.0685 12.7217 955 95.689 1209.38 483.542
2723 0 76.0839 12.4731 949 96.8124 1209.91 482.154
2724 0 80.075 12.8255 1027 95.0321 1209.59 481.432
2725 0 80.1412 12.9272 1036 95.8977 1210.01 478.232
2726 0 85.0713 12.7775 1087 95.1803 1210.14 477.962
2727 0 85.0624 12.9905 1105 95.5529 1210.68 476.745
2728 0 86.0626 11.7473 1011 101.289 1210.25 476.96
2729 0 88.0341 11.6773 1028 101.477 1209.97 474.533
2730 0 90.1288 12.4045 1118 99.9472 1210.79 471.493
2731 0 92.1106 11.4862 1058 102.093 1210.45 468.371
2732 0 95.1942 11.4713 1092 102.006 1210.78 465.988
2733 0 96.1458 11.2641 1083 101.595 1210.52 463.039
2734 0 99.1016 11.5033 1140 100.438 1210.16 461.534
2735 0 103.084 11.738 1210 100.507 1210.42 458.075
2736 0 104.093 11.9893 1248 99.0889 1210.56 454.949
2737 0 108.092 11.999 1297 97.3061 1210.4 454.722
2738 1 58.0968 9.75957 567 92.8042 1210.43 479.928
2739 0 56.0379 10.0646 564 94.1046 1210.7 476.966
2740 0 61.0921 9.98492 610 92.1705 1210.47 478.692
2741 0 62.0507 10.3303 641 90.3916 1210.51 477.52
2742 0 62.0443 9.67051 600 93.9767 1210.19 475.783
2743 0 65.0842 10.5402 686 90.1822 1210.1 475.678
2744 0 69.1504 11.0773 766 89.346 1210.42 477.359
2745 0 72.0603 12.1149 873 90.3769 1210.99 481.03
2746 0 79.0849 12.5435 992 87.9829 1210.76 481.328
2747 0 79.0761 12.2161 966 89.9027 1210.45 480.581
2748 0 82.0856 12.5844 1033 88.971 1210.68 478.446
2749 0 86.1848 13.1114 1130 87.8752 1210.33 477.789
2750 0 85.1422 14.1293 1203 81.6392 1210.37 476.642
2751 0 87.1075 12.4903 1088 90.9467 1210.79 475.531
2752 0 90.1459 13.0899 1180 89.2178 1211.29 474.9
2753 0 94.1963 12.8561 1211 89.0528 1211.1 473.457
2754 0 95.2233 12.2239 1164 90.5095 1210.99 472.131
2755 0 99.3095 12.7279 1264 89.318 1211.49 471.021
2756 0 100.291 12.723 1276 89.6857 1211.04 468.46
2757 0 101.284 12.5193 1268 89.9708 1211.1 466.426
2758 0 103.097 12.2312 1261 85.4251 1210.67 467.803
2759 0 105.103 11.817 1242 85.9485 1210.81 467.628
2760 0 108.083 12.2128 1320 86.3955 1210.95 463.278
2761 0 111.133 12.6425 1405 90.2206 1211.19 459.826
2762 0 113.211 12.7461 1443 89.7477 1210.73 457.406
2763 0 116.164 13.1968 1533 87.8187 1210.98 457.846
2764 0 119.149 13.4034 1597 86.578 1210.61 453.552
2765 0 121.185 12.5016 1515 90.6647 1211.11 452.744
2766 0 124.119 12.907 1602 89.2921 1210.41 452.938
2767 0 128.135 12.8926 1652 88.8493 1210.76 450.389
2768 0 132.181 12.5737 1662 88.9976 1211.05 448.665
2769 0 136.235 12.684 1728 88.5891 1211.69 447.776
2770 0 140.118 12.1397 1701 89.8166 1211.13 444.77
2771 0 147.297 11.711 1725 89.0806 1211.46 445.868
2772 0 148.219 11.2806 1672 90.1244 1211.72 442.708
2773 0 155.241 12.3678 1920 88.0099 1210.85 441.941
2774 0 158.131 11.9268 1886 89.3902 1210.63 438.862
2775 0 164.213 12.3863 2034 88.5521 1210.35 437.623
2776 0 167.111 12.4049 2073 89.1288 1210.24 435.846
2777 0 174.204 12.5772 2191 88.2661 1209.87 435.038
2778 0 177.216 12.2055 2163 90.5899 1209.98 431.279
2779 0 180.13 12.3189 2219 91.6701 1210.26 428.553
2780 0 184.164 12.2825 2262 92.0053 1209.54 424.863
2781 0 190.117 12.3503 2348 92.4851 1209.56 423.801
2782 0 193.167 12.44 2403 93.5585 1210.05 418.91
2783 0 200.135 12.3616 2474 94.4527 1210.2 416.539
2784 0 208.188 12.7577 2656 93.8166 1210.12 407.828
2785 0 215.108 13.728 2953 92.3491 1210.31 404.302
2786 1 162.121 12.2686 1989 93.7154 1210.81 427.038
2787 0 168.191 12.7236 2140 94.1481 1210.34 427.156
2788 0 175.181 12.8553 2252 95.1425 1210.35 423.712
2789 0 181.257 12.7057 2303 96.8875 1210.47 422.065
2790 0 189.199 13.1184 2482 96.9061 1210.17 418.397
2791 0 194.236 12.8298 2492 97.7689 1210.68 417.003
2792 0 200.213 12.8263 2568 99.0144 1210.6 414.956
2793 0 206.274 12.8518 2651 101.255 1210.56 408.467
2794 1 155.181 11.0516 1715 98.0076 1210.56 441.907
2795 0 158.2 11.8332 1872 97.836 1210.14 435.776
2796 0 159.135 11.3866 1812 100.823 1211.39 428.987
2797 0 167.22 12.3191 2060 97.0956 1210.93 428.325
2798 0 171.205 12.78 2188 97.0754 1210.62 422.115
2799 0 177.231 12.8928 2285 97.5164 1210.81 422.739
2800 0 182.184 12.8112 2334 100 1211.07 417.943
2801 0 187.16 12.9355 2421 98.9649 1210.91 417.401
2802 0 191.172 12.4809 2386 100.649 1210.57 412.098
2803 0 198.226 12.8944 2556 100.895 1210.7 408.813
2804 0 203.143 13.1927 2680 99.8478 1210.84 407.458
2805 0 210.204 13.0064 2734 99.8343 1210.32 405.065
2806 0 214.243 13.0133 2788 101.596 1210.62 401.534
2807 0 221.168 13.2116 2922 101.806 1210.69 397.667
2808 0 229.305 13.5758 3113 101.72 1211.01 394.846
2809 0 233.278 12.6673 2955 105.653 1210.81 390.518
2810 0 239.225 12.8665 3078 105.333 1210.44 386.592
2811 0 252.311 13.1346 3314 103.375 1210.44 391.733
2812 0 260.369 13.1775 3431 105.178 1210.9 386.979
2813 0 267.323 13.1003 3502 110.121 1211.01 385.624
2814 0 275.309 12.8111 3527 112.544 1210.57 378.815
2815 1 213.267 10.2454 2185 110.627 1210.85 415.681
2816 0 219.257 10.7454 2356 110.147 1210.4 405.604
2817 0 224.294 11.0212 2472 112.628 1209.74 400.485
2818 0 230.249 11.3442 2612 113.35 1208.97 396.333
2819 0 239.319 12.2222 2925 107.6 1209.74 394.857
2820 0 242.302 11.8654 2875 109.652 1209.77 389.728
2821 0 251.291 12.2368 3075 108.842 1209.92 387.586
2822 0 258.273 11.6388 3006 112.416 1210.19 382.013
2823 0 265.392 11.8655 3149 113.332 1209.93 375.22
2824 0 271.368 11.6484 3161 115.525 1209.93 372.16
2825 1 15.0013 3.3997 51 68.5294 1211.29 509.529
2826 0 18.0186 2.9414 53 69.9245 1211.79 511.472
2827 0 15.0044 4.66529 70 72.0143 1210.7 508.6
2828 0 16.0233 3.18286 51 72.2745 1211.14 510.039
2829 0 19.0308 4.46646 85 70.2706 1212.11 514.035
2830 0 319.347 11.2887 3605 118.935 1210.65 350.27
2831 0 323.352 9.67367 3128 117.943 1210.68 365.617
2832 0 324.306 8.62148 2796 118.14 1210.49 374.75
2833 0 326.302 8.41857 2747 116.693 1210.06 382.179
2834 0 327.261 9.25561 3029 115.597 1209.81 375.009
2835 0 325.364 8.32299 2708 116.761 1209.5 377.081
2836 0 322.391 5.84384 1884 116.801 1210.06 396.985
2837 0 319.363 5.32623 1701 114.844 1209.74 405.015
2838 0 401.534 15.2715 6132 111.486 1209.67 301.506
2839 0 418.709 16.3049 6827 109.663 1209.6 300.004
2840 0 416.931 10.2367 4268 123.934 1210.09 316.009
2841 0 416.696 9.82251 4093 123.807 1209.86 328.714
2842 0 421.855 8.13787 3433 122.518 1209.39 340.918
2843 0 328.361 13.9755 4589 120.325 1210.53 264.1
2844 1 81.0847 14.4047 1168 71.7757 1208.67 481.812
2845 0 85.1004 14.054 1196 71.4306 1209.23 479.148
2846 0 80.0784 12.5752 1007 79.8709 1208.47 480.332
2847 0 78.1498 9.52018 744 89.8723 1211 484.331
2848 0 84.1353 14.1201 1188 76.1936 1211.44 464.856
2849 0 87.1338 14.1392 1232 76.2045 1211.35 471.574
2850 0 87.162 14.1346 1232 77.5252 1211.37 472.783
2851 0 88.1637 13.5997 1199 79.7214 1210.88 470.707
2852 0 91.2706 13.9475 1273 78.4588 1211.24 470.608
2853 0 95.2443 14.3211 1364 77.8996 1211.15 469.114
2854 0 97.2412 14.428 1403 78.3286 1211.56 468.471
2855 0 99.1169 15.1135 1498 78.0327 1211.13 467.17
2856 0 101.203 14.4166 1459 80.7101 1210.99 465.984
2857 0 103.282 14.2039 1467 81.3347 1211.12 465.539
2858 0 105.121 14.5262 1527 79.7806 1210.85 461.362
2859 0 111.268 15.0986 1680 79.9869 1212.21 459.788
2860 0 114.112 14.442 1648 82.4284 1211.15 458.689
2861 0 117.176 14.3544 1682 83.6463 1212.34 458.905
2862 0 119.089 13.9559 1662 85.5433 1212.02 455.206
2863 0 122.183 14.6911 1795 84.7159 1210.59 454.66
2864 0 125.228 13.9266 1744 87.0917 1210.73 461.68
2865 0 129.122 14.707 1899 84.7925 1210.68 461.891
2866 0 133.084 14.8327 1974 84.576 1210.18 459.278
2867 1 73.0821 10.974 802 83.5349 1210.12 493.89
2868 0 73.0358 10.1457 741 85.4305 1209.87 493.981
2869 0 74.0423 11.2368 832 84.7692 1210.27 492.243
2870 0 77.0251 11.334 873 84.6254 1210.14 491.071
2871 0 79.0384 11.2857 892 85.4148 1210.31 490.841
2872 0 82.0561 11.2606 924 84.7565 1210.01 490.084
2873 0 85.1002 12.1151 1031 83.8584 1210.7 488.048
2874 0 85.0464 11.8641 1009 86.0942 1211.13 486.493
2875 0 90.1234 12.4274 1120 86.5723 1210.99 484.91
2876 1 52.0551 9.70126 505 88.297 1210.11 504.895
2877 0 52.0257 10.8408 564 87.2482 1210.4 504.773
2878 0 51.0286 10.3667 529 88.2854 1209.66 504.153
2879 0 54.081 11.6492 630 86.1349 1209.75 502.784
2880 0 56.0688 11.04 619 85.559 1210.14 503.09
2882 0 58.0568 11.1098 645 86.3628 1210.47 500.901
2883 0 59.0293 11.6552 688 86.6962 1210.77 500.022
2884 0 61.0431 11.3526 693 90.2684 1210.91 499.177
2885 0 64.032 12.2439 784 93.8648 1211.29 496.926
2886 0 65.0629 12.5725 818 96.8056 1210.6 497.292
2887 0 66.0449 12.976 857 97.1692 1211.75 496.085
2888 0 69.0803 12.7967 884 99.1448 1211.06 494.049
2889 0 71.0607 12.6089 896 98.8181 1210.47 493.533
2890 0 73.0662 12.8924 942 98.2718 1210.4 491.202
2891 0 74.0431 12.1686 901 96.0388 1210.8 489.709
2892 0 77.0672 12.9497 998 90.8226 1210.48 488.335
2893 0 77.0936 13.2307 1020 97.4382 1210.03 489.173
2894 0 77.0333 12.8516 990 101.322 1209.81 487.545
2895 0 77.0352 12.8383 989 89.5814 1209.91 488.087
2896 0 77.0749 13.3247 1027 97.4518 1209.24 486.238
2897 0 76.0693 12.8041 974 101.415 1209.68 486.812
2898 0 79.0456 13.2582 1048 100.444 1210.26 487.605
2899 0 80.0947 12.9721 1039 101.061 1209.56 486.776
2900 0 81.0983 12.491 1013 101.274 1210.21 486.019
2901 0 84.0623 12.9666 1090 95.8569 1210.49 484.708
2902 0 85.0726 13.0124 1107 94.0407 1210.28 484.505
2903 0 86.1354 12.341 1063 93.1402 1210.23 482.824
2904 0 90.1227 13.0489 1176 89.1412 1210.54 482.405
2905 0 87.062 11.1415 970 87.832 1211.05 484.822
2906 0 92.1223 11.3979 1050 86.2476 1210.67 483.065
2907 0 94.1005 11.2433 1058 87.2703 1210.78 481.978
2908 0 98.1129 12.1391 1191 86.4971 1210.21 478.764
2909 1 52.1234 10.2641 535 86.6897 1210.53 500.239
2910 0 51.0692 10.4956 536 87.2817 1209.89 497.963
2911 0 51.0855 10.5118 537 86.8324 1210.05 496.745
2912 0 55.0899 10.5464 581 90.7263 1210.45 497.991
2913 0 58.0915 11.2925 656 93.4802 1210.43 498.043
2914 0 58.0251 10.685 620 95.3597 1209.94 498.268
2915 0 60.0405 11.2091 673 94.1278 1210.07 496.756
2916 0 61.0693 10.9548 669 95.4843 1209.37 496.193
2917 0 64.0876 11.5311 739 95.1448 1210.48 494.168
2918 0 64.0685 10.9258 700 97.83 1209.7 493.186
2919 0 65.0828 10.9553 713 97.9902 1209.7 493.501
2920 0 67.1045 11.2362 754 97.6645 1210.4 493.308
2921 0 69.137 11.6436 805 98.5453 1210.34 493.282
2922 0 71.1213 11.7686 837 100.811 1210.15 491.139
2923 0 73.0398 11.7607 859 102.381 1209.89 492.175
2924 0 74.099 11.6061 860 108.109 1210.33 490.221
2925 0 75.0777 11.7745 884 113.287 1210.73 490.18
2926 0 79.1312 11.9927 949 113.947 1209.92 488.349
2927 0 81.2239 11.9546 971 115.341 1210.11 489.6
2928 0 82.1717 11.476 943 117.147 1209.68 487.783
2929 1 42.0506 12.152 511 111.791 1209.94 505.554
2930 0 44.0833 12.5898 555 116.831 1209.3 506.71
2931 0 44.1165 11.719 517 128.338 1209.1 504.834
2932 0 46.0435 11.5108 530 126.192 1209.33 506.175
2933 0 48.0889 11.9778 576 129.533 1209.77 504.149
2934 0 49.0971 12.2003 599 130.239 1210.32 503.359
2935 0 48.0828 11.6882 562 133.758 1210.4 504.404
2936 0 50.0561 11.9865 600 135.135 1209.88 503.422
2937 0 51.0842 12.0977 618 134.848 1209.87 503.994
2938 0 53.0767 12.2841 652 134.632 1209.91 502.632
2939 0 53.0569 12.4018 658 137.378 1209.39 502.1
2940 0 51.0556 12.4178 634 141.006 1209.77 501.197
2941 0 54.0868 13.0346 705 135.929 1210.06 501.458
2942 0 56.0641 12.4322 697 138.957 1209.74 501.131
2943 0 56.099 12.9236 725 139.263 1209.85 500.961
2944 0 57.0339 12.7994 730 139.214 1210.21 500.041
2945 0 59.0467 13.3962 791 136.071 1210.56 499.565
2946 0 60.0509 12.7725 767 137.757 1210.51 499.36
2947 0 61.0307 13.272 810 135.499 1210.66 497.536
2948 0 62.0274 13.5424 840 133.533 1210.78 498.88
2949 0 64.0745 13.1878 845 134.241 1210.32 497.127
2950 0 63.0425 13.3878 844 133.294 1210.12 496.456
2951 0 66.0299 12.8578 849 135.335 1210.93 496.624
2952 0 67.052 13.5716 910 130.801 1210.78 495.23
2953 0 69.081 13.0861 904 132.698 1210.91 494.063
2954 0 71.1036 12.7982 910 134.225 1210.92 493.637
2955 0 73.0544 13.1272 959 131.206 1210.89 492.249
2956 0 75.0601 13.0162 977 130.764 1210.61 491.084
2957 0 77.0468 13.2387 1020 129.85 1210.95 491.276
2958 0 78.0487 13.3506 1042 126.287 1210.61 488.708
2959 0 81.0415 13.5856 1101 124.2 1210.12 487.729
2960 0 82.112 13.2015 1084 126.361 1210.04 486.876
2961 0 84.0749 13.3571 1123 125.244 1209.73 485.155
2962 0 87.1147 13.7176 1195 122.994 1210.34 483.642
2963 0 91.1342 13.5514 1235 122.245 1210.7 483.394
2964 0 93.1958 13.5414 1262 121.187 1210.3 481.652
2965 1 48.0611 11.8599 570 117.079 1210.49 504.191
2966 0 48.0322 11.7213 563 122.137 1211.23 502.881
2967 0 49.0637 11.801 579 117.983 1210.21 501.867
2968 0 51.1102 11.5241 589 114.508 1210.17 498.893
2969 0 54.0763 11.5208 623 114.97 1210.36 499.843
2970 0 54.1033 12.7349 689 114.762 1209.74 498.861
2971 0 56.0887 12.6764 711 119.103 1210.28 499.885
2972 0 59.0809 13.6423 806 115.215 1210.15 498.145
2973 0 61.0609 12.9543 791 114.554 1209.85 498.987
2974 0 61.0257 12.8307 783 116.842 1210.01 497.082
2975 0 63.0378 13.8012 870 114.645 1209.83 496.099
2976 0 64.0422 13.3037 852 114.658 1210.37 495.097
2977 0 67.0986 13.741 922 113.845 1210.35 494.821
2978 0 66.0566 13.5641 896 115.748 1210.38 494.454
2979 0 70.0813 13.2418 928 116.5 1210.67 493.312
2980 0 72.0205 13.635 982 115.099 1210.54 491.16
2981 0 75.065 13.6682 1026 113.823 1210.41 491.458
2982 0 73.0664 13.0156 951 117.617 1210.45 488.386
2983 0 78.1581 14.1892 1109 114.041 1210.23 488.232
2984 0 79.106 13.463 1065 115.722 1210.95 487.594
2985 0 82.121 13.541 1112 114.316 1210.75 486.93
2986 0 82.1125 13.8469 1137 115.935 1210.48 484.159
2987 0 85.093 14.0317 1194 115.612 1210.31 483.928
2988 0 89.0963 13.7043 1221 114.762 1210.15 483.637
2989 0 92.1047 13.5389 1247 115.921 1210.38 481.468
2990 0 94.1084 14.1964 1336 114.698 1210.71 481.249
2991 0 93.0899 13.7609 1281 117.285 1210.66 479.298
2992 0 98.09 14.0789 1381 115.889 1209.79 478.301
2993 0 101.154 14.0874 1425 115.321 1209.94 478.913
2994 0 104.242 13.9771 1457 114.969 1209.87 477.661
2995 0 108.075 14.1013 1524 113.735 1209.96 474.123
2996 0 111.158 13.7731 1531 113.62 1210.14 472.063
2997 0 115.063 14.0011 1611 111.683 1210.44 471.597
2998 0 120.107 14.6037 1754 109.258 1210.53 467.716
2999 0 123.134 13.8386 1704 109.596 1210.07 466.062
3000 0 128.142 13.9923 1793 108.105 1210.93 463.987
3001 0 130.063 13.5011 1756 110.796 1210.43 459.416
3002 0 136.066 14.3166 1948 106.611 1210.62 458.446
3003 0 140.029 14.4041 2017 106.512 1210.6 455.842
3004 0 142.073 14.211 2019 108.552 1210.74 455.691
3005 0 147.082 13.9786 2056 108.305 1210.29 453.41
3006 0 150.129 13.7082 2058 109.661 1211.08 449.434
3007 0 156.081 13.7044 2139 109.875 1211.27 447.585
3008 0 161.117 14.2815 2301 108.978 1210.75 444.465
3009 0 167.147 14.6876 2455 108.207 1211.34 441.53
3010 0 171.138 14.1173 2416 110.408 1210.86 439.827
3011 0 177.192 14.1711 2511 111.173 1211.01 436.973
3012 0 183.137 14.6993 2692 112.089 1211.45 433.698
3013 1 105.1 12.1122 1273 109.151 1210.7 476.534
3014 0 108.051 12.7255 1375 108.937 1211.52 472.545
3015 0 111.058 12.633 1403 107.57 1211.11 472.01
3016 0 115.068 12.2189 1406 103.815 1211.12 470.329
3017 0 116.132 11.6678 1355 103.538 1211.13 470.231
3018 0 121.095 12.2631 1485 101.723 1210.82 467.1
3019 0 127.088 12.8101 1628 100.905 1210.53 464.323
3020 0 131.112 13.3626 1752 99.734 1210.58 463.739
3021 0 134.108 12.7062 1704 101.791 1210.36 461.267
3022 0 139.096 12.7754 1777 101.454 1209.96 456.525
3023 0 145.094 12.1852 1768 101.381 1210.21 457.476
3024 0 147.104 11.9915 1764 101.366 1210.83 456.62
3025 0 152.166 12.2629 1866 103.338 1210.46 452.354
3026 0 157.13 12.1492 1909 104.794 1210.51 450.519
3027 0 161.131 12.2447 1973 105.197 1210.31 447.21
3028 0 166.09 12.71 2111 104.227 1211.21 444.868
3029 0 171.137 12.5689 2151 106.816 1211.17 442.521
3030 0 176.11 12.3389 2173 106.387 1211.12 439.713
3031 0 182.168 12.247 2231 106.806 1211.47 439.894
3032 0 187.067 13.0648 2444 107.394 1210.65 434.027
3033 0 193.189 12.009 2320 112.705 1211.38 433.059
3034 0 201.107 13.1522 2645 108.841 1210.54 429.708
3035 0 208.192 12.3348 2568 109.312 1210.19 429.444
3036 0 212.382 12.4634 2647 108.431 1210.58 423.132
3037 0 219.376 11.9247 2616 103.269 1210.46 422.733
3038 0 224.247 11.8887 2666 103.688 1210.5 417.908
3039 1 174.199 11.5213 2007 98.9033 1210.6 443.073
3040 0 179.257 11.213 2010 97.9886 1211.02 444.834
3041 0 185.213 12.1968 2259 97.3028 1210.86 438.004
3042 0 192.249 11.6723 2244 98.7536 1211 435.462
3043 0 197.178 11.5226 2272 101.123 1210.89 431.863
3044 0 205.286 11.92 2447 101.189 1210.93 426.373
3045 0 210.254 11.8286 2487 101.908 1211.33 419.815
3046 0 218.297 11.8233 2581 101.621 1211.15 418.732
3047 0 225.321 11.9696 2697 101.955 1211.02 416.555
3048 0 230.496 12.7551 2940 103.654 1210.52 412.177
3049 0 237.454 13.0173 3091 102.42 1210.73 411.215
3050 0 245.398 12.8934 3164 103.482 1211.38 404.952
3051 0 254.429 13.6187 3465 101.5 1211.15 401.27
3052 0 261.373 12.8552 3360 103.011 1211.45 398.975
3053 0 268.309 12.8807 3456 103.321 1211.1 393.24
3054 0 277.383 12.5639 3485 102.864 1211.23 385.97
3055 1 125.297 11.1096 1392 90.7866 1211.63 465.987
3056 0 127.147 11.3805 1447 92.4672 1211.21 463.865
3057 0 130.218 11.0661 1441 93.762 1211.5 460.513
3058 0 130.345 8.53886 1113 101.921 1211.23 461.802
3059 1 150.284 10.1275 1522 99.6715 1211.27 456.308
3060 0 150.196 10.5529 1585 99.0814 1211.37 455.775
3061 0 152.188 10.8484 1651 100.137 1210.87 452.683
3062 0 158.141 10.9207 1727 99.9931 1210.99 448.856
3063 0 158.171 10.3496 1637 105.297 1211.38 447.037
3064 0 165.264 10.1655 1680 105.857 1211.02 448.231
3065 0 167.27 11.4366 1913 102.755 1210.67 449.9
3066 0 172.412 11.7567 2027 101.15 1210.68 442.449
3067 0 168.514 10.3256 1740 105.814 1210.04 443.713
3068 0 169.667 9.13555 1550 107.56 1210.81 446.329
3069 1 183.615 10.8052 1984 105.175 1211.64 436.812
3070 0 189.467 11.3635 2153 103.615 1211.9 433.114
3071 0 194.532 11.0213 2144 105.36 1211.4 429.49
3072 0 204.404 12.2307 2500 100.96 1211.19 431.522
3073 0 208.558 11.8912 2480 102.464 1211.3 429.116
3074 0 214.514 11.878 2548 103.443 1211.31 425.276
3075 0 221.529 12.03 2665 102.833 1211.03 424.06
3076 1 112.324 11.4402 1285 101.738 1211.65 472.589
3077 0 116.34 12.0423 1401 101.318 1211.46 470.286
3078 0 120.324 11.6103 1397 103.024 1211.36 468.079
3079 0 123.322 11.8876 1466 104.297 1211.05 466.849
3080 0 125.39 11.516 1444 105.757 1210.9 467.548
3081 1 258.609 12.7064 3286 107.167 1210.47 404.337
3082 0 265.775 12.3149 3273 107.697 1210.74 402.299
3083 0 274.671 12.4185 3411 107.125 1210.47 398.625
3084 0 280.578 12.517 3512 107.37 1210.21 393.242
3085 0 281.783 10.7849 3039 106.484 1210.59 405.05
3086 0 281.582 9.57091 2695 105.704 1210.57 419.635
3087 0 283.564 9.2748 2630 106.149 1210.43 419.688
3088 0 282.441 9.3577 2643 105.014 1210.65 423.712
3089 1 81.0964 11.3815 923 95.8678 1210.5 487.491
3090 0 82.1553 11.5878 952 94.7899 1209.9 487.752
3091 0 86.1222 11.6578 1004 93.002 1209.62 486.729
3092 0 89.0968 11.437 1019 93.524 1209.58 486.558
3093 0 91.0774 11.88 1082 93.9473 1209.44 482.186
3094 0 94.1664 11.6177 1094 93.1234 1210.46 483.499
3095 0 96.0966 11.6341 1118 95.2397 1210.38 479.49
3096 0 95.0606 10.9088 1037 98.1244 1210.77 477.197
3097 0 100.099 11.6185 1163 96.8289 1210.72 474.021
3098 0 101.072 11.4176 1154 98.1542 1209.88 473.659
3099 0 107.119 11.996 1285 93.7946 1210.35 473.143
3100 0 110.063 11.7115 1289 95.3747 1210.45 470.281
3101 0 111.1 11.5392 1282 96.6778 1210.55 468.103
3102 0 116.12 12.2804 1426 94.7188 1210 465.924
3103 0 118.185 11.3466 1341 95.5354 1210.85 466.484
3104 1 65.1482 10.8982 710 90.3958 1210.18 489.438
3105 0 71.1359 12.3285 877 88.9327 1209.8 488.625
3106 0 73.1313 12.8263 938 89.4371 1209.52 489.663
3107 0 73.0476 11.8827 868 88.8744 1210.09 491.768
3108 0 75.0998 12.237 919 88.2905 1209.98 490.184
3109 0 77.1133 12.54 967 88.9638 1209.56 487.547
3110 0 80.125 12.2309 980 88.6153 1209.86 486.963
3111 0 82.1124 12.0566 990 88.6586 1210.08 487.245
3112 0 85.0937 12.7154 1082 86.9251 1209.96 486.099
3113 0 87.0826 12.1379 1057 89.0019 1210.11 483.343
3114 0 90.0676 12.5572 1131 88.7197 1209.81 481.717
3115 0 92.1141 11.8766 1094 90.1545 1210.15 481.276
3116 0 93.072 12.2164 1137 90.7889 1209.93 478.489
3117 0 99.0864 12.6859 1257 88.615 1209.99 477.112
3118 0 99.0914 12.4431 1233 89.8889 1209.42 475.672
3119 0 104.12 12.7642 1329 89.3612 1209.9 475.384
3120 0 106.086 12.2259 1297 91.3986 1210.03 473.335
3121 0 109.145 12.0666 1317 92.3303 1209.85 471.484
3122 0 113.132 12.3395 1396 91.1597 1210.29 470.057
3123 0 117.074 12.3255 1443 90.5669 1210.41 471.302
3124 0 121.111 12.4514 1508 90.9576 1210.31 466.532
3125 1 68.0939 10.559 719 88.007 1210.16 494.117
3126 0 71.0888 11.4364 813 87.1907 1210.44 492.295
3127 0 73.1118 12.05 881 86.9875 1210.13 491.285
3128 0 75.0458 12.1259 910 88.7846 1210.33 487.346
3129 0 77.117 12.5524 968 88.9421 1209.84 487.735
3130 0 76.1135 11.5485 879 86.4403 1210.15 490.621
3131 0 79.1065 12.2367 968 86.4804 1210.77 487.457
3132 0 83.1583 12.4221 1033 85.9419 1210.3 487.563
3133 0 84.1699 11.8807 1000 88.623 1209.68 486.646
3134 0 87.0446 11.5803 1008 90.4395 1210.09 485.802
3135 0 88.1154 12.5063 1102 88.4628 1210.51 484.785
3136 0 92.1674 12.8136 1181 88.8544 1210.8 482.568
3137 0 93.0954 12.0521 1122 91.1711 1210.25 483.39
3138 0 97.0965 12.7193 1235 90.37 1210.35 481.28
3139 0 98.1005 12.1508 1192 92.8263 1211.14 479.602
3140 0 102.096 13.1054 1338 91.077 1210.54 478.105
3141 0 104.153 13.5954 1416 91.0975 1210.62 476.045
3142 0 107.134 12.6664 1357 93.3375 1210.68 474.68
3143 0 111.208 13.0836 1455 92.1973 1210.4 473.172
3144 0 113.186 12.7136 1439 92.3551 1209.86 471.466
3145 0 118.097 12.3881 1463 91.2679 1210.68 469.534
3146 1 62.0932 11.1768 694 90.7622 1210.77 497.209
3147 0 63.1323 11.2779 712 93.4185 1210.59 496.167
3148 0 67.2203 12.1987 820 95.2463 1210.99 493.071
3149 0 68.0974 11.7919 803 95.8929 1210.89 493.601
3150 0 68.0876 11.1915 762 86.8596 1210.26 494.513
3151 0 70.0629 11.09 777 87.7169 1210.43 493.659
3152 0 72.0931 11.18 806 88.7283 1210.41 492.44
3153 0 74.0948 11.0669 820 88.9488 1210.35 492.068
3154 0 76.0854 11.6974 890 88.2315 1210.28 491.237
3155 0 79.1206 11.7416 929 89.1421 1211.02 490.308
3156 0 79.1665 11.2421 890 91.6202 1210.53 488.688
3157 0 83.1398 11.6671 970 90.4959 1210.71 488.06
3158 0 86.2096 11.3096 975 91.9477 1211.11 486.482
3159 0 87.1209 11.1684 973 92.6876 1210.93 485.93
3160 0 91.1395 12.2011 1112 91.5549 1210.41 483.636
3161 0 91.1621 11.4082 1040 94.9144 1210.33 483.187
3162 0 93.0845 11.9676 1114 94.5063 1210.58 482.667
3163 0 96.089 11.8016 1134 95.2654 1210.62 481.356
3164 0 99.2663 11.7865 1170 95.9085 1210.46 480.202
3165 0 103.143 12.4875 1288 94.2679 1210.49 478.536
3166 0 104.126 11.8702 1236 97.1529 1210.65 475.926
3167 1 55.0964 11.2348 619 98.2036 1210.07 499.798
3168 0 57.01 11.5594 659 100.656 1209.48 498.331
3169 0 58.009 12.0326 698 99.5974 1209.88 498.436
3170 0 61.0648 12.3639 755 98.245 1210.78 498.158
3171 0 59.0536 10.3465 611 91.7021 1210.23 499.7
3172 0 59.0526 9.90641 585 93.9641 1209.97 499.065
3173 0 62.0829 11.533 716 90.3603 1209.94 497.446
3174 0 64.0928 11.1557 715 91.0839 1210.31 496.236
3175 0 66.0613 10.793 713 91.2623 1210.32 495.767
3176 0 66.052 9.93157 656 92.9619 1210.09 496.259
3177 0 69.0753 10.1483 701 93.388 1210.94 491.464
3178 0 71.0501 10.6122 754 92.9602 1210.39 492.569
3179 0 72.0546 10.8806 784 94.0459 1210.46 489.82
3180 0 76.1022 10.775 820 93.4671 1211.15 490.666
3181 0 77.0217 10.5425 812 95.6268 1210.41 487.841
3182 0 81.022 11.2932 915 93.8634 1210.69 486.728
3183 0 84.0411 11.4825 965 93.5886 1210.79 485.44
3184 0 84.0413 10.6733 897 96.9688 1210.43 483.784
3185 0 89.0488 12.1843 1085 92.9382 1210.36 482.512
3186 0 91.0846 11.4619 1044 95.4856 1210.42 480.608
3187 1 49.0704 11.1065 545 93.8349 1211.35 500.593
3188 0 50.052 10.6489 533 97.0131 1210.7 499.113
3189 0 54.0133 11.923 644 91.323 1210.61 501.699
3190 0 55.0158 12.6509 696 91.8161 1210.36 498.603
3191 0 57.04 12.9909 741 92.4912 1210.09 497.367
3192 0 57.0236 12.8894 735 95.6639 1210.24 497.241
3193 0 59.0374 13.0595 771 100.918 1210.82 496.427
3194 0 62.0539 12.183 756 102.405 1210.57 494.483
3195 0 64.0192 13.1211 840 98.5988 1210.67 493.332
3196 0 66.0221 13.2683 876 96.7386 1210.36 492.921
3197 0 67.043 13.469 903 95.7132 1211.12 491.622
3198 0 68.0333 13.3464 908 97.5529 1211.28 490.265
3199 0 70.0573 13.5889 952 96.3036 1211.1 489.233
3200 0 72.0525 13.3653 963 96.1153 1211.02 489.939
3201 0 73.0506 13.4017 979 98.1767 1211.27 487.387
3202 0 76.0544 13.4509 1023 98.0264 1210.36 486.661
3203 0 80.0271 14.2327 1139 94.6848 1210.54 485.8
3204 0 81.0397 13.4255 1088 97.1958 1211.03 485.256
3205 0 84.0217 14.0797 1183 95.705 1210.57 483.348
3206 0 85.0456 13.9925 1190 97.0034 1210.45 482.524
3207 0 89.0538 14.2161 1266 97.2654 1210.13 481.177
3208 0 91.0822 13.8007 1257 98.0207 1210.21 480.132
3209 0 93.1158 13.6282 1269 99.2025 1210.97 478.297
3210 0 94.0346 14.2182 1337 98.1204 1210.98 476.106
3211 0 97.1054 13.9745 1357 98.1621 1210.57 476.566
3212 0 100.094 14.906 1492 95.7118 1210.43 474.577
3213 0 102.085 13.8904 1418 97.8815 1210.84 473.696
3214 0 104.071 14.6246 1522 95.8725 1210.76 472.804
3215 0 108.155 15.0062 1623 94.1331 1210.74 470.935
3216 0 108.159 13.7391 1486 98.2147 1210.69 469.495
3217 0 113.103 14.7299 1666 94.0246 1210.79 466.595
3218 0 117.129 13.8821 1626 95.7042 1211.21 464.867
3219 0 120.109 13.8457 1663 95.7258 1211.05 463.352
3220 0 125.096 14.2371 1781 95.2459 1211.1 461.824
3221 1 71.0388 10.9518 778 85.6041 1210.97 490.846
3222 0 73.0199 12.3802 904 95.167 1211.38 489.178
3223 0 77.0592 13.3274 1027 95.5443 1211.04 486.797
3224 0 79.0626 13.8877 1098 95.3543 1210.57 484.394
3225 0 79.0319 12.7923 1011 98.4817 1210.76 483.546
3226 0 84.0364 13.0182 1094 97.3135 1211.12 482.525
3227 0 86.0848 12.5109 1077 99.546 1211.51 480.403
3228 0 87.0776 12.5865 1096 100.726 1210.63 479.809
3229 0 93.0469 13.3588 1243 98.5696 1211.11 478.626
3230 0 96.1112 13.2867 1277 98.101 1210.92 476.457
3231 0 96.0413 13.0256 1251 97.8609 1211.1 474.384
3232 0 100.102 13.1765 1319 97.4488 1211.38 474.669
3233 0 104.06 13.4442 1399 96.3703 1210.96 473.294
3234 0 108.075 13.8329 1495 96.0522 1210.7 469.766
3235 0 110.076 13.1636 1449 99.1905 1210.51 469.583
3236 0 115.056 13.8455 1593 96.6026 1210.05 467.561
3237 1 64.0323 11.2756 722 92.7355 1210.03 492.992
3238 0 64.0414 11.352 727 94.5763 1210.12 493.568
3239 0 67.0423 11.7538 788 92.7373 1210.11 490.31
3240 0 68.0157 11.1445 758 87.1649 1210.34 492.201
3241 0 70.0313 11.7805 825 85.4909 1210.24 489.558
3242 0 72.0734 10.8639 783 87.3768 1210.45 488.508
3243 0 74.0196 11.2133 830 85.5578 1210.73 488.981
3244 0 76.0177 11.1948 851 87.1575 1210.6 485.915
3245 0 80.064 11.6907 936 86.562 1210.26 485.069
3246 0 82.0622 11.8203 970 87.6959 1210.7 482.919
3247 0 85.0925 11.6696 993 88.292 1210.25 482.669
3248 0 85.0624 11.3681 967 90.4302 1210.21 481.31
3249 0 89.0666 11.7552 1047 89.1194 1210.79 477.454
3250 0 91.0677 11.3542 1034 91.6093 1210.47 476.819
3251 0 94.0901 11.9354 1123 90.9163 1211.46 474.018
3252 0 97.0427 12.5615 1219 91.1017 1211.26 474.262
3253 0 99.0436 12.0048 1189 93.4735 1210.83 472.593
3254 0 102.058 12.248 1250 90.82 1210.64 472.256
3255 0 106.035 12.2412 1298 90.8683 1211.1 471.603
3256 0 110.098 12.2346 1347 90.8842 1211.46 468.522
3257 0 112.038 12.3618 1385 91.8195 1210.59 466.508
3258 0 114.063 11.8619 1353 95.3651 1210.46 466.17
3259 1 65.0477 9.70057 631 89.9715 1210.67 493.442
3260 0 66.0346 10.0402 663 94.537 1211.08 489.777
3261 0 69.0403 10.9212 754 91.4191 1211.03 488.728
3262 0 70.0578 10.577 741 84.4818 1210.85 489.892
3263 0 72.0465 10.4516 753 85.2669 1210.84 490.186
3264 0 74.0284 10.4825 776 85.3789 1211.03 491.468
3265 0 78.0283 10.509 820 86.3634 1211.4 488.095
3266 0 78.0796 10.3868 811 87.9901 1210.77 484.048
3267 0 81.065 10.6951 867 87.9689 1210.54 482.127
3268 0 84.0667 11.3243 952 86.645 1209.31 483.716
3269 0 86.0406 11.297 972 88.9877 1210.12 481.105
3270 0 87.1162 11.1575 972 89.5988 1210.09 481.382
3271 0 90.1187 11.2296 1012 89.9872 1209.93 477.395
3272 0 93.0337 10.8885 1013 90.4561 1210.25 478.808
3273 0 96.0504 11.6397 1118 89.6181 1210.85 478.188
3274 0 99.0691 12.1128 1200 89.7142 1210.81 477.976
3275 0 101.035 11.877 1200 91.0017 1210.58 476.486
3276 0 103.045 11.8007 1216 92.7418 1210.68 474.952
3277 0 106.073 12.1425 1288 96.6071 1210.98 472.012
3278 0 110.08 11.7006 1288 96.6871 1211.16 471.2
3279 0 112.082 11.3131 1268 95.7524 1211.74 471.169
3280 0 117.069 11.301 1323 96.5835 1211.35 470.163
3281 1 216.168 12.1896 2635 104.117 1211.4 420.396
3282 0 221.138 11.9428 2641 105.422 1211.33 417.966
3283 1 126.065 11.4306 1441 97.6419 1211.56 463.289
3284 1 68.0284 9.93702 676 86.9704 1211.18 491.861
3285 0 71.0273 11.0099 782 85.3555 1210.69 490.114
3286 0 72.0854 11.098 800 86.475 1211.46 487.569
3287 0 73.03 11.3789 831 88.0229 1211.29 487.996
3288 0 76.0401 10.8758 827 90.0726 1211.44 487.516
3289 0 78.0202 11.0612 863 89.7798 1211.65 486.716
3290 0 80.0456 11.3185 906 90.1302 1211.37 485.976
3291 0 81.0518 10.6722 865 92.1445 1210.5 481.437
3292 0 83.1026 10.842 901 93.162 1211.12 481.7
3293 0 87.0706 11.416 994 91.8189 1210.67 479.748
3294 0 91.0843 11.5497 1052 92.3698 1211.38 477.818
3295 0 95.0686 11.4023 1084 92.9825 1211.36 475.367
3296 0 97.0711 11.641 1130 96.6982 1210.79 475.973
3297 0 101.133 11.5393 1167 97.6427 1211.27 474.691
3298 0 105.08 11.7624 1236 95.7727 1210.95 474.497
3299 0 105.082 11.962 1257 96.8258 1210.92 470.91
3300 0 108.08 11.7506 1270 97.3882 1211.07 470.59
3301 0 112.138 11.9406 1339 96.4884 1211.32 467.219
3302 0 115.104 12.1977 1404 95.7286 1210.8 465.944
3303 0 117.211 11.7907 1382 97.3234 1211.53 463.305
3304 0 125.052 12.3549 1545 94.7236 1210.97 463.364
3305 0 129.11 12.5629 1622 94.1424 1210.85 462.007
3306 1 69.0387 11.2835 779 93.0976 1210.86 490.757
3307 0 71.0639 11.8063 839 94.0906 1211.38 488.751
3308 0 73.0392 11.8566 866 95.9192 1211.11 487.463
3309 0 76.0915 12.4061 944 95.2119 1210.95 486.184
3310 0 75.0568 12.0709 906 85.511 1210.59 486.798
3311 0 78.0289 11.5598 902 85.9047 1211.3 487.651
3312 0 78.0782 10.9121 852 88.1115 1211.22 485.174
3313 0 82.1 11.8636 974 86.8152 1210.65 482.339
3314 0 83.0225 11.527 957 87.3448 1210.11 483.094
3315 0 87.0686 11.6115 1011 87.9228 1210.9 480.949
3316 0 90.0733 12.723 1146 86.541 1210.6 478.719
3317 0 91.0552 11.9817 1091 89.879 1210.75 478.777
3318 0 95.064 12.3917 1178 90.1723 1211.53 476.097
3319 0 99.0775 12.788 1267 87.6732 1211.5 474.882
3320 0 101.059 12.4778 1261 88.54 1211.37 472.948
3321 0 105.155 12.8572 1352 89.8343 1211.27 471.525
3322 0 107.102 12.2874 1316 87.4149 1211.08 470.305
3323 0 109.069 12.2583 1337 86.9409 1211.03 468.266
3324 0 113.079 12.2127 1381 84.7705 1211.06 468.039
3325 0 115.121 11.5704 1332 86.1074 1211.37 466.352
3326 1 67.0692 10.6308 713 85.0266 1211.94 491.144
3327 0 67.0276 10.891 730 84.1616 1211.49 490.214
3328 0 69.0862 11.1889 773 87.4088 1211.4 488.847
3329 0 72.045 11.9786 863 87.6269 1211.72 486.467
3330 0 74.0898 12.8763 954 85.3113 1211.35 485.407
3331 0 75.1319 11.9789 900 82.9467 1210.67 486.562
3332 0 75.1132 11.7556 883 84.8969 1211.07 484.802
3333 0 80.0485 11.9927 960 85.475 1211.03 484.729
3334 0 80.0772 12.1258 971 87.518 1211.15 483.208
3335 0 82.0367 11.7021 960 89.6042 1210.3 482.735
3336 0 85.0953 12.2921 1046 89.5363 1210.59 480.356
3337 0 87.0585 12.5088 1089 91.2893 1210.44 479.305
3338 0 90.0699 12.6457 1139 93.1176 1210.83 478.087
3339 0 91.0281 13.3695 1217 95.1841 1211.03 476.663
3340 0 95.0788 13.0103 1237 97.3274 1211.13 476.306
3341 0 95.0461 12.899 1226 101.27 1210.72 471.799
3342 0 102.039 13.9947 1428 98.0294 1210.71 471.82
3343 0 103.029 13.8214 1424 99.6039 1210.67 472.785
3344 0 108.033 13.8662 1498 99.8665 1210.93 470.338
3345 0 110.033 13.505 1486 100.994 1210.94 469.913
3346 0 115.05 13.6811 1574 102.105 1210.84 467.727
3347 1 64.0207 11.2151 718 102.313 1210.7 493.45
3348 0 66.0106 12.1193 800 101.435 1210.57 490.721
3349 0 69.0172 11.4319 789 103.11 1210.37 491.615
3350 0 71.0181 12.1378 862 102.05 1210.52 488.853
3351 0 74.0456 12.5328 928 96.9407 1210.44 488.703
3352 0 73.0704 12.2211 893 98.0795 1210.89 487.839
3353 0 78.0606 12.9515 1011 93.8902 1210.67 488.58
3354 0 79.03 12.8306 1014 95.217 1210.55 486.553
3355 0 81.0674 12.7302 1032 97.2859 1210.63 484.948
3356 0 81.06 12.3119 998 99.9389 1210.68 486.104
3357 0 84.0373 11.9828 1007 100.947 1210.77 485.444
3358 0 87.0902 12.022 1047 102.875 1210.69 483.908
3359 0 89.1048 12.9959 1158 103.32 1211.03 481.336
3360 0 92.0596 12.7309 1172 107.167 1211.05 479.308
3361 0 95.0934 12.8295 1220 108.689 1210.96 478.301
3362 0 98.0393 13.77 1350 109.444 1210.59 478.585
3363 0 101.055 13.6856 1383 111.717 1210.41 475.923
3364 0 105.058 13.859 1456 113.514 1210.61 473.775
3365 0 106.083 14.0833 1494 114.577 1210.92 471.163
3366 0 109.093 13.4747 1470 116.537 1210.39 469.872
3367 0 111.124 13.6064 1512 116.433 1210.64 469.184
3368 0 115.198 14.384 1657 113.197 1210.16 466.387
3369 0 118.121 14.0365 1658 111.328 1210.64 466.302
3370 0 120.117 13.2205 1588 112.88 1211.01 466.916
3371 0 120.122 13.0951 1573 114.312 1210.56 464.205
3372 0 126.16 13.1975 1665 112.772 1210.57 462.256
3373 0 129.155 12.7831 1651 114.632 1210.81 459.141
3374 1 70.0432 10.7933 756 112.098 1210.45 487.763
3375 0 72.0665 11.0176 794 112.752 1210.87 487.497
3376 0 74.0408 11.6963 866 113.328 1209.92 488.025
3377 0 79.0769 12.216 966 113.461 1209.66 486.805
3378 0 79.085 12.8469 1016 111.686 1210.17 484.748
3379 0 82.1048 12.3866 1017 112.102 1211.52 484.373
3380 0 80.1376 11.5302 924 108.915 1211.47 484.481
3381 0 84.0486 12.1715 1023 106.405 1211.76 484.053
3382 0 86.0948 12.01 1034 108.102 1211.69 482.632
3383 0 89.0381 12.5115 1114 107.197 1211.41 480.267
3384 0 92.0743 12.012 1106 108.745 1211.5 479.454
3385 0 93.0462 12.0908 1125 110.188 1211.74 477.928
3386 0 96.0749 12.0323 1156 110.511 1211.85 476.552
3387 0 97.0664 12.4966 1213 110.722 1211.58 475.016
3388 0 99.0595 12.336 1222 111.697 1210.86 474.466
3389 0 103.101 12.6866 1308 112.148 1211.08 473.405
3390 0 107.187 13.4532 1442 109.902 1211.04 470.677
3391 0 111.138 13.6407 1516 113.133 1211.23 468.25
3392 0 114.16 14.2782 1630 116.925 1210.78 467.426
3393 0 116.127 14.1138 1639 116.763 1210.94 468.094
3394 0 121.147 14.1069 1709 116.335 1210.65 464.996
3395 0 123.082 14.2181 1750 115.314 1210.28 463.341
3396 1 69.0642 11.2649 778 113.284 1209.67 493.271
3397 0 70.0594 12.0755 846 110.887 1209.67 490.845
3398 0 74.0383 12.7096 941 109.612 1210.05 490.748
3399 0 75.0342 12.6609 950 108.531 1210.21 489.504
3400 0 77.0599 13.1846 1016 112.937 1210.06 487.576
3401 0 77.0481 11.9665 922 108.261 1209.92 487.96
3402 0 78.0296 11.8673 926 107.288 1210.11 486.943
3403 0 81.0419 11.8457 960 107.33 1209.88 485.851
3404 0 84.0597 12.0748 1015 106.119 1210.37 484.318
3405 0 85.0897 11.7876 1003 108.73 1209.48 483.802
3406 0 89.0281 11.6592 1038 109.273 1210.09 483.382
3407 0 90.0977 12.098 1090 108.445 1209.87 481.384
3408 0 94.0659 11.7046 1101 109.967 1209.51 479.237
3409 0 95.0919 11.8096 1123 110.998 1209.51 478.457
3410 0 99.0532 12.6902 1257 108.532 1209.91 478.084
3411 0 102.063 12.5413 1280 110.311 1209.68 475.601
3412 0 105.119 12.5952 1324 112.528 1209.46 472.587
3413 0 110.083 12.3998 1365 110.388 1208.88 473.155
3414 0 111.097 12.6556 1406 109.071 1209.45 471.334
3415 0 114.046 12.8281 1463 110.444 1209.8 470.364
3416 0 119.063 13.2198 1574 109.327 1209.27 468.759
3417 1 71.1023 11.5608 822 103.184 1209.84 491.951
3418 0 73.0757 11.4539 837 103.351 1209.4 490.921
3419 0 74.0764 12.2846 910 102.636 1209.61 489.754
3420 0 79.0448 12.6637 1001 100.948 1209.57 488.688
3421 0 81.093 11.604 941 103.065 1209.21 488.395
3422 0 82.0322 12.9339 1061 101.143 1209.24 487.023
3423 0 84.0585 11.8846 999 104.684 1209.76 485.068
3424 0 87.0498 12.2574 1067 102.502 1209.83 484.755
3425 0 89.0217 12.1206 1079 103.576 1209.92 483.698
3426 0 92.0847 12.0541 1110 102.866 1209.62 482.199
3427 0 93.062 11.5407 1074 100.075 1209.25 480.373
3428 0 95.1207 11.2804 1073 95.0792 1209.01 480.547
3429 0 98.063 11.0337 1082 96.3133 1209.16 479.326
3430 0 101.096 11.2764 1140 94.2711 1208.91 479.231
3431 0 104.098 11.2586 1172 94.7133 1208.41 477.308
3432 0 106.069 10.6628 1131 96.6605 1209.04 475.419
3433 1 59.0571 9.85488 582 92.543 1208.94 498.564
3434 0 60.1136 10.8295 651 89.467 1209.34 497.198
3435 0 62.0513 10.8297 672 89.7321 1208.89 494.881
3436 0 64.0824 10.6894 685 89.7796 1209.08 494.422
3437 0 67.0607 11.2734 756 87.8426 1209.5 492.443
3438 0 69.0398 10.9647 757 88.144 1209.57 491.359
3439 0 70.149 11.276 791 87.3679 1209.42 490.196
3440 0 73.0404 11.5142 841 86.8573 1209.9 488.996
3441 0 74.0599 10.8561 804 87.8458 1209.55 487.655
3442 0 78.0632 11.2345 877 97.4493 1209.99 486.283
3443 0 80.0814 11.0887 888 98.0743 1210.01 487.595
3444 0 82.0636 11.5155 945 97.4698 1210.58 485.08
3445 0 83.1845 11.4324 951 98.3396 1211.13 483.669
3446 0 87.138 11.4301 996 99.1837 1210.87 482.277
3447 0 89.1454 11.8458 1056 98.0549 1210.66 482.52
3448 0 91.2169 12.6073 1150 96.453 1210.74 481.049
3449 0 94.1864 12.9849 1223 97.7416 1210.48 481.083
3450 0 99.1387 13.6677 1355 96.8856 1210.74 479.379
3451 0 100.171 13.2373 1326 99.9442 1210.92 476.655
3452 0 102.151 13.4408 1373 101.025 1210.5 474.693
3453 0 105.117 14.0224 1474 99.7463 1210.19 474.431
3454 0 108.202 13.4655 1457 102.29 1210.95 474.49
3455 0 111.109 13.5093 1501 103.371 1210.25 472.673
3456 0 115.11 14.1343 1627 101.325 1210.46 468.877
3457 0 118.121 13.7656 1626 101.535 1210.22 468.292
3458 0 120.149 14.1408 1699 101.578 1210.99 467.342
3459 0 122.143 14.3602 1754 100.625 1210.36 464.948
3460 0 124.118 13.8336 1717 101.948 1210.51 462.285
3461 0 130.139 14.1695 1844 99.0065 1210.58 461.574
3462 0 134.208 13.7399 1844 99.7028 1210.02 459.648
3463 0 137.136 13.2715 1820 99.2297 1210.22 458.681
3464 0 140.129 13.5304 1896 100.021 1210.22 455.839
3465 1 75.0972 11.1855 840 99.494 1210.32 487.965
3466 0 76.044 11.9405 908 100.591 1210.96 487.407
3467 0 78.0515 12.0561 941 100.481 1210.94 486.176
3468 0 80.0635 12.2778 983 102.761 1210.43 485.626
3469 0 83.1057 12.454 1035 102.358 1210.05 483.142
3470 0 86.0508 12.0975 1041 103.034 1210.51 482.905
3471 0 86.1468 12.1421 1046 104.371 1210.27 480.243
3472 0 93.153 13.0109 1212 101.06 1210.45 479.496
3473 0 93.1228 12.9399 1205 102.477 1211.26 478.671
3474 0 97.0915 13.3276 1294 101.289 1211.01 477.099
3475 0 98.0983 12.5079 1227 105.659 1211.07 474.539
3476 0 102.209 13.0712 1336 103.637 1210.77 474.397
3477 0 104.176 13.0644 1361 104.093 1210.35 469.132
3478 0 108.192 13.2727 1436 102.788 1210.25 468.029
3479 0 113.24 11.8332 1340 103.987 1211.01 468.508
3480 0 116.184 12.0756 1403 103.028 1210.83 465.016
3481 0 119.263 11.9903 1430 102.419 1211.05 463.758
3482 0 124.168 12.3864 1538 99.8869 1210.79 462.408
3483 0 127.215 11.2879 1436 98.4199 1211.1 461.726
3484 0 130.259 11.124 1449 98.4796 1210.73 460.776
3485 0 135.289 10.8065 1462 99.5561 1210.71 457.279
3486 0 137.191 12.078 1657 99.5691 1211.6 458.686
3487 0 141.234 12.0156 1697 100.06 1211.28 454.407
3488 0 143.247 11.8048 1691 101.982 1211.25 451.135
3489 0 146.326 12.0074 1757 101.039 1211.08 450.012
3490 0 150.311 11.7157 1761 102.206 1211.17 447.656
3491 0 155.301 11.6999 1817 103.239 1211.23 446.684
3492 0 156.249 11.5137 1799 103.923 1211.39 444.797
3493 0 161.237 11.8459 1910 104.432 1211.54 441.632
3494 0 163.422 12.0547 1970 105.731 1211.34 438.696
3495 0 167.222 11.8645 1984 106.189 1211.55 439.354
3496 0 169.195 11.2888 1910 108.403 1210.53 434.345
3497 0 175.194 12.0609 2113 106.183 1210.43 435.01
3498 0 178.304 11.7159 2089 106.702 1210.51 431.591
3499 0 183.176 11.6718 2138 106.92 1210.57 431.456
3500 0 184.216 11.1282 2050 107.55 1211 430.988
3501 0 189.198 11.8659 2245 105.508 1210.8 430.266
3502 0 195.205 12.1974 2381 102.67 1210.92 426.96
3503 0 199.231 12.0062 2392 101.84 1210.67 423.754
3504 0 200.163 10.961 2194 104.56 1211.11 424.175
3505 0 199.265 12.7168 2534 90.3737 1211.07 428.301
3506 0 200.252 12.2546 2454 86.7967 1210.91 429.259
3507 0 205.328 12.6529 2598 84.6513 1211.84 426.364
3508 0 207.252 11.3919 2361 86.9949 1211.72 428.812
3509 0 211.336 11.7822 2490 85.0827 1211.55 427.083
3510 0 214.155 12.1688 2606 84.0265 1211.55 426.111
3511 0 218.308 11.8182 2580 84.8795 1211.62 427.547
3512 0 221.204 11.2611 2491 87.8262 1211.18 434.243
3513 0 227.15 11.4858 2609 87.4044 1211.27 430.961
3514 1 241.114 8.92108 2151 95.9419 1211.67 444.196
3515 0 240.174 9.62218 2311 95.2155 1211.84 439.876
3516 0 240.232 11.9676 2875 91.2337 1211.35 424.37
3517 0 242.257 11.5869 2807 93.171 1211.71 432.731
3518 0 246.331 12.2031 3006 90.7888 1211.75 428.479
3519 0 252.273 12.1337 3061 90.3675 1211.61 421.188
3520 0 257.36 13.2966 3422 85.9676 1211.57 418.513
3521 0 264.263 12.0486 3184 88.7688 1211.59 419.597
3522 0 266.367 14.3224 3815 82.6343 1211.73 414.536
3523 0 200.201 14.945 2992 93.9793 1211.38 420.261
3524 0 206.218 14.5428 2999 94.9146 1211.02 416.869
3525 0 212.181 14.2944 3033 95.8615 1210.22 411.286
3526 0 220.186 15.1736 3341 93.0138 1210.6 408.106
3527 1 46.0095 8.91121 410 76.7854 1209.26 503.11
3528 0 46.0304 8.21196 378 77.0979 1209.18 502.22
3529 0 48.0221 10.2036 490 73.9878 1208.86 501.202
3530 0 49.0256 10.3823 509 74.0432 1209.83 499.314
3531 0 50.0203 10.8156 541 70.3179 1209.06 499.906
3532 0 51.0515 10.4796 535 70.6953 1208.38 498.895
3533 0 51.0216 10.4074 531 72.4859 1208.95 498.923
3534 0 54.0206 10.0517 543 71.8435 1208.56 499.118
3535 0 57.0324 10.5905 604 70.8212 1209.63 497.043
3536 0 57.0815 11.1069 634 71.1041 1209.32 495.653
3537 0 59.0254 10.6903 631 71.9319 1209.86 494.824
3538 0 60.0295 10.2616 616 73.4773 1210.35 492.87
3539 0 62.0452 10.2506 636 74.1195 1210.13 491.635
3540 0 65.0308 11.0102 716 73.4763 1210.07 492.056
3541 0 65.0261 10.442 679 75.056 1209.86 491.667
3542 0 70.0462 8.28025 580 78.7086 1210.21 492.845
3543 0 69.0402 9.96521 688 78.4113 1209.75 489.451
3544 0 70.0635 9.5913 672 79.3914 1210.67 488.359
3545 0 73.0382 10.0632 735 78.0503 1210.8 488.171
3546 0 75.069 10.457 785 77.9197 1210.78 486.791
3547 0 73.0498 9.02124 659 81.2322 1210.42 487.402
3548 0 80.1219 10.7586 862 79.3318 1210.68 483.527
3549 0 83.1331 10.5012 873 79.9771 1210.82 482.459
3550 0 84.1621 9.94509 837 79.8805 1211.41 483.098
3551 0 88.1067 10.4986 925 80.4876 1211.9 479.502
3552 0 92.2409 11.4916 1060 86.2962 1211.99 474.723
3553 0 92.277 10.7936 996 89.509 1211.85 473.714
3554 1 53.0351 10.1254 537 81.9348 1211.4 495.264
3555 0 55.074 10.5858 583 81.7067 1211.46 493.602
3556 0 57.0819 10.9492 625 81.4656 1212.16 491.581
3557 0 57.0816 11.0193 629 76.4086 1212.05 491.27
3558 0 56.054 9.38381 526 81.0608 1212 495.213
3559 0 59.0362 10.1633 600 78.425 1211.83 495.012
3560 0 61.073 11.5108 703 77.1963 1211.88 492.866
3561 0 60.0456 10.8251 650 80.1215 1212.57 493.052
3562 0 67.0567 10.7819 723 80.4288 1212.19 490.657
3563 0 64.0465 11.195 717 81.6974 1212.39 488.738
3564 0 68.0539 10.8296 737 81.6784 1212.29 488.738
3565 0 69.0686 11.5682 799 81.0613 1212.68 487.969
3566 0 70.0612 11.7897 826 82.3426 1212.95 486.527
3567 0 72.0518 11.7277 845 83.9822 1212.84 484.647
3568 0 74.0439 11.2771 835 85.2335 1212.28 484.84
3569 0 75.0739 11.815 887 84.1206 1212.57 485.092
3570 0 78.0866 12.2556 957 84.4796 1213.11 483.758
3571 0 79.0868 12.2524 969 85.0268 1212.98 482.234
3572 0 78.0586 11.5042 898 88.1526 1213.33 480.341
3573 0 85.1542 11.3911 970 86.3928 1213.78 479.477
3574 0 85.0774 12.1301 1032 86.2733 1213.79 477.499
3575 0 88.0774 12.7842 1126 85.4671 1213.98 478.292
3576 0 91.1488 12.9678 1182 87.0948 1214.14 475.928
3577 0 93.0705 13.0546 1215 86.2272 1213.55 475.816
3578 0 96.1246 12.9623 1246 85.7897 1213.6 473.796
3579 0 100.095 13.3773 1339 84.3839 1214.23 471.723
3580 0 103.151 12.9131 1332 85.6269 1214.61 470.8
3581 0 105.131 12.0707 1269 87.747 1215 470.533
3582 0 106.12 11.8074 1253 90.0303 1214.82 469.352
3583 0 111.138 12.6059 1401 87.3055 1215.03 467.524
3584 0 114.15 12.9654 1480 86.8811 1214.95 466.482
3585 0 118.122 13.249 1565 86.5195 1214.51 463.084
3586 0 120.082 13.1494 1579 87.2609 1215.03 463.108
3587 0 123.067 13.4154 1651 86.0097 1214.19 462.203
3588 0 126.122 13.368 1686 89.0302 1213.94 459.797
3589 0 131.155 13.869 1819 88.801 1213.77 456.914
3590 0 133.21 14.1956 1891 90.2972 1214.75 455.59
3591 0 135.194 13.8468 1872 91.0246 1214.68 453.02
3592 0 142.146 13.6479 1940 89.9402 1214.93 450.3
3593 0 145.182 13.6587 1983 89.9854 1214.8 448.899
3594 0 150.144 13.6203 2045 89.2954 1214.77 445.664
3595 0 153.115 12.938 1981 90.95 1214.67 443.455
3596 0 155.126 13.1377 2038 90.4936 1214.87 438.742
3597 0 161.169 13.067 2106 88.7702 1214.53 438.126
3598 0 167.246 12.9629 2168 87.7804 1214.97 436.458
3599 0 170.182 12.3809 2107 89.7959 1214.82 433.525
3600 0 174.268 12.6644 2207 89.86 1215 434.104
3601 0 179.226 12.8776 2308 90.4016 1214.9 429.824
3602 0 186.188 13.0621 2432 90.8775 1214.92 426.766
3603 0 191.257 13.2753 2539 90.3261 1213.99 424.037
3604 1 142.25 11.768 1674 93.7384 1214.6 448.727
3605 0 144.316 12.4103 1791 92.5187 1214.57 448.848
3606 0 151.299 12.7694 1932 90.8157 1214.39 445.035
3607 0 153.33 12.1568 1864 93.397 1213.96 447.674
3608 0 158.284 12.0353 1905 92.7092 1213.84 446.561
3609 0 162.18 12.6896 2058 91.8673 1213.28 441.73
3610 0 168.234 12.4886 2101 91.8158 1213.18 440.596
3611 0 172.301 11.9616 2061 93.3891 1213.12 438.604
3612 0 178.339 12.3977 2211 93.228 1213.33 432.393
3613 0 183.341 12.3322 2261 93.4494 1213.36 432.378
3614 0 188.242 12.6061 2373 94.6237 1212.96 428.196
3615 0 195.297 12.376 2417 94.6665 1213.01 426.741
3616 0 204.441 12.7616 2609 93.5466 1213.23 422.829
3617 0 210.36 12.0936 2544 94.7496 1213.09 421.003
3618 1 51.1897 10.5295 539 81.1558 1212.27 497.406
3619 0 52.1797 10.598 553 80.0506 1212.12 496.996
3620 0 54.128 10.5306 570 79.2246 1211.97 498.249
3621 0 54.0889 10.6306 575 80.0626 1211.81 497.805
3622 0 58.1166 11.8899 691 78.6628 1211.28 497.991
3623 0 57.2036 10.9608 627 84.118 1210.91 498.852
3624 0 60.1273 11.8748 714 83.7381 1211.29 498.081
3625 0 62.2644 11.4672 714 85.9384 1210.72 497.347
3626 0 62.1588 12.0659 750 85.6373 1211.45 497.652
3627 0 66.1438 12.6542 837 84.6798 1210.79 497.924
3628 0 66.2655 12.7366 844 86.2441 1210.95 496.521
3629 0 67.2326 12.0626 811 90.6326 1211.06 495.433
3630 0 70.1828 12.5957 884 89.5102 1211.08 494.983
3631 0 73.2362 11.6063 850 90.5965 1210.88 495.029
3632 0 75.3005 11.7795 887 90.6156 1210.72 494.259
3633 0 76.2352 10.9398 834 91.9508 1210.01 494.162
3634 0 78.1943 11.5098 900 92.8167 1210.71 491.017
3635 0 80.0861 11.1505 893 94.2004 1210.28 489.619
3636 0 84.1869 11.1419 938 95.4616 1210.17 487.142
3637 0 86.1859 11.4404 986 93.856 1210.68 486.793
3638 0 89.1201 11.6135 1035 93.9101 1210.5 485.285
3639 0 93.2465 11.1211 1037 97.9325 1210.23 482.546
3640 1 55.1716 11.7452 648 98.892 1209.75 500.938
3641 0 57.2047 12.3242 705 98.7518 1209.7 498.984
3642 0 58.1904 13.0949 762 97.3543 1210.38 498.663
3643 0 57.2002 11.486 657 95.4551 1210.07 499.321
3644 0 58.1965 11.7189 682 97.5088 1210.04 497.856
3645 0 58.1622 11.1585 649 99.3066 1209.48 497.008
3646 0 63.2603 12.7726 808 100.054 1210.65 495.717
3647 0 64.268 13.008 836 105.175 1210.41 493.402
3648 0 66.2036 12.6579 838 106.87 1210.04 492.146
3649 0 67.2701 12.7843 860 107.149 1210.17 490.551
3650 0 69.2356 13.158 911 104.909 1210.42 490.632
3651 0 73.224 12.4413 911 105.978 1210.45 488.778
3652 0 72.2008 12.7561 921 106.884 1209.85 487.641
3653 0 76.2003 13.1233 1000 105.236 1210.29 485.515
3654 0 77.2442 12.9977 1004 106.16 1210.39 485.162
3655 0 80.2249 12.9511 1039 104.5 1210.27 485.736
3656 0 82.1429 12.6487 1039 105.274 1211.13 482.99
3657 0 83.1152 12.6571 1052 107.084 1210.74 481.243
3658 0 88.1689 12.7823 1127 106.931 1210.94 479.642
3659 0 90.1751 12.4646 1124 106.468 1211.53 477.891
3660 1 50.0509 10.1497 508 103.11 1211.28 499.28
3661 0 52.0615 11.2367 585 105.665 1211.16 498.655
3662 0 53.0863 11.2835 599 106.825 1211.98 498.067
3663 0 54.0141 11.9043 643 105.964 1211.64 496.949
3664 0 56.0542 12.149 681 103.207 1211.63 496.219
3665 0 58.0303 11.1494 647 102.969 1212.27 495.847
3666 0 58.0297 11.5803 672 98.6042 1212.17 495.589
3667 0 58.0422 10.768 625 100.867 1211.91 493.832
3668 0 61.0729 11.4617 700 96.2843 1211.17 494.553
3669 0 63.0497 11.5306 727 97.967 1211.74 493.066
3670 0 64.0875 11.4687 735 97.2585 1211.91 491.686
3671 0 66.0473 12.0822 798 95.8784 1211.96 492.248
3672 0 67.0865 11.8951 798 97.1216 1212.08 490.12
3673 0 70.0765 11.6301 815 97.8847 1212.03 488.002
3674 0 73.0407 12.0207 878 99.7973 1212.32 486.285
3675 0 76.0641 12.0162 914 97.9179 1211.85 485.922
3676 0 78.0452 12.3262 962 99.2578 1212 484.201
3677 0 80.0865 12.0994 969 98.161 1212.01 483.316
3678 0 82.0546 12.4064 1018 97.612 1211.88 483.007
3679 0 87.0718 12.461 1085 97.2912 1211.86 482.009
3680 0 87.0361 11.5814 1008 97.7867 1211.87 479.158
3681 0 91.0492 11.3016 1029 98.9621 1210.81 478.339
3682 0 95.0662 12.2336 1163 97.3663 1211.77 477.678
3683 1 53.0731 10.0993 536 94.0466 1211.57 498.619
3684 0 55.0342 10.3935 572 94.5052 1211.03 498.051
3685 0 56.0409 11.4738 643 93.846 1210.93 497.625
3686 0 57.0512 11.6036 662 92.9396 1210.87 498.702
3687 0 60.0179 11.9631 718 92.4095 1210.66 497.164
3688 0 60.0565 12.1053 727 90.1293 1211.04 496.287
3689 0 61.0253 12.0442 735 90.0476 1211.11 494.989
3690 0 62.0241 11.5439 716 93.3254 1210.15 493.722
3691 0 65.1023 11.5664 753 94.1633 1210.41 492.393
3692 0 69.0726 11.7847 814 95.6167 1210.22 491.582
3693 0 69.1021 12.4019 857 96.7515 1210.96 490.224
3694 0 72.0773 12.556 905 94.9282 1210.85 490.528
3695 0 74.0841 12.4183 920 99.5272 1210.94 488.939
3696 0 75.0507 12.4849 937 100.249 1210.92 487.592
3697 0 77.069 12.5472 967 100.256 1210.91 487.95
3698 0 81.0882 12.5049 1014 100.954 1210.78 487.699
3699 0 81.0824 12.8881 1045 105.335 1210.31 485.513
3700 0 84.0792 12.7737 1074 106.381 1210.38 484.926
3701 0 87.0572 12.0955 1053 106.575 1209.82 482.293
3702 0 90.0639 12.7798 1151 103.578 1210.53 480.913
3703 0 93.0411 12.5536 1168 103.338 1210.25 480.998
3704 0 92.0596 11.9053 1096 106.915 1210.64 479.152
3705 0 97.114 12.6449 1228 105.721 1211.18 478.156
3706 0 98.0825 12.1123 1188 109.18 1210.18 475.336
3707 0 100.046 12.3044 1231 109.744 1210.26 475.988
3708 0 107.096 12.9977 1392 106.493 1210.43 475.308
3709 0 110.074 12.746 1403 108.528 1210.46 472.477
3710 1 61.016 10.5874 646 101.992 1210.14 498.037
3711 0 64.05 10.8977 698 103.146 1209.89 496.693
3712 0 67.0228 11.7274 786 105.522 1209.16 494.011
3713 0 67.0278 11.2043 751 101.782 1210.45 493.261
3714 0 68.0346 11.9057 810 100.51 1210.4 491.407
3715 0 72.0248 11.7598 847 100.603 1209.53 491.656
3716 0 75.0483 11.939 896 99.6987 1209.9 490.526
3717 0 78.0741 12.4369 971 98.2101 1209.76 489.515
3718 0 78.1051 11.9454 933 100.567 1209.41 486.341
3719 0 81.0414 12.3394 1000 99.481 1209.26 485.835
3720 0 85.0382 12.465 1060 98.4802 1209.41 484.67
3721 0 86.0347 12.6461 1088 100.95 1209.39 481.362
3722 0 89.0712 12.9672 1155 100.619 1208.88 480.512
3723 0 91.0483 12.3341 1123 104.851 1209.08 478.282
3724 0 94.0755 11.6077 1092 103.857 1209.62 478.35
3725 0 96.0772 12.1985 1172 104.593 1209.8 477.786
3726 0 99.0755 11.8193 1171 104.321 1209.31 475.778
3727 1 54.0561 10.6001 573 97.3054 1208.99 497.904
3728 0 55.0445 10.5369 580 98.2414 1208.96 498.371
3729 0 58.0542 11.1792 649 97.0185 1209.16 496.972
3730 0 58.1092 11.2719 655 100.586 1209.11 494.693
3731 0 59.1365 11.651 689 97.5893 1209.57 495.199
3732 0 60.0374 10.7433 645 94.9643 1209.65 495.476
3733 0 63.0307 11.6293 733 93.3602 1210.03 493.064
3734 0 64.0673 11.6128 744 94.121 1209.83 490.839
3735 0 65.047 11.5301 750 94.7947 1209.65 488.829
3736 0 66.0447 11.5982 766 95.3969 1209.51 488.397
3737 0 69.0408 11.2832 779 95.1361 1209.88 491.19
3738 0 69.0257 11.7348 810 95.4321 1209.58 490.247
3739 0 73.037 11.9802 875 93.4846 1209.55 490.025
3740 0 75.0515 11.8585 890 97.0753 1210.23 486.043
3741 0 79.0874 12.4166 982 96.776 1209.95 484.855
3742 0 79.1056 12.2747 971 99.1009 1209.8 484.658
3743 0 83.116 12.5608 1044 101.247 1209.75 480.836
3744 0 85.0552 12.533 1066 103.157 1209.77 480.336
3745 0 87.081 12.5975 1097 103.257 1209.92 478.659
3746 0 90.0633 12.7799 1151 103.499 1209.93 477.386
3747 0 91.0136 12.1191 1103 105.578 1209 475.428
3748 0 93.1021 12.3628 1151 104.353 1209.75 475.109
3749 0 97.044 11.9946 1164 103.88 1210.37 473.828
3750 0 101.047 12.5289 1266 101.658 1210.09 472.085
3751 0 105.058 12.298 1292 102.136 1209.61 469.399
3752 1 58.0302 10.2705 596 98.1493 1209.9 493.693
3753 0 61.0146 11.0629 675 97.4074 1210.24 492.053
3754 0 62.025 11.5599 717 95.9303 1209.77 491.378
3755 0 65.0256 11.5647 752 98.2434 1209.73 491.743
3756 0 65.0351 11.4246 743 95.7335 1210.24 490.322
3757 0 67.0223 10.9963 737 96.2402 1210.15 490.422
3758 0 68.0315 11.4359 778 96.4923 1209.94 487.783
3759 0 70.0323 11.2805 790 95.9456 1210.26 488.156
3760 0 74.0167 11.4028 844 96.1102 1210.3 487.204
3761 0 74.0152 11.376 842 97.9228 1210.26 486.082
3762 0 78.0138 11.2032 874 98.1808 1209.98 484.231
3763 0 79.0665 11.3702 899 98.7686 1210.1 482.501
3764 0 82.035 11.3976 935 98.3829 1210.97 481.705
3765 0 83.0294 11.7428 975 98.5026 1210.23 481.689
3766 0 87.0171 11.7103 1019 99.2689 1210.3 479.377
3767 0 88.0593 11.3901 1003 100.331 1210.68 477.833
3768 0 91.0638 11.6951 1065 100.15 1211.36 477.16
3769 0 93.0587 10.9393 1018 101.441 1211.36 476.05
3770 0 97.0478 11.4377 1110 101.192 1211.44 474.932
3771 0 99.1041 11.7654 1166 102.244 1211.54 471.449
3772 0 103.092 12.8429 1324 104.603 1211.34 468.195
3773 0 104.115 11.5257 1200 103.4 1210.97 468.172
3774 1 57.0179 10.3652 591 101.523 1210.8 492.051
3775 0 60.0155 10.8139 649 100.975 1211.3 489.017
3776 0 63.0491 11.1818 705 100.933 1211.01 488.406
3777 0 65.0297 11.7485 764 99.4084 1211.02 488.533
3778 0 66.0596 11.8529 783 100.677 1210.95 487.811
3779 0 72.035 12.1885 878 98.9567 1210.69 487.27
3780 0 69.0363 11.2984 780 97.0192 1210.42 489.212
3781 0 71.0575 12.2436 870 91.569 1211.01 488.054
3782 0 74.0583 11.0859 821 98.7625 1211.74 488.938
3783 0 77.04 11.3577 875 98.232 1211.46 488.367
3784 0 80.0308 11.8329 947 99.4351 1211.09 484.812
3785 0 81.0907 11.9249 967 100.131 1211.14 484.413
3786 0 85.0903 11.6112 988 102.035 1210.54 481.204
3787 0 89.0373 11.5345 1027 101.833 1210.78 481.528
3788 0 90.1266 11.8167 1065 102.94 1211.11 478.816
3789 0 93.049 11.6605 1085 102.961 1211.41 477.186
3790 0 95.049 11.8676 1128 102.638 1210.46 477.035
3791 0 99.0961 11.7563 1165 102.574 1210.74 476.052
3792 0 103.09 12.0186 1239 101.733 1210.74 474.333
3793 0 106.085 11.4531 1215 102.205 1210.67 470.999
3794 1 58.0227 11.0646 642 100.182 1210.72 493.857
3795 0 62.0297 12.1716 755 95.5788 1210.7 493.339
3796 0 60.0268 12.0613 724 98.6892 1210.42 491.11
3797 0 63.0136 11.0294 695 95.8086 1210.92 491.876
3798 0 65.0433 11.4385 744 94.8777 1210.93 491.839
3799 0 66.0389 11.2964 746 96.4343 1211.18 489.929
3800 0 70.0899 12.7551 894 93.3289 1210.84 489.176
3801 0 69.0367 11.9357 824 96.9939 1210.86 487.833
3802 0 71.0485 12.5548 892 96.833 1211.15 487.618
3803 0 73.0805 12.3425 902 98.6874 1211.31 486.802
3804 0 76.0437 12.769 971 100.129 1213.24 486.201
3805 0 79.0459 13.043 1031 99.3327 1213.32 483.921
3806 0 81.0477 13.0047 1054 99.9649 1213.43 484.047
3807 0 82.0771 13.1096 1076 101.284 1214.57 480.621
3808 0 87.032 13.7651 1198 91.2529 1213.44 481.02
3809 0 88.0863 13.6457 1202 100.009 1213.17 478.755
3810 0 92.0564 13.6112 1253 99.8204 1213.46 477.426
3811 0 93.0543 13.562 1262 100.306 1212.97 475.861
3812 0 97.0583 13.6001 1320 100.48 1212.49 474.537
3813 0 99.1041 13.9248 1380 99.9906 1213.01 473.75
3814 0 101.07 12.9019 1304 103.2 1212.97 471.929
3815 0 105.138 13.5631 1426 101.144 1213.03 470.92
3816 0 107.08 13.8868 1487 101.424 1212.54 470.291
3817 0 111.078 13.3329 1481 103.287 1212.86 467.594
3818 0 116.152 14.0506 1632 101.365 1213.08 465.829
3819 0 117.116 13.9947 1639 103.131 1212.74 465.158
3820 0 123.107 13.8741 1708 103.152 1213.31 462.224
3821 0 124.126 13.8891 1724 103.264 1212.94 460.295
3822 1 68.0696 10.6509 725 104.702 1213.02 488.581
3823 0 73.0398 12.0482 880 102.377 1212.51 486.54
3824 0 74.056 12.0719 894 103.584 1213.4 484.98
3825 0 76.0418 12.1644 925 104.467 1212.88 483.083
3826 0 79.0793 13.0881 1035 102.744 1212.94 483.101
3827 0 80.0631 13.2146 1058 103.861 1213.01 482.559
3828 0 81.0674 12.6068 1022 105.614 1213.33 479.687
3829 0 82.0713 11.8434 972 98.5792 1213 483.057
3830 0 86.062 12.7001 1093 96.0732 1212.49 481.206
3831 0 88.0369 12.4266 1094 96.9662 1212.87 480.148
3832 0 90.0356 13.1281 1182 95.7944 1213.14 478.435
3833 0 92.0738 12.8701 1185 97.8633 1213.11 479.23
3834 0 94.1029 12.8476 1209 97.3193 1212.33 476.57
3835 0 99.0678 13.3545 1323 95.4822 1213.16 476.593
3836 0 101.128 13.2604 1341 96.484 1212.98 474.636
3837 0 102.045 13.2686 1354 97.7873 1213.17 474.278
3838 0 107.083 13.9425 1493 98.2672 1213.56 472.066
3839 0 111.116 14.5343 1615 100.874 1213.34 467.192
3840 0 115.186 14.0469 1618 101.673 1213.17 465.444
3841 0 117.137 14.1544 1658 101.11 1213.34 463.428
3842 0 121.209 13.9593 1692 99.5963 1213.22 461.43
3843 0 122.088 13.2773 1621 101.45 1213.01 458.869
3844 0 124.093 13.2643 1646 100.571 1212.63 455.131
3845 1 68.0233 10.467 712 100.704 1212.35 482.823
3846 0 74.0451 11.3444 840 96.0905 1211.86 483.418
3847 0 77.0383 12.6301 973 101.569 1211.43 484.076
3848 0 78.0456 12.2877 959 104.592 1211.31 482.993
3849 0 81.0579 12.3492 1001 106.369 1211.41 481.5
3850 0 83.0431 12.8367 1066 104.378 1211.79 480.78
3851 0 86.0679 12.676 1091 105.037 1211.24 480.622
3852 0 89.0869 13.0098 1159 104.523 1211.25 478.601
3853 0 92.1076 13.5711 1250 103.478 1210.85 477.28
