time division length width area intensity CMx CMy
0 0 41.8343 28.3739 1187 11.7144 1216.71 546.285
1 0 32.172 36.5535 1176 11.6803 1215.61 545.871
2 0 26.2298 36.409 955 11.5539 1215.38 548.039
3 0 32.955 28.9789 955 11.5403 1217.39 549.21
4 0 28.5873 41.0672 1174 11.747 1218.43 547.066
5 0 37.6381 34.8051 1310 11.7 1221.53 543.805
6 0 44.1196 37.6477 1661 11.7152 1220.65 541.002
7 0 41.6851 48.2906 2013 21.0397 1220.25 538.349
8 0 40.2041 32.0614 1289 11.7386 1219.45 544.497
9 0 37.5056 39.9674 1499 11.6785 1219.5 543.769
10 0 30.1301 40.0264 1206 11.5829 1219 546.202
11 0 35.8301 36.7009 1315 11.5681 1218.25 545.243
12 0 43.698 27.507 1202 11.7321 1221.89 545.281
13 0 25.7841 36.922 952 11.5168 1220.04 549.082
14 0 23.3936 37.3606 874 11.4886 1220.67 549.827
15 0 21.535 36.6845 790 11.4544 1220.96 551.119
16 0 41.3434 20.7772 859 11.2829 1226.83 549.054
17 0 37.2905 17.967 670 11.4537 1226.23 550.837
18 1 33.9214 35.4054 1201 11.6603 1221.91 545.481
19 0 36.3349 42.4935 1544 11.6328 1221.39 543.334
20 0 48.4888 29.0376 1408 11.4851 1221.91 544.618
21 0 35.567 41.5835 1479 11.455 1222.52 544.316
22 0 45.0004 33.6663 1515 11.5234 1224.24 544.097
23 0 49.5286 33.092 1639 11.5564 1224.49 542.682
24 0 33.3223 34.5414 1151 11.6212 1221.07 546.863
25 0 43.8361 29.4278 1290 11.6984 1223.77 544.203
26 0 38.3257 32.563 1248 11.5136 1222.42 545.196
27 0 44.0446 41.8212 1842 11.4414 1222.92 541.527
28 0 44.0105 51.0106 2245 30.8463 1223.13 538.646
29 0 37.2402 31.1223 1159 11.5479 1223.49 546.956
30 0 44.626 37.1308 1657 11.4031 1223.22 542.661
31 0 52.1744 26.6606 1391 11.3896 1225.47 544.024
32 0 33.5837 37.935 1274 11.4411 1221.93 546.071
33 0 52.148 31.6215 1649 11.5597 1224.58 542.121
34 0 40.2738 36.5002 1470 11.5442 1224.25 543.128
35 0 30.9502 44.4262 1375 11.3905 1222.92 545.508
36 0 44.2471 29.6064 1310 11.574 1223.94 544.263
37 0 39.3778 40.8352 1608 11.4701 1222.55 542.744
38 0 41.0348 37.0173 1519 11.5932 1222.33 543.458
39 0 44.1549 36.0096 1590 11.4509 1220.3 542.546
40 0 46.4473 35.3734 1643 11.6287 1223.84 541.799
41 0 43.6674 35.9307 1569 11.6501 1222.45 542.861
42 1 31.2015 35.5111 1108 11.537 1221.58 547.739
43 0 34.9942 29.3477 1027 11.4937 1224.35 548.049
44 0 36.9812 32.1514 1189 11.5198 1224 547.212
45 0 40.2434 39.9568 1608 11.5435 1224.71 543.117
46 0 53.9001 22.82 1230 11.635 1226.19 545.732
47 0 37.9371 40.8044 1548 11.5439 1224.64 543.477
48 0 42.5813 31.1639 1327 11.532 1226.48 545.087
49 0 35.6094 32.1825 1146 11.4825 1226.31 547.17
50 0 45.839 23.4735 1076 11.3968 1226.7 548.046
51 0 41.4926 26.7517 1110 11.4153 1226.72 547.676
52 0 24.8979 54.3821 1354 11.3257 1225.14 546.408
53 0 29.3316 44.7641 1313 11.5027 1225.18 545.681
54 0 35.0498 33.6093 1178 11.4482 1225.13 546.315
55 0 40.0049 31.1962 1248 11.383 1227.52 546.604
56 0 36.1897 36.3087 1314 11.4193 1226.73 545.973
57 0 28.2 46.6312 1315 11.2707 1225.16 545.805
58 0 26.1475 44.2872 1158 11.3895 1225.96 547.343
59 0 33.8463 42.3976 1435 11.416 1225.71 544.113
60 0 48.6391 31.0244 1509 11.4009 1226.26 543.916
61 0 53.8843 27.7075 1493 11.6443 1226.39 542.518
62 0 47.3443 34.5342 1635 11.5676 1226.25 542.275
63 0 42.3723 41.5601 1761 11.5565 1227.22 541.612
64 0 39.6122 34.4338 1364 11.4391 1226.09 545.443
65 0 34.7698 38.7405 1347 11.6043 1223.33 543.875
66 0 44.1871 37.907 1675 11.6376 1224.81 541.789
67 0 44.7588 35.1216 1572 11.7837 1225.02 542.189
68 1 32.4298 24.3912 791 11.4842 1226.52 550.632
69 0 31.3581 25.7031 806 11.4653 1225.9 550.197
70 1 43.5403 27.285 1188 11.7736 1225.13 544.885
71 0 44.7736 27.2036 1218 11.7406 1225.37 545.715
72 0 48.2753 38.0319 1836 11.6885 1224.71 540.556
73 0 50.1799 48.0272 2410 27.105 1221.82 536.866
74 0 50.0232 31.3054 1566 11.7497 1222.61 541.853
75 0 48.1696 31.9288 1538 11.723 1224.39 542.698
76 0 44.1244 51.7627 2284 11.6681 1225.22 538.254
77 0 41.62 38.0346 1583 11.626 1224.07 542.276
78 0 38.2676 46.593 1783 11.5513 1223.71 541.902
79 0 37.5352 38.1509 1432 11.6613 1225.11 543.93
80 0 37.0434 40.709 1508 11.5484 1223.9 544.269
81 0 30.8628 40.5342 1251 11.6547 1225.85 545.938
82 0 36.2352 32.9513 1194 11.6047 1225.95 546.899
83 0 34.6046 37.0471 1282 11.6435 1223.97 545.953
84 0 31.2858 49.767 1557 21.8664 1223.29 543.272
85 0 35.3704 35.3403 1250 11.6768 1222.52 545.353
86 0 31.1939 38.2447 1193 11.5306 1225.62 547.473
87 0 31.6559 43.1831 1367 11.6986 1223.75 545.472
88 0 33.5834 29.4788 990 11.798 1223.79 547.02
89 0 33.3088 43.0517 1434 11.6806 1225.23 544.345
90 0 17.238 21.9283 378 11.6455 1223.93 553.897
91 0 47.0827 21.218 999 20.5065 1223.96 546.797
92 1 27.8587 31.5879 880 11.6614 1223.42 549.234
93 0 30.788 35.371 1089 11.4968 1225.48 547.814
94 0 31.6084 31.0994 983 11.5412 1224.79 549.02
95 0 27.3111 36.8715 1007 11.5958 1224.91 548.882
96 1 43.615 32.0991 1400 11.7336 1223.45 542.568
97 0 30.1575 45.3949 1369 11.5844 1223.08 545.508
98 0 36.2712 40.6383 1474 11.6106 1224.65 544.017
99 0 30.2598 42.0359 1272 11.5849 1223.45 546.089
100 0 31.6243 32.5066 1028 11.7656 1224.7 546.826
101 0 24.7043 43.5146 1075 11.6995 1224.17 547.818
102 0 34.6845 31.3685 1088 11.7812 1223.4 546.278
103 0 23.7908 45.69 1087 11.5888 1224.96 548.251
104 0 36.0701 35.6805 1287 11.589 1223.28 545.886
105 0 33.9718 38.5614 1310 11.5947 1223.42 545.468
106 0 27.6781 39.3452 1089 11.5464 1222.61 548.203
107 0 33.7511 32.7396 1105 11.7032 1222.72 546.443
108 0 33.3939 42.5228 1420 11.5387 1223.92 544.882
109 0 27.5131 40.2718 1108 11.639 1222.69 547.709
110 0 37.1594 31.8628 1184 11.5718 1225.91 546.655
111 0 34.1657 31.2009 1066 11.4962 1225.51 548.06
112 0 16.2756 45.1595 735 11.5633 1222.56 551.468
113 0 21.2236 33.0764 702 11.6011 1223.79 551.759
114 0 32.6102 35.2651 1150 11.6678 1223.66 547.121
115 0 31.5208 38.3874 1210 11.557 1222.78 546.336
116 1 0 0 0 -nan -nan -nan
117 1 28.0405 29.0651 815 11.5252 1219.68 549.863
118 0 35.2459 22.6977 800 11.7475 1223.77 549.72
119 0 21.501 32.8822 707 11.505 1218.96 551.123
120 0 18.4116 33.62 619 11.4782 1222.1 551.919
121 0 18.4237 39.4601 727 11.5048 1221.07 551.228
122 0 19.1881 32.468 623 11.5778 1220.02 551.392
123 1 30.4279 48.771 1484 11.5795 1222.67 544.699
124 0 41.3671 26.5912 1100 11.6673 1224.65 547.029
125 0 38.2229 35.1621 1344 11.6607 1221.6 544.586
126 0 40.5109 38.9771 1579 11.3781 1222.48 543.555
127 0 39.0215 41.4643 1618 11.5155 1222.6 543.772
128 0 35.7833 40.1584 1437 11.6256 1223.28 544.941
129 0 34.4814 31.4952 1086 11.7247 1223.02 546.877
130 0 33.5421 39.3535 1320 11.5652 1223.53 545.601
131 0 36.4986 38.796 1416 11.5586 1224.92 544.975
132 0 34.8714 36.0467 1257 11.7072 1222.85 545.588
133 1 128.331 9.49109 1218 37.7003 1225.16 496.301
134 0 128.59 9.12201 1173 39.6445 1226.12 490.28
135 0 132.258 11.3037 1495 34.8542 1225.57 499.279
136 0 135.556 10.1729 1379 36.855 1225.76 492.511
137 0 134.682 9.86028 1328 38.2673 1226.34 487.036
138 0 138.314 10.6641 1475 36.4678 1225.67 490.935
139 0 149.741 10.398 1557 36.1728 1224.71 490.828
140 0 141.236 11.9446 1687 35.8423 1225.43 490.188
141 0 148.493 11.7648 1747 34.4322 1224.9 493.079
142 0 144.848 11.8331 1714 34.888 1225.36 488.138
143 0 147.823 11.6355 1720 35.5988 1225.98 486.374
144 0 154.751 10.5718 1636 38.2506 1225.79 479.062
145 0 156.633 12.1175 1898 35.6006 1225.37 485.312
146 1 109.03 7.3191 798 35.1867 1225.6 505.827
147 0 111.813 7.1101 795 38.478 1224.73 496.428
148 0 115.449 7.5531 872 37.0172 1224.57 499.227
149 0 115.201 7.94264 915 36.4098 1225.21 499.929
150 1 36.5756 34.1485 1249 11.5805 1220.34 546.04
151 0 26.6029 35.8608 954 11.6132 1221.81 549.244
152 0 32.8798 42.8226 1408 11.7074 1221.76 544.837
153 0 38.4958 35.7441 1376 11.6722 1221.91 544.873
154 0 44.6561 27.0288 1207 11.6313 1223.76 546.129
155 0 28.4705 34.1757 973 11.5262 1222.86 548.739
156 0 31.2402 42.9254 1341 11.4907 1222.94 545.714
157 0 26.0415 50.4963 1315 25.0046 1220.6 546.738
158 0 28.9278 36.1935 1047 11.3448 1219.94 548.53
159 0 35.8961 42.7065 1533 11.4481 1221.78 543.95
160 0 33.8165 40.7789 1379 11.5337 1221.73 545.428
161 0 40.3385 27.2445 1099 11.465 1224.05 547.812
162 1 50.8369 32.7125 1663 11.638 1221.93 542.172
163 0 36.664 34.2843 1257 11.4535 1222.99 545.765
164 0 37.9765 28.3333 1076 11.5046 1223.45 547.177
165 0 28.7483 37.637 1082 11.5619 1221.71 547.221
166 0 33.9138 35.885 1217 11.4643 1222.9 546.118
167 0 35.3804 38.3545 1357 11.5637 1222.78 544.735
168 0 43.1081 33.8683 1460 11.5986 1222.73 543.325
169 0 50.9657 27.4106 1397 11.8461 1223.71 542.158
170 0 50.2631 29.2262 1469 11.7747 1222.19 541.892
171 0 58.2419 24.7931 1444 11.6939 1222.43 542.916
172 0 59.2434 20.8125 1233 11.704 1223.38 543.517
173 1 56.8611 22.1065 1257 11.5489 1224.93 544.283
174 0 30.3673 39.8126 1209 11.5955 1222.5 545.161
175 0 39.3351 40.1931 1581 11.487 1223.17 543.628
176 0 37.887 39.7498 1506 11.4044 1223.75 544.237
177 0 38.1635 35.5313 1356 11.5044 1223.45 544.651
178 0 37.3538 38.5235 1439 11.3975 1223.36 544.168
179 0 40.6865 26.1758 1065 11.4779 1225.04 548.073
180 0 32.3058 35.0092 1131 11.4421 1223.93 547.272
181 0 30.7742 31.1625 959 11.4025 1224.24 549.081
182 1 49.0615 25.3967 1246 11.6469 1223.93 542.858
183 0 47.3162 35.6537 1687 11.6289 1223.44 540.55
184 0 48.0211 32.1525 1544 11.5447 1223.16 542.255
185 0 44.411 35.4417 1574 11.5426 1223.22 541.513
186 0 49.1527 33.1823 1631 11.4004 1224.14 542.638
187 0 44.4482 37.1218 1650 11.5182 1224.83 541.356
188 0 43.1471 42.8302 1848 11.5173 1224.91 541.039
189 0 41.6094 34.3912 1431 11.6464 1223.27 543.254
190 1 25.5329 32.8988 840 11.4393 1221.06 549.562
191 0 25.1622 31.0386 781 11.4392 1223.37 550.551
192 0 19.4379 25.9802 505 11.6317 1225.83 552.921
193 0 17.4805 29.5759 517 11.4545 1225.45 552.925
194 1 111.281 8.36619 931 30.2803 1226.59 509.371
195 0 114.398 7.05434 807 34.741 1226.95 499.538
196 0 120.508 15.1194 1822 73.7536 1226.79 524.404
197 0 124.537 8.47134 1055 31.2 1226.41 506.452
198 0 114.421 9.84082 1126 30.778 1227.02 506.707
199 0 122.589 24.7658 3036 64.0306 1226.04 523.422
200 0 117.101 9.23986 1082 32.5305 1226.44 501.954
201 0 124.191 9.46925 1176 32.0561 1225.67 503.085
202 0 124.554 9.08039 1131 33.0946 1225.9 500.691
203 0 122.402 10.8658 1330 31.1165 1226.09 504.502
204 0 123.695 10.0812 1247 33.4451 1226.59 499.75
205 0 121.941 10.8331 1321 32.6949 1226.55 500.946
206 1 41.0585 30.7367 1262 11.3613 1225.27 546.662
207 0 31.0021 40.8037 1265 11.366 1225.36 546.828
208 0 48.8325 24.9014 1216 11.4317 1225.93 545.972
209 0 45.9581 28.7871 1323 11.548 1224.53 545.544
210 0 41.8748 27.0091 1131 11.7277 1224.59 544.536
211 0 38.3469 38.3864 1472 11.4307 1224.09 544.068
212 0 41.3838 41.5621 1720 11.4855 1224.03 541.476
213 0 31.2068 33.1659 1035 11.4261 1222.92 548.22
214 0 37.1575 35.7666 1329 11.4612 1224.6 545.549
215 0 32.9688 44.1326 1455 11.3835 1224.64 544.505
216 0 36.7139 45.2962 1663 11.2592 1224.82 543.654
217 0 30.8434 38.582 1190 11.4798 1224.37 546.137
218 0 41.9191 31.3699 1315 11.3871 1224.69 545.438
219 0 47.9366 32.8768 1576 11.4201 1223.13 543.503
220 0 42.9685 43.4039 1865 11.3566 1224.79 541.112
221 0 54.0366 38.4184 2076 11.304 1223.9 539.501
222 0 42.509 34.3692 1461 11.4969 1224.94 543.235
223 0 49.8372 42.9799 2142 11.3646 1222.75 539.032
224 0 48.861 33.1553 1620 11.5716 1224.22 541.182
225 0 44.3966 32.7502 1454 11.4807 1224.23 544.148
226 0 47.4824 28.6001 1358 11.4389 1225.91 544.963
227 0 31.7578 44.0837 1400 11.3957 1224.87 544.271
228 0 31.6972 41.4232 1313 11.2887 1223.65 545.379
229 0 37.3725 43.4276 1623 11.3007 1225.26 543.81
230 0 41.9316 33.0538 1386 11.3434 1224.9 544.924
231 0 32.3691 35.3114 1143 11.3088 1223.81 546.925
232 0 28.6651 43.7117 1253 11.4645 1223.14 546.473
233 0 31.6967 39.5625 1254 11.4402 1223.43 546.323
234 0 45.1237 28.1892 1272 11.3907 1224.62 545.512
235 0 38.8228 34.3098 1332 11.4249 1223.41 545.357
236 0 41.8394 33.4135 1398 11.2954 1224 545.285
237 0 37.0916 35.4797 1316 11.5175 1224.28 544.883
238 0 42.0618 34.8297 1465 11.3918 1225.14 544.118
239 0 2 43 86 11.2326 1223.06 557.395
240 0 34.6311 42.3608 1467 11.3906 1223.88 544.301
241 0 34.8871 44.7157 1560 11.3051 1224.74 543.628
242 0 46.1907 35.6998 1649 11.6143 1225.05 540.905
243 0 47.7319 35.5108 1695 11.5015 1225.21 541.651
244 0 42.974 33.2992 1431 11.573 1224.62 542.581
245 0 44.5569 40.2631 1794 11.4208 1222.87 540.858
246 1 29.0781 41.5433 1208 11.1879 1224.91 547.39
247 0 45.7276 32.5405 1488 11.4583 1225.82 544.13
248 0 49.2711 33.549 1653 11.4283 1226.33 542.139
249 0 45.955 38.7335 1780 11.5421 1223.89 540.742
250 0 47.9304 33.4443 1603 11.486 1225.88 542.589
251 0 46.9411 32.1253 1508 11.5146 1224.35 543.383
252 0 43.1598 40.6165 1753 11.4826 1225.21 541.887
253 0 55.3106 31.4407 1739 11.6429 1225.11 540.541
254 0 52.8101 45.8624 2422 11.4657 1225.49 536.518
255 0 58.2946 29.5568 1723 11.5752 1224.11 541.674
256 0 55.204 33.4939 1849 11.516 1225.02 539.912
257 0 60.6527 31.2599 1896 11.4689 1226.16 540.264
258 0 45.0957 33.063 1491 11.5144 1225.57 542.895
259 0 43.0142 26.5261 1141 11.5583 1224.9 546.558
260 0 46.0758 37.2864 1718 11.4959 1225.48 541.321
261 0 51.6799 37.6548 1946 11.554 1225.74 538.615
262 0 54.8286 26.9567 1478 11.6806 1225.9 542.551
263 0 46.9701 38.6416 1815 11.4937 1226.31 540.631
264 0 47.4759 43.6221 2071 11.4244 1224.28 539.476
265 0 45.1188 30.7854 1389 11.604 1226.17 542.431
266 0 44.6104 34.7453 1550 11.62 1226.14 542.143
267 0 50.2441 32.9392 1655 11.5535 1226.52 542.592
268 0 45.7572 34.7268 1589 11.5632 1227.12 542.242
269 0 54.2259 32.1802 1745 11.4699 1224.37 541.516
270 0 43.3358 40.0131 1734 11.5779 1225.25 541.368
271 0 50.1676 36.5973 1836 11.4668 1224.52 540.399
272 0 39.5166 36.0102 1423 11.3992 1223.29 544.791
273 0 48.4476 37.6902 1826 11.4474 1225.41 541.227
274 0 50.3977 35.5175 1790 11.6704 1225.34 540.669
275 0 45.4295 35.3735 1607 11.4325 1224.85 542.685
276 0 43.8322 30.8678 1353 11.7443 1225.22 542.644
277 0 46.5346 27.2485 1268 11.4897 1226.33 545.124
278 0 33.0528 38.7864 1282 11.4048 1224.42 546.592
279 0 32.5867 32.0683 1045 11.3196 1224.38 548.49
280 0 40.0429 29.9429 1199 11.4229 1225.76 546.745
281 0 21.9617 43.3937 953 11.3158 1225.62 549.782
282 0 25.2279 40.59 1024 11.2627 1224.76 549.403
283 0 19.4941 45.8601 894 11.4396 1224.13 550.103
284 0 22.2179 36.2771 806 11.4156 1224.31 550.555
285 0 27.3573 32.2765 883 11.4881 1223.96 550.182
286 0 25.4712 36.7867 937 11.4813 1223.05 549.854
287 0 23.3105 44.4006 1035 11.4058 1223.09 549.049
288 0 39.0703 33.0942 1293 11.4787 1226.12 546.169
289 0 28.4726 44.7096 1273 11.5106 1224.73 546.18
290 0 34.1358 33.5424 1145 11.5825 1223.61 545.832
291 0 34.8927 36.4259 1271 11.7105 1225.18 545.705
292 0 52.4791 29.9548 1572 11.4828 1225.39 543.344
293 0 43.1523 28.411 1226 11.6591 1225.22 545.095
294 1 113.913 7.54965 860 36.3791 1226.63 500.642
295 0 119.526 8.05682 963 36.1755 1225.89 499.062
296 0 125.098 18.7453 2345 70.38 1223.48 523.438
297 0 117.89 9.94148 1172 33.7116 1226.32 503.878
298 0 121.204 10.3215 1251 32.1575 1226.5 504.183
299 0 125.654 9.30335 1169 34.7459 1226.27 497.381
300 1 49.9125 31.1345 1554 11.6686 1224.55 542.432
301 0 48.2878 30.8152 1488 11.6371 1226.27 543.611
302 0 26.7878 40.8021 1093 11.5316 1223.83 547.519
303 0 18.1584 39.3758 715 11.4378 1223.9 551.894
304 0 26.0361 34.2217 891 11.4534 1224.94 549.778
305 0 43.5943 30.348 1323 11.6039 1225.04 545.742
306 0 44.3881 34.7841 1544 11.5006 1225.1 544.234
307 0 43.7393 29.15 1275 11.6541 1224.26 545.526
308 0 38.2261 33.8774 1295 11.6193 1225.71 545.587
309 0 37.0833 35.6764 1323 11.6538 1224.01 545.537
310 0 37.7219 40.2153 1517 11.5537 1222.94 543.079
311 0 39.5958 41.9489 1661 11.6448 1224.2 541.736
312 0 31.7905 40.0748 1274 11.5455 1223.55 545.084
313 0 42.9503 32.0138 1375 11.6705 1223.17 543.801
314 0 41.766 39.4101 1646 11.7509 1222.55 542.278
315 1 21.9012 43.6505 956 11.5167 1223.1 549.748
316 0 31.6949 43.4139 1376 11.5509 1223.57 545.046
317 0 46.1551 27.7109 1279 11.6396 1223.91 545.175
318 0 28.7543 33.5255 964 11.6546 1221.97 547.827
319 0 36.6513 26.0564 955 11.6314 1223.57 548.465
320 0 24.6833 34.6387 855 11.4468 1220.34 549.271
321 0 29.7608 30.4091 905 11.6077 1223.39 548.423
322 0 32.581 39.4095 1284 11.4276 1222.33 546.263
323 0 26.8334 41.18 1105 11.6154 1221.88 547.203
324 0 42.2551 34.836 1472 11.5713 1221.02 544.17
325 0 46.4607 32.0271 1488 11.7224 1223.93 543.53
326 0 42.2212 34.5561 1459 11.608 1222.54 543.966
327 0 27.5606 38.5695 1063 11.5729 1221.22 547.917
328 1 134.873 11.4033 1538 30.9837 1224.14 497.458
329 0 137.095 15.5658 2134 22.7713 1223.65 498.903
330 0 145.568 11.4929 1673 27.7549 1224.1 492.91
331 0 138.902 11.2741 1566 31.7299 1225.28 487.283
332 1 41.176 40.7276 1677 11.5695 1221.69 542.344
333 0 35.4879 35.8432 1272 11.6329 1220.72 545.282
334 0 38.9014 35.937 1398 11.5966 1220.82 544.084
335 0 31.6307 39.6767 1255 11.6239 1221.64 546.094
336 0 44.3712 36.668 1627 11.5274 1221.04 542.76
337 0 32.2238 34.3534 1107 11.5736 1223.29 547.494
338 0 26.8162 38.5961 1035 11.5092 1224.41 547.815
339 0 28.3826 45.8027 1300 11.3615 1223.82 546.198
340 0 28.0305 39.4927 1107 11.4246 1222.71 547.921
341 0 32.5741 32.8175 1069 11.3929 1222.8 547.746
342 0 35.2479 39.8038 1403 11.6222 1222.32 544.435
343 0 53.5807 30.4027 1629 11.5451 1223.48 542.358
344 0 44.9446 32.1284 1444 11.4474 1222.12 544.945
345 0 40.0728 35.9845 1442 11.5763 1222.36 543.596
346 0 34.8374 37.1727 1295 11.495 1223.09 545.091
347 0 37.6181 35.3819 1331 11.4515 1223.39 544.897
348 0 50.7759 34.9182 1773 11.546 1223.99 541.164
349 0 41.2612 40.4253 1668 11.5474 1224.26 542.013
350 0 45.5088 30.0602 1368 11.6491 1224.65 543.501
351 0 39.5969 39.3213 1557 11.5138 1224.02 542.198
352 0 46.6403 34.8626 1626 11.5258 1224.27 542.189
353 1 46.1943 28.2069 1303 11.5633 1225.33 544.979
354 0 43.9136 25.2541 1109 11.5023 1226.46 546.195
355 0 42.7741 38.6683 1654 11.399 1225.7 543.026
356 0 43.7012 35.7427 1562 11.4078 1225.69 542.786
357 0 40.3077 39.4465 1590 11.517 1225.11 541.82
358 0 43.2471 36.4649 1577 11.3348 1224.72 542.943
359 0 48.3218 38.9679 1883 11.3075 1221.99 541.227
360 0 46.4146 33.567 1558 11.38 1224.42 543.482
361 0 45.4595 28.3769 1290 11.4543 1225.59 545.711
362 0 42.2141 30.4638 1286 11.5148 1225.41 545.016
363 0 44.3922 28.9916 1287 11.3279 1226.53 546.166
364 1 160.112 13.3657 2140 31.4911 1227.86 484.812
365 1 122.285 20.2806 2480 68.8798 1225.46 524.549
366 1 38.3408 31.9503 1225 11.342 1225.72 545.795
367 0 49.7489 30.6941 1527 11.4086 1227.31 543.989
368 0 50.2036 32.2686 1620 11.3673 1227.61 542.628
369 0 45.3822 34.551 1568 11.6084 1225.52 541.532
370 0 48.0199 34.4649 1655 11.5118 1226.53 540.709
371 1 32.8408 33.3732 1096 11.4161 1225.83 547.585
372 0 35.1996 39.688 1397 11.3321 1225.62 545.033
373 0 57.7741 24.8035 1433 11.5331 1227.26 542.41
374 0 53.7166 33.807 1816 11.6057 1224.46 539.804
375 0 52.8692 34.6705 1833 11.6159 1225.05 539.812
376 0 49.6297 36.3895 1806 11.521 1226.04 539.633
377 0 40.7184 33.8914 1380 11.4797 1226.5 544.683
378 0 48.7034 33.5089 1632 11.5521 1225.55 542.164
379 0 47.1578 33.3985 1575 11.5365 1225.76 542.326
380 0 39.8208 27.0713 1078 11.6067 1225.63 546.238
381 0 48.8776 31.2004 1525 11.6852 1224.97 541.727
382 1 35.7832 36.5255 1307 11.4331 1225.59 545.493
383 0 43.4338 30.253 1314 11.4254 1226.52 545.625
384 0 33.8198 38.0251 1286 11.3266 1226.68 546.568
385 0 45.7242 30.5965 1399 11.4646 1226.82 544.056
386 0 31.3024 36.5787 1145 11.5022 1225.49 546.064
387 1 119.448 7.65189 914 33.3195 1227.55 505.294
388 0 120.15 7.86519 945 33.5111 1227.13 504.073
389 0 117.244 8.78509 1030 32.5903 1227.19 506.375
390 0 121.204 7.42548 900 36.8567 1227.13 497.036
391 1 43.7824 34.2375 1499 11.5324 1223.04 543.94
392 0 40.1595 32.7942 1317 11.5566 1224.09 543.924
393 0 48.0522 34.733 1669 11.5177 1225.08 542.043
394 0 26.8608 40.2073 1080 11.4824 1225.24 547.547
395 0 36.2885 32.9305 1195 11.2544 1226.12 547.474
396 1 127.677 10.0958 1289 34.1474 1227.22 501.237
397 0 127.351 9.98027 1271 35.1912 1227.57 496.627
398 0 134.961 9.03966 1220 36.9795 1227.5 492.472
399 0 135.739 8.98786 1220 36.4221 1226.93 490.666
400 1 40.9201 32.0625 1312 11.6258 1224.72 544.223
401 0 33.4467 43.3526 1450 11.4607 1223.31 544.562
402 0 42.2242 32.7301 1382 11.5586 1224.52 544.259
403 0 34.1455 32.8887 1123 11.4052 1222.53 546.569
404 0 38.9187 37.6426 1465 11.5379 1223.76 543.18
405 0 49.346 32.647 1611 11.5872 1223.94 541.056
406 0 42.2097 39.1379 1652 11.5333 1222.18 542.534
407 0 62.4374 30.3824 1897 11.4091 1224.48 540.752
408 0 44.6964 45.3727 2028 11.4911 1223.04 539.288
409 0 42.9556 49.1204 2110 11.4711 1224.25 539.22
410 0 46.0355 32.9094 1515 11.5927 1225.22 543.036
411 1 120.137 8.4071 1010 31.9871 1227.28 505.376
412 0 116.075 8.47726 984 32.0224 1228.08 502.814
413 0 119.527 8.92685 1067 31.6026 1227.76 504.727
414 0 116.551 9.7983 1142 31.3205 1227.83 505.349
415 0 119.779 9.57598 1147 31.8265 1227.52 505.009
416 1 46.3351 41.4372 1920 11.587 1225.22 539.175
417 0 38.3499 43.051 1651 11.4591 1225.36 542.663
418 0 45.2376 42.3321 1915 11.5013 1226.05 540.138
419 0 52.1264 35.3756 1844 11.5846 1224.8 540.835
420 0 38.4528 43.5339 1674 11.4815 1226.39 542.738
421 0 34.1084 38.2897 1306 11.3614 1225.27 546.029
422 0 49.0565 30.7808 1510 11.5483 1227.32 543.58
423 0 37.6917 38.0721 1435 11.4258 1225.28 544.899
424 0 30.076 53.2982 1603 27.3144 1226 544.072
425 0 30.6842 45.8868 1408 11.3643 1225.95 545.359
426 0 33.1656 46.8557 1554 11.3694 1226.16 544.308
427 0 28.9238 34.3662 994 11.4145 1225.42 548.66
428 0 46.7925 23.7217 1110 11.3189 1228.45 547.609
429 1 152.323 10.7141 1632 34.1477 1227.63 488.282
430 1 112.736 6.79464 766 30.7493 1226.15 512.462
431 1 53.1131 29.1453 1548 11.4683 1224.71 543.319
432 0 39.3325 42.2043 1660 11.4675 1224.26 542.417
433 0 34.7101 39.8155 1382 11.4211 1226.84 545.374
434 0 39.6597 45.966 1823 11.4696 1226.22 541.167
435 0 48.6951 36.2665 1766 11.5832 1226.59 539.69
436 0 57.7077 31.4516 1815 11.5421 1225.72 539.692
437 1 34.4222 38.9574 1341 11.4213 1226.73 545.297
438 0 45.5068 35.687 1624 11.2956 1227.82 543.231
439 0 53.6737 28.8969 1551 11.3985 1228.18 543.108
440 0 37.7921 45.9884 1738 11.3211 1227.45 542.604
441 0 46.8393 34.0526 1595 11.5229 1227.04 542.415
442 0 40.9439 27.6476 1132 11.5866 1227.65 545.799
443 0 43.2194 39.2879 1698 11.5312 1226.2 541.962
444 0 43.2573 38.4444 1663 11.5147 1227.06 542.105
445 0 43.312 41.8591 1813 11.4815 1227.04 541.018
446 0 34.4962 43.0772 1486 11.4509 1226 543.758
447 0 49.1416 36.5678 1797 11.5687 1226.23 541.319
448 0 49.7188 28.4199 1413 11.6164 1226.92 543.399
449 0 53.8856 31.7339 1710 11.6784 1225.55 540.264
450 1 16.621 44.9431 747 11.324 1225.11 550.724
451 0 16.4499 47.6599 784 11.3087 1224.84 551.079
452 1 41.5022 35.0825 1456 11.5701 1227.39 544.098
453 0 33.9582 32.6873 1110 11.3991 1226.75 547.559
454 0 32.0615 33.7789 1083 11.4331 1226.63 547.71
455 0 38.0418 35.5924 1354 11.4712 1226.52 544.919
456 0 27.493 46.521 1279 11.4722 1225.92 546.419
457 0 34.4271 39.7652 1369 11.5537 1226.4 544.431
458 0 37.2192 46.3738 1726 11.4137 1226.32 542.948
459 0 36.3396 46.5607 1692 11.3735 1225.94 542.719
460 0 22.4659 39.6156 890 11.5697 1224.17 549.257
461 0 26.6207 31.329 834 11.3813 1221.67 549.935
462 1 34.4708 47.5185 1638 23.2228 1223.57 542.769
463 0 30.5696 43.4745 1329 11.541 1222.61 545.293
464 0 34.8948 40.2925 1406 11.3947 1224.17 545.42
465 0 27.2562 37.5694 1024 11.4404 1223.93 548.312
466 1 43.9041 38.8346 1705 11.5003 1224.91 542.296
467 0 40.6472 35.1562 1429 11.606 1224.61 543.962
468 0 38.688 43.8638 1697 11.5592 1225.7 542.041
469 0 33.7669 44.0075 1486 11.43 1225.55 543.819
470 0 36.862 34.8597 1285 11.5066 1224.5 545.823
471 0 34.5154 40.7644 1407 11.5004 1226.07 544.594
472 0 46.2178 40.0712 1852 11.5837 1224.32 540.662
473 1 132.533 9.70325 1286 33.5684 1226.31 492.776
474 0 135.255 9.14567 1237 35.6136 1225.39 487.644
475 0 133.077 12.752 1697 30.1674 1225.28 501.41
476 0 137.531 11.7065 1610 31.5615 1225.99 498.217
477 1 99.0921 7.43753 737 28.9186 1225.36 517.366
478 0 101.05 6.89759 697 31.5839 1226.63 511.601
479 0 105.034 8.00692 841 30.8454 1226 510.624
480 0 106.191 8.51296 904 29.7566 1225.29 513.756
481 0 111.344 8.22675 916 29.7587 1226.06 511.302
482 0 108.248 8.85929 959 29.6152 1226.43 512.273
483 0 112.568 7.11571 801 34.1773 1226.28 503.876
484 1 48.7124 35.2888 1719 11.6259 1224.33 541.753
485 0 38.9507 36.2766 1413 11.586 1222.47 544.544
486 0 49.3242 29.2149 1441 11.8133 1221.35 542.697
487 0 43.0172 31.499 1355 11.5749 1218.81 543.978
488 0 42.7867 32.253 1380 11.708 1223.84 544.742
489 0 27.6688 39.6837 1098 11.6075 1221.11 546.858
490 0 37.9278 36.2531 1375 11.608 1222.75 545.304
491 0 40.3292 38.2105 1541 11.7339 1222.55 542.899
492 1 125.819 9.82362 1236 32.7015 1225.77 501.862
493 0 129.812 9.4598 1228 34.8876 1225.4 497.335
494 0 129.184 10.6669 1378 33.4601 1224.87 501.343
495 0 132.938 10.3958 1382 34.5593 1224.92 498.933
496 0 127.776 9.75925 1247 37.988 1225.94 491.536
497 0 132.599 10.4525 1386 36.0924 1225.35 496.34
498 0 133.903 10.8885 1458 36.2071 1224.92 494.041
499 0 140.862 10.0098 1410 37.2652 1225.01 490.709
500 0 142.546 10.6983 1525 35.8577 1225.06 491.647
501 0 143.655 10.8872 1564 35.8785 1224.92 491.297
502 0 143.434 11.6011 1664 35.61 1225.71 488.228
503 0 147.937 12.1876 1803 34.4088 1225.4 490.309
504 1 111.066 7.46404 829 34.6598 1224.34 506.211
505 0 113.197 7.5709 857 35.3862 1224.83 503.705
506 0 117.868 7.76293 915 34.2437 1224.79 503.073
507 0 117.615 7.11643 837 37.9427 1225.91 494.873
508 0 115.351 9.24135 1066 33.3452 1225.86 505.238
509 0 119.794 8.55633 1025 35.28 1225.95 500.933
510 0 122.906 19.9177 2448 66.1144 1223.7 523.522
511 0 123.367 8.78678 1084 35.9825 1224.94 499.298
512 0 124.478 8.94136 1113 36.3666 1225.49 498.101
513 0 128.534 8.87701 1141 36.1069 1225.32 496.252
514 1 48.8427 39.2075 1915 11.5708 1223.57 539.558
515 0 45.3874 32.3879 1470 11.6061 1225.85 542.133
516 0 36.7742 37.2272 1369 11.3791 1223.23 545.667
517 0 47.2515 30.3059 1432 11.4281 1224.44 544.51
518 0 37.9687 38.7161 1470 11.5823 1222.81 543.231
519 0 36.0342 36.8262 1327 11.5222 1224.58 544.359
520 0 42.6092 34.0771 1452 11.4552 1225.27 544.344
521 0 39.0197 36.4431 1422 11.4859 1223.42 544.638
522 0 37.0755 40.377 1497 11.4763 1224.61 543.56
523 0 53.0171 33.4232 1772 11.4249 1223.98 541.062
524 0 53.5301 34.7095 1858 11.6265 1224.65 539.303
525 0 48.2199 26.151 1261 11.5559 1224.05 544.776
526 0 47.7646 38.5222 1840 11.5321 1224.45 540.784
527 0 45.9864 40.773 1875 11.3835 1223.65 540.997
528 0 36.9638 33.1676 1226 11.4584 1224.87 545.833
529 1 48.7193 36.1664 1762 11.5823 1225.25 539.913
530 0 39.2305 42.5435 1669 11.4608 1224.76 542.065
531 0 37.5648 37.5617 1411 11.4954 1225.39 543.244
532 0 36.219 36.5278 1323 11.3401 1225.31 545.813
533 0 39.7628 40.2889 1602 11.49 1226.8 542.233
534 0 46.9359 33.2368 1560 11.4423 1225.41 543.315
535 1 28.8729 38.1672 1102 11.353 1223.88 547.867
536 0 25.8372 41.0262 1060 11.366 1224.17 547.994
537 0 49.4177 33.1055 1636 11.3839 1226.64 543.114
538 0 41.6609 34.6128 1442 11.3786 1227.2 544.077
539 0 35.0357 39.7024 1391 11.3717 1226.22 544.854
540 1 56.2125 32.8753 1848 11.4594 1226.35 540.498
541 0 40.0631 33.0978 1326 11.3967 1225.72 544.898
542 0 50.3536 31.2192 1572 11.4777 1225.29 542.972
543 0 44.6457 40.2279 1796 11.4014 1224.68 541.629
544 0 45.5595 37.7748 1721 11.4143 1224.17 541.677
545 0 36.5792 27.8027 1017 11.529 1224.31 548.213
546 0 51.161 28.4201 1454 11.4794 1225.32 543.974
547 0 56.3356 37.5783 2117 11.4365 1222.77 539.274
548 0 49.746 35.0581 1744 11.5482 1222.93 541.079
549 0 44.5479 33.29 1483 11.7269 1224.71 543.258
550 1 164.418 12.3587 2032 36.2018 1227.32 481.362
551 0 164.263 11.9017 1955 38.2701 1227.06 476.582
552 1 47.281 32.3175 1528 11.5164 1224.09 543.728
553 0 37.3898 41.5354 1553 11.4649 1224.16 543.874
554 0 41.2088 35.2595 1453 11.6628 1223.61 543.276
555 0 31.7035 36.936 1171 11.6208 1225.27 546.719
556 0 32.3922 29.8529 967 11.5605 1225.39 548.928
557 0 27.7128 35.9401 996 11.6044 1224.07 548.159
558 0 28.5609 32.737 935 11.6963 1223.25 548.333
559 0 30.3251 39.9009 1210 11.3835 1223.2 546.631
560 0 32.2321 28.4499 917 11.6467 1224.21 549.025
561 0 29.7266 39.9305 1187 11.4768 1222.48 546.986
562 0 40.3975 38.641 1561 11.4894 1221.99 543.747
563 0 43.4828 27.4131 1192 11.672 1222.49 544.522
564 0 37.7942 29.3166 1108 11.8141 1224.44 546.251
565 0 45.398 40.993 1861 11.6067 1221.62 540.931
566 0 39.2549 44.504 1747 11.5638 1221.63 541.626
567 0 36.424 37.9421 1382 11.5912 1223.06 545.305
568 0 25.3823 38.6096 980 11.6316 1223.59 548.596
569 0 32.5794 31.7685 1035 11.6367 1222.05 548.045
570 0 25.6108 38.5774 988 11.499 1224.11 548.845
571 0 32.5197 40.2832 1310 11.6359 1223.82 545.232
572 0 47.3479 32.1873 1524 11.6509 1223.52 542.895
573 0 44.9494 39.3109 1767 11.665 1223.47 541.539
574 0 30.8109 32.7481 1009 11.7592 1223.32 547.527
575 0 34.3255 40.4364 1388 11.5094 1224.03 545.366
576 0 49.5148 27.0424 1339 11.6206 1224.4 545.241
577 0 28.8488 38.5805 1113 11.6343 1223.13 547.171
578 0 33.6385 39.9245 1343 11.4847 1223.45 545.747
579 0 32.122 42.0584 1351 11.4308 1223.2 545.876
580 0 26.4302 23.7229 627 11.6571 1223.47 551.419
581 1 47.4951 34.4457 1636 11.7311 1224.32 541.713
582 0 39.7329 37.6514 1496 11.609 1225.52 543.994
583 0 29.873 35.6174 1064 11.5536 1226.49 548.07
584 0 34.2506 41.0211 1405 11.6028 1225.45 544.668
585 0 22.5985 41.5514 939 11.6028 1222.93 549.351
586 0 22.6044 36.5416 826 11.6077 1224.08 550.052
587 0 32.4894 40.4132 1313 11.671 1225.27 544.821
588 0 48.7031 29.4437 1434 11.6527 1224.99 544.086
589 0 49.9674 34.6226 1730 11.3931 1226.28 542.663
590 0 45.114 39.2118 1769 11.4155 1227.46 542.673
591 0 45.9792 33.8631 1557 11.4823 1226.21 543.793
592 0 44.8218 22.913 1027 11.5833 1222.79 548.082
593 0 27.2505 27.0821 738 11.5691 1221.26 550.818
594 0 34.5531 41.4724 1433 11.5527 1224.59 543.996
595 0 30.4355 43.8303 1334 11.5352 1223.9 545.39
596 0 33.261 42.8129 1424 11.5246 1224.3 544.595
597 0 55.3781 39.763 2202 11.53 1222.94 537.798
598 0 53.294 32.499 1732 11.7904 1225.87 539.652
599 0 37.5676 40.6467 1527 11.6051 1225.54 542.908
600 0 47.8923 37.4173 1792 11.7584 1225.14 540.86
601 0 44.6219 48.9894 2186 11.6551 1226.14 538.053
602 0 40.119 32.254 1294 11.7202 1225.86 544.642
603 1 32.662 20.4825 669 11.6607 1227.67 550.268
604 0 33.7864 22.8494 772 11.513 1226.37 550.636
605 0 37.5312 25.0458 940 11.4766 1228.71 549.272
606 0 41.691 22.8346 952 11.5389 1228.18 549.222
607 1 48.6703 48.9826 2384 11.5726 1225.08 536.649
608 0 51.5815 44.2988 2285 11.6937 1224.81 536.374
609 0 49.8264 36.6874 1828 11.6597 1226.75 540.121
610 0 54.8742 30.7977 1690 11.7533 1225.74 540.603
611 0 47.3322 36.3389 1720 11.6256 1226.45 541.251
612 0 42.8748 35.3821 1517 11.4733 1225.82 544.27
613 0 42.6229 42.5358 1813 11.5146 1224.59 541.437
614 0 2 16 32 11.25 1213.66 557.844
615 0 40.8809 49.1672 2010 11.4055 1224.13 539.351
616 0 31.0734 36.8804 1146 11.5768 1223.76 546.372
617 0 31.8437 35.9882 1146 11.6344 1224.03 547.082
618 0 34.8862 38.1813 1332 11.6419 1224.01 544.488
619 0 33.1139 33.0073 1093 11.4016 1226.71 548.392
620 0 37.228 38.3583 1428 11.3796 1225.22 544.956
621 0 42.2866 31.6649 1339 11.5945 1226.29 544.954
622 0 42.1431 34.8812 1470 11.6388 1226.43 543.504
623 1 44.5786 31.1808 1390 11.4345 1225.54 545.522
624 0 40.6606 30.7177 1249 11.5588 1226.96 545.641
625 0 41.4771 40.5043 1680 11.6012 1225.75 541.851
626 0 53.5221 29.9129 1601 11.6896 1225.11 542.034
627 0 51.6413 32.474 1677 11.7048 1224.54 541.083
628 1 40.8296 32.2805 1318 11.4545 1225.38 545.533
629 0 27.1168 35.1073 952 11.5767 1227.12 548.619
630 0 31.6118 37.0115 1170 11.3769 1225.75 547.174
631 0 45.3313 29.8249 1352 11.5318 1227.38 544.785
632 0 47.3127 31.9787 1513 11.764 1224.57 542.962
633 0 32.2993 40.1556 1297 11.6885 1225.45 545.196
634 0 35.9467 36.0255 1295 11.6857 1223.13 545.045
635 0 29.4269 37.0749 1091 11.6205 1223.05 546.482
636 1 46.1589 30.46 1406 11.761 1224.04 542.619
637 0 46.7954 35.3454 1654 11.7406 1223.55 541.721
638 0 43.2083 33.6046 1452 11.7548 1223.2 543.468
639 0 42.6053 31.4046 1338 11.6981 1223.01 544.327
640 0 40.5362 33.7723 1369 11.7085 1223.58 543.548
641 0 42.0406 36.1079 1518 11.7734 1222.82 542.862
642 0 44.5562 31.1965 1390 11.7993 1223.76 543.05
643 0 34.4795 43.7362 1508 11.5438 1224.61 544.475
644 1 121.81 8.59535 1047 33.6743 1226.4 502.8
645 0 123.625 22.0667 2728 63.6514 1225.57 523.098
646 0 119.959 10.0868 1210 31.8149 1226.92 504.386
647 0 123.652 9.8098 1213 32.0025 1226.84 504.187
648 0 127.261 9.14658 1164 33.311 1226.74 499.29
649 0 126.744 10.683 1354 30.921 1225.37 503.58
650 0 127.668 9.64217 1231 33.6239 1226.1 497.41
651 0 129.514 8.7635 1135 35.6079 1226.48 488.841
652 0 135.141 9.99694 1351 32.6121 1225.13 496.007
653 0 132.898 9.97003 1325 34.0204 1226.23 494.803
654 0 137.681 9.68178 1333 34.4269 1227.49 492.803
655 0 136.839 8.83523 1209 36.7254 1226.24 486.223
656 0 144.142 9.78894 1411 33.6414 1226.27 493.208
657 0 143.125 10.662 1526 32.5944 1227.07 494.36
658 0 146.717 11.8528 1739 30.7332 1225.98 496.339
659 0 145.706 10.5898 1543 33.8049 1227.05 487.688
660 1 109.932 7.54102 829 30.0181 1225.94 511.634
661 0 110.958 6.70522 744 32.8024 1226.23 503.3
662 0 114.825 8.0819 928 30.3556 1224.86 508.411
663 0 119.347 15.057 1797 77.8475 1224.05 526.638
664 0 116.118 8.79275 1021 31.048 1225.85 509.279
665 0 110.249 8.33571 919 34.0033 1226.02 502.897
666 0 112.795 10.1245 1142 30.7399 1226.05 506.427
667 0 120.758 10.1028 1220 30.7148 1226.56 506.807
668 0 115.719 10.3872 1202 31.2837 1226.3 503.932
669 0 119.73 10.5487 1263 31.342 1225.93 503.996
670 0 128.658 10.8505 1396 30.3489 1226.24 504.999
671 0 127.934 10.6305 1360 31.0919 1226.13 503.571
672 0 122.113 10.2364 1250 33.2728 1225.57 497.256
673 0 128.547 10.6421 1368 32.0329 1224.49 496.789
674 1 39.7368 31.9351 1269 11.5508 1225.39 546.014
675 0 34.8586 35.8304 1249 11.5981 1222.67 545.807
676 0 43.4932 37.845 1646 11.6154 1221.59 542.222
677 0 50.3997 30.0399 1514 11.6156 1222.62 543.161
678 0 48.0209 35.6928 1714 11.598 1222.3 540.631
679 0 36.5059 41.9658 1532 11.4308 1223.02 543.373
680 0 34.2646 32.7451 1122 11.4706 1224.26 547.422
681 0 39.6678 32.8983 1305 11.3264 1224.96 546.425
682 0 39.424 27.9526 1102 11.5826 1223.59 547.802
683 0 20.9854 38.7413 813 11.4551 1222.95 550.624
684 0 19.5475 49.2135 962 11.3118 1221.72 549.415
685 0 20.4696 37.3237 764 11.5471 1223.16 550.927
686 0 21.0636 44.2945 933 11.3301 1222.45 549.438
687 0 10.37 49.4697 513 11.3119 1223.39 553.636
688 1 30.0129 32.3527 971 11.4995 1223.54 548.128
689 0 29.3495 32.9478 967 11.4426 1223.05 548.628
690 0 28.0146 47.7964 1339 11.3204 1222.19 546.367
691 0 61.0973 25.5821 1563 11.3781 1223.31 543.408
692 0 40.6099 30.4113 1235 11.3231 1223.42 545.793
693 0 39.7964 37.8929 1508 11.5816 1223.73 542.456
694 0 49.3193 33.05 1630 11.5816 1224.75 541.791
695 0 46.4171 42.4412 1970 11.4497 1222.67 540.172
696 0 50.4515 28.8396 1455 11.5959 1223.53 542.22
697 1 40.3856 32.9078 1329 11.4169 1222.62 545.119
698 0 38.8833 32.379 1259 11.4988 1222.69 545.579
699 0 35.2945 39.9779 1411 11.4011 1222.84 544.701
700 0 36.2734 40.2499 1460 11.4473 1222.69 544.422
701 0 42.2595 33.2943 1407 11.5757 1222.54 542.548
702 0 41.3339 38.6607 1598 11.5676 1222.93 541.342
703 0 49.0243 40.0617 1964 11.4145 1222.44 539.828
704 0 55.9933 30.8966 1730 11.396 1225.07 541.668
705 0 40.8798 45.3769 1855 11.2846 1223.81 541.421
706 0 36.4397 39.4076 1436 11.5474 1225.04 543.261
707 1 118.259 7.2891 862 32.3039 1226.09 502.454
708 0 123.724 18.0563 2234 62.1388 1224.88 524.724
709 0 116.561 9.41141 1097 28.6682 1225.84 507.603
710 0 118.181 9.40933 1112 29.2986 1226.66 505.067
711 0 121.822 10.4332 1271 28.0944 1226.76 507.208
712 1 59.8505 29.0891 1741 11.4245 1225.83 541.632
713 0 50.5671 37.8111 1912 11.4409 1225.05 540.081
714 0 69.0646 28.6254 1977 11.5175 1222.91 539.132
715 0 50.8428 33.6724 1712 11.4568 1222.85 541.461
716 0 49.2682 33.8149 1666 11.425 1221.58 542.083
717 1 35.0723 38.0072 1333 11.3376 1223.5 546.106
718 0 43.6304 32.7066 1427 11.3623 1224.45 544.128
719 0 52.3525 34.1722 1789 11.3935 1225.79 541.344
720 0 58.4625 30.96 1810 11.5088 1225.82 539.923
721 0 40.2136 37.7235 1517 11.4489 1224.3 542.839
722 0 41.3949 37.2026 1540 11.3474 1225.37 543.727
723 0 55.3636 33.3613 1847 11.6226 1226.44 538.382
724 0 42.3536 32.6773 1384 11.4061 1223.87 544.806
725 0 38.851 34.2848 1332 11.4692 1223.45 544.99
726 0 48.3388 33.2445 1607 11.4138 1226.3 543.007
727 0 56.4001 29.7162 1676 11.5066 1227.92 542.223
728 0 29.412 36.0737 1061 11.3384 1224.64 547.79
729 0 26.5468 37.2926 990 11.5212 1225.99 549.175
730 0 45.9592 27.6767 1272 11.5079 1225.59 546.138
731 0 39.8469 35.1596 1401 11.4276 1225.24 545.193
732 0 44.1499 31.6649 1398 11.4149 1225.58 545.303
733 0 42.8397 37.6753 1614 27.2639 1226.2 544.112
734 0 39.8784 34.8058 1388 11.4215 1225.31 545.045
735 0 53.0403 30.7879 1633 11.4807 1226.3 542.29
736 0 48.6262 34.1174 1659 11.6655 1224.35 541.382
737 0 44.8602 33.9722 1524 11.6365 1225.24 542.515
738 0 36.3377 39.0779 1420 11.5479 1223.86 544.328
739 0 60.493 26.1352 1581 11.623 1225.27 541.611
740 0 51.0559 44.559 2275 23.8273 1225.64 538.013
741 0 45.7948 28.584 1309 11.4989 1223.86 544.507
742 0 45.883 25.674 1178 11.5849 1225.93 546.018
743 0 50.1476 36.0935 1810 11.4895 1225.56 540.851
744 0 50.218 34.6688 1741 11.4285 1224.9 541.229
745 0 55.0138 32.6464 1796 11.4131 1225.97 541.178
746 0 46.5215 38.3049 1782 11.4248 1224.57 541.534
747 0 53.5831 35.4962 1902 11.6257 1223.84 538.709
748 0 52.9175 37.0577 1961 11.4855 1224.08 540.11
749 0 46.9495 41.2571 1937 11.5839 1224.42 539.131
750 0 49.9669 37.765 1887 11.5034 1224.68 539.476
751 0 40.9243 41.4668 1697 11.584 1224.3 541.409
752 0 41.2287 27.8205 1147 11.6024 1225.03 546.373
753 0 51.6058 39.0848 2017 11.5012 1225.25 538.658
754 0 54.4001 31.5257 1715 11.4845 1226.71 540.304
755 0 47.0931 34.7184 1635 11.5694 1226.03 541.643
756 0 56.2395 42.8346 2409 11.3914 1224.76 536.594
757 0 53.5678 35.5437 1904 11.4764 1224.35 539.863
758 0 47.3589 39.8235 1886 11.4072 1224.57 540.78
759 0 54.2921 31.1463 1691 11.4766 1223.22 541.633
760 0 36.2669 26.498 961 11.4579 1225.42 547.916
761 0 62.5819 33.0926 2071 11.5336 1225.17 537.969
762 0 55.4846 45.7605 2539 11.5341 1225.93 534.614
763 0 43.7141 42.3662 1852 11.4168 1226.04 540.851
764 0 56.4708 29.8562 1686 11.5261 1226.75 540.243
765 0 42.9093 31.9045 1369 11.5084 1224.27 544.058
766 0 49.9352 32.1617 1606 11.3798 1226.87 543.103
767 0 32.5613 39.4334 1284 11.4805 1225.48 546.141
768 0 41.0521 29.3773 1206 11.4005 1225.69 547.03
769 0 26.8557 52.9496 1422 11.2722 1225.93 545.504
770 0 27.2835 47.6479 1300 11.3415 1225.79 546.124
771 1 46.6188 28.422 1325 11.6166 1226.89 543.182
772 0 43.7413 41.5854 1819 11.6454 1225.15 540.081
773 0 39.082 36.7432 1436 11.4965 1225.52 544.305
774 0 46.01 34.7099 1597 11.5855 1227.3 542.363
775 0 38.6832 43.2487 1673 11.5529 1225.65 542.754
776 0 49.8868 30.1081 1502 11.731 1225.3 542.254
777 0 45.241 33.1337 1499 11.517 1226.89 543.675
778 0 33.5456 29.8101 1000 11.42 1228.29 548.123
779 0 33.1418 29.5095 978 11.5501 1228.34 548.713
780 0 35.0906 34.3682 1206 11.3789 1228.47 547.502
781 0 35.107 28.8546 1013 11.4334 1227.83 548.348
782 0 43.3083 31.726 1374 11.345 1226.81 545.614
783 0 46.272 27.9867 1295 11.4394 1228.2 546.005
784 0 34.124 41.4371 1414 11.5382 1225.44 544.207
785 0 36.3761 32.109 1168 11.5197 1227.16 546.974
786 0 35.5664 36.6919 1305 11.5057 1226.11 546.395
787 0 26.4025 39.8068 1051 11.4662 1226.41 548.382
788 0 33.949 29.6327 1006 11.4851 1226.36 548.892
789 0 28.8575 27.861 804 11.75 1223.6 550.398
790 0 36.2135 36.1191 1308 11.5673 1222.12 545.767
791 0 29.9947 41.5741 1247 11.571 1226.53 546.807
792 0 31.0458 39.2001 1217 11.6097 1225.19 546.528
793 0 23.394 40.0957 938 11.7196 1223.75 548.824
794 0 26.2639 42.3775 1113 11.5741 1224.87 547.632
795 0 40.7122 35.8124 1458 11.751 1224.78 544.68
796 0 40.1343 33.6122 1349 11.983 1224.41 542.486
797 0 52.952 29.0074 1536 11.7272 1226.76 543.867
798 0 48.6017 34.1757 1661 11.469 1221.98 543.279
799 0 36.2512 33.1024 1200 11.6883 1222.44 546.138
800 0 35.0466 25.7942 904 11.6405 1224.83 549.756
801 0 28.2587 30.9285 874 11.7197 1223.31 549.288
802 0 27.0501 44.584 1206 11.6658 1224.05 546.814
803 0 29.5612 43.2661 1279 11.6106 1223.41 546.412
804 0 24.3061 37.4803 911 11.5928 1222.4 549.07
805 0 30.2473 37.4909 1134 11.7116 1223.85 546.364
806 0 39.5224 34.5373 1365 11.8813 1224.79 543.607
807 0 46.3492 39.0945 1812 11.9724 1223.79 539.322
808 0 46.6269 47.9766 2237 11.7331 1223.35 537.563
809 0 47.5426 46.8002 2225 11.7213 1224.53 537.827
810 0 44.2778 50.2961 2227 11.7481 1224.46 537.693
811 0 42.0992 42.5661 1792 11.7974 1224.99 540.243
812 0 42.5048 40.7248 1731 11.6904 1223.19 541.501
813 0 37.4229 37.3301 1397 11.8432 1224.08 544.341
814 0 33.7961 36.2468 1225 11.7812 1224.89 546.403
815 0 34.1391 34.9453 1193 11.5163 1223.5 546.763
816 0 29.2599 37.8333 1107 11.6739 1224.96 547.187
817 0 29.0592 40.3659 1173 11.6377 1222.91 547.167
818 0 27.513 40.4172 1112 11.6205 1222.87 547.148
819 0 30.237 40.3479 1220 11.6869 1223.57 546.62
820 0 55.9824 23.7396 1329 11.7728 1225.78 544.36
821 0 55.6494 25.9302 1443 11.7055 1227.01 544.352
822 1 37.8368 17.2319 652 11.5092 1226.46 551.196
823 0 45.3655 16.1577 733 16.5935 1227.15 550.11
824 0 26.8045 23.2051 622 11.5096 1223.53 551.846
825 0 26.1201 24.3873 637 11.854 1226.93 551.84
826 0 18.3072 30.0429 550 11.6818 1228.15 552.435
827 0 33.4066 28.198 942 11.5149 1230.29 548.157
828 1 37.9914 37.5874 1428 11.7423 1226.5 544.211
829 0 43.0864 39.6645 1709 11.694 1227.43 542.644
830 0 46.1874 36.157 1670 11.7293 1226.3 542.317
831 0 40.915 38.8855 1591 11.7247 1227.08 543.42
832 0 36.8332 38.8779 1432 11.7605 1226.27 544.07
833 0 38.8299 33.5051 1301 11.5357 1227.14 546.147
834 0 27.1811 36.1649 983 11.6226 1229.09 548.708
835 0 22.4999 46.2668 1041 22.025 1225.13 548.307
836 1 142.735 9.72432 1388 42.781 1228.47 486.13
837 0 142.685 10.9472 1562 40.4213 1228.81 488.547
838 0 138.752 10.6882 1483 42.4794 1228.7 483.215
839 1 46.2568 35.8001 1656 11.9251 1226.3 539.916
840 0 38.849 41.8801 1627 11.8537 1224.95 542.299
841 0 49.6184 33.1732 1646 11.7618 1225.27 542.186
842 0 42.2562 38.9765 1647 11.7219 1225.45 542.774
843 0 48.2734 30.1201 1454 11.8322 1226.11 543.114
844 0 44.5171 38.9738 1735 11.8726 1225.58 541.432
845 0 32.2509 42.6655 1376 11.7006 1223.51 544.772
846 0 35.2783 45.5238 1606 11.8157 1226.19 543.05
847 0 29.7123 39.5459 1175 11.5906 1223.81 547.311
848 0 31.9312 47.0074 1501 11.6509 1226.58 544.487
849 0 28.8364 36.8631 1063 11.715 1226.24 547.657
850 0 35.9133 27.0095 970 11.7454 1226.46 548.296
851 0 24.0888 49.1516 1184 20.6706 1224.23 547.018
852 0 37.5146 41.1573 1544 11.7358 1224.57 543.686
853 0 32.978 40.9363 1350 11.7526 1224.19 545.127
854 0 34.9099 40.1033 1400 11.7157 1225.2 544.931
855 0 30.6349 43.1535 1322 11.7262 1225.28 545.956
856 0 26.4187 33.8397 894 11.5783 1224.39 550.026
857 0 34.1166 31.0699 1060 11.5925 1222.11 547.745
858 0 29.2896 49.0276 1436 11.4638 1223.58 545.108
859 0 31.3688 46.543 1460 11.5062 1224.37 545.389
860 0 28.8654 51.1685 1477 11.5085 1223.25 545.383
861 0 25.0771 41.2329 1034 11.5677 1222.35 548.239
862 0 29.7855 43.1754 1286 11.6804 1224.59 545.748
863 0 35.3661 26.777 947 11.8321 1223.64 548.197
864 0 42.6799 38.2147 1631 11.4126 1226.59 543.936
865 0 34.7878 22.7091 790 11.6127 1224.66 549.894
866 0 34.3707 37.8811 1302 11.6206 1222.22 545.656
867 0 32.4296 40.3335 1308 11.6093 1222.66 545.724
868 0 26.5906 37.6826 1002 11.6068 1221.85 548.611
869 0 24.3488 28.6667 698 11.7779 1223.71 550.668
870 0 28.0932 38.9418 1094 11.6746 1224.77 547.779
871 0 35.5524 39.6879 1411 11.5854 1224.02 544.831
872 0 36.9077 39.504 1458 11.6845 1222.12 544.374
873 1 56.1014 25.3648 1423 11.9332 1223.6 541.51
874 0 42.24 40.0095 1690 11.5982 1223.54 542.176
875 0 50.5079 28.3124 1430 11.572 1226.75 544.41
876 0 37.138 37.0241 1375 11.5345 1225.16 545.327
877 0 29.8142 31.1597 929 11.69 1225.14 549.072
878 0 39.5798 22.1325 876 11.6039 1226.64 549.546
879 1 39.8931 37.049 1478 11.6394 1222.95 544.309
880 0 41.6639 34.4423 1435 11.7582 1224.12 543.679
881 0 59.7486 27.2475 1628 11.8077 1221.9 540.707
882 0 41.5154 44.3932 1843 11.6761 1225.12 540.504
883 0 44.5136 34.3041 1527 11.7145 1224.55 542.278
884 0 34.6074 48.1111 1665 11.5105 1224.87 543.07
885 0 35.4891 37.0255 1314 11.6035 1225.21 545.224
886 0 32.5406 45.4816 1480 11.6899 1224.54 544.388
887 0 34.4895 36.7358 1267 11.6172 1222.93 545.066
888 0 30.5177 46.0717 1406 11.6394 1223.46 544.731
889 0 36.1058 39.8828 1440 11.5958 1223.9 544.322
890 0 30.5312 42.4156 1295 11.5514 1223.67 545.751
891 1 53.388 25.324 1352 11.7796 1224.88 543.038
892 0 48.9175 33.2396 1626 11.674 1224.89 542.316
893 0 52.2959 30.4422 1592 11.8241 1226.23 541.883
894 0 43.2879 36.8232 1594 11.8162 1225.75 541.701
895 0 42.098 33.0182 1390 11.5439 1223.66 545.222
896 0 43.7003 31.4872 1376 11.5247 1226.75 544.409
897 0 34.587 39.3789 1362 11.486 1225.26 545.674
898 0 31.3697 32.4198 1017 11.5615 1226.72 547.402
899 0 35.2991 40.4826 1429 11.6459 1226.48 544.367
900 0 34.1087 36.3837 1241 11.5689 1226.41 546.683
901 0 36.2593 42.1133 1527 11.6693 1226.23 542.494
902 0 39.8848 41.9207 1672 11.6071 1225.23 542.228
903 0 44.5185 38.9726 1735 11.7424 1225.64 540.746
904 1 31.597 35.7312 1129 11.5651 1226 547.554
905 0 30.5821 47.1845 1443 11.5731 1224.1 544.972
906 0 42.5157 34.0345 1447 11.7471 1224.5 543.274
907 0 44.9907 27.7613 1249 11.6886 1227.04 545.54
908 0 36.8967 34.7185 1281 11.9001 1224.49 544.365
909 0 32.0905 33.0316 1060 11.6821 1222.07 547.624
910 0 35.2523 30.2675 1067 11.6064 1225.63 548.04
911 0 24.5125 41.7338 1023 11.5855 1224.47 548.591
912 0 24.0103 43.1481 1036 11.6322 1224.01 548.652
913 0 24.0335 50.0968 1204 11.4643 1223.68 547.52
914 0 23.7405 45.0707 1070 11.6692 1224.95 548.387
915 0 37.4559 37.0035 1386 11.6486 1224.18 544.514
916 0 49.1474 29.9914 1474 11.694 1222.98 543.745
917 0 34.2753 40.0872 1374 11.6077 1223.24 545.386
918 0 38.4509 41.4034 1592 11.8492 1224.15 541.186
919 0 35.043 39.2661 1376 11.6802 1223.14 545.02
920 0 26.4489 44.1606 1168 11.5788 1225.59 547.314
921 0 29.9412 25.1827 754 11.6857 1225.26 550.914
922 0 31.7779 31.4055 998 11.6834 1225.7 548.857
923 1 141.672 11.9925 1699 35.2101 1226.95 493.972
924 0 145.726 11.3089 1648 35.909 1226.95 489.116
925 0 146.007 10.9242 1595 38.716 1227.44 482.489
926 0 148.615 12.132 1803 37.0133 1227.04 487.554
927 0 150.548 11.8301 1781 38.1892 1226.65 485.596
928 0 150.893 13.1683 1987 35.8002 1226.89 488.398
929 0 156.368 12.9758 2029 36.4495 1227.88 486.086
930 0 158.466 12.5705 1992 37.6451 1227.83 480.197
931 0 161.648 12.5644 2031 37.6676 1227.31 481.979
932 0 160.335 13.3845 2146 37.6179 1227.26 481.121
933 0 169.659 12.9967 2205 38.1642 1228.02 477.93
934 0 169.67 12.9781 2202 38.1444 1227.2 476.12
935 1 126.639 7.35163 931 39.9033 1226.13 494.693
936 1 39.7301 39.7683 1580 11.5867 1225.43 543.035
937 0 34.1221 37.1607 1268 11.7421 1224.94 545.352
938 0 39.1069 36.6431 1433 11.5338 1225.11 544.867
939 0 49.9308 29.2404 1460 11.7205 1226.04 543.716
940 0 36.8242 44.5088 1639 11.521 1224.92 542.685
941 0 39.7361 33.9489 1349 11.6909 1224.71 544.572
942 0 38.8258 37.3463 1450 11.6041 1226.18 543.628
943 0 36.2252 25.6727 930 11.5699 1225.11 549.509
944 0 45.5631 38.3425 1747 11.7023 1225.57 541.314
945 1 25.6937 43.3569 1114 11.5718 1224.87 547.381
946 0 25.7439 51.2355 1319 11.3662 1223.21 546.234
947 0 25.5723 44.3839 1135 11.5789 1225.27 547.401
948 0 31.0642 34.7023 1078 11.5213 1226.17 548.028
949 0 25.2448 31.6501 799 11.612 1224.58 550.278
950 0 28.2054 37.9714 1071 11.4753 1225.22 548.05
951 0 28.0789 41.5615 1167 11.4516 1223.85 547.469
952 0 33.8806 36.8057 1247 11.514 1223.61 546.99
953 0 28.3658 30.6707 870 11.6184 1225.82 549.732
954 0 40.3785 40.4175 1632 11.6164 1225.23 543.007
955 0 46.9167 37.6199 1765 11.6272 1226.01 541.491
956 0 40.0142 38.9361 1558 11.7003 1226.42 542.376
957 0 41.926 34.227 1435 11.616 1223.4 544.569
958 0 29.6679 40.6162 1205 11.5817 1223.14 546.429
959 0 34.2043 39.4687 1350 11.6267 1224.3 544.96
960 0 39.5559 37.4154 1480 11.6358 1221.86 543.687
961 0 39.7108 34.8772 1385 11.6029 1222.51 544.88
962 0 39.0776 30.6057 1196 11.597 1225.26 546.513
963 0 32.2945 39.5733 1278 11.4969 1224.59 545.797
964 0 29.1459 54.3473 1584 11.4242 1224.7 544.369
965 0 29.0296 53.7039 1559 11.4131 1223.57 544.52
966 0 32.5292 39.1034 1272 11.5283 1223.4 546.309
967 0 32.517 45.5454 1481 11.6442 1224.8 544.41
968 0 40.7259 40.7849 1661 11.7068 1225.97 541.987
969 0 34.4933 19.8299 684 11.8158 1224.61 549.949
970 0 43.7483 39.4987 1728 11.6123 1225.19 541.743
971 0 45.0361 33.3954 1504 11.7314 1225.08 543.027
972 1 119.265 20.333 2425 64.1221 1224.7 525.92
973 0 120.486 8.3744 1009 33.3588 1226.06 502.785
974 1 43.4519 29.688 1290 11.5938 1226.84 545.38
975 0 41.59 35.297 1468 11.814 1224.25 543.277
976 0 46.5417 36.0107 1676 11.58 1225.57 542.024
977 0 43.8411 32.8687 1441 11.7391 1226.73 542.428
978 0 58.3037 28.5059 1662 11.8736 1225.58 541.791
979 1 143.102 22.7181 3251 76.4131 1226.08 516.275
980 0 143.918 10.4365 1502 34.3489 1226.98 489.722
981 0 139.096 11.8911 1654 33.7594 1227.14 491.19
982 0 139.967 13.2817 1859 32.787 1227.58 494.411
983 0 146.496 12.0072 1759 35.3115 1227.72 486.973
984 0 151.267 11.9259 1804 35.0333 1227.3 487.229
985 1 37.7592 38.0834 1438 11.8018 1224.75 543.773
986 0 49.3667 30.2228 1492 12.004 1225.63 542.544
987 0 30.2464 42.1868 1276 11.7774 1223.47 545.448
988 0 25.5813 48.6293 1244 11.7677 1225.49 546.768
989 0 33.5945 40.3042 1354 11.9697 1225.06 544.154
990 0 36.8754 34.5216 1273 11.7031 1223.53 546.043
991 0 35.6455 39.3317 1402 11.6619 1223.59 545.344
992 0 35.2964 31.023 1095 11.5982 1222.74 547.64
993 0 42.2075 34.9938 1477 11.8747 1222.24 543.274
994 0 35.0107 30.0479 1052 11.7529 1221.69 547.175
995 0 27.58 29.7317 820 11.6195 1222.89 550.562
996 1 44.9909 32.3399 1455 11.855 1223.09 544.461
997 0 33.8228 38.7609 1311 11.7933 1224.87 545.677
998 0 38.838 38.6477 1501 11.7995 1224.01 544.097
999 0 30.6018 38.0696 1165 11.727 1226.13 547.417
1000 0 40.771 26.4894 1080 11.8269 1225.54 547.153
1001 0 43.5569 37.7896 1646 11.8299 1224.09 542.085
1002 0 44.8326 38.298 1717 11.7554 1224.29 542.816
1003 0 35.8383 22.4899 806 11.9417 1223.87 548.081
1004 0 42.4406 33.2464 1411 11.8689 1223.82 544.779
1005 0 36.4966 41.0176 1497 11.8991 1223.5 544.187
1006 0 29.6361 45.1813 1339 11.8066 1222.35 546.085
1007 0 29.9106 35.5392 1063 11.7629 1224.03 548.305
1008 0 20.3582 31.1422 634 11.6388 1224.41 552.213
1009 0 23.2653 41.9078 975 11.7949 1223.25 549.226
1010 0 36.0118 37.7931 1361 11.9537 1222.23 544.386
1011 0 32.6735 35.2273 1151 11.9505 1223.09 546.681
1012 0 37.8759 33.1345 1255 11.8104 1222.7 545.288
1013 0 32.2817 30.2958 978 11.8742 1224.43 547.284
1014 0 35.0906 37.9304 1331 11.9842 1223.13 545.174
1015 0 35.0965 37.4111 1313 11.9871 1223.46 545.215
1016 0 37.7464 33.3542 1259 11.9396 1222.8 545.117
1017 0 24.5719 43.3829 1066 11.7908 1223.13 547.894
1018 0 21.6729 43.1875 936 11.8312 1223.27 549.387
1019 0 31.2899 39.4377 1234 11.8655 1222.13 546.667
1020 0 30.6112 37.4047 1145 11.8515 1220.94 547.016
1021 0 27.265 37.5574 1024 11.7031 1220.95 548.425
1022 0 21.5845 41.6039 898 11.7194 1220.53 549.235
1023 0 34.6275 38.1777 1322 11.8033 1221.56 545.43
1024 0 27.9581 30.045 840 11.7905 1221.03 549.437
1025 0 34.716 28.5747 992 11.8306 1223.97 548.749
1026 0 17.7182 41.8779 742 11.7358 1222.32 551.039
1027 0 22.9249 39.2149 899 11.8509 1222.79 549.656
1028 0 44.8995 24.9446 1120 11.8464 1223.99 547.224
1029 0 38.9142 28.0104 1090 12.045 1225.31 546.905
1030 0 36.871 36.1802 1334 11.8058 1224.23 545.722
1031 0 36.7533 36.6498 1347 11.8575 1222.6 545.686
1032 0 30.03 36.0306 1082 11.8503 1222.67 547.68
1033 0 33.425 30.157 1008 11.8313 1217.64 547.645
1034 0 31.7309 52.0944 1653 11.7381 1222.15 543.158
1035 0 31.8447 42.4875 1353 11.8625 1221.67 544.672
1036 0 33.2521 42.3132 1407 11.8117 1222.04 545.218
1037 0 27.9086 42.3167 1181 11.7426 1221.42 547.321
1038 0 27.188 33.7649 918 11.6808 1221.19 549.132
1039 0 34.1449 34.2365 1169 11.917 1222.81 546.192
1040 0 23.9896 38.3499 920 11.8315 1220.28 549.398
1041 0 27.8301 31.1534 867 11.6113 1222.17 550.25
1042 0 30.9218 36.3821 1125 11.6196 1221.21 547.625
1043 0 39.7779 28.6591 1140 11.7877 1220.9 545.846
1044 0 41.7755 26.5706 1110 11.8369 1223.92 546.914
1045 0 28.1472 46.5766 1311 11.7285 1222.55 545.908
1046 0 30.1072 49.4567 1489 11.6091 1222.37 545.083
1047 0 32.3394 42.0231 1359 11.7653 1222.43 545.01
1048 0 38.569 22.5311 869 11.7675 1220.79 548.638
1049 0 36.7038 25.556 938 11.8145 1222.43 549.012
1050 0 38.9314 25.8917 1008 11.8383 1221.67 547.77
1051 0 41.3361 36.4814 1508 11.8342 1221.12 543.773
1052 0 39.0945 36.1687 1414 11.9922 1221.84 543.701
1053 0 51.1726 27.5147 1408 12.054 1223.81 543.572
1054 0 34.4508 46.3559 1597 11.9036 1222.92 542.858
1055 0 37.0584 36.375 1348 11.9815 1221.54 544.159
1056 0 28.2449 44.3266 1252 11.77 1221.77 546.153
1057 0 24.6679 41.3492 1020 11.7794 1222.53 548.898
1058 0 24.6565 32.6485 805 11.5565 1221.36 550.238
1059 0 19.6189 39.8596 782 11.4757 1224.11 551.387
1060 0 30.2402 21.5938 653 11.7213 1213.28 549.34
1061 0 27.79 28.3555 788 11.8452 1222.65 549.354
1062 0 31.8959 34.1737 1090 11.8404 1222.5 546.027
1063 0 36.0591 31.9753 1153 11.6609 1222.81 547.273
1064 0 33.7103 36.2501 1222 11.653 1222.38 546.142
1065 0 31.382 33.618 1055 11.5972 1220.23 546.945
1066 0 39.4384 37.3748 1474 11.713 1223.63 544.427
1067 0 44.2327 35.4263 1567 11.8302 1223.77 542.08
1068 1 27.3754 44.9309 1230 11.7512 1224.06 546.725
1069 0 37.1672 41.1923 1531 11.7629 1222.4 543.052
1070 0 41.7536 39.1344 1634 11.7509 1224.08 542.861
1071 0 34.354 39.2967 1350 11.8815 1223.71 544.26
1072 0 47.2259 34.6844 1638 21.2924 1223.11 541.966
1073 1 30.8978 36.5398 1129 11.5084 1220.91 547.807
1074 0 45.7863 31.7562 1454 11.707 1225.53 544.496
1075 0 40.476 41.8026 1692 11.7624 1224.16 542.191
1076 0 44.9583 36.4115 1637 11.7318 1221.49 542.732
1077 0 43.7344 32.2401 1410 11.7894 1222.62 543.923
1078 0 32.5582 39.3142 1280 11.5961 1222.98 546.084
1079 0 43.3544 43.9632 1906 11.5084 1223.38 541.496
1080 0 36.4791 35.7739 1305 11.8352 1224.99 544.784
1081 0 53.3545 28.4137 1516 11.9485 1223.63 541.454
1082 0 51.5992 46.2992 2389 11.5848 1224.31 537.3
1083 1 33.2536 40.3866 1343 11.6366 1223.66 545.106
1084 0 41.4508 35.0777 1454 11.7263 1223.82 544.02
1085 0 35.04 36.1586 1267 11.7174 1223.89 546.234
1086 0 45.6707 33.7634 1542 11.7562 1227.77 543.071
1087 0 35.8334 38.9581 1396 11.6963 1225.27 544.539
1088 0 26.0182 45.8525 1193 11.6672 1224.97 547.379
1089 1 41.663 38.2834 1595 11.7411 1225.58 542.348
1090 0 46.3623 36.6893 1701 11.8877 1227.07 540.842
1091 0 38.4228 36.6189 1407 11.7612 1226.05 544.26
1092 0 30.6479 34.8148 1067 11.7123 1224.46 546.518
1093 0 40.5718 39.3623 1597 11.6068 1225.04 543.41
1094 0 35.5975 40.059 1426 11.5484 1223.89 544.027
1095 0 40.088 37.7669 1514 11.683 1224.77 543.72
1096 0 32.1611 46.6091 1499 11.5664 1224.93 544.64
1097 0 35.2945 31.5346 1113 11.5175 1224.61 548.011
1098 0 37.4853 44.8442 1681 11.3998 1222.41 543.381
1099 0 40.0179 42.1062 1685 11.4018 1221.43 543.293
1100 0 40.6814 39.3546 1601 11.6021 1220.75 543.314
1101 0 39.2407 32.2624 1266 11.8333 1222.64 545.357
1102 0 38.6965 31.5015 1219 11.7293 1220.1 545.61
1103 0 36.7183 37.4473 1375 11.5382 1221.63 545.446
1104 0 33.4458 27.8062 930 11.6398 1220.92 548.397
1105 0 36.0283 32.7798 1181 11.8815 1221.9 546.066
1106 0 35.3856 37.6142 1331 11.7363 1222.46 544.939
1107 0 38.155 36.2469 1383 11.8583 1222.77 544.274
1108 0 34.4882 37.868 1306 11.8461 1222.91 545.182
1109 0 34.7036 39.3043 1364 11.7713 1223.09 544.929
1110 0 32.0969 34.9878 1123 11.7703 1223.53 546.98
1111 0 41.4387 24.0596 997 11.7212 1224.4 548.84
1112 0 22.542 36.5984 825 11.6933 1221.33 549.538
1113 0 22.8191 38.8709 887 11.7666 1222 549.693
1114 0 22.5513 30.5526 689 11.7431 1221.71 551.28
1115 0 33.5194 40.305 1351 11.5774 1222.52 545.239
1116 0 41.3388 40.1076 1658 11.9276 1223.13 542.094
1117 0 40.1616 27.3396 1098 11.7523 1224 546.43
1118 0 39.0366 41.0896 1604 11.6852 1224 542.949
1119 0 51.6112 31.8729 1645 11.7781 1220.02 541.016
1120 0 42.3419 30.1829 1278 11.8654 1221.2 544.472
1121 1 22.3629 44.2697 990 11.8061 1223.22 548.766
1122 0 35.2462 32.7979 1156 11.5415 1221.87 546.803
1123 0 35.5263 39.6045 1407 11.7669 1220.59 544.534
1124 0 30.2223 40.3676 1220 11.5525 1220.56 546.693
1125 0 38.4546 25.9787 999 11.5976 1223.44 548.946
1126 0 24.2325 38.2956 928 11.5399 1222.67 549.364
1127 0 21.9355 40.7103 893 11.4838 1219.95 550.221
1128 0 30.4607 22.4552 684 11.5994 1223.16 551.547
1129 0 28.1518 25.327 713 11.6396 1223.67 551.345
1130 0 33.3754 23.2806 777 11.668 1224.7 551.014
1131 0 34.1086 31.8981 1088 11.4632 1224.06 548.251
1132 0 34.8197 41.6431 1450 11.5924 1224.18 544.345
1133 0 34.7982 35.0593 1220 11.5492 1221.6 546.55
1134 0 34.766 40.6144 1412 11.665 1223.23 543.88
1135 0 29.1008 43.9164 1278 11.6291 1222.67 546.293
1136 0 28.4087 41.6774 1184 11.7382 1222.29 546.442
1137 0 44.0837 35.0243 1544 11.6082 1221.32 543.766
1138 1 152.74 13.9845 2136 26.7678 1225.38 496.015
1139 0 153.328 21.666 3322 87.8561 1223.34 512.101
1140 0 153.209 13.7003 2099 27.6846 1225.04 491.426
1141 0 156.704 16.2216 2542 24.5684 1224.87 495.871
1142 0 156.22 14.4411 2256 26.3967 1225.6 490.094
1143 0 157.71 14.1843 2237 27.0398 1225.86 488.901
1144 1 115.637 8.31049 961 26.5754 1224.86 507.407
1145 0 112.839 10.1295 1143 25.2004 1225.62 511.564
1146 0 117.098 8.95835 1049 27.7903 1225.88 506.522
1147 0 116.116 8.73265 1014 29.0108 1226.3 504.037
1148 0 121.638 9.99686 1216 26.8372 1226.31 507.526
1149 1 37.1569 41.2575 1533 11.6119 1223.4 543.219
1150 0 30.3578 43.3168 1315 11.5726 1221.85 545.965
1151 0 39.1111 38.2756 1497 11.5691 1222.18 543.983
1152 0 44.3548 35.1259 1558 11.5854 1222.09 543.118
1153 0 40.2271 37.9098 1525 11.5646 1222.3 543.101
1154 0 40.5027 32.5658 1319 11.6118 1222.72 544.783
1155 0 37.3785 41.8155 1563 11.531 1223.97 543.662
1156 0 37.6256 33.1157 1246 11.3981 1226.58 546.788
1157 1 46.6222 35.8198 1670 11.7287 1225.48 541.347
1158 0 50.4797 32.1714 1624 11.6127 1224.05 542.161
1159 0 31.5758 41.7408 1318 11.648 1223.61 544.734
1160 0 36.8267 43.3653 1597 11.5592 1223.53 543.165
1161 0 28.5093 40.4078 1152 11.4679 1223.59 547.566
1162 0 41.3878 36.0492 1492 11.6441 1225.79 542.287
1163 0 30.0011 40.5319 1216 11.6266 1224.17 546.472
1164 0 58.6641 23.1828 1360 11.4779 1226.74 544.525
1165 0 54.8014 24.6527 1351 11.604 1227.39 543.866
1166 0 50.8486 26.9427 1370 11.4891 1228.66 544.443
1167 0 47.7498 34.0316 1625 11.6043 1225.02 542.366
1168 0 44.8968 29.0667 1305 11.5471 1226.8 545.101
1169 0 46.0562 38.3227 1765 11.6431 1225.49 541.484
1170 0 52.8118 29.6903 1568 11.8661 1225.82 542.106
1171 0 53.0298 33.5472 1779 11.6914 1222.81 540.678
1172 0 45.8503 41.2865 1893 11.7174 1225.32 539.329
1173 0 48.3622 36.5161 1766 11.637 1225.29 540.606
1174 0 39.1547 28.4257 1113 11.7646 1224.83 546.236
1175 0 47.9056 33.7957 1619 11.8258 1224.46 541.883
1176 1 27.5779 37.5664 1036 11.4894 1223.26 548.582
1177 0 20.0442 45.7488 917 11.4384 1225.09 549.884
1178 0 30.1275 30.9352 932 11.5032 1222.85 549.227
1179 0 28.1266 39.5355 1112 11.5513 1225.36 547.47
1180 0 36.8453 27.9547 1030 11.5437 1223.73 547.943
1181 0 32.7961 36.0409 1182 11.6244 1226.94 547.077
1182 0 30.6772 43.9414 1348 11.5423 1228.16 545.703
1183 0 36.7325 28.8028 1058 11.7079 1226.58 547.277
1184 0 32.4767 32.3925 1052 11.6854 1226.59 547.834
1185 0 32.5475 41.7236 1358 11.7165 1224.13 544.369
1186 0 45.8314 37.8561 1735 11.838 1226.25 541.854
1187 0 40.5734 40.3713 1638 11.8303 1224.7 541.26
1188 0 42.206 28.6216 1208 11.9603 1224.58 545.156
1189 0 43.6139 46.9117 2046 11.849 1224.54 539.972
1190 0 43.3168 36.1753 1567 11.8851 1224.5 541.849
1191 0 35.099 40.9413 1437 11.7523 1223.86 544.448
1192 0 34.2421 42.696 1462 11.8372 1223.07 544.072
1193 0 34.9044 46.4411 1621 11.6255 1222.37 543.591
1194 0 37.7146 35.1323 1325 11.6853 1222.45 544.424
1195 0 33.3655 43.3382 1446 11.8022 1223.39 544.925
1196 0 23.1482 42.4656 983 11.8535 1223.99 549.062
1197 0 32.9235 37.2986 1228 11.8632 1223.27 545.387
1198 0 38.8503 30.7848 1196 11.811 1224.46 546.691
1199 0 33.6299 28.0108 942 11.7505 1220.03 549.073
1200 0 38.8536 31.8889 1239 11.6651 1225.95 546.545
1201 0 37.9909 23.453 891 12.1223 1224.59 546.034
1202 0 34.9079 39.5899 1382 11.8119 1222.5 544.699
1203 0 32.0136 25.3955 813 11.9668 1219.87 549.117
1204 0 32.6332 41.2157 1345 11.8439 1222.54 544.981
1205 0 32.0531 39.7153 1273 11.934 1223.76 545.357
1206 0 40.8317 32.9156 1344 11.8244 1224.25 544.903
1207 0 39.0927 20.6433 807 11.7955 1224.51 549.995
1208 0 37.0183 24.4744 906 11.9018 1224.37 549.12
1209 0 44.3412 31.2576 1386 11.9141 1223.49 544.206
1210 1 36.3649 29.149 1060 11.6491 1222.95 548.414
1211 0 33.9394 36.624 1243 11.9397 1221.62 545.117
1212 0 32.8918 33.291 1095 11.6301 1225.34 547.838
1213 0 15.0425 48.529 730 11.7137 1223.05 551.642
1214 0 22.2144 38.6686 859 11.6473 1222.22 549.654
1215 0 10.5531 37.9035 400 11.575 1221.4 553.788
1216 1 31.4546 36.4017 1145 11.6978 1222.48 547.15
1217 0 35.576 33.1966 1181 11.746 1224.54 546.955
1218 0 30.7521 44.6473 1373 11.7218 1224.36 545.495
1219 0 50.4103 30.0335 1514 11.7701 1224.53 543.399
1220 0 41.9812 30.4898 1280 11.8562 1222.21 544.815
1221 0 31.7604 39.5462 1256 11.8248 1224.04 546.159
1222 0 40.9469 43.0557 1763 11.831 1222.33 541.302
1223 0 41.0226 35.907 1473 11.8479 1223.8 543.762
1224 0 41.1911 29.5938 1219 11.8655 1224.47 545.138
1225 0 51.7026 26.7685 1384 11.8092 1225.63 544.199
1226 0 39.2434 36.0061 1413 11.7665 1222.48 543.909
1227 0 28.3869 41.6389 1182 11.7462 1224.08 547.316
1228 0 37.0815 36.9996 1372 11.7369 1223.35 544.947
1229 0 34.6975 34.6135 1201 11.9592 1224.54 545.334
1230 1 27.1308 37.4114 1015 11.6611 1222.24 548.456
1231 0 27.4135 38.1199 1045 11.6019 1223.92 548.79
1232 0 43.6743 27.8424 1216 11.75 1227.16 545.865
1233 0 34.7594 45.5128 1582 11.7421 1225.15 543.76
1234 0 34.892 34.5065 1204 11.6811 1226.35 547.35
1235 0 24.5615 38.4748 945 11.654 1224.7 549.84
1236 0 24.5665 32.4018 796 11.6558 1223.18 550.962
1237 0 42.4852 20.313 863 11.7451 1228.04 549.688
1238 0 28.7632 20.9295 602 11.7558 1227.63 551.385
1239 0 26.7212 29.078 777 11.816 1223.36 550.68
1240 0 27.9637 31.7912 889 11.6985 1219.08 548.67
1241 0 27.4365 34.7348 953 11.7398 1220.63 549.253
1242 0 27.5032 32.4326 892 11.759 1222.38 549.138
1243 0 31.349 25.6467 804 11.8271 1222.77 550.098
1244 0 20.7881 45.6511 949 11.7555 1224.16 549.681
1245 0 34.6369 31.4116 1088 11.6645 1222.87 547.674
1246 0 41.3075 26.4359 1092 11.7537 1222.14 547.16
1247 0 38.6986 30.9572 1198 11.7846 1225.27 546.455
1248 0 24.5091 40.6379 996 11.6446 1226.45 549.078
1249 0 27.1726 26.0557 708 11.6102 1226.62 551.785
1250 0 24.6873 25.5597 631 11.5959 1220.72 551.361
1251 1 123.109 9.36567 1153 37.1969 1227.67 494.626
1252 0 122.703 10.4317 1280 35.1766 1228.3 499.498
1253 0 125.554 10.5851 1329 35.5884 1227.82 497.859
1254 0 128.611 10.3724 1334 37.6739 1228.45 493.352
1255 0 131.293 10.8612 1426 36.3022 1227.84 495.455
1256 0 131.264 11.4045 1497 36.5344 1227.99 493.645
1257 1 28.5818 40.7252 1164 11.7852 1225.28 547.437
1258 0 54.9564 24.292 1335 12.179 1226.69 543.599
1259 0 33.6415 30.0224 1010 11.8762 1223.33 548.735
1260 0 30.261 37.2096 1126 11.6936 1224.81 547.756
1261 0 39.8341 34.8194 1387 12.0267 1224.99 544.195
1262 0 35.2642 35.787 1262 11.7702 1225.02 546.417
1263 0 26.2272 44.6865 1172 11.8763 1225 547.244
1264 0 22.1029 38.6827 855 11.9181 1222.42 549.825
1265 0 32.6917 31.2924 1023 11.6794 1225.2 549.284
1266 0 39.1027 23.1697 906 11.819 1225.06 549.575
1267 0 24.6806 25.0805 619 11.9467 1225.06 551.569
1268 0 25.0749 31.4259 788 11.7931 1223.82 550.476
1269 0 19.5497 53.1466 1039 11.5948 1225.32 549.001
1270 0 19.3495 44.8074 867 11.6794 1225.25 549.89
1271 0 26.5974 33.913 902 11.8348 1225.26 549.774
1272 0 22.4535 40.3501 906 11.7274 1224.72 549.837
1273 0 24.5778 39.6293 974 11.7146 1223.61 548.801
1274 0 24.1653 44.4438 1074 11.7933 1226.32 548.373
1275 0 31.4156 40.203 1263 11.734 1225.1 546.682
1276 0 26.9534 40.403 1089 11.7815 1223.76 548.336
1277 0 44.1087 28.5431 1259 11.9666 1227.04 544.411
1278 0 32.6376 43.3856 1416 11.8538 1225.07 544.8
1279 0 28.0509 54.722 1535 11.673 1225.37 544.85
1280 0 29.2617 38.1728 1117 11.9015 1226.05 546.772
1281 0 35.6953 36.5034 1303 11.9194 1225.68 545.448
1282 0 23.4186 46.4589 1088 11.8943 1225.71 548.172
1283 0 38.3601 22.7841 874 11.7002 1227.4 550.207
1284 0 24.2548 29.5199 716 11.9302 1227.09 551.196
1285 0 25.8485 25.4173 657 11.8478 1225.59 551.9
1286 0 27.7074 25.0114 693 11.8817 1224.72 551.665
1287 0 24.1593 34.8934 843 11.8114 1225.57 550.229
1288 0 27.4732 30.5025 838 11.7494 1219.67 549.806
1289 0 21.1894 26.1451 554 11.8628 1220.67 552.179
1290 0 23.724 30.2647 718 11.8649 1220.18 551.06
1291 0 34.8212 30.4125 1059 11.8461 1221.89 547.085
1292 0 36.0502 29.5422 1065 11.8592 1221.9 547.782
1293 0 37.685 29.2689 1103 11.7561 1221.97 547.719
1294 0 37.0363 28.5396 1057 11.6887 1220.52 547.85
1295 0 33.3312 39.7526 1325 11.8392 1223.19 544.194
1296 0 35.9998 40.778 1468 11.8849 1223.75 544.322
1297 0 32.8307 42.978 1411 11.8349 1224.66 545.313
1298 0 35.2256 39.1477 1379 11.8231 1224.23 544.888
1299 0 47.9475 30.1997 1448 11.9178 1225.89 543.879
1300 1 17.6961 42.0433 744 11.8306 1224.51 550.81
1301 0 33.0463 33.7406 1115 11.7964 1224.3 547.709
1302 0 26.2302 39.3821 1033 11.7299 1225.85 548.527
1303 0 32.1883 41.5058 1336 11.7455 1223.43 545.629
1304 0 39.4065 43.4953 1714 11.9872 1224.85 541.845
1305 0 38.8802 29.0122 1128 12.0718 1225.69 546.16
1306 0 33.3162 37.009 1233 11.9294 1224.77 546.287
1307 0 33.9409 30.4648 1034 11.7524 1226.32 548.063
1308 0 29.5746 42.8408 1267 11.7522 1224.33 546.645
1309 0 46.2679 32.1821 1489 11.7589 1225.75 544.249
1310 0 36.0344 34.1341 1230 11.8748 1223.75 546.563
1311 0 36.2912 35.849 1301 11.8932 1225.35 545.611
1312 0 36.1195 27.935 1009 11.7899 1225.53 548.808
1313 0 17.2567 47.228 815 11.6687 1225.89 550.942
1314 1 42.3839 33.7157 1429 11.9727 1224.87 544.009
1315 0 31.7883 30.5773 972 11.8014 1224.18 548.972
1316 0 34.5237 37.1049 1281 11.8134 1225.55 545.427
1317 0 40.4794 35.9936 1457 11.9973 1224.68 543.224
1318 0 32.6543 44.4045 1450 11.7952 1224.73 543.949
1319 0 25.6071 47.9554 1228 11.7036 1224.22 547.064
1320 0 31.888 39.9209 1273 11.6646 1223.46 546.438
1321 0 35.383 46.1522 1633 11.7067 1224.25 542.587
1322 0 48.8277 33.1574 1619 12.1013 1225.33 541.335
1323 1 37.6612 27.4022 1032 11.7539 1221.44 547.296
1324 0 40.0231 27.709 1109 11.7457 1225.4 547.938
1325 0 37.8768 33.2657 1260 11.8524 1224.55 546.488
1326 0 34.7994 40.6904 1416 11.7846 1224.03 544.391
1327 0 27.2664 36.7853 1003 11.7029 1222.43 549.162
1328 1 139.885 11.2307 1571 40.3119 1227.51 485.703
1329 0 148.456 10.6766 1585 42.0088 1226.89 481.831
1330 0 147.928 10.6876 1581 44.0101 1227.45 479.741
1331 0 148.63 11.1889 1663 43.2766 1227.48 479.481
1332 1 79.1373 10.3238 817 59.9082 1229.24 448.693
1333 1 43.168 35.6283 1538 12.0917 1224.5 540.934
1334 0 43.626 36.1252 1576 11.9854 1225.08 542.47
1335 0 43.8013 37.282 1633 12.0239 1224.67 541.734
1336 0 32.4303 39.7159 1288 11.8393 1224.72 545.863
1337 0 36.2323 39.9368 1447 11.8549 1224.9 544.851
1338 0 45.5964 30.8796 1408 11.9418 1225.99 544.101
1339 0 49.6878 30.0476 1493 11.9973 1225.77 543.854
1340 0 41.7292 26.7438 1116 11.9283 1224.66 546.712
1341 0 36.915 39.0086 1440 11.8917 1223.76 544.879
1342 1 33.186 25.1009 833 11.8619 1227.49 550.272
1343 0 28.7642 36.5385 1051 11.8487 1223.75 547.982
1344 0 37.6359 34.5415 1300 11.9662 1225.19 544.868
1345 0 31.6167 40.0104 1265 11.9739 1224.79 546.676
1346 0 41.2159 36.5393 1506 12.0033 1226.57 543.224
1347 0 44.887 29.2289 1312 11.9665 1226.16 544.864
1348 0 47.5026 28.9037 1373 12.1056 1225.2 543.845
1349 0 46.1184 31.224 1440 12.1083 1226.54 543.949
1350 0 48.9451 25.5388 1250 12.1656 1225.5 544.429
1351 1 21.7224 42.3525 920 11.8924 1224.01 549.275
1352 0 29.7128 28.5062 847 11.9327 1222.29 549.76
1353 0 48.753 25.5369 1245 11.9406 1224.99 546.067
1354 0 32.9998 32.3638 1068 11.8174 1225.11 548.12
1355 0 22.764 40.2391 916 11.8188 1223.76 549.462
1356 0 36.969 34.7859 1286 11.7271 1223.55 545.976
1357 0 41.5474 35.3091 1467 12.1452 1224.62 542.348
1358 0 35.4376 36.261 1285 11.7346 1224.32 546.481
1359 0 34.0151 32.7501 1114 11.8043 1223.84 547.287
1360 0 27.1389 28.9989 787 12.014 1225.64 549.67
1361 0 28.1413 42.4643 1195 11.9456 1224.47 546.682
1362 0 28.4735 36.8061 1048 11.7719 1222.27 548.587
1363 1 115.352 8.32238 960 40.8615 1227.73 493.788
1364 0 118.429 9.13626 1082 38.5333 1227.43 496.507
1365 0 123.084 9.09134 1119 38.1591 1227.6 495.607
1366 0 122.666 8.55165 1049 41.5701 1226.92 489.576
1367 0 132.932 18.2198 2422 74.0103 1224.22 520.013
1368 0 130.293 9.38654 1223 40.0458 1225.91 493.731
1369 0 132.125 9.00664 1190 40.9042 1226.99 489.718
1370 1 47.7159 32.5468 1553 12.0296 1225.1 540.547
1371 0 39.8817 43.0272 1716 11.7768 1224.09 542.32
1372 0 47.9585 31.9235 1531 12.0777 1223.22 542.351
1373 0 42.3092 34.0825 1442 11.8294 1223.11 544.311
1374 0 40.2929 38.1208 1536 11.8275 1224.19 543.592
1375 0 41.1939 31.1454 1283 11.8379 1223.17 545.429
1376 1 20.3223 49.2561 1001 11.6124 1224.62 549.271
1377 0 35.3693 35.0304 1239 11.7111 1222.04 546.412
1378 0 22.1635 47.1497 1045 11.7292 1223.91 548.758
1379 0 28.566 39.4175 1126 11.8615 1221.21 547.078
1380 0 18.8303 37.4396 705 11.7277 1225.22 551.325
1381 0 31.419 41.058 1290 11.9225 1225.53 546.056
1382 0 40.929 33.6436 1377 11.9506 1224.74 544.908
1383 0 35.1885 41.775 1470 11.9653 1225.59 544.331
1384 0 24.8388 47.0232 1168 11.5771 1224.71 547.452
1385 0 38.5911 34.3343 1325 11.9291 1225.86 545.577
1386 0 36.8069 33.635 1238 11.7649 1224.35 546.178
1387 0 39.9644 34.2555 1369 11.9649 1223.67 543.804
1388 0 37.7967 37.9133 1433 11.873 1223.83 544.572
1389 0 37.2317 38.9184 1449 11.913 1224.05 543.863
1390 0 36.662 39.3868 1444 11.8442 1224.85 542.955
1391 0 47.7663 33.7686 1613 11.8896 1224.33 542.663
1392 0 35.8999 39.9723 1435 11.8662 1225.31 543.068
1393 0 36.8397 38.274 1410 11.8681 1226 543.936
1394 0 43.6372 34.191 1492 11.882 1226.22 543.536
1395 0 33.6253 38.245 1286 11.7691 1223.89 545.148
1396 1 52.8711 35.6906 1887 11.7928 1223.02 539.906
1397 0 38.2365 35.6727 1364 11.9391 1224.72 543.52
1398 0 47.1638 32.5674 1536 11.8268 1224.28 543.775
1399 0 49.4975 28.0418 1388 11.7558 1228.38 544.198
1400 0 33.5303 37.071 1243 11.6959 1226.53 546.549
1401 1 53.1811 28.2055 1500 11.782 1224.84 543.164
1402 0 28.7964 42.2622 1217 11.742 1225.52 545.943
1403 0 43.7505 35.1539 1538 11.8537 1225.09 543.343
1404 0 36.216 36.7793 1332 11.7823 1223.94 544.798
1405 0 46.2459 35.3112 1633 11.8359 1224.79 542.322
1406 0 42.7313 44.6745 1909 11.7805 1225.69 540.778
1407 0 49.4838 36.1533 1789 11.8485 1225.71 541.112
1408 0 39.6393 34.0319 1349 11.8184 1227.3 544.296
1409 0 34.0543 40.8465 1391 11.7275 1226.06 544.889
1410 1 56.5018 31.9813 1807 11.9463 1226.96 540.052
1411 0 57.8255 33.1341 1916 11.7902 1226.55 540.323
1412 0 38.7232 29.8271 1155 11.8554 1226.75 546.336
1413 0 41.454 35.9434 1490 11.6181 1226.44 544.153
1414 0 46.5228 35.0581 1631 11.8645 1228.35 541.472
1415 0 35.0819 41.8165 1467 11.7457 1227.53 544.114
1416 1 46.0755 35.1814 1621 11.8853 1225.91 540.984
1417 0 46.067 36.2298 1669 11.825 1227.26 542.172
1418 0 59.7735 32.0376 1915 11.8381 1227.25 538.877
1419 0 50.753 25.6931 1304 12.1189 1227.22 542.572
1420 0 42.4275 34.8359 1478 11.7429 1226.23 543.498
1421 0 35.4523 33.9893 1205 11.5228 1225.51 546.962
1422 0 42.0895 34.7593 1463 11.7437 1226.46 544.403
1423 0 46.3972 36.5755 1697 11.9028 1227.16 541.672
1424 0 49.1483 33.9381 1668 11.8519 1226.51 541.299
1425 0 45.3105 37.0775 1680 11.906 1226.05 540.879
1426 0 46.6222 36.8065 1716 12.0111 1225.26 539.743
1427 0 52.3019 35.4289 1853 11.9417 1224.81 539.726
1428 0 52.3385 35.92 1880 11.9021 1224.41 539.242
1429 0 52.0627 39.4524 2054 12.0015 1226.88 538.199
1430 0 46.3711 35.9707 1668 11.8064 1226.36 541.745
1431 0 45.6286 38.4189 1753 11.8266 1226.47 541.146
1432 1 46.9819 31.5015 1480 11.6486 1227.8 544.758
1433 0 40.9626 33.4207 1369 11.7977 1228.14 544.999
1434 0 31.9241 42.3192 1351 11.7432 1226.15 545.224
1435 0 48.1569 29.6323 1427 11.7877 1227.73 544.605
1436 0 41.8989 36.1824 1516 11.7856 1225.04 543.431
1437 1 35.2984 27.5083 971 11.7487 1226 549.088
1438 0 36.9413 29.3168 1083 11.6759 1226.5 548.049
1439 0 36.2986 38.4863 1397 11.6958 1224.8 544.854
1440 0 46.8509 34.4284 1613 11.7675 1225.13 542.79
1441 0 43.9027 31.9115 1401 11.8401 1225.88 543.849
1442 0 41.3706 48.2468 1996 11.759 1225.34 539.257
1443 0 52.9803 41.1285 2179 11.8031 1225.32 538.701
1444 0 39.8431 41.9395 1671 11.8648 1225.09 541.597
1445 0 38.9549 31.8317 1240 11.9008 1225.62 544.604
1446 0 34.4756 42.0297 1449 11.8075 1225.76 544.199
1447 0 32.6854 44.6071 1458 11.773 1225.7 544.477
1448 0 44.677 38.4985 1720 11.8169 1225.15 542.31
1449 0 32.3401 37.1056 1200 11.8558 1224.38 545.355
1450 0 36.0682 32.6326 1177 11.7239 1224.75 545.94
1451 0 49.1343 31.1595 1531 11.825 1224.72 543.253
1452 0 47.1388 24.7354 1166 11.7221 1226.68 546.704
1453 0 30.594 33.1111 1013 11.7808 1224.96 548.257
1454 0 28.9882 36.5666 1060 11.6387 1223.65 548.194
1455 0 38.4431 36.2094 1392 11.8053 1224.02 544.573
1456 0 29.5312 41.6847 1231 11.6629 1224.53 546.638
1457 0 26.8762 37.2449 1001 11.7313 1225.14 548.251
1458 0 24.8223 40.3669 1002 11.7944 1225.17 547.721
1459 1 126.952 10.9017 1384 34.0918 1227.17 496.087
1460 0 134.525 11.2395 1512 33.0337 1227.06 496.948
1461 0 130.919 9.96803 1305 37.2644 1228.23 487.652
1462 0 135.851 9.93 1349 37.685 1227.81 486.289
1463 0 137.182 10.4241 1430 36.5636 1227.61 487.794
1464 0 139.476 11.2421 1568 35.0676 1227.24 491.057
1465 0 140.679 10.8758 1530 36.8516 1227.27 486.484
1466 0 144.009 12.6451 1821 34.4476 1227.4 489.328
1467 1 36.7865 35.8827 1320 11.6561 1224.2 546.047
1468 0 34.4916 38.2412 1319 11.6914 1224.89 545.156
1469 0 40.4548 40.8357 1652 11.7512 1224.06 541.941
1470 0 47.6169 37.1297 1768 11.6301 1225.2 542.283
1471 0 34.6475 42.5139 1473 11.7733 1223.95 544.23
1472 0 33.8706 27.546 933 11.8039 1223.9 548.759
1473 0 27.3686 34.6017 947 11.6874 1225.53 549.183
1474 0 32.313 25.7482 832 11.8029 1224.81 549.361
1475 0 39.4615 28.7369 1134 11.8765 1224.56 545.795
1476 0 33.0623 29.2478 967 11.8397 1224.89 547.938
1477 0 25.0265 30.0881 753 11.5312 1226.26 551.603
1478 0 27.8831 33.3177 929 11.7567 1225.68 549.75
1479 0 29.0244 45.2723 1314 11.7329 1225.01 546.179
1480 0 36.9372 32.2168 1190 11.8849 1224.74 545.569
1481 0 34.2004 37.7773 1292 11.7299 1223.84 545.556
1482 0 40.2855 29.8867 1204 11.9576 1224.52 545.135
1483 0 28.1898 35.6512 1005 11.7303 1224.83 547.968
1484 0 32.4785 37.1631 1207 11.9528 1224.01 545.445
1485 0 37.9297 42.4733 1611 11.8051 1223.21 542.924
1486 0 32.595 40.0368 1305 11.6966 1223.19 546.312
1487 0 36.2198 38.8737 1408 11.6932 1222.77 545.341
1488 0 43.5678 32.8912 1433 11.8388 1223.19 543.627
1489 0 39.8307 36.2534 1444 11.9647 1223.73 543.471
1490 1 26.7224 38.2451 1022 11.8337 1223.15 548.02
1491 0 34.7702 38.4524 1337 11.6507 1222.78 545.97
1492 0 30.7937 37.7999 1164 11.8823 1224.24 546.637
1493 0 35.983 44.1876 1590 11.8774 1224.08 543.466
1494 0 44.8954 35.7943 1607 11.72 1224.55 542.734
1495 0 38.0368 39.1989 1491 11.841 1225.91 544.061
1496 0 28.284 47.6948 1349 11.7494 1225.15 545.786
1497 0 32.0968 35.611 1143 11.7804 1224.4 547.234
1498 0 24.7265 33.6885 833 11.7623 1226.34 550.574
1499 0 15.8635 35.7424 567 11.5714 1222.49 552.984
1500 1 39.3407 38.0014 1495 11.8575 1225.72 543.593
1501 0 38.0769 43.7798 1667 11.8344 1225.37 542.477
1502 0 43.1897 30.5628 1320 12.0091 1225.73 543.47
1503 0 30.1664 39.5804 1194 11.6307 1224.62 546.354
1504 0 39.833 37.3559 1488 11.8138 1224.95 543.8
1505 0 29.7826 43.3138 1290 11.6853 1225.72 545.429
1506 0 31.094 31.3887 976 11.7336 1225.46 548.317
1507 0 36.4998 38.0824 1390 11.6554 1223.77 545.123
1508 0 31.626 36.3941 1151 11.7333 1224.64 547.393
1509 0 32.7279 46.1075 1509 11.833 1224.8 543.678
1510 0 42.3817 37.0679 1571 11.9491 1225.73 542.721
1511 0 32.2482 39.9712 1289 11.7587 1225.39 546.366
1512 0 40.4053 29.8476 1206 11.743 1222.98 545.841
1513 0 42.2 27.654 1167 11.8243 1222.91 546.42
1514 0 40.8569 29.1994 1193 11.8189 1223.8 546.282
1515 0 41.0559 29.131 1196 11.7751 1223.72 546.645
1516 0 49.8711 24.5432 1224 11.9657 1223.82 545.365
1517 0 45.0354 37.6815 1697 12.0277 1225.7 541.529
1518 1 150.019 13.6316 2045 37.066 1227.77 484.04
1519 0 151.876 13.4386 2041 37.4571 1227.98 478.666
1520 0 154.981 15.3051 2372 34.9928 1227.45 482.947
1521 0 158.987 14.3345 2279 37.0158 1227.99 478.615
1522 0 160.46 15.3247 2459 36.3192 1228.01 481.701
1523 0 169.114 14.8893 2518 36.1096 1227.37 478.485
1524 1 45.0522 24.0388 1083 11.9566 1225.48 546.898
1525 0 32.213 31.7884 1024 11.8301 1222.61 548.31
1526 0 36.2456 39.2048 1421 11.9212 1224.27 543.517
1527 0 32.048 41.9994 1346 11.87 1226.27 545.174
1528 0 24.5616 41.3246 1015 11.6808 1224.82 548.257
1529 0 28.3563 36.394 1032 11.8207 1225.02 547.951
1530 0 30.0515 34.1747 1027 11.7167 1225.92 548.668
1531 0 26.0276 36.6149 953 11.8111 1225.05 549.609
1532 0 27.8545 32.7775 913 11.7426 1223.74 549.683
1533 0 24.155 30.6355 740 11.9419 1224.28 549.78
1534 0 18.0105 42.8639 772 11.7267 1224.98 550.83
1535 1 42.7538 37.5171 1604 12.0343 1224.73 542.344
1536 0 38.1625 36.9473 1410 11.9326 1223.71 544.614
1537 0 39.2001 27.2193 1067 11.7357 1223.22 548.04
1538 0 34.3651 31.8346 1094 11.8428 1224.65 548.047
1539 0 22.5913 35.3677 799 11.8185 1223.25 550.841
1540 0 22.5548 25.5822 577 11.8336 1223.23 552.08
1541 0 19.6866 42.2623 832 11.7572 1225.81 549.898
1542 0 21.5645 28.7973 621 11.8229 1225.85 551.857
1543 0 23.6311 38.5509 911 11.7574 1224.52 549.976
1544 0 20.7411 46.3814 962 11.9033 1223.79 549.497
1545 0 13.127 41.6699 547 11.5612 1222.12 553.514
1546 0 25.1168 40.8093 1025 11.8459 1223.27 548.531
1547 1 52.8743 25.2864 1337 12.0396 1226.96 544.526
1548 0 35.9169 41.2619 1482 11.9049 1225.7 543.031
1549 0 33.0668 38.8909 1286 11.8655 1224.05 546.38
1550 0 34.1248 46.7109 1594 11.8896 1224.62 543.303
1551 0 29.8463 34.4766 1029 11.8154 1225.9 548.626
1552 0 37.2517 25.8243 962 12.0114 1224.4 547.659
1553 0 27.356 36.5551 1000 11.825 1222.81 548.713
1554 0 36.7007 36.4843 1339 11.8335 1223.46 545.834
1555 0 27.497 43.8229 1205 11.8863 1224.37 547.003
1556 0 41.0497 31.9126 1310 11.8046 1222.7 545.897
1557 0 21.2376 49.2524 1046 11.87 1224.04 548.746
1558 0 29.8394 45.5772 1360 11.9419 1224.17 545.645
1559 0 35.9755 30.2984 1090 12.0826 1224.58 547.149
1560 0 35.1626 23.6046 830 11.9976 1223.27 548.806
1561 0 42.5012 29.9991 1275 11.9435 1224.32 545.344
1562 0 41.3753 46.477 1923 11.9459 1223.64 540.912
1563 0 38.4094 36.7098 1410 12.1199 1223.53 543.197
1564 0 49.0111 30.8909 1514 12.1136 1221.32 542.351
1565 0 41.4751 31.4165 1303 11.934 1220.61 545.093
1566 0 41.904 34.2688 1436 12.0996 1225.33 543.17
1567 0 39.0669 42.9264 1677 11.8939 1225.05 542.838
1568 0 48.2094 30.5334 1472 11.998 1224.02 544.045
1569 0 44.4571 31.2661 1390 12.205 1224.29 541.699
1570 0 55.2655 21.7495 1202 12.1722 1224.21 545.128
1571 0 47.3221 26.943 1275 11.8792 1222.37 545.213
1572 0 26.6327 37.623 1002 11.8693 1221.33 548.1
1573 1 135.724 9.92454 1347 38.3608 1225.67 492.76
1574 0 133.067 9.57413 1274 40.6633 1225.31 487.904
1575 0 135.581 10.5399 1429 38.837 1225.18 490.528
1576 0 136.16 10.5685 1439 39.501 1225.86 487.081
1577 0 139.847 10.6759 1493 39.4923 1226.01 485.857
1578 0 142.776 11.6406 1662 36.6083 1225.7 490.421
1579 0 146.37 10.125 1482 41.3077 1225.78 479.88
1580 0 145.92 11.7324 1712 38.6443 1225.53 486.195
1581 0 152.136 11.378 1731 39.9168 1225.6 481.504
1582 0 154.148 11.3462 1749 39.9851 1226.16 479.55
1583 1 29.0064 44.7487 1298 11.8097 1222.08 546.297
1584 0 41.4981 36.58 1518 11.8241 1223.24 543.796
1585 0 26.0266 40.6123 1057 11.8165 1222.24 548.343
1586 0 43.4127 30.521 1325 11.8732 1223.67 545.706
1587 0 39.2375 42.6632 1674 11.9707 1224.46 541.854
1588 0 39.7547 44.4978 1769 11.879 1222.72 541.254
1589 0 39.5397 34.1935 1352 12.0096 1223.27 544.445
1590 0 39.9596 32.6079 1303 11.9563 1224.24 544.717
1591 0 48.6484 38.4185 1869 12.1241 1224.16 540.068
1592 0 47.5574 37.0289 1761 12.0829 1224.48 540.667
1593 0 46.3353 38.4588 1782 12.0741 1224.03 540.978
1594 1 38.182 32.2141 1230 11.7976 1224.92 546.697
1595 0 35.3185 29.4463 1040 11.825 1223 547.931
1596 0 37.1994 40.2694 1498 12 1224.13 543.796
1597 0 42.1042 30.4958 1284 11.8481 1223.91 545.612
1598 0 26.2473 41.7186 1095 11.6018 1223.1 548.608
1599 0 29.157 28.4666 830 11.9253 1223.6 549.88
1600 0 25.8402 43.4207 1122 11.7246 1222.8 547.851
1601 0 31.0916 35.2506 1096 11.7135 1224.19 548.109
1602 0 29.3339 30.1358 884 11.7002 1226.13 549.684
1603 0 26.7678 32.0161 857 11.706 1222.34 550.1
1604 0 18.3589 43.9569 807 11.7608 1222.02 550.745
1605 0 22.0271 42.1754 929 11.8881 1222.63 549.349
1606 0 21.1841 40.7381 863 11.8841 1221.85 549.658
1607 0 24.6469 42.7234 1053 11.9231 1221.24 548.209
1608 0 21.1061 27.3381 577 11.8873 1223.39 551.9
1609 0 40.3905 34.2407 1383 11.9009 1221.8 545.003
1610 0 36.3133 39.4896 1434 11.8494 1223.58 544.338
1611 0 42.3188 32.137 1360 11.9199 1223.14 545.054
1612 0 33.5136 36.97 1239 11.912 1223.71 545.571
1613 0 32.1232 40.5937 1304 11.9225 1223.39 545.496
1614 0 53.4211 30.7369 1642 11.9635 1221.59 541.688
1615 0 44.3253 38.9845 1728 12.0938 1221.94 541.341
1616 0 48.0194 32.2162 1547 12.108 1223.92 541.482
1617 0 39.9919 30.6062 1224 12.0645 1223.74 544.332
1618 0 39.3152 44.1813 1737 11.9113 1223.15 541.878
1619 0 44.4074 20.402 906 12.0949 1223.39 547.862
1620 0 40.2931 35.0432 1412 11.9618 1223.25 544.14
1621 0 33.0016 40.3919 1333 11.85 1222.4 545.554
1622 0 32.9561 33.8632 1116 11.9229 1224.34 547.568
1623 0 33.277 48.9828 1630 11.7 1223.5 543.809
1624 0 34.9233 37.9116 1324 11.8686 1223.5 544.951
1625 0 24.7582 46.0454 1140 11.9044 1223.49 547.557
1626 0 33.9805 39.5521 1344 11.9501 1222.11 545.205
1627 0 37.0229 37.3012 1381 11.8726 1221.46 544.768
1628 0 30.7937 37.118 1143 11.9528 1223.25 546.925
1629 0 20.1466 36.1351 728 11.7363 1223.64 550.683
1630 0 13.1286 23.4602 308 12.026 1220.73 554.182
1631 0 18.568 30.8057 572 11.8042 1221.79 552.806
1632 0 16.5377 34.5271 571 11.8984 1222.73 552.834
1633 0 17.3895 41.8069 727 12.0275 1222.08 551.481
1634 0 17.6562 47.9152 846 11.6761 1222.49 550.424
1635 0 9.05099 52.5909 476 11.5861 1223.46 554.198
1636 0 29.2445 24.5516 718 11.7409 1218.08 550.68
1637 0 28.1124 24.5087 689 11.9245 1223.19 551.042
1638 0 20.7914 26.9342 560 11.7857 1221.81 552.109
1639 0 20.7447 31.7672 659 11.613 1225.58 552.124
1640 0 24.4622 42.024 1028 11.642 1225.1 548.818
1641 0 30.885 37.2996 1152 11.7231 1222 546.257
1642 0 40.0944 27.6846 1110 11.8081 1224.03 547.171
1643 0 43.7673 32.8556 1438 11.7093 1221.33 544.695
1644 0 26.9934 22.7463 614 11.855 1223.72 551.274
1645 0 45.1134 38.104 1719 11.8051 1223.5 542.162
1646 0 45.7409 26.0161 1190 12.0773 1224.32 544.776
1647 0 41.1272 35.4753 1459 11.7903 1222.38 543.966
1648 0 38.4478 29.2084 1123 11.7649 1223.6 547.76
1649 0 34.7528 30.7314 1068 11.7996 1223.34 547.9
1650 0 40.5086 29.969 1214 11.7784 1220.46 545.516
1651 0 31.4844 41.9573 1321 11.623 1221.86 545.594
1652 0 34.9928 32.0066 1120 11.6804 1223.67 547.547
1653 0 37.0748 34.4438 1277 11.8332 1223.87 545.554
1654 0 36.3739 36.977 1345 11.719 1222.63 544.872
1655 0 31.0218 54.0265 1676 30.3813 1221.07 542.864
1656 0 24.0263 43.9103 1055 11.6815 1220.39 548.064
1657 0 23.4705 45.3761 1065 11.5549 1221.77 548.139
1658 0 21.4786 48.0479 1032 11.562 1223.39 548.72
1659 0 30.6162 31.356 960 11.6625 1223.03 549.342
1660 0 32.6375 41.5473 1356 11.6873 1223.64 545.602
1661 0 36.6259 42.7294 1565 11.6486 1222.8 543.095
1662 0 38.7088 39.2418 1519 11.7031 1223.27 543.244
1663 0 34.6692 38.9972 1352 11.6302 1222.52 545.121
1664 0 40.8513 25.8743 1057 11.5799 1224.31 547.961
1665 0 20.3135 52.0835 1058 11.4679 1221.8 548.888
1666 0 21.3366 44.3839 947 11.6103 1222.95 549.747
1667 0 19.6403 34.9792 687 11.7147 1225.23 550.958
1668 0 19.9106 42.1885 840 11.5119 1223.19 549.564
1669 0 19.3769 45.5696 883 11.4757 1222.21 550.129
1670 0 17.5164 48.9827 858 11.4103 1222.23 550.597
1671 0 19.2819 38.4818 742 11.6388 1220.76 551.03
1672 1 43.1285 39.3243 1696 11.7282 1223.05 541.884
1673 0 39.1964 40.1567 1574 11.709 1222.14 543.168
1674 0 36.6048 42.59 1559 11.6337 1223.75 543.485
1675 0 42.0112 39.0134 1639 11.651 1223.16 542.265
1676 0 28.2108 40.1265 1132 11.5786 1222.21 547.284
1677 0 31.2628 35.8893 1122 11.6426 1223.56 547.354
1678 0 36.0642 32.8581 1185 11.6051 1222.34 546.7
1679 0 43.6716 29.3555 1282 11.748 1223.86 545.303
1680 0 46.2761 35.3963 1638 11.7479 1222.6 541.626
1681 1 18.5432 33.4894 621 11.3172 1217.85 552.208
1682 0 19.851 26.9005 534 11.4082 1221.49 553.322
1683 0 15.1682 37.0513 562 11.3523 1221.14 553.119
1684 0 15.8504 35.772 567 11.4021 1220.9 553.011
1685 0 20.9438 26.8815 563 11.5773 1224.52 552.467
1686 0 17.1342 20.3686 349 11.7679 1222.94 553.948
1687 0 22.4649 37.5698 844 11.3969 1224.12 550.216
1688 0 28.3351 38.3976 1088 11.5561 1224.88 547.569
1689 0 35.3811 35.6122 1260 11.5802 1222.16 546.185
1690 0 43.5699 37.5718 1637 11.5547 1222.97 542.574
1691 0 48.5517 23.8715 1159 11.5039 1223.27 546.569
1692 0 44.7425 30.3514 1358 11.6591 1222.6 544.017
1693 0 40.7912 39.3957 1607 11.4182 1221.69 543.393
1694 0 57.5484 23.7192 1365 11.7289 1221.46 542.364
1695 0 40.4128 33.8754 1369 11.5172 1221.73 544.817
1696 0 32.381 35.8852 1162 11.5207 1224.5 546.709
1697 0 35.8508 30.5154 1094 11.4506 1225.03 548.028
1698 1 172.16 15.9735 2750 24.7545 1227.44 486.707
1699 0 172.598 19.0384 3286 22.6671 1227.33 487.705
1700 1 126.919 11.858 1505 23.196 1227.91 502.827
1701 0 127.253 11.4968 1463 23.5995 1227.48 500.796
1702 0 128.71 12.6486 1628 22.5928 1227.64 505.178
1703 0 130.492 11.0122 1437 24.872 1228.11 496.497
1704 0 134.171 12.0592 1618 24.1557 1228.9 499.712
1705 0 141.306 12.2075 1725 24.4388 1228.46 499.489
1706 0 139.918 14.244 1993 23.6834 1227.7 501.163
1707 0 140.71 13.9578 1964 24.0672 1227.49 500.274
1708 0 140.532 13.7691 1935 24.1953 1227.53 497.689
1709 0 147.04 15.3292 2254 22.9361 1227.09 500.406
1710 0 154.661 13.9401 2156 23.859 1226.52 496.062
1711 0 147.489 14.6655 2163 24.3749 1227.85 495.356
1712 0 154.531 13.4795 2083 25.3908 1227.63 489.185
1713 1 34.2172 34.5148 1181 11.3573 1225.02 546.482
1714 0 33.5383 45.053 1511 11.4037 1225 544.218
1715 0 49.9321 27.2169 1359 11.4805 1227.44 543.706
1716 0 41.4776 29.2929 1215 11.5177 1224.78 545.989
1717 0 22.2603 40.296 897 11.2598 1224.6 550.147
1718 0 31.4439 25.4104 799 11.2728 1228.27 550.954
1719 0 35.6154 36.7537 1309 11.3056 1226.81 546.607
1720 0 48.0984 30.4376 1464 11.4112 1226.09 544.873
1721 0 38.3996 41.8754 1608 11.3937 1226.25 542.997
1722 0 37.5754 39.7601 1494 11.4726 1223.74 543.485
1723 0 33.1316 36.4003 1206 11.4337 1225.39 546.412
1724 0 38.9098 48.3683 1882 11.3661 1225.36 541.488
1725 0 37.8293 48.8511 1848 11.3355 1225.51 541.378
1726 0 40.9207 33.7237 1380 11.4239 1226.4 543.886
1727 0 40.611 29.7702 1209 11.2936 1224.8 546.91
1728 0 30.7861 45.7998 1410 11.3376 1225.68 545.207
1729 0 23.5357 51.2837 1207 11.2345 1225.71 547.572
1730 0 16.0771 49.1381 790 11.2354 1225.85 551.015
1731 1 51.1929 30.4925 1561 11.4273 1227.72 543.401
1732 0 41.9297 37.7536 1583 11.4327 1224.58 543.454
1733 0 39.09 39.0638 1527 11.5206 1224.64 542.978
1734 0 63.8683 26.2102 1674 11.5657 1224.9 541.523
1735 0 50.279 28.9783 1457 11.5806 1224.45 542.415
1736 0 48.36 32.0099 1548 11.5149 1224.53 542.36
1737 0 35.2171 40.3781 1422 11.5387 1226.65 544.844
1738 0 36.5401 38.2046 1396 11.4427 1226.37 545.338
1739 0 30.5405 40.4708 1236 11.3811 1227.04 546.415
1740 0 54.6127 26.4407 1444 11.5132 1230.25 542.54
1741 0 39.6123 36.731 1455 11.4089 1226.3 543.995
1742 0 46.5852 26.897 1253 11.3863 1229.73 545.852
1743 0 38.542 39.3337 1516 11.597 1225.93 542.635
1744 0 27.9967 40.0762 1122 11.5223 1226.49 546.938
1745 0 37.1975 33.8195 1258 11.5095 1226.12 544.901
1746 0 41.6872 41.2356 1719 11.402 1225.26 542.528
1747 0 34.1368 46.1379 1575 11.2146 1223.6 544.25
1748 0 44.1189 33.0698 1459 11.3742 1227.48 544.314
1749 0 47.607 34.7008 1652 11.2427 1227.85 543.646
1750 0 32.3768 20.7556 672 11.4345 1227.11 550.909
1751 0 26.9629 28.6319 772 11.5466 1226.46 550.74
1752 0 42.9289 33.6137 1443 11.4595 1225.65 544.141
1753 0 50.5516 30.3254 1533 11.4188 1228.6 544.002
1754 0 41.8477 29.3923 1230 11.4935 1227.81 545.049
1755 0 30.0586 38.2253 1149 11.4856 1225.85 547.386
1756 0 30.8177 37.3486 1151 11.6064 1224.32 546.183
1757 0 28.4436 52.6657 1498 11.3478 1225.26 544.962
1758 0 30.2266 42.1152 1273 11.5734 1226.1 546.377
1759 0 35.3929 39.4429 1396 11.5602 1227.06 544.737
1760 0 44.3084 34.5984 1533 11.486 1226.16 543.755
1761 0 40.4093 40.8817 1652 11.5448 1224.35 542.106
1762 0 47.6825 35.9671 1715 11.691 1225.94 541.886
1763 0 45.1531 36.0551 1628 11.551 1223.78 542.462
1764 0 32.1258 39.0029 1253 11.6081 1223.63 545.943
1765 0 34.8271 30.7519 1071 11.4846 1225.79 548.426
1766 0 23.1842 47.446 1100 11.36 1224.21 548.639
1767 0 23.4532 41.7427 979 11.3871 1224.49 549.3
1768 0 22.3731 48.3617 1082 11.4085 1224.26 548.598
1769 0 21.8707 37.2644 815 11.546 1223.7 549.655
1770 0 41.2765 23.5001 970 11.4351 1226.05 548.668
1771 0 38.366 25.4131 975 11.4205 1225.77 548.784
1772 1 44.196 34.2112 1512 11.5278 1223.04 543.915
1773 0 34.227 46.3668 1587 11.6875 1224.04 543.351
1774 0 34.6199 40.1792 1391 11.5996 1223.83 545.317
1775 0 27.6854 39.8766 1104 11.596 1223.42 547.288
1776 0 27.2439 39.2382 1069 11.565 1224.75 547.761
1777 0 35.0432 39.38 1380 11.5087 1222.57 545.781
1778 0 33.9528 36.9631 1255 11.7084 1221.61 546.149
1779 0 42.176 22.5247 950 11.6084 1226.86 548.414
1780 1 154.528 12.6255 1951 31.1876 1226.56 481.904
1781 0 157.036 12.6977 1994 31.4373 1227.1 482.196
1782 0 156.564 12.9788 2032 31.7702 1227.11 480.723
1783 0 159.63 14.0575 2244 30.6872 1227.13 482.659
1784 1 112.325 9.08973 1021 30.0676 1227.14 504.007
1785 0 118.758 10.2225 1214 28.3064 1226.54 505.571
1786 0 117.395 10.3667 1217 28.9154 1226.82 504.887
1787 0 119.154 10.2221 1218 29.7381 1226.51 501.945
1788 0 121.532 11.0589 1344 28.8839 1227.13 504.295
1789 0 121.317 10.3036 1250 29.6336 1227.44 499.08
1790 0 126.932 11.9828 1521 28.0158 1227.21 503.064
1791 1 34.3277 38.0742 1307 11.3451 1226.29 545.831
1792 0 50.8077 33.6563 1710 11.6082 1225.68 541.201
1793 0 49.5371 37.2448 1845 11.6602 1225.11 540.057
1794 0 42.0308 35.8309 1506 11.6461 1223.56 543.452
1795 0 50.3566 32.6472 1644 11.5535 1223.89 543.024
1796 0 49.4558 27.3578 1353 11.6837 1227.24 544.429
1797 0 33.0399 43.5534 1439 11.4767 1225.41 544.892
1798 0 37.9628 25.5513 970 11.5227 1227.79 548.707
1799 0 30.2709 25.6021 775 11.3406 1227.69 550.957
1800 0 43.6927 28.8377 1260 11.4984 1229.22 546.681
1801 0 40.6424 25.1954 1024 11.5518 1225.83 547.903
1802 1 40.8055 39.1123 1596 11.6842 1225.54 542.689
1803 0 35.3509 40.9042 1446 11.6521 1226.11 544.276
1804 0 31.131 43.5578 1356 11.5833 1225.13 545.057
1805 0 46.9639 31.0664 1459 11.7868 1225.09 544.122
1806 0 43.3776 32.39 1405 11.6733 1225.78 544.233
1807 0 33.8622 44.2972 1500 11.5127 1225.16 544.655
1808 0 42.0417 35.2983 1484 11.6442 1225.87 543.525
1809 0 37.4323 39.1641 1466 11.7544 1227.13 543.093
1810 0 37.4954 39.9249 1497 11.6754 1226.74 543.614
1811 0 44.9951 36.2928 1633 11.624 1224.65 542.245
1812 0 38.9193 36.5115 1421 11.7586 1226.3 543.383
1813 0 44.8442 34.2965 1538 11.5234 1224.17 544.291
1814 0 51.7361 28.8194 1491 11.5842 1228.38 543.736
1815 0 31.5848 27.9565 883 11.6682 1226.4 548.626
1816 0 35.09 27.7002 972 11.643 1226.84 548.37
1817 0 27.8924 46.5359 1298 11.6579 1227.07 546.317
1818 0 39.7861 37.8524 1506 11.7271 1226.76 543.249
1819 0 47.6429 34.9265 1664 11.7356 1227.58 541.836
1820 1 35.1224 27.9024 980 11.7092 1224.55 548.328
1821 0 33.8291 43.0695 1457 11.6156 1225.86 543.802
1822 0 43.1495 39.1893 1691 11.628 1225.99 542.581
1823 0 30.7256 39.6087 1217 11.5094 1227.8 547.078
1824 0 36.8266 36.8484 1357 11.6028 1224.4 545.158
1825 0 43.6581 32.3881 1414 11.9215 1225.77 543.341
1826 1 32.5354 25.4185 827 11.5272 1229.07 550.038
1827 0 33.8941 34.8143 1180 11.5297 1227.4 547.394
1828 0 23.0571 38.2095 881 11.6595 1226.29 549.864
1829 0 33.254 28.3274 942 11.7229 1224.22 548.391
1830 0 33.7988 41.8654 1415 11.5724 1226.18 545.273
1831 0 36.1898 31.2243 1130 11.7717 1224.35 547.157
1832 0 32.1832 25.417 818 11.6504 1225.26 549.945
1833 0 42.9335 35.031 1504 11.742 1227.99 544.523
1834 0 40.1377 27.9787 1123 11.7133 1226.77 547.035
1835 0 36.8122 29.6369 1091 11.8433 1225.03 546.807
1836 0 42.7375 29.9035 1278 11.6448 1224.16 545.924
1837 0 46.3065 32.2849 1495 11.6542 1227.55 544.065
1838 0 35.7709 32.0372 1146 11.7539 1226.02 546.685
1839 0 39.9275 33.8364 1351 11.6528 1224.14 545.141
1840 0 27.8712 43.0192 1199 11.5922 1223.88 546.771
1841 0 43.138 35.9775 1552 11.7229 1224.44 543.482
1842 0 33.7328 30.2376 1020 11.6843 1221.89 547.217
1843 0 41.4352 33.9566 1407 11.8642 1226.7 544.473
1844 1 151.497 14.8914 2256 29.7394 1229.22 488.462
1845 0 157.864 12.2954 1941 34.6857 1229.31 475.835
1846 0 159.287 13.3407 2125 32.2028 1229.18 478.968
1847 0 165.44 14.4584 2392 30.8252 1228.72 483.928
1848 1 113.166 9.68489 1096 30.1369 1228.16 505.509
1849 0 120.303 9.86679 1187 29.4423 1228.71 506.072
1850 0 117.688 9.44018 1111 31.7201 1227.64 501.503
1851 1 35.839 32.4507 1163 11.5426 1226.82 546.647
1852 0 39.7234 41.789 1660 11.5434 1226.47 543.07
1853 0 50.8958 25.1494 1280 11.6625 1227.55 544.258
1854 0 27.2168 28.4383 774 11.7494 1227.87 549.824
1855 0 26.2254 42.2873 1109 11.4905 1225.16 547.714
1856 0 41.2014 28.2029 1162 11.457 1226.21 547.65
1857 0 24.0675 38.6414 930 11.5161 1226.16 549.406
1858 0 25.4556 34.2165 871 11.4914 1227.03 550.336
1859 0 28.5369 31.9587 912 11.4956 1225.75 550.182
1860 0 21.8555 40.1271 877 11.3318 1222.74 550.011
1861 0 32.0236 38.0032 1217 11.5982 1223.63 546.466
1862 0 42.845 31.2288 1338 11.5725 1222.74 545.676
1863 0 43.2896 33.5646 1453 11.6518 1224.67 544.701
1864 0 37.9364 40.4361 1534 11.6141 1226.94 543.913
1865 0 47.2393 30.2714 1430 11.6713 1224.65 543.783
1866 0 36.733 41.9241 1540 11.7279 1225.35 542.94
1867 0 44.7489 36.4702 1632 11.6746 1225.51 542.683
1868 0 44.7319 29.1068 1302 11.6029 1223.42 545.427
1869 0 47.6275 36.0926 1719 11.5905 1225.46 542.462
1870 0 39.0821 43.2679 1691 11.7694 1227.49 541.768
1871 0 35.0977 33.9623 1192 11.6032 1228.21 546.346
1872 0 37.225 35.8898 1336 11.5681 1224.77 545.101
1873 0 28.6968 42.7225 1226 11.5661 1227.26 546.436
1874 0 36.9795 40.3738 1493 11.6055 1225.6 544.03
1875 0 35.0493 42.5116 1490 11.5785 1226.36 543.482
1876 0 37.1117 45.4304 1686 11.4941 1226.75 542.628
1877 0 44.1374 41.9146 1850 11.5346 1227.37 541.061
1878 0 38.7296 32.43 1256 11.4841 1228.45 546.784
1879 0 27.0931 32.4067 878 11.3166 1229.11 550.244
1880 0 24.4395 29.4605 720 11.4347 1228.79 551.194
1881 0 21.1688 43.9326 930 11.386 1227.74 549.267
1882 0 25.2456 37.5511 948 11.3914 1223.71 549.52
1883 0 24.2102 37.9178 918 11.3322 1225.8 549.686
1884 0 24.8397 32.1663 799 11.3942 1226.86 550.845
1885 0 21.7861 36.4911 795 11.483 1227.35 550.601
1886 0 19.5499 37.4426 732 11.4495 1227.34 551.029
1887 1 160.912 14.2376 2291 31.0218 1231.49 482.911
1888 0 167.222 13.8259 2312 32.0017 1231 476.033
1889 0 169.156 14.1171 2388 31.1336 1231.22 477.704
1890 0 175.074 14.6395 2563 30.8533 1231.68 476.29
1891 0 175.3 15.9955 2804 29.9758 1231.79 478.592
1892 0 180.708 16.5295 2987 29.7174 1231.5 478.355
1893 0 184.14 16.5254 3043 29.6756 1231.67 475.177
1894 0 186.878 16.5562 3094 30.3607 1231.23 473.397
1895 0 193.262 17.7221 3425 29.6079 1231.42 473.755
1896 0 196.375 15.7912 3101 31.9797 1231.55 465.659
1897 1 121.118 9.37926 1136 28.7685 1230.39 505.522
1898 0 123.024 9.89236 1217 29.0296 1231.07 502.017
1899 0 124.028 9.94128 1233 30.0041 1230.73 499.569
1900 0 128.865 11.741 1513 28.0502 1231.2 502.759
1901 0 126.219 10.6006 1338 30.3505 1231.49 494.905
1902 0 126.543 11.4823 1453 28.6235 1230.19 498.532
1903 0 136.21 11.6951 1593 27.516 1230.03 497.582
1904 0 133.423 13.356 1782 26.7587 1229.81 499.808
1905 0 133.99 12.5084 1676 28.2757 1229.91 495.343
1906 0 141.612 12.3224 1745 28.4711 1229.69 492.919
1907 0 144.071 11.3347 1633 29.8322 1229.73 489.067
1908 0 146.31 12.7948 1872 28.4017 1229.44 492.644
1909 0 146.412 14.1928 2078 27.3152 1228.95 493.521
1910 0 147.895 15.058 2227 26.4329 1228.2 492.883
1911 0 152.334 15.0459 2292 26.7051 1228.64 491.536
1912 0 157.671 14.8157 2336 27.2654 1228.69 490.16
1913 0 158.051 12.9009 2039 30.0986 1229.35 480.545
1914 0 159.284 14.5777 2322 28.2059 1229.28 486.586
1915 1 43.3329 36.6927 1590 11.5692 1228.19 542.811
1916 0 47.9102 34.1263 1635 11.7046 1226.02 541.771
1917 0 39.9508 38.7226 1547 11.5288 1226.82 543.246
1918 0 38.4305 31.3033 1203 11.4456 1225.7 546.835
1919 0 26.1974 44.6609 1170 11.2368 1226.87 547.978
1920 0 27.2518 36.5113 995 11.4201 1230.01 547.947
1921 0 28.0656 32.816 921 11.3974 1227.63 549.106
1922 0 28.3918 22.8939 650 11.5185 1226.84 551.806
1923 0 33.2645 27.3866 911 11.4061 1229.25 548.675
1924 0 39.6044 29.3402 1162 11.3382 1229.52 547.75
1925 0 34.5949 35.5833 1231 11.2941 1227.57 546.884
1926 0 49.541 33.1443 1642 11.3654 1228.33 542.958
1927 0 42.4073 28.9337 1227 11.313 1227.96 546.189
1928 0 37.765 37.7863 1427 11.3896 1227.81 545.013
1929 0 35.0041 37.7099 1320 11.3076 1227.13 545.092
1930 0 42.0556 39.9472 1680 11.3024 1227.12 542.605
1931 0 40.8222 32.5558 1329 11.4108 1228.42 545.403
1932 0 49.893 36.2576 1809 11.1863 1228.5 542.515
1933 0 49.1342 30.8339 1515 11.3155 1227.41 544.315
1934 0 41.9373 34.3608 1441 11.3588 1228.8 544.238
1935 0 41.7869 40.4672 1691 11.3128 1228.27 542.41
1936 0 48.8561 28.7988 1407 11.4705 1227.84 543.319
1937 0 52.3528 32.0518 1678 11.3784 1229.39 542.237
1938 0 44.9856 37.1675 1672 11.4109 1228.63 541.101
1939 0 16.1691 30.7995 498 11.3474 1227.16 553.532
1940 0 18.3384 28.9557 531 11.3484 1228.82 552.989
1941 0 13.6619 30.6693 419 11.3484 1227.85 554.129
1942 0 50.5681 32.5897 1648 11.3143 1227.79 542.288
1943 0 58.329 29.4536 1718 11.2654 1229.06 541.558
1944 0 56.4703 31.4502 1776 11.1976 1228.97 541.756
1945 0 45.1772 36.1687 1634 11.3923 1227.11 541.431
1946 0 47.5943 38.6181 1838 11.327 1226.78 541.051
1947 0 47.7387 34.7936 1661 11.3149 1226.43 542.09
1948 0 45.9512 36.9957 1700 11.4194 1227.64 542.092
1949 0 52.7993 35.0194 1849 11.4116 1228.29 540.118
1950 0 59.9994 30.367 1822 11.3836 1226.94 540.902
1951 0 53.9292 35.936 1938 11.3545 1228.19 539.58
1952 0 47.1659 45.4141 2142 11.3945 1228.41 538.527
1953 0 49.4897 36.2298 1793 11.4228 1227.96 540.371
1954 0 54.748 33.8277 1852 11.2759 1229.11 540.855
1955 0 47.0985 38.9184 1833 11.4375 1228.4 539.547
1956 1 51.8067 27.0042 1399 11.3924 1229.35 544.684
1957 0 24.2725 42.9704 1043 11.3126 1229.79 548.161
1958 0 42.4224 30.4085 1290 11.3791 1229.59 544.922
1959 0 46.1773 32.202 1487 11.3006 1230.47 544.036
1960 0 33.069 41.1261 1360 11.2846 1227.96 545.713
1961 0 35.7631 46.1089 1649 11.3645 1226.55 542.939
1962 0 42.1956 28.6049 1207 11.4689 1228.53 545.759
1963 0 45.1348 29.2236 1319 11.5262 1228.65 544.236
1964 0 39.4894 34.7689 1373 11.3467 1228.82 545.136
1965 0 44.3607 40.3961 1792 11.4235 1227.56 541.159
1966 0 43.1676 39.2887 1696 11.5607 1228.55 541.136
1967 0 38.8844 35.0269 1362 11.3583 1228.87 545.164
1968 0 44.6149 33.1279 1478 11.2997 1226.26 544.656
1969 0 31.0345 39.0855 1213 11.2984 1228.2 546.834
1970 0 47.8101 33.8422 1618 11.4635 1226.78 542.716
1971 0 35.8813 37.5683 1348 11.5349 1227.12 544.707
1972 0 36.2257 43.091 1561 11.4036 1228.21 543.55
1973 0 28.7574 43.641 1255 11.4207 1227.07 546.548
1974 0 43.4604 37.6895 1638 11.3913 1225.06 543.188
1975 0 50.5032 26.4538 1336 11.5674 1227.43 544.54
1976 0 48.553 33.4686 1625 11.4572 1227.42 542.736
1977 0 38.6962 28.9951 1122 11.4617 1228.35 547.17
1978 0 32.5376 43.3959 1412 11.284 1226.08 545.508
1979 0 38.4718 22.2241 855 11.4596 1229.62 549.528
1980 1 173.648 31.2472 5426 19.4156 1228.34 499.614
1981 0 177.417 15.3199 2718 26.301 1229.08 480.843
1982 1 52.8579 31.0833 1643 11.678 1224.48 540.993
1983 0 43.6354 43.703 1907 11.5805 1224.75 540.352
1984 0 43.5409 33.279 1449 11.5963 1226.72 543.051
1985 0 48.1166 34.6242 1666 11.4292 1228.46 542.542
1986 0 41.2035 42.4235 1748 11.5526 1227.06 541.509
1987 0 40.4018 39.8992 1612 11.5149 1227 542.377
1988 1 136.504 12.5711 1716 25.7558 1229.07 497.932
1989 0 139.417 11.2755 1572 27.4186 1229.91 493.588
1990 0 145.829 30.1244 4393 18.2333 1228.73 509.868
1991 0 140.955 13.0609 1841 25.4264 1229.32 496.355
1992 1 36.5882 41.7348 1527 11.5599 1226.35 543.404
1993 0 49.2499 30.3757 1496 11.4231 1223.72 543.586
1994 0 40.399 30.6196 1237 11.401 1227.62 546.652
1995 0 41.6715 34.7959 1450 11.4855 1227.63 544.007
1996 0 36.592 42.3863 1551 11.5274 1227.98 542.981
1997 0 48.971 33.6525 1648 11.4023 1228.14 542.078
1998 0 48.9632 37.4976 1836 11.5163 1226.16 540.423
1999 0 48.6946 33.6177 1637 11.5785 1226.72 541.957
2000 0 43.827 40.2491 1764 11.4768 1227.48 541.44
2001 0 40.7144 41.5578 1692 11.4746 1227.4 542.735
2002 1 34.7299 32.4792 1128 11.297 1227.31 547.605
2003 0 40.4966 33.7806 1368 11.3721 1228.27 545.194
2004 0 34.8976 38.3121 1337 11.4503 1227.34 544.986
2005 0 35.5971 38.2616 1362 11.4325 1226.19 544.931
2006 0 51.684 35.5042 1835 11.5128 1227.33 540.622
2007 0 39.3972 40.6374 1601 11.3848 1228.06 543.655
2008 0 48.5511 35.2618 1712 11.3995 1227.85 541.897
2009 0 40.9552 33.9151 1389 11.4348 1224 543.36
2010 0 36.2117 30.1008 1090 11.3385 1224.68 547.661
2011 1 46.2571 37.6807 1743 11.4435 1226.43 541.602
2012 0 48.5348 36.3656 1765 11.596 1226.99 541.061
2013 0 40.3609 38.7008 1562 11.4821 1228.77 543.371
2014 0 65.3341 27.6884 1809 11.6396 1229.29 540.591
2015 0 44.4928 36.3205 1616 11.5043 1226.34 541.848
2016 0 46.152 40.6483 1876 11.7223 1225.36 539.412
2017 0 44.6177 36.6446 1635 11.6067 1225.29 541.554
2018 0 52.3706 32.3464 1694 11.5342 1223.71 541.869
2019 0 35.7812 38.4 1374 11.5917 1226.37 545.333
2020 0 34.7789 45.1135 1569 11.5182 1228.83 543.718
2021 0 30.7255 48.2336 1482 11.5702 1229.14 544.849
2022 0 42.2479 32.7117 1382 11.5275 1230.13 544.673
2023 0 51.2712 31.4406 1612 11.5254 1228.19 542.446
2024 0 38.2481 40.1589 1536 11.5345 1227.61 543.817
2025 0 35.6076 41.4799 1477 11.5951 1227.72 543.355
2026 1 31.3029 31.4987 986 11.4848 1227.11 549.199
2027 0 34.1685 36.6127 1251 11.6507 1226.63 545.008
2028 0 40.7787 35.5823 1451 11.5927 1226.13 543.749
2029 0 27.065 50.2125 1359 11.4812 1228.62 545.776
2030 0 29.8307 35.8356 1069 11.4892 1229.76 548.416
2031 0 28.3666 36.0988 1024 11.6709 1228.2 547.503
2032 0 29.0625 38.9162 1131 11.6508 1228.83 547.245
2033 0 44.3716 34.3463 1524 11.6024 1227.24 543.486
2034 1 23.0097 45.2852 1042 11.476 1226.45 548.497
2035 0 31.2692 37.8647 1184 11.6579 1225.4 546.436
2036 0 39.128 35.9078 1405 11.7359 1226.69 543.617
2037 0 32.1835 40.4244 1301 11.6895 1226.35 545.485
2038 0 29.0961 42.858 1247 11.5389 1227.22 546.839
2039 0 38.8178 32.9746 1280 11.5344 1228.73 546.259
2040 0 31.6208 35.9257 1136 11.6012 1226.51 547.667
2041 0 25.6652 42.1972 1083 11.5808 1225.28 547.976
2042 0 35.2081 44.2228 1557 11.6455 1225.58 543.936
2043 0 33.8018 39.6724 1341 11.6092 1225.32 545.205
2044 0 33.6972 39.4692 1330 11.6782 1226.15 545.531
2045 0 44.9731 36.5107 1642 11.7296 1225.88 542.757
2046 0 42.4365 29.4322 1249 11.6493 1226.75 546.145
2047 0 31.7415 41.4284 1315 11.6114 1226.4 545.534
2048 0 36.2871 32.9318 1195 11.6084 1223.33 546.327
2049 0 52.5618 29.1466 1532 11.5503 1223.61 543.667
2050 0 14.1202 31.4442 444 11.6036 1226.15 554.232
2051 0 43.4041 26.8868 1167 11.8775 1226.08 544.908
2052 0 51.0334 42.3057 2159 11.8013 1227.32 538.158
2053 0 19.3108 31.744 613 11.6835 1225.6 551.932
2054 0 28.2319 21.3588 603 11.534 1226.97 552.269
2055 0 44.2324 34.2283 1514 11.7966 1226.15 542.124
2056 0 46.4583 32.244 1498 11.8111 1226.02 541.195
2057 1 25.8332 40.2195 1039 11.5159 1224.94 547.999
2058 0 28.9612 31.076 900 11.5256 1226.91 550.033
2059 0 35.7395 31.3099 1119 11.6122 1224.25 547.32
2060 0 31.098 42.1571 1311 11.6491 1225.36 544.943
2061 0 29.6061 38.4042 1137 11.5172 1225.77 547.712
2062 0 47.6063 29.975 1427 11.705 1227.65 544.58
2063 0 36.2658 44.7805 1624 11.6915 1227.06 543.005
2064 0 44.1975 35.183 1555 11.7839 1226.29 542.732
2065 0 37.2705 37.6438 1403 11.598 1226.14 544.66
2066 0 28.1511 41.597 1171 11.6601 1227.16 546.524
2067 0 42.2004 26.6585 1125 11.6933 1227.06 546.71
2068 0 45.7077 28.2009 1289 11.685 1225.99 545.163
2069 0 36.4284 42.6316 1553 11.7257 1227.12 543.49
2070 0 34.0853 42.335 1443 11.6563 1226.95 543.997
2071 1 137.899 11.0588 1525 33.8033 1229.96 485.046
2072 0 146.486 21.5037 3150 23.8933 1229.31 506.053
2073 0 141.826 20.1303 2855 25.4567 1229.19 501.498
2074 0 145.461 18.8916 2748 26.2147 1230.01 498.725
2075 0 147.728 20.4565 3022 25.3233 1229.99 500.647
2076 0 150.402 21.15 3181 25.0534 1230.59 498.168
2077 0 153.166 27.5062 4213 22.4977 1230.81 502.516
2078 0 158.453 27.3393 4332 22.3523 1230.09 502.377
2079 0 156.819 15.2277 2388 29.8647 1230.73 487.232
2080 0 165.084 23.3033 3847 24.6545 1231 497.186
2081 0 163.697 27.1477 4444 22.9743 1230.1 498.975
2082 0 170.458 23.8651 4068 24.1755 1230.58 497.142
2083 0 169.671 23.9935 4071 24.8231 1231.21 495.781
2084 0 176.546 26.2028 4626 23.9563 1230.55 495.763
2085 0 177.528 27.207 4830 23.7253 1230.48 496.641
2086 0 185.453 21.8169 4046 26.5109 1230.66 488.61
2087 1 128.959 18.8432 2430 24.1226 1230.45 510.486
2088 0 132.764 21.685 2879 22.7596 1230.16 511.178
2089 0 139.051 16.476 2291 26.285 1230.3 502.938
2090 0 138.063 15.5363 2145 27.4643 1229.95 500.027
2091 0 140.583 19.2769 2710 24.7779 1230.3 503.595
2092 1 16.6298 34.2157 569 11.638 1228.55 552.1
2093 0 24.6649 37.2189 918 11.6863 1225.94 548.777
2094 0 34.8879 32.9913 1151 11.5639 1224.64 546.661
2095 0 41.3414 37.2266 1539 11.781 1228.11 543.246
2096 0 36.7567 37.6258 1383 11.7231 1226.67 545.623
2097 0 32.3759 43.1185 1396 11.7249 1226.17 545.049
2098 0 45.4792 36.0605 1640 11.7476 1227.55 541.907
2099 0 46.2452 39.2257 1814 11.7381 1227.05 540.113
2100 0 42.1234 35.7758 1507 11.7976 1226.23 542.877
2101 0 38.1485 36.0171 1374 11.6907 1224.79 544.801
2102 0 40.0838 31.6087 1267 11.6156 1227.12 546.32
2103 0 32.9191 38.4579 1266 11.639 1226.4 546.108
2104 0 45.5184 35.3044 1607 11.7386 1225.44 542.559
2105 0 32.1571 42.7588 1375 11.6575 1226.5 545.553
2106 0 31.8816 29.5782 943 11.4486 1223.49 548.952
2107 1 50.058 32.3425 1619 11.7387 1227.9 542.463
2108 0 48.2371 30.8061 1486 11.745 1227.88 543.765
2109 0 42.3168 34.6907 1468 11.6287 1226.19 544.229
2110 0 49.732 29.277 1456 11.6937 1223.86 543.442
2111 0 52.1367 32.8176 1711 11.7493 1224.92 541.516
2112 1 34.612 42.3264 1465 11.5782 1225.18 544.959
2113 0 41.6724 31.2197 1301 11.5081 1223.69 545.392
2114 0 46.5453 31.3028 1457 11.5381 1228.33 543.723
2115 0 54.7022 27.9331 1528 11.7788 1226.09 541.971
2116 0 30.7977 43.6721 1345 11.6305 1226.11 545.647
2117 0 49.1987 36.7286 1807 11.4898 1227.7 541.515
2118 0 40.2173 38.9385 1566 11.5383 1228.99 543.864
2119 0 50.1083 30.1746 1512 11.7189 1227.1 542.573
2120 1 32.9388 33.456 1102 11.6034 1227.96 547.858
2121 0 35.4595 35.4771 1258 11.5978 1227.2 546.565
2122 0 31.6819 43.7789 1387 11.3742 1227.6 545.882
2123 0 35.7714 41.7093 1492 11.6582 1228.03 544.441
2124 0 36.6632 32.4577 1190 11.5613 1227.14 547.092
2125 1 54.3138 35.3685 1921 11.6616 1225.2 539.721
2126 0 54.5144 34.3579 1873 11.6962 1224.55 539.721
2127 0 44.2871 31.4539 1393 11.7911 1227.9 543.66
2128 0 53.6042 34.0832 1827 11.6601 1226.7 540.865
2129 0 44.0409 35.3762 1558 11.7702 1227.19 542.056
2130 0 32.5118 40.6929 1323 11.6916 1227.12 545.766
2131 0 33.2401 37.6052 1250 11.532 1226.57 546.34
2132 0 35.3906 33.9073 1200 11.615 1227.24 546.081
2133 0 36.2624 33.5609 1217 11.5259 1228.14 547.072
2134 0 33.3746 39.7008 1325 11.5185 1227.43 545.999
2135 0 45.9697 28.1272 1293 11.5522 1223.11 544.763
2136 0 43.5044 32.0427 1394 11.6542 1226.17 544.859
2137 0 43.512 34.0366 1481 11.6475 1226.91 544.442
2138 0 31.6719 37.0044 1172 11.6271 1226.49 546.77
2139 0 44.3244 34.4506 1527 11.6647 1227.36 543.994
2140 0 32.5087 40.9736 1332 11.7342 1229.28 544.472
2141 1 21.6967 36.8719 800 11.5612 1227.61 550.548
2142 0 32.1876 38.1824 1229 11.7364 1226.08 545.729
2143 0 34.4013 38.1381 1312 11.6037 1225.99 545.846
2144 0 28.8854 41.3704 1195 11.6042 1227.03 546.818
2145 0 35.7769 35.0506 1254 11.5941 1226.01 545.973
2146 0 38.533 32.4138 1249 11.6757 1224.84 545.897
2147 0 42.3143 28.0992 1189 11.6468 1223.66 546.426
2148 0 34.2444 31.1584 1067 11.5951 1226 547.883
2149 0 41.5896 32.5562 1354 11.6566 1224.58 545.052
2150 0 43.5403 39.0443 1700 11.7241 1227.3 542.084
2151 0 42.507 46.6747 1984 11.6144 1226.65 540.142
2152 0 29.5011 40.8798 1206 11.6219 1227.38 546.094
2153 1 12.1293 41.7997 507 11.5483 1228.61 553.45
2154 0 13.515 50.0926 677 11.3191 1228.85 552.337
2155 0 15.2958 43.9337 672 11.4286 1227.6 551.929
2156 1 37.2928 36.9509 1378 11.7692 1229 544.966
2157 0 44.1374 36.2051 1598 11.8041 1228.68 541.851
2158 0 45.2459 34.8982 1579 11.8391 1229.23 542.044
2159 0 31.7973 44.4064 1412 11.6997 1228.55 544.99
2160 0 25.1131 42.7267 1073 11.493 1228.08 548.292
2161 0 24.749 37.5369 929 11.7018 1230.05 549.365
2162 0 23.2412 47.1576 1096 11.4115 1228.05 548.29
2163 0 22.8714 39.0443 893 11.7447 1228.68 549.443
2164 0 26.4489 39.8126 1053 11.7607 1229.15 547.657
2165 0 34.6713 37.3219 1294 11.7002 1226.22 546.445
2166 0 34.8192 36.9623 1287 11.5804 1226.62 546.645
2167 0 29.8597 42.2978 1263 11.6326 1225.46 546.565
2168 0 33.0679 30.4525 1007 11.7398 1225.72 548.366
2169 0 34.2296 30.7628 1053 11.8594 1226.09 547.67
2170 0 31.2568 44.9182 1404 11.6432 1227.21 545.371
2171 0 19.5397 41.7611 816 11.5576 1227.97 550.657
2172 0 35.5976 32.5022 1157 11.6292 1229.91 547.426
2173 0 19.2626 43.3481 835 11.5509 1228.84 550.968
2174 0 20.3083 26.5901 540 11.6926 1228.63 552.874
2175 1 85.6077 9.05292 775 20.1832 1229.22 529.803
2176 0 87.2996 7.88091 688 20.6017 1229.47 528.446
2177 0 85.6998 8.37808 718 20.4526 1229.16 529.068
2178 0 88.1749 9.56055 843 19.4626 1229.75 530.929
2179 0 88.3916 8.40578 743 20.6999 1227.94 526.472
2180 0 88.5386 10.9105 966 17.9824 1228.91 532.246
2181 0 92.8804 9.14079 849 19.8787 1229.65 527.784
2182 0 86.0236 9.98563 859 20.2468 1229.61 528.203
2183 0 94.7887 49.795 4720 15.2686 1228.72 516.193
2184 0 85.3949 9.34482 798 20.891 1229.1 526.974
2185 0 86.6296 9.74263 844 20.4325 1230.37 528.549
2186 0 91.8933 9.27162 852 20.1209 1228.91 527.986
2187 0 86.9617 9.62493 837 20.6392 1229.7 526.806
2188 0 86.4096 9.11935 788 20.2132 1230.68 528.766
2189 0 84.9707 9.33263 793 20.1576 1230.08 528.705
2190 0 84.3648 12.4815 1053 18.1548 1229.8 532.093
2191 0 86.5416 8.46992 733 20.6617 1230.61 527.142
2192 0 88.7759 9.54087 847 19.1263 1228.69 530.045
2193 0 92.8086 8.12424 754 20.9668 1230.61 525.634
2194 0 80.0025 10.1372 811 18.0728 1229.98 534.123
2195 0 84.4831 9.94282 840 18.0571 1229.01 533.039
2196 0 83.3082 7.9584 663 20.3906 1230.82 526.172
2197 0 85.9596 8.6785 746 18.6314 1230.07 530.961
2198 0 79.2821 7.35348 583 20.1767 1229.88 526.868
2199 0 81.6312 11.6377 950 16.9895 1230.09 535.14
2200 0 80.3459 10.1934 819 18.0073 1228.66 532.549
2201 0 81.0434 12.5488 1017 17.1445 1230.03 535.028
2202 0 81.3458 9.5764 779 19.163 1229.14 530.169
2203 0 81.0854 54.1651 4392 14.8686 1228.07 518.937
2204 0 81.9456 8.79852 721 19.5978 1230.17 530.232
2205 0 87.8505 10.0739 885 18.7661 1229.89 531.087
2206 0 84.2537 11.5722 975 18.3897 1229.58 532.666
2207 0 88.0143 7.97598 702 20.5256 1230.06 528.071
2208 0 83.9575 10.0408 843 19.516 1228.89 530.37
2209 0 90.1169 8.94394 806 20.0633 1228.37 528.021
2210 0 85.2612 11.3651 969 18.6594 1229.49 530.826
2211 0 84.9914 10.754 914 19.6772 1230.73 528.408
2212 0 88.6387 8.69823 771 20.2866 1229.53 528.802
2213 0 88.3299 8.46825 748 21.2246 1229.05 524.85
2214 0 91.6997 9.21486 845 20.3254 1228.16 526.651
2215 0 90.3149 9.00184 813 20.6642 1230.07 525.435
2216 0 90.7277 8.26649 750 21.6707 1230.07 521.897
2217 1 30.5051 25.8645 789 25.493 1229.95 482.096
2218 1 92.5396 52.356 4845 15.1787 1228.87 515.402
2219 0 97.9048 49.7524 4871 15.456 1228.71 515.634
2220 0 92.7012 9.77334 906 21.6479 1230.58 522.309
2221 0 90.4882 9.73608 881 20.8536 1230.69 525.822
2222 0 97.9547 11.4134 1118 20.051 1229.24 525.649
2223 0 93.9974 12.394 1165 18.9193 1228.61 528.094
2224 0 90.7332 10.8119 981 20.3425 1229.6 525.972
2225 0 92.0864 10.8268 997 20.8175 1229.56 524.766
2226 0 94.6888 11.3424 1074 20.5903 1229.31 524.92
2227 0 94.782 10.4978 995 21.5688 1228.61 523.644
2228 0 95.9646 9.08668 872 23.8991 1229.95 517.436
2229 0 94.6258 11.3711 1076 21.9433 1230.01 522.667
2230 0 102.641 10.9021 1119 22.2207 1229.36 521.844
2231 0 94.4233 11.7768 1112 21.9811 1229.68 523.693
2232 0 95.564 10.4328 997 24.348 1229.46 516.414
2233 0 101.668 9.59001 975 23.9005 1229.19 517.212
2234 0 100.959 10.6974 1080 23.0843 1229.81 518.488
2235 0 96.9237 10.2039 989 23.997 1229.72 518.096
2236 0 101.496 12.1088 1229 22.2766 1230.28 521.071
2237 0 99.5168 12.7818 1272 22.5008 1229.54 519.2
2238 0 100.362 13.1923 1324 21.7734 1228.49 521.536
2239 0 98.1334 9.92527 974 25.1612 1228.98 513.814
2240 0 98.8584 13.0591 1291 22.1735 1229.84 519.621
2241 0 102.968 11.2074 1154 24.1075 1229.54 514.737
2242 0 98.4795 11.9314 1175 24.0885 1230.69 515.247
2243 0 102.688 11.8709 1219 23.9106 1230.16 516.199
2244 0 102.275 13.1313 1343 22.8853 1229.38 518.552
2245 0 102.028 11.144 1137 23.6306 1230.95 516.145
2246 0 107.871 23.7228 2559 76.5791 1228.56 527.41
2247 0 107.283 12.1827 1307 23.5807 1229.52 514.72
2248 0 106.596 13.0212 1388 23.5785 1229.94 515.824
2249 0 109.287 12.0783 1320 24.5955 1230.54 514.046
2250 0 102.844 12.3002 1265 25.3866 1230.45 513.266
2251 0 108.855 14.3126 1558 20.516 1229.9 516.784
2252 0 107.054 15.3194 1640 20.4567 1229.62 516.752
2253 0 106.924 13.9631 1493 21.3302 1228.26 515.619
2254 0 111.486 12.2168 1362 22.2731 1228.01 513.124
2255 0 108.608 13.3232 1447 21.1368 1229.43 514.486
2256 0 111.259 12.6821 1411 21.6889 1229.88 513.883
2257 0 107.381 13.2053 1418 21.9111 1230.19 512.445
2258 0 107.972 14.337 1548 21.1647 1229.25 515.836
2259 0 103.92 12.2883 1277 22.343 1229.8 513.298
2260 0 107.799 11.0854 1195 22.9364 1229.84 510.623
2261 0 110.518 14.0701 1555 20.8894 1229.72 514.61
2262 0 110.191 12.5964 1388 22.1088 1229.26 511.212
2263 0 107.356 11.7833 1265 22.1826 1228.88 513.076
2264 0 112.715 10.8682 1225 22.7535 1229.98 510.611
2265 0 111.14 13.2446 1472 21.1923 1229.19 514.962
2266 0 109.63 14.5854 1599 20.4722 1229.62 516.809
2267 0 110.024 15.9692 1757 19.6551 1229.61 517.701
2268 0 105.135 14.2104 1494 20.583 1230.88 512.722
2269 0 108.969 13.4166 1462 21.2969 1229.98 510.215
2270 0 110.319 15.3826 1697 19.6706 1229.34 517.272
2271 0 108.048 14.1603 1530 20.5961 1230.05 515.776
2272 0 108.291 12.2078 1322 21.6029 1230.78 512.759
2273 0 109.618 12.2242 1340 21.3955 1230.49 513.328
2274 1 42.8532 21.8653 937 11.8292 1228.41 547.784
2275 0 42.0272 38.2372 1607 11.697 1226.69 542.4
2276 0 39.2826 30.0387 1180 11.5788 1225.9 546.607
2277 0 33.89 33.8448 1147 11.6312 1226.95 547.629
2278 0 41.2063 43.901 1809 11.5766 1226.77 541.757
2279 1 18.8658 39.2244 740 11.7405 1226.86 550.297
2280 0 20.3472 45.8541 933 11.6377 1227.81 549.706
2281 0 23.2734 25.0931 584 11.6216 1228.15 552.306
2282 0 42.0311 20.3659 856 11.6577 1229.17 550.236
2283 0 24.8011 35.9258 891 11.4545 1229.45 549.767
2284 1 42.9215 34.0855 1463 11.4559 1226.27 544.108
2285 0 39.1477 31.394 1229 11.6908 1226.45 545.465
2286 0 31.3838 44.7046 1403 11.6465 1227.93 544.766
2287 0 44.2387 24.5034 1084 11.6965 1227.72 547.402
2288 0 43.1951 33.5455 1449 11.5431 1228.81 544.838
2289 0 41.6274 32.4786 1352 11.6479 1230.65 545.283
2290 0 32.3492 32.4274 1049 11.7969 1228.77 547.743
2291 1 124.147 51.9705 6452 12.2495 1227.7 501.493
2292 0 121.524 27.0975 3293 11.4792 1228.06 521.693
2293 0 129.869 27.4739 3568 11.5039 1228.58 517.056
