time division length width area intensity CMx CMy
0 0 52.1399 14.4036 751 113.992 1262.81 484.34
1 0 55.0642 15.0733 830 110.193 1266.33 485.658
2 0 55.0411 14.5528 801 113.39 1268.52 484.627
3 0 59.0898 16.5341 977 107.27 1268.21 484.448
4 0 60.173 16.3196 982 106.63 1267.83 485.933
5 0 61.1065 16.6922 1020 104.841 1267.58 486.191
6 0 63.0677 15.7608 994 106.659 1266.99 485.978
7 1 32.0468 11.7328 376 113.247 1265.21 501.795
8 0 32.0468 11.7952 378 163.884 1263.21 501.788
9 0 32.0468 11.764 377 163.573 1261.23 501.759
10 0 36.0835 13.0254 470 113.543 1261.83 501.004
11 0 37.0528 10.6335 394 116.579 1260.48 503.236
12 0 36.0543 11.0389 398 116.633 1257.15 503.606
13 0 38.023 11.7824 448 114.342 1255.55 504.58
14 0 39.0994 11.0488 432 116.669 1252.73 504.354
15 0 40.0814 11.9257 478 114.205 1251.2 503.962
16 0 41.1195 12.9622 533 111.261 1248.55 503.578
17 0 41.022 12.9687 532 115.156 1245.64 500.434
18 0 44.0332 13.2854 585 108.547 1244.45 501.116
19 0 45.2327 14.5912 660 106.002 1242.75 495.933
20 0 47.2349 14.6078 690 108.228 1239.93 495.926
21 0 50.0878 15.3331 768 103.824 1240.17 495.672
22 0 48.1294 13.8377 666 109.404 1241.24 493.586
23 0 51.0532 14.1225 721 105.969 1240.19 492.327
24 0 54.1335 15.2216 824 100.273 1242.1 491.09
25 0 55.1114 14.2076 783 104.863 1242.78 490.676
26 0 56.0414 13.5614 760 106.059 1244.28 489.299
27 0 56.0613 14.0204 786 107.541 1246.58 488.433
28 0 58.041 13.1976 766 108.094 1249.22 488.819
29 0 62.0722 13.8387 859 105.91 1251.09 487.319
30 0 63.0406 13.9751 881 105.642 1253.16 487.133
31 0 67.0577 14.0029 939 105.199 1255.62 486.213
32 0 68.0692 14.1474 963 104.321 1256.87 488.965
33 0 73.1911 15.8216 1158 99.0553 1260.2 489.508
34 0 74.1301 15.0007 1112 101.867 1259.18 485.762
35 0 77.2152 15.5798 1203 100.99 1259.95 486.401
36 0 78.2047 13.9889 1094 103.998 1259.86 487.699
37 1 44.0596 11.7568 518 106.988 1259.75 506.927
38 0 44.03 10.6973 471 111.282 1258.44 505.641
39 0 44.0675 12.2086 538 109.777 1257.42 505.615
40 0 45.0781 13.1549 593 108.61 1255.6 505.664
41 0 49.1001 12.3625 607 109.811 1252.93 505.554
42 0 51.1277 13.6521 698 105.287 1250.54 503.438
43 0 51.1277 13.6716 699 153.308 1249.56 503.444
44 0 56.04 15.257 855 100.319 1245.46 503.456
45 0 55.0396 13.8627 763 100.772 1243.32 504.806
46 0 59.0559 14.7657 872 97.2087 1242.3 504.576
47 0 60.1375 13.1033 788 100.504 1240.44 503.272
48 0 61.073 14.2452 870 99.8782 1238.27 500.892
49 0 63.0931 14.3914 908 99.4868 1237.48 499.718
50 0 69.1203 14.4241 997 98.2608 1235.68 495.949
51 0 70.0896 14.8667 1042 97.8608 1234.7 491.958
52 0 73.3684 14.4204 1058 97.8582 1233.44 490.733
53 0 76.1863 14.6877 1119 96.7551 1232.68 488.054
54 1 39.0836 10.5927 414 99.4034 1231.06 506.353
55 0 40.1072 11.195 449 97.7416 1232.02 504.61
56 0 41.0236 12.2369 502 98.4402 1232.81 504.096
57 0 43.098 11.5318 497 99.2575 1233.94 500.181
58 0 43.1343 12.519 540 98.0815 1235.72 499.091
59 0 46.2764 12.4686 577 98.1733 1236.76 497.503
60 0 44.0838 12.4536 549 98.459 1240.39 498.53
61 0 46.0369 12.4683 574 98.1481 1243.42 499.176
62 0 47.0262 13.333 627 97.8931 1245.79 498.04
63 0 50.038 12.3706 619 100.591 1248.59 497.583
64 0 50.0968 13.3941 671 98.8078 1250.12 496.028
65 0 53.1498 14.2051 755 96.792 1251.03 497.96
66 0 54.0987 13.1981 714 98.098 1251.18 498.548
67 0 56.1902 12.956 728 99.5234 1253.37 499.626
68 0 59.1453 13.4922 798 97.0476 1254.53 498.63
69 0 60.0586 12.6543 760 98.8868 1253.33 498.407
70 0 65.1182 13.391 872 97.5149 1253.67 499.729
71 0 65.2473 14.2688 931 96.8464 1252.07 498.847
72 0 68.2323 14.5825 995 95.1518 1251.02 500.261
73 0 70.1575 13.1561 923 98.8397 1249.77 496.525
74 0 73.1735 13.2425 969 97.7245 1247.74 499.114
75 1 40.118 10.3196 414 101.551 1245.09 515.594
76 0 41.0387 11.6475 478 99.682 1243.89 515.423
77 0 40.0472 12.1107 485 101.243 1241.41 513.324
78 0 43.0905 13.5761 585 95.0137 1238.49 514.111
79 0 44.2379 12.9753 574 94.5575 1235.73 511.253
80 0 47.2739 13.4324 635 92.8331 1234.61 511.545
81 0 48.0584 14.1911 682 94.2654 1234.04 510.827
82 0 49.1037 13.3188 654 95.9587 1232.89 510.537
83 0 48.1163 13.6544 657 96.0624 1230.84 508.679
84 0 48.1163 13.6544 657 145.693 1228.86 508.571
85 0 53.1118 13.8576 736 93.6997 1228.81 503.16
86 0 55.0232 14.2849 786 93.8435 1227.81 501.594
87 0 54.1451 13.3161 721 96.7892 1228.08 500.709
88 0 59.0899 15.7218 929 91.3466 1227.46 497.961
89 0 59.096 15.331 906 92.5651 1227.68 495.393
90 0 62.1355 14.5006 901 90.6104 1228.12 497.109
91 0 63.148 12.9379 817 94.0233 1229.77 496.805
92 0 63.0755 14.3796 907 93.0232 1230.29 494.991
93 0 66.1416 14.1515 936 93.125 1232.11 494.182
94 0 67.1587 12.7162 854 98.3817 1234.44 490.885
95 0 71.2709 14.2274 1014 94.5523 1236.53 491.594
96 0 72.177 14.7692 1066 95.031 1239.84 486.509
97 1 40.0372 10.74 430 95.4721 1243 505.263
98 0 41.1786 11.9965 494 95.2591 1244.03 507.208
99 0 39.3242 10.121 398 99.907 1244.95 506.334
100 0 43.2426 12.9964 562 95.2989 1246.9 507.363
101 0 45.1152 12.59 568 96.8838 1248.67 508.452
102 0 45.0452 12.0989 545 97.7688 1248.98 509.98
103 0 45.0489 11.9648 539 94.9944 1245.73 510.299
104 0 49.0718 12.3696 607 92.7414 1245.59 512.028
105 0 50.0832 12.9584 649 92.7381 1244.51 510.741
106 0 50.042 12.7892 640 92.2281 1242.88 513.688
107 0 52.0641 11.6011 604 94.5166 1241.34 511.189
108 0 52.0705 13.2321 689 90.73 1238.92 511.231
109 0 56.0535 13.6298 764 89.8456 1237.24 510.806
110 0 57.0654 12.4769 712 90.2978 1235.34 509.26
111 0 59.0958 13.1651 778 89.1375 1233.82 507.14
112 0 63.1854 13.3733 845 87.3503 1230.98 507.388
113 0 63.124 11.5329 728 91.8352 1229.79 505.681
114 0 65.0585 11.5896 754 91.1963 1228.53 507.454
115 0 67.1037 13.278 891 90.5309 1226.65 500.409
116 0 72.0864 14.982 1080 85.9806 1225.78 501.592
117 1 38.0232 10.9144 415 89.8843 1223.8 517.754
118 0 38.0321 9.3868 357 92.7675 1223.16 517.445
119 0 38.1387 8.83617 337 95.7864 1221.93 514.682
120 0 40.0184 10.6951 428 95.5047 1221.45 510.259
121 0 42.043 11.3693 478 93.3556 1221.64 510.138
122 0 42.0426 12.1305 510 95.5235 1221 507.659
123 0 45.1656 12.5981 569 93.239 1221.95 505.415
124 0 46.2633 12.1262 561 98.738 1222.72 504.873
125 0 46.196 13.5293 625 98.0016 1224.67 502.59
126 0 49.2392 14.1351 696 95.7083 1226.69 501.605
127 0 49.2392 14.0741 693 147.346 1229.68 501.62
128 0 52.1146 13.6238 710 98.8183 1231.88 501.194
129 0 52.1146 13.6814 713 152.72 1233.88 501.125
130 0 54.1537 14.1265 765 98.6693 1235.43 500.719
131 0 55.1596 13.5063 745 100.209 1236.72 502.789
132 0 55.1596 13.5244 746 154.292 1238.68 502.861
133 0 59.1716 14.6354 866 99.8891 1242.15 502.885
134 0 62.3135 14.8603 926 99.1501 1243.3 502.369
135 0 63.1877 14.5123 917 100.696 1244.61 503.36
136 0 65.1813 14.8049 965 99.7762 1244.16 504.699
137 0 67.2455 14.3207 963 101.017 1245.12 504.042
138 0 70.2385 16.5009 1159 96.9232 1243.51 504.211
139 0 72.1088 14.2424 1027 102.086 1242.63 502.976
140 0 72.1053 14.3401 1034 154.475 1241.64 503.085
141 1 38.1664 10.5066 401 104.596 1238.29 520.678
142 0 41.0266 11.846 486 101.897 1236.28 519.595
143 0 44.048 12.2366 539 101.905 1234.66 520.31
144 0 43.056 12.2631 528 104.691 1233.5 517.276
145 0 43.1748 11.9051 514 106.739 1231.48 514.397
146 0 47.2136 13.8519 654 98.0459 1231.09 515.589
147 0 49.2539 14.0902 694 97.7666 1228.63 514.473
148 0 49.097 14.2778 701 98.6248 1228.21 514.511
149 0 53.1554 16.0849 855 93.7591 1227.66 512.894
150 0 54.1568 14.3103 775 96.7419 1226.21 511.935
151 0 53.0318 13.1808 699 100.75 1224.61 509.631
152 0 54.0324 14.3803 777 99.6757 1223.97 508
153 0 56.1411 14.5348 816 98.8701 1223.03 505.413
154 0 55.1256 14.7481 813 147.578 1222.01 505.471
155 0 60.0784 14.1315 849 98.4853 1221.57 503.609
156 0 63.1383 14.8563 938 96.5757 1222.17 499.021
157 0 64.0741 14.6705 940 97.0628 1222.83 497.606
158 0 66.0614 14.4865 957 97.1191 1223.86 496.3
159 0 69.0757 14.419 996 96.4468 1224.89 496.178
160 0 72.0676 13.7787 993 97.9849 1226.24 490.863
161 1 40.0727 10.0567 403 99.5856 1229.51 509.466
162 0 41.079 11.5144 473 98.0127 1231.87 508.973
163 0 42.0331 11.7764 495 101.592 1235.36 507.96
164 0 43.0489 11.545 497 103.111 1237.37 506.414
165 0 42.0185 10.4002 437 105.902 1239.58 507.87
166 0 47.0451 11.4996 541 101.797 1238.55 509.1
167 0 48.0413 12.4476 598 102.234 1239.28 507.684
168 0 49.1018 12.5046 614 100.083 1240.92 508.909
169 0 54.1996 13.7086 743 99.2934 1241.73 509.752
170 0 57.0952 15.0801 861 97.6899 1241.76 512.549
171 0 57.1271 14.5465 831 99.87 1240.12 511.977
172 0 55.2571 13.8806 767 103.441 1239.81 509.752
173 0 59.3359 14.7803 877 101.418 1239.48 508.959
174 0 61.2082 13.3152 815 103.934 1238.25 507.903
175 0 64.187 13.7567 883 102.309 1236.82 507.735
176 0 65.2479 15.1882 991 98.2876 1234.8 509.333
177 0 67.2241 13.8195 929 101.978 1232.29 506.346
178 0 67.2241 13.9236 936 166.284 1229.27 506.347
179 0 74.1759 16.4204 1218 95.3481 1228.94 504.195
180 0 76.3507 14.7215 1124 99.6984 1226.56 499.847
181 1 40.0579 11.8329 474 98.5696 1226.9 518.833
182 0 41.1262 10.1152 416 99.3365 1224.55 517.817
183 0 41.0437 10.5254 432 101.778 1223.99 514.352
184 0 44.1901 10.6811 472 99.3157 1222.39 513.797
185 0 47.0787 12.1924 574 94.7038 1220.75 512.639
186 0 48.038 13.2187 635 94.326 1220.24 510.079
187 0 49.0298 13.196 647 91.694 1217.53 509.005
188 0 48.1433 13.4598 648 91.1466 1217.64 506.806
189 0 53.1701 13.7671 732 88.9959 1218.41 504.908
190 0 53.1701 13.7671 732 128.018 1219.39 504.795
191 0 57.2797 14.0713 806 89.2481 1220.88 500.605
192 0 56.0764 12.7326 714 92.1709 1222.06 501.472
193 0 58.0489 13.5748 788 91.1954 1224.46 498.956
194 0 59.1079 13.0947 774 92.3501 1226.15 498.924
195 0 62.1521 13.9175 865 90.9075 1228.4 496.461
196 0 63.0681 13.3982 845 92.9645 1231.67 499.605
197 0 68.1939 15.8225 1079 87.6645 1234.29 497.516
198 0 69.2573 15.4208 1068 89.2228 1236.37 496.655
199 0 71.3137 15.4809 1104 90.1214 1239.48 494.591
200 0 74.3322 13.9509 1037 92.4542 1241.69 496.205
201 0 75.3926 14.1791 1069 93.1637 1241.45 493.858
202 0 80.4405 13.6623 1099 94.2329 1242.26 494.712
203 1 41.6535 9.1469 381 99.5407 1243.69 513.047
204 0 42.5126 10.3499 440 96.6545 1244.06 513.586
205 0 43.3619 11.5078 499 94.2244 1243.41 513.232
206 0 42.3822 8.65929 367 97.6921 1242.3 516.403
207 0 46.424 11.395 529 92.4064 1240.67 514.977
208 0 48.3343 13.0756 632 87.7104 1238.94 514.74
209 0 49.3723 12.1526 600 87.87 1237.89 514.1
210 0 50.1756 12.0577 605 90.1405 1235.46 514.524
211 0 53.2525 14.5909 777 85.0206 1232.3 515.641
212 0 56.1821 12.9579 728 88.2802 1230.97 509.346
213 0 57.1418 13.1777 753 88.9708 1226.28 509.505
214 0 59.1816 14.0415 831 87.6246 1225.22 510.91
215 0 60.2707 11.6309 701 92.8131 1224.35 509.18
216 0 62.1344 13.6478 848 88.6828 1222.44 505.989
217 0 63.2104 12.1657 769 91.1977 1221.66 505.355
218 0 68.1091 12.6415 861 90.7607 1219.91 503.582
219 0 71.1656 14.3187 1019 87.8538 1219.54 501.654
220 0 72.1588 13.0268 940 91.6202 1219.99 499.821
221 0 76.0459 14.9121 1134 87.3307 1220.1 498.638
222 0 76.1585 14.391 1096 89.7856 1220.67 494.192
223 0 80.0727 13.9498 1117 91.5166 1221.37 491.79
224 0 83.1701 14.4283 1200 90.3583 1221.74 489.778
225 1 46.1797 11.0005 508 96.7913 1224.27 506.199
226 0 47.1557 12.0876 570 92.921 1226.57 509.156
227 0 48.0674 10.3188 496 96.4919 1229.34 507.708
228 0 48.2747 10.606 512 98.2402 1231.54 507.096
229 0 50.2121 12.1883 612 94.786 1233.38 505.054
230 0 52.1146 13.7198 715 91.4168 1236.83 506.438
231 0 52.3069 11.9296 624 99.3413 1237.54 506.468
232 0 55.183 12.975 716 97.4386 1239.01 505.757
233 0 56.3421 12.6016 710 97.2606 1240.03 507.517
234 0 59.6322 13.4659 803 95.4595 1241.84 504.752
235 0 60.2385 12.9817 782 97.468 1242.73 508.161
236 0 63.2864 14.5529 921 93.3453 1241.54 507.305
237 0 65.2676 14.1877 926 93.7635 1240.86 508.673
238 0 65.2676 14.249 930 143.923 1239.84 508.703
239 0 69.4933 13.7279 954 96.3145 1237.97 505.047
240 0 69.3228 12.5067 867 98.7578 1236.66 506.488
241 0 69.3228 12.5067 867 150.794 1235.64 506.64
242 0 75.4107 12.7966 965 99.571 1233.17 504.862
243 0 77.5449 14.4175 1118 96.314 1231.77 501.956
244 1 41.2428 11.2747 465 97.3849 1229.2 519.465
245 0 43.4202 8.56743 372 100.656 1228.2 517.315
246 0 50.3987 9.74231 491 92.4196 1226.07 520.64
247 0 47.3421 10.0545 476 93.2332 1223.87 518.613
248 0 48.5077 10.2458 497 93.328 1222.21 515.276
249 0 52.3301 11.3701 595 91.1395 1220.73 513.654
250 0 53.3233 11.6272 620 91.5242 1219.15 510.453
251 0 53.5311 11.3952 610 92.3361 1218.96 508.287
252 0 54.5066 10.8978 594 93.404 1217.51 508.311
253 0 54.2536 12.46 676 93.821 1217.84 502.831
254 0 58.4065 12.8753 752 99.1077 1217.91 505.316
255 0 59.3533 12.9395 768 99.1966 1217.51 502.84
256 0 61.3613 13.999 859 98.3655 1217.41 500.547
257 0 62.3352 13.7803 859 98.1141 1220.2 501.487
258 0 62.244 11.23 699 102.876 1220.31 500.197
259 0 66.4948 12.7228 846 99.344 1222.59 495.46
260 0 69.4652 14.4821 1006 94.5149 1223.48 496.809
261 0 68.3388 13.155 899 97.4961 1225.98 495.92
262 0 71.2046 13.0188 927 97.0615 1228.4 495.923
263 0 73.3778 12.129 890 98.7596 1231.17 495.626
264 0 76.4203 13.2295 1011 96.4065 1234.11 493.116
265 0 79.2945 13.6201 1080 94.7602 1236.4 490.884
266 0 80.2698 13.5045 1084 95.119 1238.05 492.212
267 1 45.0437 11.5 518 91.2568 1240.9 511.531
268 0 45.1695 10.6931 483 90.3602 1239.14 512.337
269 0 43.0401 11.5241 496 89.2298 1240.5 513.429
270 0 46.0773 11.1118 512 90.6719 1237.94 512.131
271 0 48.0971 11.7263 564 92.023 1239.15 510.904
272 0 50.1687 11.4414 574 92.3763 1238.06 510.031
273 0 51.1476 12.1609 622 92.3923 1237.01 507.677
274 0 54.1759 12.3856 671 90.1103 1234.39 507.717
275 0 55.1743 11.9077 657 91.4003 1234.1 509.099
276 0 57.1049 13.1162 749 89.3939 1232.59 513.342
277 0 60.2075 12.7227 766 89.3694 1232.55 510.957
278 0 61.1463 13.1161 802 88.8254 1230.74 509.88
279 0 63.1186 13.6727 863 87.0371 1228.93 509.634
280 0 63.1978 12.453 787 91.277 1227.83 508.354
281 0 65.0949 12.8582 837 90.0526 1226.36 507.055
282 0 65.0949 12.8428 836 133.97 1225.37 507.067
283 0 69.1304 14.0025 968 86.9659 1223.44 502.687
284 0 74.1945 14.1116 1047 86.5091 1222.21 501.259
285 0 76.0873 12.8537 978 87.2055 1219.86 498.33
286 0 77.2435 13.2697 1025 88.4741 1219.79 494.339
287 0 80.1082 14.7051 1178 86.2445 1219.72 491.821
288 0 80.1138 13.4184 1075 90.0744 1219.1 489.095
289 1 39.0858 10.1827 398 91.8342 1220.13 510.638
290 0 38.0512 10.0654 383 92.6554 1220.45 509.512
291 0 45.0786 7.09872 320 94.2062 1220.55 509.269
292 0 45.0972 9.64583 435 93.4299 1222.9 507.228
293 0 46.101 8.30784 383 95.1514 1224.13 507.118
294 0 50.0629 11.0461 553 92.528 1225.95 501.467
295 0 50.0422 11.1106 556 91.8561 1227.73 502.477
296 0 52.0854 12.1723 634 90.3312 1231.13 501.084
297 0 55.1752 12.1613 671 89.5067 1233.54 503.653
298 0 57.16 12.4038 709 94.3075 1236.58 500.333
299 0 59.0709 12.2395 723 94.9751 1238.51 500.39
300 0 58.0893 12.9972 755 89.7616 1238.64 503.279
301 0 58.1228 12.0091 698 92.2135 1238.41 503.732
302 0 61.075 11.9361 729 91.5885 1239.14 504.712
303 0 64.1832 11.9813 769 91.3966 1240.54 505.385
304 0 63.1143 11.2336 709 94.1749 1239.97 506.203
305 0 70.2051 13.6457 958 88.2735 1239.2 503.764
306 0 70.1196 13.6196 955 89.7456 1238.24 504.563
307 0 72.1381 12.8365 926 93.1156 1236.67 502.161
308 0 76.2727 12.77 974 91.8994 1235 504.273
309 0 81.1056 13.6242 1105 90.7828 1233.15 501.318
310 0 82.119 13.9432 1145 91.4865 1230.81 499.875
311 0 85.189 14.5794 1242 90.0684 1228.87 499.44
312 0 88.1792 14.5386 1282 90.9501 1227.04 495.582
313 1 46.1202 11.1448 514 91.8891 1225.43 518.446
314 0 45.076 11.0036 496 93.2258 1224.2 517.73
315 0 48.084 9.94094 478 93.7406 1223.12 517.431
316 0 50.1613 11.6823 586 90.2253 1221.34 514.02
317 0 51.0433 11.2258 573 87.6754 1219.76 514.421
318 0 53.0274 11.6355 617 85.1572 1217.77 511.18
319 0 54.1278 13.2464 717 83.7015 1217.25 506.609
320 0 55.1033 13.8104 761 84.548 1216.84 506.49
321 0 59.0463 13.9551 824 83.2828 1216.52 505.586
322 0 60.1101 13.7414 826 85.7409 1216.49 502.064
323 0 63.0542 14.1466 892 85.2063 1216.08 499.262
324 0 65.0898 14.0114 912 85.8454 1216.59 501.137
325 0 66.1142 13.7187 907 88.3484 1217.42 498.662
326 0 67.2195 14.3708 966 88.8509 1218.15 494.297
327 0 70.0789 14.4123 1010 88.4188 1219.91 493.376
328 0 71.3949 14.6929 1049 88.1849 1223.61 493.911
329 0 74.224 13.1359 975 89.5241 1225.8 495.065
330 0 74.2784 13.7994 1025 92.0351 1228.86 494.812
331 0 78.14 16.0737 1256 88.6202 1232.35 492.589
332 0 82.2056 14.634 1203 92.0715 1234.73 492.714
333 0 82.2056 14.5002 1192 149.423 1237.73 492.765
334 1 45.0912 9.62493 434 99.7811 1238.68 514.387
335 0 49.2233 11.5189 567 97.6896 1239.3 512.409
336 0 48.329 12.0425 582 99.6357 1240.14 511.014
337 0 48.329 11.9597 578 159.609 1240.15 510.926
338 0 53.4017 13.2955 710 97.1817 1241.39 512.694
339 0 55.1506 13.0189 718 98.6254 1238.5 515.196
340 0 54.293 12.4878 678 101.553 1237.08 514.124
341 0 57.2969 14.259 817 97.0049 1236.77 514.371
342 0 57.2969 14.2416 816 155.295 1235.77 514.498
343 0 60.2683 13.2574 799 99.7685 1232.14 514.571
344 0 59.3794 12.3107 731 104.354 1231.1 512.707
345 0 62.488 14.0027 875 100.354 1229.04 509.698
346 0 66.1458 13.9843 925 98.4886 1227.18 511.738
347 0 67.3209 14.8245 998 100.272 1225.84 508.572
348 0 70.3311 15.1569 1066 99.4906 1225.84 508.59
349 0 69.4501 14.5428 1010 102.388 1223.63 505.338
350 0 73.4929 15.6886 1153 99.0416 1221.73 503.977
351 0 76.424 15.5841 1191 97.9454 1220.53 501.845
352 0 79.4059 15.4397 1226 98.1591 1218.59 496.681
353 0 80.4405 15.987 1286 98.0194 1218.16 495.938
354 1 41.2822 10.7552 444 99.6869 1218.02 514.128
355 0 44.1788 11.5893 512 98.8281 1217.22 512.014
356 0 48.2673 12.7416 615 96.9886 1217.63 509.457
357 0 48.3816 12.1327 587 97.9864 1217.71 505.724
358 0 47.175 11.9343 563 97.9094 1216.63 502.424
359 0 51.2503 12.5853 645 97.5659 1218.93 502.94
360 0 52.5146 14.2436 748 94.734 1220.06 501.271
361 0 52.5146 14.3008 751 148.478 1220.06 501.298
362 0 56.2698 15.1058 850 92.0176 1225.35 501.606
363 0 56.1486 13.7136 770 92.9792 1228.95 501.961
364 0 54.1199 12.4354 673 100.507 1232.62 502.507
365 0 59.123 14.732 871 93.4822 1234.92 501.131
366 0 61.1755 15.0223 919 92.7497 1236.27 500.212
367 0 62.1712 14.7013 914 93.4344 1238.54 501.222
368 0 66.0778 15.6936 1037 90.8062 1240.28 502.664
369 0 66.0778 15.6028 1031 135.824 1242.26 502.659
370 0 68.2188 13.7059 935 94.6717 1241.31 503.362
371 0 72.3089 14.7838 1069 92.812 1240.8 503.097
372 0 70.3185 14.349 1009 149.787 1239.78 502.35
373 0 75.2415 14.5531 1095 93.1178 1238.41 499.338
374 0 79.1967 13.0308 1032 94.9593 1236.58 497.487
375 0 82.1866 15.4161 1267 89.5241 1234.16 499.863
376 0 86.1384 15.5331 1338 88.0254 1232.8 498.513
377 1 46.2384 10.3377 478 93.2197 1230.81 518.837
378 0 46.2373 10.9868 508 94.6614 1228.47 514.626
379 0 48.407 11.4446 554 91.6859 1226.9 513.616
380 0 51.3147 12.55 644 89.8634 1225.42 511.276
381 0 53.3349 12.5621 670 93.1284 1224.04 509.836
382 0 53.3349 12.5434 669 141.063 1221.04 509.788
383 0 54.1098 13.5465 733 94.4966 1223.29 512.236
384 0 55.2499 12.5611 694 96.8545 1221.77 509.337
385 0 60.1631 12.6157 759 95.9091 1220.05 507.813
386 0 60.119 12.5584 755 97.2901 1218.58 505.358
387 0 65.1685 13.8257 901 94.3418 1217.88 503.583
388 0 65.1882 13.6067 887 95.6347 1217.74 499.047
389 0 70.328 13.4797 948 95.5127 1217.82 496.692
390 0 72.065 14.0984 1016 94.126 1217.94 495.396
391 1 38.012 10.1021 384 93.2109 1218.9 514.956
392 0 37.0225 9.1836 340 97.5118 1220.2 512.729
393 0 40.0469 10.1381 406 97.1749 1221.26 511.648
394 0 41.0671 10.6168 436 98.7844 1223.38 509.367
395 0 44.224 11.8261 523 94.4474 1225.5 508.916
396 0 46.0669 13.6324 628 87.3519 1227.19 510.339
397 0 43.2556 12.4377 538 91.9349 1226.9 503.513
398 0 47.3586 13.2394 627 89.9968 1230.32 501.408
399 0 48.1996 12.469 601 92.0283 1235.33 506.566
400 0 49.2615 13.6821 674 89.7567 1236.8 507.41
401 0 52.2473 13.2638 693 89.4906 1239.89 509.245
402 0 55.1258 14.5667 803 87.5679 1240.28 508.443
403 0 54.1074 14.6191 791 90.043 1240.55 511.287
404 0 55.0977 14.1748 781 91.5826 1240.92 511.337
405 0 58.1314 15.6026 907 87.8853 1239.97 509.7
406 0 58.114 13.8349 804 91.7512 1239.57 510.505
407 0 62.1595 13.9319 866 91.045 1236.46 510.264
408 0 61.2417 12.3609 757 95.3804 1234.47 509.057
409 0 66.1823 14.0974 933 91.4212 1232.07 507.499
410 0 70.287 14.9103 1048 88.6651 1230.3 505.573
411 0 72.4648 14.6416 1061 88.6711 1226.96 504.104
412 0 72.4648 14.6416 1061 131.207 1223.97 504.113
413 0 75.1633 12.5992 947 93.4097 1224.6 503.24
414 0 79.1577 13.4668 1066 91.6266 1223.17 502.006
415 0 83.1289 15.7707 1311 87.669 1222.38 498.802
416 0 87.1587 15.2595 1330 87.9098 1221.82 500.703
417 0 87.214 14.8485 1295 90.1336 1219.78 492.904
418 1 45.0359 10.747 484 93.1446 1217.67 513.217
419 0 44.035 12.1721 536 152.202 1216.74 512.088
420 0 48.03 12.5338 602 92.3638 1216.74 510.068
421 0 50.0171 12.6157 631 92.3471 1215.9 510.181
422 0 52.0955 13.3217 694 93.8775 1219.59 507.164
423 0 56.2584 15.5888 877 85.6784 1217.64 507.926
424 0 55.1861 14.8769 821 89.0231 1218.53 502.085
425 0 55.1861 15.0038 828 136.704 1219.52 502.094
426 0 56.1009 13.5648 761 90.4468 1220.65 500.3
427 0 59.1337 14.611 864 87.8704 1221.97 500.398
428 0 61.0984 14.0757 860 89.1651 1224.41 497.645
429 0 62.1935 14.1815 882 89.1463 1227.35 496.705
430 0 65.2163 15.0269 980 87.7061 1228.96 496.884
431 0 67.0955 12.6238 847 92.5372 1232.44 497.939
432 0 68.2045 13.1223 895 93.2212 1235.88 494.782
433 0 71.1177 14.1456 1006 90.4384 1237.08 496.486
434 0 73.1052 12.3384 902 94.6685 1239.57 496.073
435 0 77.1146 13.3956 1033 93.4414 1241.22 494.172
436 0 80.1613 13.8097 1107 93.159 1241.82 495.356
437 1 44.1095 10.8367 478 92.8703 1243.37 517.213
438 0 45.143 10.3227 466 94.7983 1242.39 516.44
439 0 45.133 11.6323 525 93.4686 1241.3 515.789
440 0 49.0171 12.0774 592 91.2618 1238.22 514.736
441 0 48.039 11.6572 560 94.5768 1237.05 515.484
442 0 52.045 14.6796 764 85.5759 1234.38 518.711
443 0 54.3081 13.9022 755 88.8702 1231.21 513.474
444 0 54.05 12.951 700 88.42 1231.68 514.904
445 0 55.0415 13.6624 752 87.4402 1228.92 514.178
446 0 55.1075 13.3376 735 88.581 1227.62 514.901
447 0 58.1427 13.9656 812 87.9138 1225.26 513.585
448 0 60.0942 14.3109 860 88.836 1225.21 512.029
449 0 61.2843 14.2451 873 89.1489 1224.05 509.915
450 0 63.1132 13.2144 834 91.03 1222.7 505.645
451 0 65.1864 14.9264 973 87.6557 1222.53 504.409
452 0 67.3092 13.8168 930 88.5989 1220.38 505.659
453 0 70.3264 14.6176 1028 86.7636 1219.13 502.399
454 0 70.1141 13.8916 974 89.4292 1218.14 500.68
455 0 73.3098 14.5683 1068 88.4785 1217.83 497.377
456 0 76.1826 14.8065 1128 86.7996 1217.41 493.316
457 1 41.0795 10.6623 438 92.1895 1219.14 508.272
458 0 43.0168 11.9256 513 89.0897 1220.25 509.558
459 0 44.0367 9.96896 439 90 1220.62 508.966
460 0 45.0845 11.1347 502 89.2351 1221.52 505.89
461 0 47.04 11.841 557 87.8582 1223.95 507.628
462 0 47.0275 12.2694 577 90.5061 1225.36 503.853
463 0 48.0985 12.2041 587 91.1039 1228.11 506.506
464 0 51.0258 11.5236 588 93.9677 1231.79 506.031
465 0 50.0217 12.4546 623 93.8042 1234.37 503.17
466 0 53.078 12.265 651 90.5084 1238.49 504.578
467 0 56.1157 13.8286 776 85.7719 1239.68 504.148
468 0 57.1443 13.9296 796 86.1558 1240.28 506.898
469 0 57.1275 13.0585 746 88.815 1242.07 505.462
470 0 58.0732 13.7068 796 87.4774 1242.31 505.705
471 0 63.1037 13.4857 851 87.8895 1241.97 506.331
472 0 65.139 14.0008 912 86.7379 1240.91 506.258
473 0 65.1176 13.084 852 88.0857 1240.37 505.762
474 0 68.1796 13.2151 901 88.1931 1238.48 504.947
475 0 70.1445 13.1728 924 86.3442 1236.73 505.451
476 0 73.1485 12.4268 909 87.3003 1234.83 502.493
477 0 76.2144 13.3046 1014 85.6588 1232.97 504.755
478 0 77.1606 14.8003 1142 83.8275 1230.8 502.18
479 0 79.192 12.918 1023 87.8368 1229.73 503.637
480 1 43.0297 8.85435 381 89.5171 1228.61 520.819
481 0 45.0477 10.611 478 85.6151 1227.48 521.176
482 0 44.0447 9.94444 438 86.1781 1225.82 522.126
483 0 44.0447 9.92174 437 130.339 1224.81 522.092
484 0 48.081 11.1686 537 86.8305 1221.46 515.929
485 0 48.1113 9.7898 471 87.7049 1220.3 514.359
486 0 51.0221 13.0728 667 79.4378 1220.17 513.18
487 0 52.1783 13.0322 680 78.8971 1217.74 510.009
488 0 51.086 10.9815 561 80.852 1216.18 509.196
489 0 55.1158 13.0997 722 78.0097 1216.49 507.83
490 0 57.0823 11.4922 656 80.7485 1215.71 503.79
491 0 60.168 13.8944 836 77.0203 1217.06 502.84
492 0 61.2243 11.5967 710 80.5521 1217.4 500.184
493 0 63.2926 13.3191 843 77.5777 1219.22 500.629
494 0 64.0499 13.3177 853 79.0633 1220.55 497.618
495 0 65.1599 12.7225 829 79.4499 1222.96 500.138
496 0 68.1976 13.4902 920 79.1315 1225.39 498.858
497 0 72.1464 13.3201 961 80.6181 1228.17 498.296
498 0 74.2403 12.6751 941 81.9129 1231.32 498.597
499 0 78.1514 15.1629 1185 79.4135 1234.06 496.233
500 0 78.1514 15.0989 1180 111.656 1237.05 496.23
501 1 40.0961 11.1732 448 87.5603 1238.27 517.618
502 0 45.0975 12.1514 548 85.4653 1239.45 519.303
503 0 46.1565 11.786 544 88.0772 1239.3 517.156
504 0 46.0937 13.4726 621 88.0805 1241.52 515.634
505 0 47.2884 12.2863 581 87.5146 1239.11 514.208
506 0 49.0557 13.5356 664 84.9639 1238.26 519.108
507 0 50.2823 11.873 597 89.732 1236.09 517.104
508 0 52.0576 12.3709 644 89.4115 1234.78 516.45
509 0 55.0918 14.7572 813 85.3173 1232.85 516.749
510 0 56.0568 13.1295 736 88.7976 1230.44 515.925
511 0 57.0875 14.2763 815 87.6123 1227.69 517.166
512 0 60.0406 14.4069 865 87.1168 1226.5 515.459
513 0 64.102 15.4597 991 83.887 1225.93 514.934
514 0 62.1656 12.8367 798 88.817 1223.38 513.222
515 0 62.1656 12.8045 796 131.557 1221.37 513.279
516 0 68.1474 14.7181 1003 85.0429 1221.65 511.01
517 0 71.2896 16.8468 1201 81.0275 1220.22 509.527
518 1 37.0862 9.89586 367 89.9646 1219.73 523.935
519 0 37.0837 11.3527 421 89.4014 1219.86 521.563
520 0 41.2262 12.7104 524 86.9408 1218.09 518.601
521 0 42.2078 11.3249 478 88.7155 1218.92 520.96
522 0 44.3331 12.2933 545 87.411 1217.46 513.495
523 0 44.2011 11.8097 522 87.7988 1216.39 513.847
524 0 45.3945 13.3496 606 85.1073 1217.46 507.422
525 0 47.1894 14.1345 667 85.7976 1217.97 508.777
526 0 48.3957 13.1417 636 87.0582 1218.94 510.362
527 0 51.2026 14.9016 763 82.4902 1219.27 510.328
528 0 49.1049 13.2981 653 87.1608 1220.7 511.141
529 0 53.0739 13.6225 723 85.668 1224.99 509.73
530 0 53.0977 13.5599 720 90.0903 1228.02 507.044
531 0 58.037 15.4384 896 86.6908 1230.72 507.931
532 0 59.205 14.5765 863 88.7717 1233.35 507.433
533 0 58.1274 13.2984 773 93.1371 1236.57 507.643
534 0 61.0688 13.8532 846 91.9374 1238.21 507.001
535 0 61.1682 14.1413 865 92.5734 1239.26 506.402
536 0 66.0862 14.2995 945 91.2423 1240.28 507.455
537 0 68.2648 15.2641 1042 90.0461 1240.47 506.086
538 0 72.2903 13.9853 1011 92.1197 1240.49 504.659
539 0 73.1224 14.4962 1060 93.3887 1239.96 507.702
540 0 72.1374 13.502 974 146.379 1240.01 506.601
541 0 79.2709 15.9201 1262 91.6371 1236.2 504.042
542 1 41.4215 10.1155 419 99.2267 1234.83 522.609
543 0 41.4497 10.8083 448 96.3036 1233.28 524.754
544 0 41.2883 10.3177 426 99.6948 1229.29 522.005
545 0 41.2883 10.4388 431 145.564 1225.27 521.872
546 0 46.3855 11.0379 512 98.1973 1226.11 519.51
547 0 45.3119 12.5353 568 96.6461 1224.21 519.391
548 0 48.3766 12.6507 612 95.781 1223.16 515.436
549 0 50.0739 14.4586 724 91.674 1223.02 518.213
550 0 51.0434 14.0861 719 91.9777 1221.73 514.999
551 0 53.1132 13.2735 705 94.5078 1220.32 513.085
552 0 55.0775 14.8155 816 90.9216 1219.28 512.067
553 0 57.0538 15.1436 864 92.2546 1218.31 510.266
554 0 57.0547 13.7938 787 94.7611 1217.8 509.169
555 0 59.0572 14.9008 880 93.6193 1216.74 505.539
556 0 61.0691 14.7865 903 92.7586 1216.89 502.601
557 0 63.1126 15.5278 980 89.901 1216.41 501.914
558 0 65.2553 14.6195 954 90.3627 1217.45 499.932
559 0 66.1375 14.485 958 92.1065 1218.2 497.105
560 0 69.0845 14.2869 987 91.5451 1218.81 496.046
561 0 72.1029 15.4085 1111 89.0378 1220.48 492.356
562 0 76.1178 16.7766 1277 85.1832 1222.35 492.547
563 1 41.2507 11.5634 477 91.8302 1225.62 509.799
564 0 40.041 11.4633 459 91.0065 1229.59 512.427
565 0 43.0812 11.722 505 92.4931 1233.03 509.689
566 0 43.1636 11.746 507 91.7712 1233.28 510.548
567 0 46.3429 13.2491 614 90.0782 1235.4 506.951
568 0 48.2698 15.2891 738 85.8862 1239.12 511.461
569 0 48.0716 13.7711 662 90.2613 1237.83 512.286
570 0 52.1356 13.7142 715 89.6322 1238.59 512.962
571 0 52.0333 12.5497 653 92.928 1239.14 513.427
572 0 55.221 14.3243 791 88.0202 1239.08 514.104
573 0 57.117 15.0393 859 87.5751 1240.26 511.771
574 0 58.2184 15.3216 892 87.6951 1239.11 510.101
575 0 62.1054 14.9745 930 84.7742 1237.38 513.42
576 0 63.0646 14.1759 894 87.4698 1234.96 515.786
577 0 65.1073 15.0828 982 86.6701 1232.55 508.373
578 0 65.0917 14.5026 944 88.4057 1230.34 512.164
579 0 69.0628 14.6533 1012 87.2332 1228.99 509.703
580 0 71.0742 15.4627 1099 85.5605 1226.85 505.433
581 1 36.0186 10.6056 382 91.5838 1226.54 523.683
582 0 39.055 12.9561 506 86.2628 1225.43 523.551
583 0 39.0764 11.5159 450 90.1089 1224.37 522.229
584 0 40.034 11.5152 461 91.4404 1222.78 519.004
585 0 42.0194 13.8032 580 87.3172 1221.17 517.452
586 0 43.0419 13.452 579 87.7081 1221.05 516.693
587 0 43.0865 12.9507 558 87.9534 1220.33 515.633
588 0 47.2159 15.0585 711 85.3868 1218.67 514.377
589 0 47.2444 14.1392 668 86.7725 1218.73 515.705
590 0 47.3389 13.5829 643 88.2535 1217.88 512.798
591 0 50.2966 14.2952 719 87.0709 1217.58 508.805
592 0 51.2398 14.5785 747 86.7778 1217.84 505.668
593 0 53.2936 13.4725 718 87.4554 1218.35 507.528
594 0 54.222 15.1968 824 86.5631 1220.51 505.058
595 0 54.2602 12.6059 684 92.0994 1221.53 504.398
596 0 57.1049 13.1862 753 91.822 1223.26 502.542
597 0 59.2982 14.4524 857 90.133 1225.94 503.239
598 0 61.2412 13.9285 853 92.7878 1228.59 501.361
599 0 64.3039 13.5917 874 93.4005 1231.89 502.034
600 0 65.1659 13.5961 886 96.544 1234.83 501.186
601 0 68.303 15.5337 1061 94.2149 1237.31 501.162
602 0 70.2913 13.7428 966 98.0383 1238.89 500.931
603 0 73.4267 14.3817 1056 97.6364 1240.63 500.243
604 1 40.1395 12.9797 521 99.1228 1241.37 518.969
605 0 40.0815 13.0983 525 101.251 1241.67 519.394
606 0 41.1279 14.4914 596 99.2097 1239.6 517.678
607 0 43.2633 14.3771 622 100.203 1239.04 517.019
608 0 43.2633 14.4233 624 154.971 1238.04 517.027
609 0 45.2231 13.9752 632 101.829 1234.92 517.555
610 0 48.2243 14.557 702 98.9815 1232.46 518.947
611 0 50.1637 14.2135 713 99.7279 1230.65 521.485
612 0 51.2377 15.4183 790 98.8089 1228.78 516.747
613 0 53.324 15.4527 824 98.216 1227.29 517.585
614 0 53.236 15.234 811 99.2478 1225.75 516.933
615 0 55.4966 13.8026 766 103.666 1223.49 515.742
616 0 55.3461 14.7616 817 102.326 1222.61 511.826
617 0 60.4521 16.0458 970 97.3577 1220.24 508.576
618 0 62.2082 15.7696 981 96.7421 1219.43 505.676
619 0 63.4354 14.6291 928 100.277 1218.09 505.142
620 0 66.731 16.7688 1119 95.6193 1216.93 500.122
621 0 67.5697 16.2943 1101 96.4668 1216.74 497.966
622 1 34.2988 11.3415 389 101.56 1217.06 512.56
623 0 37.1258 12.2556 455 99.5451 1216.84 510.409
624 0 38.2457 14.1192 540 95.6167 1217.14 509.619
625 0 38.46 12.6885 488 96.9549 1217.74 508.758
626 0 40.4219 12.8396 519 98.1946 1219.47 509.437
627 0 40.1777 12.9176 519 99.9942 1220.16 503.187
628 0 42.2281 13.5455 572 97.7937 1221.88 504.944
629 0 43.228 13.903 601 136.507 1222.76 505.175
630 0 44.4028 14.436 641 95.674 1226.35 503.265
631 0 47.0621 14.8102 697 92.2109 1227.67 503.961
632 0 46.1435 14.0648 649 94.4052 1231.23 506.387
633 0 49.0889 13.7913 677 94.6676 1232.66 506.975
634 0 52.3237 14.6205 765 92.9176 1236.4 503.469
635 0 54.401 13.8233 752 94.4149 1238.94 505.339
636 0 54.2504 14.7649 801 92.8227 1238.88 505.657
637 0 55.2914 15.2646 844 93.1836 1239.87 505.994
638 0 58.3223 15.6715 914 92.5416 1241.23 506.307
639 0 60.2594 14.9022 898 94.3898 1240.82 506.136
640 0 64.4351 14.9763 965 93.7181 1239.5 506.203
641 0 65.2382 13.8263 902 97.5787 1238.15 505.16
642 0 68.1947 15.3531 1047 94.4241 1235.7 505.359
643 0 69.195 14.7988 1024 125.361 1234.69 505.708
644 0 75.3827 15.1494 1142 95.1515 1232.72 504.292
645 0 75.2044 14.8795 1119 98.2368 1229.28 502.768
646 0 79.3067 15.1437 1201 98.2798 1228.86 502.638
647 0 82.2201 16.4437 1352 95.1701 1227.28 504.666
648 1 41.1131 12.3562 508 98.9311 1224.93 519.352
649 0 42.1038 11.0441 465 101.288 1223.75 521.589
650 0 43.2139 11.4546 495 102.642 1223.05 518.044
651 0 46.1829 13.5548 626 98.2764 1220.42 515.296
652 0 47.276 12.8395 607 101.137 1220.35 512.445
653 0 51.0797 14.6829 750 96.036 1218.93 511.836
654 0 52.2474 15.618 816 95.7218 1217.34 508.472
655 0 54.1212 14.6154 791 95.4564 1217.18 510.326
656 0 54.287 15.0312 816 95.2096 1216.28 508.256
657 0 53.0643 14.6238 776 97.4214 1217.16 508.156
658 0 58.1111 15.195 883 94.4236 1217.11 504.887
659 0 60.0948 16.8234 1011 90.7488 1216.86 501.339
660 0 62.3898 16.8777 1053 91.3115 1217.82 499.062
661 0 64.2237 16.0688 1032 93.5581 1219.23 497.623
662 0 66.4534 16.2821 1082 93.0434 1220.8 495.429
663 0 69.1851 15.8994 1100 93.45 1223.47 495.882
664 0 73.2155 16.95 1241 91.7712 1225.85 495.777
665 0 74.3371 15.9005 1182 94.2098 1228.26 493.88
666 0 77.3071 15.7553 1218 95.0525 1231.43 495.395
667 0 80.2911 16.6021 1333 93.6069 1233.02 492.56
668 0 82.4281 15.5044 1278 96.2574 1235.68 492.145
669 0 86.3587 17.242 1489 93.591 1237.61 489.125
670 0 89.5121 16.6793 1493 96.0944 1239.33 489.188
671 0 90.3351 15.4093 1392 100.409 1239.47 490.233
672 0 96.4425 16.642 1605 97.8392 1240.14 489.618
673 1 52.3684 11.9538 626 98.8243 1239.08 510.938
674 0 51.4417 11.1971 576 100.889 1238.25 513.262
675 0 55.4128 14.0762 780 94.2128 1236.63 510.33
676 0 57.5238 13.1424 756 97.8108 1234.11 509.713
677 0 60.2054 14.2014 855 90.6971 1231.28 515.194
678 0 62.3176 15.2766 952 87.6576 1229 513.796
679 0 65.4334 13.6322 892 90.0572 1227.03 512.203
680 0 69.3621 14.3883 998 88.3607 1225.84 511.701
681 0 69.4315 13.8122 959 91.9739 1224.18 505.122
682 0 69.4315 13.7978 958 142.333 1226.16 505.043
683 0 75.4416 14.8459 1120 90.2518 1221.75 502.33
684 0 78.6068 15.6857 1233 93.4096 1219.43 501.002
685 0 81.5049 14.993 1222 95.3421 1219.3 497.556
686 0 82.5386 14.7083 1214 95.0733 1218.63 495.151
687 0 85.6505 14.6292 1253 95.1221 1217.03 492.18
688 0 89.3303 14.6871 1312 94.7058 1215.87 484.175
689 1 47.3107 10.1668 481 93.9792 1215.9 505.187
690 0 49.2247 10.1778 501 91.6966 1216.27 507.401
691 0 50.4119 9.48188 478 95.1674 1215.21 504.278
692 0 51.3725 11.1344 572 92.3007 1215.52 501.972
693 0 53.2555 10.29 548 92.0328 1216.99 500.816
694 0 55.1356 12.5872 694 88.1628 1216.74 495.67
695 0 57.2261 13.1409 752 86.5346 1218.42 495.847
696 0 57.328 12.8733 738 90.3293 1219.14 494.594
697 0 60.5336 14.3226 867 92.8547 1220.74 502.326
698 0 60.5336 14.2896 865 145.297 1222.74 502.368
699 0 62.3377 13.2664 827 97.5127 1227.37 503.131
700 0 67.2376 14.7388 991 95.1695 1229.42 501.988
701 0 68.8051 14.1705 975 98.4462 1231.95 500.717
702 0 71.5921 13.4931 966 100.325 1233.62 500.31
703 0 72.6497 14.329 1041 97.9933 1235.89 499.572
704 0 74.6429 15.1923 1134 96.2575 1237.64 498.044
705 0 79.736 15.2127 1213 95.8483 1237.83 498.484
706 0 82.3724 13.1112 1080 94.8389 1238.03 490.471
707 0 82.4719 12.6831 1046 98.6386 1236.72 491.28
708 0 87.3616 14.0909 1231 95.1235 1235.43 492.103
709 0 91.6695 13.5705 1244 95.0506 1234.18 494.308
710 1 49.2015 10.1826 501 91.6786 1233.04 518.383
711 0 50.3935 12.0254 606 92.8762 1229.63 512.967
712 0 51.3556 10.6512 547 92.8227 1227.99 515.552
713 0 56.4556 11.7437 663 91.8115 1225.76 511.092
714 0 56.5213 13.0393 737 92.3324 1224.53 509.986
715 0 60.2123 13.1202 790 91.8633 1223.17 505.905
716 0 60.3679 12.7883 772 93.114 1221.13 507.797
717 0 63.5276 14.4032 915 92.1585 1219.01 511.684
718 0 64.1512 13.0785 839 92.3039 1217.79 504.908
719 0 69.5288 15.2455 1060 85.8538 1217.69 505.579
720 0 69.4059 15.0131 1042 88.3666 1216.59 503.477
721 0 70.4052 13.5927 957 92.2247 1215.21 501.458
722 0 74.3293 13.9918 1040 92.0606 1215.22 500.87
723 1 40.3152 11.4101 460 94.7674 1214.04 515.135
724 0 44.2961 11.1748 495 94.602 1214.52 512.717
725 0 44.2079 10.6994 473 94.2262 1214.15 512.613
726 0 45.206 12.4099 561 92.5651 1214.87 511.335
727 0 44.3061 11.6914 518 94.0579 1214.58 510.828
728 0 46.209 11.3831 526 94.673 1215.98 508.829
729 0 48.5534 10.3803 504 94.6925 1217.38 508.018
730 0 47.2607 9.69093 458 93.3362 1218.34 509.498
731 0 49.2122 10.0585 495 93.1414 1219.99 506.127
732 0 52.1664 12.2876 641 88.5086 1223.51 508.579
733 0 52.2524 11.9038 622 90.254 1226.4 508.923
734 0 54.275 13.6711 742 88.2952 1229.04 505.624
735 0 58.1216 13.4373 781 85.3905 1231.54 504.859
736 0 60.1368 14.1012 848 84.6934 1233.2 501.407
737 0 61.3842 13.3748 821 86.2424 1234.93 500.4
738 0 65.1096 13.6846 891 85.9843 1235.15 500.056
739 0 65.1096 13.7768 897 135.756 1235.15 500.15
740 0 65.1341 13.7562 896 135.296 1235.16 500.165
741 0 69.0621 12.525 865 89.9988 1234.11 500.741
742 0 73.177 14.1028 1032 88.1812 1233.91 498.752
743 0 76.1594 12.6971 967 88.7104 1231.77 501.039
744 0 79.127 14.5968 1155 86.2338 1230.81 498.136
745 0 83.1886 12.8022 1065 88.6357 1228.01 496.363
746 1 43.0481 10.1514 437 89.286 1225.68 516.707
747 0 47.1781 11.7639 555 85.9586 1224.02 510.573
748 0 48.0468 11.2598 541 84.6784 1222.71 511.604
749 0 47.1662 10.4524 493 87.5842 1220.95 510.951
750 0 50.1264 14.1043 707 86.2348 1221.85 512.938
751 0 51.2096 13.1616 674 91.0579 1219.9 520.347
752 0 55.2254 15.0836 833 86.5246 1218.19 516.375
753 0 57.0383 16.2698 928 84.7457 1218.64 514.93
754 0 60.0716 16.8799 1014 83.6765 1217.21 512.153
755 0 60.1393 16.2622 978 85.6524 1216.3 510.016
756 0 61.0612 14.1006 861 89.7968 1215.63 508.805
757 0 64.1141 14.9577 959 87.318 1215.67 505.776
758 0 64.1582 14.6513 940 87.6266 1215.39 506.954
759 0 68.3648 15.3149 1047 85.49 1215.01 505.884
760 0 70.1916 16.4122 1152 83.4488 1214.36 500.669
761 0 70.2912 15.3789 1081 86.395 1215.46 500.632
762 0 73.4849 15.5542 1143 85.9895 1215.95 499.993
763 0 77.4307 15.5236 1202 86.0366 1216.87 496.284
764 1 41.2447 11.2257 463 94.6026 1217.77 512.227
765 0 39.3574 10.2903 405 96.0469 1220.95 514.558
766 0 43.4781 12.052 524 93.4256 1222.57 510.052
767 0 45.347 13.1651 597 91.67 1225.88 510.901
768 0 45.2838 11.0636 501 95.7744 1228.93 511.256
769 0 48.2366 13.5167 652 90.3282 1231.57 512.482
770 0 51.2224 14.9154 764 87.0484 1233.78 511.844
771 0 52.4837 13.4708 707 91.355 1235.11 512.789
772 0 53.019 14.5231 770 88.1091 1236.86 513.404
773 0 55.0893 14.7579 813 88.8106 1237.31 512.935
774 0 55.0893 14.7215 811 154.873 1238.32 512.825
775 0 60.1939 16.5465 996 83.996 1236.15 515.435
776 0 60.1309 14.0361 844 89.8732 1234.04 512.647
777 0 63.1173 14.6394 924 88.2576 1232.52 512.865
778 0 67.1513 17.8403 1198 81.2579 1230.97 512.315
779 0 69.3401 14.5803 1011 86.8813 1228.17 510.962
780 0 70.2661 15.6121 1097 86.5442 1226.15 510.546
781 0 74.2403 16.0964 1195 84.831 1224.08 508.005
782 0 77.3409 15.9424 1233 85.3001 1223 508.935
783 0 79.1569 16.0188 1268 85.3336 1222.38 505.839
784 1 41.1429 11.5937 477 91.088 1219.49 525.218
785 0 41.0161 12.0928 496 92.5343 1220 524.552
786 0 45.0635 13.2702 598 84.4615 1217.71 507.786
787 0 45.0746 12.0689 544 88.8695 1218.05 504.118
788 0 47.0538 13.8777 653 86.5069 1216.7 503.773
789 0 48.1626 14.2849 688 84.8328 1215.73 501.624
790 0 49.1916 14.1081 694 83.611 1216.26 504.937
791 0 52.1675 14.7602 770 82.8312 1215.48 501.387
792 0 52.1388 14.7683 770 83.0961 1215.34 500.277
793 0 54.1176 14.2467 771 86.3839 1216.82 497.497
794 0 56.1969 16.3888 921 82.7828 1215.9 497.387
795 0 55.3488 14.237 788 87.4695 1216.75 495.968
796 0 57.1768 14.2016 812 88.7943 1217.86 495.153
797 0 59.1049 15.5486 919 86.9053 1217.79 493.123
798 0 68.7455 15.3901 1058 84.0473 1220.25 496.309
799 0 63.2179 15.4228 975 88.7426 1222.26 494.004
800 0 67.5278 16.1859 1093 86.0247 1224.57 494.412
801 0 67.5278 16.1563 1091 152.671 1226.56 494.449
802 0 70.2563 16.9095 1188 86.9268 1230.4 494.634
803 0 72.3467 15.2046 1100 89.6755 1232.83 497.583
804 0 71.1722 14.8513 1057 92.7975 1234.57 494.579
805 0 76.2958 16.8686 1287 88.073 1236.84 493.624
806 0 81.4574 16.5731 1350 87.3148 1236.96 496.052
807 1 46.4431 8.89261 413 89.8838 1239.7 520.303
808 0 42.3457 12.6105 534 88.1161 1238.4 518.713
809 0 42.167 12.5928 531 90.7853 1237.33 517.565
810 0 43.1424 11.126 480 90.3667 1236.09 520.358
811 0 48.2843 14.1868 685 86.965 1233.93 515.793
812 0 48.181 14.9436 720 85.1069 1231.9 515.076
813 0 52.1686 15.2582 796 83.8442 1229.57 514.621
814 0 53.1631 12.9977 691 88.7207 1227.44 515.195
815 0 54.104 15.5256 840 86.2036 1224.97 515.033
816 0 57.1714 15.06 861 87.2764 1224.73 514.594
817 0 61.1465 16.4686 1007 83.4101 1223.26 516.634
818 0 63.1339 14.9365 943 86.9268 1221.93 515.98
819 0 64.1436 16.4631 1056 84.6212 1220.07 510.687
820 0 66.0718 14.8929 984 86.5427 1219.17 509.335
821 0 67.2907 15.2027 1023 86.2141 1217.74 510.508
822 0 71.1698 16.3552 1164 84.5 1217.59 508.198
823 0 72.1157 14.7957 1067 88.9269 1215.36 502.6
824 0 75.3116 15.3894 1159 87.2726 1215.66 500.128
825 0 78.1869 15.7699 1233 86.6796 1215.34 499.198
826 0 78.1481 14.063 1099 89.6579 1215.16 496.936
827 1 41.0531 11.9358 490 86.351 1214.91 512.592
828 0 44.0252 12.1067 533 83.818 1215.65 512.625
829 0 44.045 11.3293 499 84.0501 1215.79 511.375
830 0 46.1136 10.1488 468 82.1111 1217.1 515.697
831 0 47.068 13.3424 628 82.6035 1218.2 507.904
832 0 49.1031 13.3393 655 82.1786 1221.04 508.646
833 0 50.366 13.9777 704 79.4886 1222.03 508.56
834 0 54.0442 13.452 727 79.901 1224.29 506.407
835 0 52.1073 13.5298 705 81.3277 1227.18 505.434
836 0 54.0695 14.3149 774 81.6731 1230.65 507.207
837 0 57.0678 14.1586 808 81.4592 1232.62 506.931
838 0 59.0495 15.9019 939 79.1534 1234.76 506.241
839 0 62.0992 13.9293 865 81.4497 1236.04 505.754
840 0 65.0662 14.6927 956 81.0502 1237.56 506.176
841 0 67.2136 14.4316 970 81.9402 1237.47 506.895
842 0 71.2092 14.5908 1039 81.0972 1236.74 508.239
843 0 72.2237 14.2474 1029 84.3129 1235.24 505.321
844 1 38.0214 10.5993 403 84.3275 1233.39 523.573
845 0 39.0313 10.5044 410 84.5756 1232.21 522.893
846 0 40.1019 12.8922 517 80.6576 1230.24 524.224
847 0 42.0318 10.8965 458 83.5109 1228.45 521.961
848 0 45.0754 11.5362 520 81.3058 1226.64 522.938
849 0 46.0297 10.7105 493 81.0203 1224.78 522.675
850 0 48.1585 12.1266 584 78.2346 1222.02 522.349
851 0 50.0903 12.8368 643 82.5428 1222.13 519.886
852 0 51.0614 13.1802 673 82.8083 1221.71 517.505
853 0 54.1714 12.7189 689 81.955 1220.07 514.058
854 0 55.1038 13.03 718 81.4401 1218.81 510.205
855 0 58.0715 14.0861 818 79.3203 1218.41 513.366
856 0 58.0957 13.3917 778 81.4679 1216.29 511.398
857 0 59.2194 12.6479 749 83.2243 1216.85 506.304
858 0 61.1054 12.5684 768 83.3255 1215.68 505.374
859 0 64.1478 13.5157 867 81.97 1216.19 503.83
860 0 64.1142 11.7135 751 85.281 1216.78 502.214
861 0 67.1875 12.3684 831 84.4814 1216.82 498.134
862 0 70.2328 13.2417 930 82.5656 1216.47 501.889
863 0 71.1524 13.2954 946 85.1131 1218.07 496.5
864 0 73.4979 12.0412 885 87.4384 1218.42 494.701
865 0 79.4014 15.5035 1231 80.615 1219.54 498.36
866 0 81.4204 16.1876 1318 81.3566 1222.49 494.274
867 1 41.253 10.7629 444 86.018 1224.75 513.369
868 0 44.4034 11.6433 517 82.7253 1227.28 515.731
869 0 48.2865 12.5294 605 84.4215 1228.86 513.159
870 0 49.5127 11.9161 590 84.183 1232.04 516.897
871 0 48.2986 12.7747 617 87.1264 1234.35 512.89
872 0 51.2682 12.776 655 86.1389 1235.6 515.162
873 0 53.0322 12.7093 674 86.7923 1234.62 515.19
874 0 53.0613 12.8154 680 88.1735 1235.82 515.65
875 0 56.1177 14.8794 835 84.3329 1235.44 516.72
876 0 57.1433 14.8224 847 86.1358 1234.95 514.102
877 0 59.1038 14.2969 845 87.703 1233.48 514.844
878 0 59.0496 12.7351 752 91.4481 1231.07 516.35
879 0 60.1234 13.3891 805 92.2609 1229.24 514.104
880 0 66.0911 15.0852 997 87.5005 1227.34 515.266
881 0 68.1013 16.1965 1103 85.6836 1225 515.6
882 0 68.1723 15.2555 1040 88.1788 1222.54 513.414
883 0 70.1829 14.7187 1033 92.1336 1221.77 510.128
884 0 73.1602 14.9672 1095 91.3598 1220.36 509.378
885 0 74.2631 14.0581 1044 93.4962 1218.79 507.148
886 0 79.1371 16.8189 1331 87.2915 1217.81 505.603
887 0 80.0863 16.1451 1293 88.3929 1216.53 503.78
888 0 80.0518 14.9528 1197 91.4428 1215.26 503.795
889 1 45.1088 12.7691 576 94.2674 1214.22 519.776
890 0 45.1783 12.838 580 95.9466 1213.32 518.307
891 0 48.0702 13.1682 633 96.4629 1212.95 515.385
892 0 48.0704 13.293 639 95.6009 1212.95 516.837
893 0 49.044 13.4777 661 96.9637 1213.04 513.213
894 0 50.1314 14.1029 707 97.3338 1215.36 509.393
895 0 53.1436 15.1288 804 92.3968 1215.5 508.724
896 0 54.032 14.3619 776 95.2693 1216.71 508.905
897 0 57.0973 15.1671 866 93.179 1217.94 506.916
898 0 56.0596 12.9862 728 98.4986 1219.85 507.076
899 0 61.0642 14.9187 911 93.1756 1221.44 505.007
900 0 61.0642 14.9024 910 152.94 1222.45 504.974
901 0 64.1394 16.6512 1068 89.1863 1226.65 504.344
902 0 65.0538 14.4342 939 93.4686 1228.59 504.177
903 0 67.0736 15.1923 1019 92.7331 1230.87 502.674
904 0 69.0516 16.1039 1112 90.8579 1233.06 504.699
905 0 73.1277 16.4233 1201 90.0416 1234.49 505.179
906 0 73.0488 14.8942 1088 94.9062 1235.54 501.496
907 0 79.126 15.4943 1226 92.3776 1235.42 501.31
908 0 81.0962 15.1918 1232 92.9383 1235.97 502.929
909 0 84.1745 15.5985 1313 92.7982 1236.18 501.229
910 0 87.1962 16.0213 1397 92.2441 1234.82 502.21
911 1 40.0093 10.8225 433 98.6374 1233.6 525.349
912 0 45.1065 13.1688 594 94.9293 1232.23 522.384
913 0 43.0931 14.2946 616 93.4318 1229.48 521.417
914 0 45.0579 13.7379 619 94.4394 1227.72 521.528
915 0 49.0942 14.2787 701 92.0927 1225.74 521.565
916 0 51.2326 16.1421 827 88.4244 1223.69 519.457
917 0 52.0276 15.5879 811 88.2639 1223.14 521.594
918 0 55.0418 16.2785 896 85.4676 1220.14 519.267
919 0 55.0493 14.9139 821 90.1924 1218.69 517.285
920 0 60.0763 16.2959 979 85.8478 1217.85 518.413
921 0 60.0943 14.7934 889 90.2475 1215.42 513.341
922 0 63.0446 15.957 1006 88.0577 1215.7 511.814
923 0 65.0387 15.6369 1017 89.3707 1215.6 511.173
924 0 67.1704 15.4681 1039 89.3744 1214.66 507.713
925 0 68.0672 16.7041 1137 88.2542 1213.94 504.173
926 0 72.0837 16.7028 1204 87.7168 1213.6 503.343
927 0 75.2124 16.2473 1222 90.7651 1214.91 501.773
928 0 77.1135 16.5081 1273 92.3865 1213.9 498.325
929 0 78.0763 17.2139 1344 91.4271 1215.96 497.022
930 0 82.1411 17.4943 1437 90.2408 1215.35 494.831
931 0 82.1379 16.9836 1395 92.4559 1218.4 493.675
932 0 85.0816 16.5958 1412 92.966 1219.99 494.106
933 0 87.0977 14.6158 1273 95.5687 1221.46 493.047
934 0 89.0809 14.4588 1288 97.0443 1224.76 492.124
935 1 45.0885 13.2406 597 99.1826 1227.65 512.908
936 0 47.0414 14.2215 669 98.8161 1229.58 512.468
937 0 47.0822 13.6145 641 102.902 1231.62 511.381
938 0 52.0161 14.707 765 98.3098 1234.36 511.807
939 0 52.0367 14.4706 753 98.7078 1235.45 512.321
940 0 55.0521 14.8768 819 97.9524 1235.51 511.352
941 0 58.0323 15.7843 916 95.6517 1236.18 512.228
942 0 60.18 15.2875 920 94.7206 1235.88 512.984
943 0 62.0745 14.2893 887 97.3653 1235.25 512.388
944 0 65.0603 16.8459 1096 91.5438 1234.01 510.449
945 0 66.0804 15.1482 1001 94.6703 1231.7 511.224
946 0 70.092 15.7365 1103 93.0789 1229.81 508.425
947 0 74.1468 15.7525 1168 92.2971 1227.78 510.06
948 0 76.1138 15.306 1165 93.0704 1225.32 507.126
949 0 79.0309 15.1333 1196 92.3746 1223.38 508.578
950 0 81.0913 15.3037 1241 93.9106 1221.62 504.548
951 1 40.0549 12.9073 517 102.629 1219.64 523.244
952 0 41.0901 13.7016 563 101.464 1218.86 521.606
953 0 42.062 13.4088 564 99.8883 1217.19 521.436
954 0 43.111 15.4949 668 96.8892 1216.55 518.266
955 0 45.1283 15.3562 693 97.1674 1215.14 515.911
956 0 47.1171 16.5969 782 94.1816 1214.77 514.29
957 0 49.0434 16.8218 825 94.0388 1214.16 509.979
958 0 52.0844 17.0684 889 92.6198 1214.01 508.467
959 0 52.066 16.8056 875 95.4091 1214.08 506.775
960 0 52.066 16.748 872 160.608 1214.06 506.698
961 0 57.1166 15.3896 879 96.917 1214.23 500.809
962 0 58.1314 16.3767 952 95.395 1214.91 501.029
963 0 62.1248 17.8512 1109 91.119 1216.32 499.588
964 0 65.0942 16.8832 1099 92.4104 1218.07 497.621
965 0 66.0781 17.0102 1124 93.7802 1219.99 494.875
966 0 67.2398 16.984 1142 93.641 1222.14 496.076
967 0 68.1936 16.2332 1107 96.1373 1224.22 493.807
968 0 74.082 15.9013 1178 95.5934 1228.38 495.73
969 0 76.1608 15.4016 1173 97.3947 1230.42 494.625
970 0 79.2578 17.5756 1393 93.5169 1232.15 493.748
971 1 40.0389 13.362 535 103.761 1234.81 511.516
972 0 42.1685 13.2326 558 103.771 1236.08 511.47
973 0 45.1172 15.1162 682 99.6598 1237.22 511.633
974 0 48.1638 15.5096 747 96.5208 1237.99 513.807
975 0 49.1537 15.3193 753 97.7065 1236.76 513.064
976 0 51.2579 15.5879 799 96.0526 1235.8 513.711
977 0 53.1179 15.7762 838 93.7661 1233.11 510.862
978 0 55.174 16.3664 903 92.9601 1231.41 511.342
979 0 57.1567 16.8834 965 92.487 1230.15 510.137
980 0 59.2785 16.4647 976 92.8607 1227.58 508.039
981 0 64.1514 16.7417 1074 89.8296 1225.92 508.377
982 0 67.1623 14.0108 941 94.0871 1224.45 507.024
983 0 67.2182 16.7514 1126 89.7034 1222.92 502.992
984 0 70.5817 18.0925 1277 85.7024 1221.51 504.677
985 0 72.1653 15.8525 1144 91.1372 1219.74 501.244
986 0 76.3952 17.5011 1337 87.6283 1218.74 498.779
987 0 78.2881 17.5378 1373 87.2913 1217.92 496.237
988 0 82.5132 17.2457 1423 88.0077 1216.18 493.082
989 0 84.4005 16.8719 1424 88.5822 1215.3 491.213
990 0 86.5634 16.7854 1453 89.6504 1215.27 488.258
991 0 89.5772 15.9639 1430 91.1378 1214.43 488.369
992 0 92.422 15.4941 1432 92.1739 1214.88 482.983
993 0 96.3564 16.3871 1579 90.8657 1214.24 481.775
994 0 99.2819 16.8812 1676 91.7727 1214.84 474.989
995 1 50.3972 13.592 685 95.1401 1215.68 501.428
996 0 51.2458 14.128 724 96.9157 1216.51 499.151
997 0 55.2362 14.4651 799 95.0926 1219.57 499.174
998 0 56.3148 15.3068 862 95.5522 1221.13 498.066
999 0 59.3126 14.3646 852 100.178 1224.32 496.082
1000 0 61.3615 15.2865 938 98.8177 1226.08 495.547
1001 0 64.2233 14.325 920 101.301 1229.42 495.812
1002 0 67.6378 14.5037 981 101.935 1231.08 495.141
1003 0 68.3747 14.0988 964 103.814 1234.63 496.332
1004 0 74.3951 16.157 1202 97.8319 1236.65 492.379
1005 0 75.3715 14.8597 1120 100.852 1237.31 491.942
1006 0 79.5356 13.956 1110 101.853 1238.28 493.081
1007 0 84.5939 15.4148 1304 99.0023 1239.38 495.466
1008 1 45.3969 11.5647 525 95.1905 1238.62 517.257
1009 0 46.396 11.1432 517 95.1006 1236.38 517.592
1010 0 48.4195 11.7308 568 95.2236 1235.1 515.539
1011 0 51.3417 13.342 685 90.5474 1233.74 516.926
1012 0 52.2801 13.772 720 95.0847 1231.01 514.969
1013 0 55.3386 13.1734 729 93.9204 1227.31 515.948
1014 0 56.3682 13.3763 754 93.744 1225.51 512.621
1015 0 57.279 13.4255 769 93.0936 1224.62 514.463
1016 0 58.2531 12.3942 722 94.1759 1223.41 513.481
1017 0 61.1926 14.0703 861 90.7468 1221.62 513.297
1018 0 63.335 13.4049 849 92.4334 1221.24 510.496
1019 0 67.4122 12.8315 865 94.0636 1220.01 507.822
1020 1 35.1391 9.10666 320 90.1562 1219.21 523.156
1021 0 36.1962 9.17224 332 91.003 1218.26 520.651
1022 0 38.2868 10.3691 397 89.7783 1217.45 518.589
1023 0 39.1952 10.5115 412 89.0874 1216.38 517.546
1024 0 39.2721 8.75939 344 90.4855 1215.37 517.529
1025 0 41.2104 9.92468 409 89.2885 1214.67 512.939
1026 0 44.1291 11.7383 518 86.3552 1214.29 511.093
1027 0 43.1043 10.9966 474 88.8122 1214.47 509.329
1028 0 46.0879 11.9554 551 86.7677 1216.15 509.815
1029 0 45.1296 11.4116 515 89.9243 1217.2 508.002
1030 0 48.1974 11.8471 571 89.3713 1219.21 507.769
1031 0 48.2044 11.1193 536 91.2407 1220.94 506.328
1032 0 52.2599 13.2415 692 85.3931 1222.81 506.194
1033 0 52.1593 12.2701 640 89.0031 1225.36 505.108
1034 0 55.111 13.5 744 87.0739 1227.03 504.31
1035 0 55.2305 12.819 708 89.1568 1229.58 503.021
1036 0 59.3052 12.7645 757 88.4835 1232.69 503.951
1037 0 59.2731 12.957 768 89.0247 1233.9 505.033
1038 0 62.3336 13.3315 831 88.8544 1235.17 503.077
1039 0 64.1877 11.2483 722 96.1828 1235.6 504.824
1040 0 66.0803 11.4255 755 95.1815 1237.19 506.43
1041 0 69.0711 11.5244 796 95.9221 1237.32 504.325
1042 0 72.17 12.4151 896 94.1362 1235.81 503.246
1043 1 37.0252 8.66977 321 92.7788 1232.72 524.386
1044 0 39.0929 8.08331 316 92.4051 1231.2 524.766
1045 0 43.1311 11.4535 494 90.2004 1230.55 523.221
1046 0 44.0878 10.5471 465 92.243 1228.82 522.688
1047 0 45.213 10.4173 471 93.2038 1226.34 521.985
1048 0 47.4421 12.7102 603 86.5788 1223.22 520.556
1049 0 48.071 13.5009 649 86.6302 1219.6 518.327
1050 0 49.2459 11.7979 581 90.3804 1217.36 517.787
1051 0 50.1502 12.5024 627 89.4609 1215.74 518.085
1052 0 53.2002 13.1203 698 88.0444 1213.91 515.817
1053 0 52.1234 12.9309 674 89.8843 1213.81 513.018
1054 0 54.1361 13.152 712 90.0857 1213.15 511.086
1055 0 59.1213 16.0856 951 82.1304 1212.18 510.078
1056 0 58.1881 12.3393 718 90.4902 1211.59 507.052
1057 0 61.1626 14.486 886 86.6411 1210.8 503.44
1058 0 64.1614 14.9623 960 85.0281 1212.3 503.182
1059 0 66.3689 15.2029 1009 84.8494 1213.94 503.106
1060 0 65.2554 13.7766 899 88.2592 1214.07 501.2
1061 0 67.2075 13.1979 887 89.3112 1215.09 498.599
1062 0 71.2634 14.271 1017 85.6273 1215.65 497.852
1063 0 73.2129 14.0276 1027 87.0682 1216.75 494.396
1064 0 76.2634 13.4665 1027 86.6913 1218.46 493.14
1065 1 43.0814 11.281 486 91.5226 1220.71 509.656
1066 0 42.0985 12.0669 508 90.5039 1223.69 509.36
1067 0 45.036 12.0348 542 89.797 1225.56 509.692
1068 0 44.1617 11.5485 510 92.1804 1226.92 509.045
1069 0 48.2528 13.9888 675 83.2607 1229.8 507.818
1070 0 48.2528 14.0717 679 128.219 1232.77 507.797
1071 0 50.2315 12.5618 631 86.599 1233.64 508.095
1072 0 50.1001 12.5549 629 83.7886 1233.23 510.316
1073 0 52.0462 13.3919 697 82.6901 1232.85 509.525
1074 0 52.0462 13.2767 691 124.828 1232.83 509.514
1075 0 56.0998 13.4938 757 81.4874 1231.66 510.926
1076 0 55.0821 12.4178 684 84.5921 1230.85 509.822
1077 0 58.0797 12.2762 713 83.7069 1230.12 509.735
1078 0 61.0916 13.9626 853 80 1227.41 511.919
1079 0 63.1019 13.502 852 81.2077 1224.99 511.06
1080 0 66.0823 14.0734 930 80.3839 1224.04 509.767
1081 0 68.0932 13.8046 940 82.0064 1222.34 509.014
1082 0 71.0664 13.3537 949 82.176 1221.18 506.666
1083 0 72.1212 13.7408 991 82.4924 1220.69 506.851
1084 0 73.0361 13.3496 975 83.3897 1219.32 505.252
1085 0 78.0974 15.1862 1186 81.4283 1216.71 502.24
1086 0 82.1033 16.053 1318 80.1002 1216.38 502.984
1087 0 82.1524 14.1444 1162 84.3855 1215.01 499.52
1088 0 86.0689 15.3366 1320 83.0258 1214.42 496.438
1089 0 89.1833 17.122 1527 80.4486 1215.05 494.348
1090 0 89.1658 14.5235 1295 87.5699 1213.97 492.619
1091 0 92.2952 14.0744 1299 88.7306 1213.96 490.441
1092 0 94.1199 14.9278 1405 87.8527 1214.27 486.404
1093 0 99.2113 16.5203 1639 84.7169 1214.55 484.388
1094 1 51.0758 11.7668 601 91.4343 1215.45 507.744
1095 0 52.0286 11.5513 601 91.7288 1216.2 507.483
1096 0 54.1334 11.3608 615 91.7951 1217.79 505.907
1097 0 58.0757 13.4308 780 88.8974 1220.02 504.396
1098 0 58.3237 13.2879 775 89.2839 1221.55 501.698
1099 0 60.1548 13.0497 785 91.7172 1225.14 502.726
1100 0 63.2323 13.9327 881 92.4586 1227.95 503.899
1101 0 65.0812 14.7354 959 93.2158 1229.89 501.05
1102 0 68.0691 14.5147 988 91.9028 1232.84 501.175
1103 0 71.0991 15.2885 1087 92.6449 1233.93 501.139
1104 0 73.1173 14.3878 1052 95.6065 1234.31 499.463
1105 0 75.1439 14.3059 1075 95.7591 1235.16 499.656
1106 0 80.093 14.7204 1179 94.7846 1235.5 499.415
1107 0 80.1766 14.6053 1171 95.8933 1234.86 500.554
1108 0 83.2383 13.5394 1127 92.0515 1235.05 501.609
1109 0 88.181 13.7218 1210 91.7851 1232.67 500.74
1110 0 90.1223 14.2695 1286 90.7652 1230.83 500.126
1111 0 93.3367 14.1638 1322 91.8782 1229.51 495.781
1112 0 95.3234 13.7322 1309 93 1225.87 495.134
1113 1 53.253 13.2575 706 92.449 1224.42 513.248
1114 0 52.2186 12.7541 666 94.8318 1222.55 513.733
1115 0 56.1142 11.3697 638 96.0815 1220.63 512.718
1116 0 59.1753 13.3333 789 92.8885 1219.33 510.07
1117 0 62.1547 13.756 855 93.7053 1218.26 508.124
1118 0 62.0634 14.308 888 93.3288 1216.5 507.519
1119 0 66.1927 14.1858 939 91.4036 1216.64 492.538
1120 0 68.1222 14.5914 994 87.9084 1214.82 493.901
1121 0 70.1858 14.4331 1013 88.8736 1213.99 488.207
1122 0 73.2318 14.379 1053 88.2042 1213.05 487.186
1123 0 76.1513 15.2066 1158 85.7884 1213.33 488.66
1124 0 77.1622 13.8928 1072 93.1978 1215.91 489.203
1125 0 79.12 12.3736 979 96.1124 1216.64 485.685
1126 0 84.1918 14.9896 1262 89.1363 1217.92 486.048
1127 0 85.1007 14.7707 1257 89.9825 1218.63 484.559
1128 0 87.2012 13.165 1148 93.3606 1220.56 483.671
1129 0 90.1596 15.0067 1353 88.8766 1222.64 481.483
1130 0 94.1509 13.574 1278 90.8818 1224.87 480.319
1131 0 98.2699 15.2946 1503 88.6953 1226.8 479.092
1132 0 99.2136 12.6696 1257 94.2514 1229.85 476.017
1133 0 104.345 13.6087 1420 91.0669 1231.46 477.928
1134 0 108.418 13.5494 1469 91.8196 1233.46 476.199
1135 0 112.201 14.2512 1599 90.9143 1236.7 475.564
1136 0 117.281 13.1223 1539 92.4405 1236.33 472.13
1137 0 124.221 14.9733 1860 89.2022 1237.63 469.227
1138 1 66.1883 13.2652 878 89.7836 1238.86 500.833
1139 0 68.1438 14.1025 961 88.1707 1235.9 503.341
1140 0 72.1659 13.954 1007 89.7398 1234.53 499.416
1141 0 76.0704 14.3683 1093 88.2608 1231.88 497.29
1142 0 80.1217 13.6542 1094 89.3135 1230.76 501.806
1143 0 80.0726 13.4128 1074 91.649 1228.14 499.777
1144 0 84.1672 14.4118 1213 90.521 1226.86 499.157
1145 0 88.1131 14.2544 1256 86.8479 1223.84 498.682
1146 0 89.1862 13.4886 1203 90.3408 1221.2 496.885
1147 0 92.175 14.4942 1336 89.3615 1220.72 493.487
1148 0 95.1843 13.7733 1311 91.0557 1220.52 490.58
1149 0 99.1982 13.5184 1341 91.874 1218.98 488.597
1150 0 102.205 12.6315 1291 92.316 1217.86 489.435
1151 1 57.0918 10.7021 611 91.0344 1217.66 509.79
1152 0 57.1352 10.6764 610 89.1721 1217.02 513.772
1153 0 60.103 11.7631 707 90.0679 1214.77 507.307
1154 0 63.0922 11.7289 740 88.4081 1214.88 504.599
1155 0 64.0975 11.2017 718 89.188 1214.93 503.681
1156 0 65.1362 12.0824 787 88.5616 1215.22 498.917
1157 0 68.2628 12.6423 863 83.1622 1214.05 495.054
1158 0 71.088 13.1809 937 85.3714 1212.57 496.29
1159 0 73.0572 13.6332 996 85.3886 1212.58 495.083
1160 0 77.0474 14.238 1097 84.0675 1214.31 493.223
1161 0 76.2133 11.271 859 91.1257 1216.83 492.381
1162 0 79.1794 12.137 961 89.8866 1218.53 491.469
1163 0 82.0978 13.1063 1076 87.4823 1220.11 491.583
1164 0 86.1666 14.1934 1223 85.6574 1223.17 491.71
1165 0 89.1442 13.2931 1185 87.8608 1226.61 493.022
1166 0 91.1372 12.9146 1177 89.8369 1228.24 489.662
1167 1 51.1097 10.3503 529 84.6994 1230.33 514.968
1168 0 51.0774 11.0225 563 87.2433 1231.94 512.604
1169 0 54.2012 11.6049 629 85.4022 1232.48 512.402
1170 0 55.2585 10.8762 601 85.6356 1232.78 512.965
1171 0 56.3005 11.5452 650 84.8985 1232.25 513.826
1172 0 57.2278 11.9697 685 84.3781 1231.34 513.724
1173 0 59.2912 11.4857 681 85.1512 1230.59 513.164
1174 0 64.1976 12.9756 833 82.8115 1228.5 514.511
1175 0 68.1803 12.1003 825 83.2727 1226.31 513.905
1176 0 70.1378 13.8014 968 80.9969 1223.7 512.195
1177 0 72.1264 14.1002 1017 82.2458 1220.92 510.123
1178 0 72.2071 13.5305 977 85.5353 1219.4 509.35
1179 0 76.4343 14.2083 1086 84.2182 1217.93 508.301
1180 0 78.3301 13.2771 1040 87.7788 1215.95 505.272
1181 0 80.3084 13.4482 1080 88.0546 1213.46 503.654
1182 0 83.3042 13.4927 1124 88.0774 1213.19 501.875
1183 1 45.0554 10.9643 494 89.7166 1211.07 520.524
1184 0 45.0503 11.1431 502 87.7211 1210.56 520.227
1185 0 47.1259 10.8645 512 89.4629 1210.38 519.33
1186 0 46.0301 9.10275 419 89.9738 1210.22 519.36
1187 0 52.0457 11.7205 610 85.4607 1208.62 514.831
1188 0 52.0702 11.9262 621 82.8454 1209.92 516.504
1189 0 54.1191 13.3225 721 79.4688 1210.78 512.348
1190 0 53.1199 13.799 733 83.7844 1210.17 510.06
1191 0 55.1182 12.3008 678 82.8761 1210.62 509.757
1192 0 56.2768 12.4918 703 84.4509 1212.63 508.1
1193 0 58.2753 14.4315 841 81.2545 1214.35 505.227
1194 0 60.0602 13.6863 822 83.3638 1216.04 505.675
1195 0 61.2042 14.3127 876 82.2043 1218.75 504.357
1196 0 63.2352 13.9321 881 85.5482 1221.26 505.07
1197 0 64.2066 15.2009 976 83.4959 1223.78 503.877
1198 0 66.1464 13.6818 905 88.5414 1226.75 503.307
1199 0 66.1684 13.6923 906 90.9989 1229.82 503.655
1200 0 68.248 14.0077 956 90.4634 1231.15 501.972
1201 0 68.248 14.0517 959 134.554 1233.14 501.971
1202 0 76.4027 15.9811 1221 86.3825 1234.37 500.106
1203 0 78.4787 14.5772 1144 89.9441 1234.04 500.594
1204 0 80.3748 15.4153 1239 89.4633 1232.92 499.88
1205 0 84.4399 15.9048 1343 88.481 1232.89 499.926
1206 0 85.4559 14.1242 1207 92.8401 1231.09 498.124
1207 0 88.4048 15.6439 1383 90.914 1230.29 496.97
1208 0 92.4869 15.5373 1437 91.579 1228.15 497.495
1209 0 95.5728 15.6739 1498 91.4226 1224.52 492.915
1210 0 98.5924 16.1574 1593 90.9617 1222.75 491.706
1211 0 102.667 17.5519 1802 89.2658 1221.15 490.096
1212 0 105.39 14.7262 1552 95.0883 1219.88 490.222
1213 0 108.46 15.2776 1657 93.5088 1217.13 485.746
1214 1 56.5597 8.50428 481 102.41 1216.57 507.035
1215 0 59.2599 11.3905 675 96.1837 1215.49 507.187
1216 0 63.3894 12.9359 820 93.2415 1215.1 504.639
1217 0 64.3007 13.188 848 94.0554 1213.46 505.698
1218 0 65.269 11.2917 737 79.8738 1213.78 507.178
1219 0 68.2865 13.9852 955 93.5487 1214.24 502.825
1220 0 67.3472 12.0718 813 100.251 1214.59 501.45
1221 0 72.277 14.0294 1014 95.5444 1214.67 499.303
1222 0 73.2936 14.6397 1073 94.7726 1216.23 497.828
1223 0 74.2191 12.6787 941 99.6238 1216.47 495.391
1224 0 81.3457 14.6535 1192 94.0587 1216.53 494.289
1225 0 81.2752 15.0353 1222 95.2782 1218.08 493.037
1226 0 86.2711 15.5556 1342 93.5946 1219.71 488.984
1227 0 85.5112 13.7526 1176 98.2942 1221.58 490.395
1228 0 90.2369 14.0962 1272 95.842 1224 490.348
1229 0 94.2337 13.9547 1315 96.3597 1227.18 487.873
1230 0 97.3743 16.3493 1592 92.2707 1229.69 487.002
1231 1 51.1383 10.8334 554 98.4964 1232.48 509.968
1232 0 53.1287 10.9922 584 100.062 1234.87 509.485
1233 0 53.2292 10.8023 575 99.6765 1235.33 509.143
1234 0 58.2911 11.4597 668 97.3593 1236.08 507.746
1235 0 59.2165 10.774 638 93.4906 1236.5 510.729
1236 0 60.2218 12.2879 740 91.9703 1235.53 506.476
1237 0 64.2648 13.7711 885 88.2655 1235.45 509.073
1238 0 65.2071 13.1734 859 89.0908 1234.33 510.781
1239 0 64.3233 12.8725 828 91.3007 1232.95 508.447
1240 0 70.2642 12.5099 879 89.6303 1231.72 507.404
1241 0 71.2386 12.8161 913 89.5071 1229.14 508.641
1242 0 71.2386 12.8442 915 133.514 1226.13 508.567
1243 0 78.2206 13.5386 1059 87.9991 1223.58 504.589
1244 0 79.2094 13.4327 1064 90.0977 1222.94 502.118
1245 0 81.1687 13.8231 1122 89.1809 1221.05 500.681
1246 1 44.052 11.0551 487 90.9487 1221.22 520.253
1247 0 44.0379 11.2176 494 91.0607 1219.18 521.055
1248 0 44.0607 9.0103 397 93.2947 1219.18 517.955
1249 0 48.1548 10.8193 521 90.8042 1217.42 514.956
1250 0 49.0926 11.4885 564 89.8422 1217.18 511.408
1251 0 49.0818 11.8578 582 90.2234 1217.09 510.945
1252 0 51.1227 12.1668 622 89.6592 1216.15 507.937
1253 0 55.0988 12.9041 711 94.0605 1216.05 503.598
1254 0 55.1978 13.044 720 89.3958 1216.32 504.994
1255 0 56.0464 11.9365 669 91.4708 1215.8 504.01
1256 0 60.1916 14.0219 844 87.2429 1216.3 500.033
1257 0 61.126 12.9896 794 89.7141 1217.69 500.029
1258 0 60.0735 11.1031 667 94.3418 1218.83 498.211
1259 0 65.2136 13.0034 848 90.0778 1221.61 498.87
1260 0 64.1663 12.5611 806 90.4702 1224.06 497.651
1261 0 67.1039 13.2928 892 86.9854 1226.39 497.322
1262 0 69.1471 13.3484 923 85.0488 1228.45 495.655
1263 0 70.1409 13.2305 928 86.1703 1230.48 496.581
1264 0 74.1242 14.6376 1085 84.4737 1232.53 495.464
1265 0 76.1354 14.6318 1114 85.5198 1234.13 496.507
1266 0 81.1376 14.7404 1196 85.1354 1235.16 495.808
1267 0 81.2684 12.8094 1041 89.9942 1236.07 495.763
1268 0 86.148 14.0108 1207 88.1657 1236.36 495.727
1269 0 87.1616 14.9263 1301 89.093 1235.66 493.863
1270 1 49.2123 11.0541 544 92.9853 1235.29 516.3
1271 0 51.1342 11.2058 573 92.274 1235.01 515.632
1272 0 49.0703 9.90416 486 94.4774 1233.38 516.342
1273 0 54.0883 9.76182 528 93.9129 1231.35 517.913
1274 0 53.0501 10.688 567 96.8377 1227.71 514.012
1275 0 57.3391 12.086 693 93.9091 1224.48 512.752
1276 0 58.2711 12.9395 754 90.7812 1223.93 508.273
1277 0 62.3426 14.8374 925 90.2346 1221.66 509.959
1278 0 65.2472 14.7286 961 90.206 1220.23 510.027
1279 0 66.25 13.6453 904 93.0398 1218.21 507.085
1280 0 68.2188 14.3802 981 91.6758 1218.11 504.38
1281 0 72.1473 13.6526 985 92.9716 1216.37 502.47
1282 0 72.2988 13.4027 969 95.1775 1215.76 501.119
1283 0 73.1187 12.2541 896 91.9643 1214.65 502.558
1284 0 75.039 12.8333 963 91.9502 1213.81 495.488
1285 0 79.0582 14.9004 1178 87.5679 1212.74 492.922
1286 0 81.1129 13.6846 1110 89.5351 1213.07 489.653
1287 0 83.1226 13.0891 1088 90.3585 1212.85 489.51
1288 1 43.0849 10.2124 440 95.2705 1214.98 508.548
1289 0 45.1521 11.4945 519 93.2254 1214.53 507.545
1290 0 46.0882 11.261 519 93.1214 1216.68 506.736
1291 0 50.0675 12.2834 615 90.1154 1218.97 506.987
1292 0 50.0972 12.1763 610 90.9262 1223.15 505.734
1293 0 52.175 11.3273 591 90.0237 1223.23 503.541
1294 0 53.0892 12.6768 673 88.312 1225.57 504.478
1295 0 53.0914 12.9023 685 73.1693 1228.12 502.507
1296 0 56.084 13.5689 761 89.8016 1230.23 501.248
1297 0 58.0857 13.7383 798 90.0589 1231.42 499.693
1298 0 60.1063 13.2598 797 89.6938 1232.98 504.021
1299 0 62.0626 14.5821 905 87.1182 1234.29 503.078
1300 0 64.0681 15.7489 1009 86.8107 1235.15 503.692
1301 0 67.1366 14.8652 998 88.4339 1235.65 504.786
1302 0 76.1072 15.6096 1188 88.6852 1230.81 500.985
1303 0 77.2482 13.8773 1072 92.2211 1229.87 502.231
1304 0 79.32 13.5401 1074 93.0363 1228.46 502.371
1305 0 82.4124 14.7187 1213 91.2317 1226.44 499.973
1306 0 85.2902 13.413 1144 93.4274 1224.72 497.886
1307 0 88.2932 14.4519 1276 90.7265 1223.26 499.211
1308 0 92.3734 15.1126 1396 90.5695 1221.46 493.453
1309 1 49.2473 11.6555 574 92.5662 1220.69 515.601
1310 0 48.1599 10.4028 501 94.8343 1218.52 517.261
1311 0 49.0708 10.5562 518 93.1081 1217.08 516.052
1312 0 50.1784 12.336 619 91.1906 1216.77 511.407
1313 0 56.1007 14.9909 841 85.3377 1212.53 507.735
1314 0 57.0903 14.5909 833 87.9124 1211.74 505.387
1315 0 60.2462 13.0133 784 90.6365 1211.36 503.094
1316 0 61.1124 14.6124 893 88.3415 1211.67 501.728
1317 0 62.1899 15.0507 936 88.1175 1212.43 500.439
1318 0 66.1252 14.9262 987 86.3658 1212.76 501.417
1319 0 67.147 14.997 1007 87.3982 1214.12 497.485
1320 0 70.1761 14.8199 1040 87.7038 1215.24 496.282
1321 0 70.157 13.7264 963 91.973 1216.63 496.254
1322 0 74.0623 16.1216 1194 88.8811 1219.03 493.366
1323 0 77.1663 17.404 1343 87.166 1221.2 495.439
1324 0 79.2303 14.4011 1141 93.8028 1224.74 496.896
1325 0 83.3249 15.7336 1311 90.6499 1226.06 495.741
1326 0 85.2081 15.4915 1320 91.9379 1228.77 494.994
1327 0 87.2004 15.4701 1349 93.8866 1229.69 493.68
1328 0 90.2387 14.8052 1336 98.8256 1230.66 495.901
1329 0 94.2638 13.2607 1250 102.845 1231.64 498.397
1330 0 97.3288 14.6616 1427 100.751 1231.74 497.506
1331 0 101.497 13.9906 1420 103.027 1230.74 495.737
1332 1 49.2374 11.8 581 96.2702 1231.69 519.821
1333 0 52.3266 12.0015 628 96.1035 1229.02 519.403
1334 0 57.0772 13.2452 756 99.3624 1226.88 520.832
1335 0 59.0743 13.6777 808 98.4022 1225.26 521.181
1336 0 63.0474 15.4328 973 95.1531 1223.34 519.582
1337 0 65.093 13.4884 878 100.459 1220.95 519.149
1338 0 67.1332 14.4191 968 98.8306 1220.05 515.979
1339 0 70.1627 15.1505 1063 97.5522 1218.2 514.972
1340 0 72.2885 14.2208 1028 100.024 1216.71 515.786
1341 0 74.2105 14.8092 1099 100.136 1215.39 512.381
1342 0 76.1675 15.1246 1152 101.389 1213.21 509.639
1343 0 78.2678 14.4121 1128 103.331 1212.24 508.207
1344 1 40.16 10.3088 414 104.848 1211.55 528.589
1345 0 41.1055 10.1203 416 107.776 1210.86 526.873
1346 0 44.1732 11.1832 494 103.577 1210.63 525.563
1347 0 46.1523 11.332 523 106.12 1209.53 523.113
1348 0 47.161 12.7436 601 104.363 1209.07 519.799
1349 0 48.1947 12.7192 613 103.248 1207.08 520.519
1350 0 49.2313 12.8983 635 102.42 1207.13 518.683
1351 0 50.1836 14.0484 705 99.8723 1208.29 515.932
1352 0 53.4379 14.3718 768 97.3438 1211.68 515.762
1353 0 51.4143 14.0233 721 101.417 1213.26 514.796
1354 0 55.2551 13.3019 735 100.955 1214.18 513.864
1355 0 56.3335 13.5443 763 100.183 1216.45 515.74
1356 0 57.3897 14.3231 822 97.8406 1219.25 513.691
1357 0 57.1907 13.9184 796 100.099 1223.02 513.734
1358 0 60.2743 14.5004 874 98.5172 1223.29 511.299
1359 0 61.428 14.5374 893 99.6607 1226.76 510.66
1360 0 64.2518 15.0968 970 99.1216 1227.33 511.65
1361 0 65.3615 14.3816 940 103.294 1228.65 512.367
1362 0 68.2223 14.9071 1017 102.249 1228.6 510.431
1363 0 72.2918 14.7181 1064 103.979 1229.77 512.276
1364 0 74.2722 15.1335 1124 102.965 1228.4 512.063
1365 0 77.2123 15.1142 1167 105.103 1225.83 512.365
1366 0 80.1675 16.5154 1324 101.681 1224.98 514.389
1367 0 84.1554 16.018 1348 103.464 1222.21 512.735
1368 1 46.0874 11.4565 528 110.911 1221.35 531.661
1369 0 46.0667 10.3545 477 111.18 1219.16 531.174
1370 0 49.0658 12.4323 610 106.18 1216.26 530.961
1371 0 49.0602 12.291 603 109.186 1215.52 527.43
1372 0 51.0527 13.0062 664 106.027 1213.71 526.703
1373 0 53.1668 13.9373 741 97.0014 1210.89 526.399
1374 0 54.1139 13.8966 752 99.7606 1211.03 525.153
1375 0 56.1059 12.9576 727 101.003 1209.73 525.188
1376 0 58.1178 14.2985 831 99.4428 1209.1 522.072
1377 0 60.1481 14.5308 874 99.7185 1208.9 521.683
1378 0 61.1546 14.2262 870 102.241 1208.19 516.223
1379 0 65.1642 13.8726 904 106.864 1207.83 513.421
1380 0 65.2336 13.3673 872 109.681 1207.63 511.886
1381 0 70.1998 13.8889 975 109.537 1208.95 509.46
1382 0 70.1449 13.4008 940 113.827 1209.13 506.663
1383 0 75.1342 15.5721 1170 107.26 1211.1 505.467
1384 1 37.0266 10.56 391 112.588 1214.51 524.338
1385 0 39.0885 11.5635 452 109.673 1215.58 523.551
1386 0 42.1002 11.3776 479 112.058 1218.36 521.171
1387 0 43.1159 11.2255 484 111.545 1222.35 521.488
1388 0 45.0808 11.8898 536 111.59 1223.79 519.741
1389 0 45.0838 11.8446 534 112.964 1225.1 520.219
1390 0 48.0432 13.4462 646 106.272 1227.86 519.83
1391 0 50.0676 14.82 742 104.243 1231.58 518.59
1392 0 52.0781 13.3453 695 110.115 1231.33 519.823
1393 0 53.0456 14.5158 770 109.313 1232.36 519.877
1394 0 54.0567 14.3183 774 109.297 1232.38 521.893
1395 0 57.1115 14.4804 827 108.582 1232.59 522.434
1396 0 58.0688 14.0006 813 110.925 1231.09 522.497
1397 0 60.0681 14.1673 851 111.396 1230.18 520.038
1398 0 64.131 15.1253 970 107.228 1227.29 520.981
1399 0 65.145 14.4754 943 108.34 1224.91 519.194
1400 0 67.0873 14.6376 982 108.822 1222.34 517.411
1401 0 71.0606 15.3109 1088 105.416 1221.2 516.879
1402 0 74.1048 16.6116 1231 101.768 1218.37 515.97
1403 0 75.0648 15.9329 1196 103.579 1217.08 514.944
1404 0 79.1365 15.8081 1251 103.38 1214.94 513.957
1405 1 42.0259 11.136 468 107.513 1213.03 530.489
1406 0 45.0608 12.0282 542 106.67 1211.51 528.343
1407 0 46.139 10.8802 502 106.914 1211.4 528.46
1408 0 47.1511 11.2405 530 107.781 1210.27 524.889
1409 0 50.1029 11.7558 589 105.739 1209.49 523.419
1410 0 50.0774 13.2195 662 104.124 1208.8 521.995
1411 0 52.2148 13.7126 716 95.0824 1207.48 518.26
1412 0 54.0877 14.8647 804 93.3221 1208.43 516.9
1413 0 53.1736 13.3901 712 97.4972 1209.08 516.819
1414 0 57.227 14.3464 821 93.3313 1209.77 516.393
1415 0 60.1768 15.2218 916 90.7238 1211.07 515.587
1416 0 61.1593 14.1597 866 91.7991 1212.53 515.868
1417 0 63.1278 14.0033 884 92.3631 1215.21 514.114
1418 0 65.1405 13.6014 886 94.0248 1217.93 512.024
1419 0 68.0762 14.5131 988 92.3198 1220.91 515.776
1420 0 70.2031 13.2045 927 96.1607 1224.08 513.105
1421 0 74.1814 13.9927 1038 98.6956 1223.7 511.803
1422 1 40.0438 11.0129 441 94.7528 1225.59 532.936
1423 0 40.0712 10.5312 422 95.8412 1226.85 533.436
1424 0 41.0652 9.30228 382 97.5393 1226.93 532.903
1425 0 44.1258 11.1726 493 92.7079 1227.18 533.625
1426 0 46.0462 12.2703 565 89.6142 1225.81 532.818
1427 0 48.1172 13.4671 648 87.2022 1226.97 531.187
1428 0 49.2383 13.7088 675 85.6326 1225.38 528.564
1429 0 53.0608 13.6636 725 84.6786 1224.88 530.665
1430 0 52.2222 11.9489 624 88.7051 1221.13 527.558
1431 0 56.253 12.6749 713 87.2777 1218.66 527.027
1432 0 58.1993 14.1754 825 86.1442 1216.7 524.484
1433 0 58.1118 12.648 735 89.7605 1215.56 526.942
1434 0 63.0742 14.4433 911 93.4775 1213.24 525.531
1435 0 64.1688 14.119 906 94.3565 1211.56 525.83
1436 0 65.0619 13.71 892 95.8307 1210.23 521.656
1437 0 65.0619 13.6639 889 146.666 1209.25 521.661
1438 0 72.0783 14.7062 1060 92.4981 1208.3 516.195
1439 1 33.0247 7.32784 242 99.9174 1208.58 533.607
1440 0 35.0258 9.19322 322 151.407 1208.63 531.736
1441 0 40.0615 10.7834 432 94.4583 1207.1 528.697
1442 0 42.0941 10.9279 460 93.1609 1208.45 525.861
1443 0 41.0873 11.5608 475 91.8021 1209.55 524.404
1444 0 43.0953 12.0431 519 91.0462 1209.69 522.649
1445 0 44.1307 11.7379 518 90.9614 1210.51 520.38
1446 0 44.0619 11.4158 503 92.4354 1213.16 515.555
1447 0 47.3425 13.2017 625 87.8032 1214.22 516.203
1448 0 47.3425 13.3284 631 132.799 1216.2 516.266
1449 0 49.1452 13.2872 653 94.4809 1216.41 520.622
1450 0 53.2644 14.3623 765 90.2549 1218.41 521.244
1451 0 52.1375 12.6588 660 96.1864 1220.21 518.38
1452 0 56.1638 13.1579 739 94.2219 1223.78 518.877
1453 0 55.159 13.3795 738 95.0122 1224.73 518.592
1454 0 55.1378 12.9494 714 95.472 1225.23 518.839
1455 0 58.0603 12.8487 746 96.4692 1226.49 520.184
1456 0 61.1287 13.7579 841 94.4637 1227.82 518.403
1457 0 61.1116 14.0563 859 95.5285 1226.33 517.935
1458 0 66.284 15.0262 996 91.7952 1225.74 519.109
1459 0 68.2915 14.7163 1005 93.1124 1223.99 515.63
1460 0 70.0903 16.0364 1124 91.8559 1222.79 516.709
1461 0 72.178 14.7968 1068 96.4026 1220.53 516.244
1462 0 73.2136 13.4128 982 99.9654 1217.99 516.829
1463 0 75.3064 14.8327 1117 98.6329 1216.35 514.68
1464 0 80.1511 16.0946 1290 95.9093 1214.24 514.035
1465 0 83.1405 15.5159 1290 95.9589 1212.93 514.32
1466 1 42.0209 9.3049 391 100.545 1210.7 535.289
1467 0 44.0992 10.4991 463 100.376 1210.75 533.322
1468 0 46.0233 11.0596 509 101.941 1210.16 528.77
1469 0 44.2134 11.1957 495 102.697 1208.44 525.307
1470 0 48.2753 11.3723 549 101.417 1209.35 524.226
1471 0 49.1053 11.7299 576 100.733 1210.09 523.191
1472 0 51.2008 12.9295 662 99.435 1209.24 519.609
1473 0 53.192 13.5359 720 95.8431 1208.72 511.614
1474 0 54.1216 14.1163 764 95.5353 1209.92 509.386
1475 0 55.3924 13.9369 772 97.2759 1211.08 515.162
1476 0 57.059 14.8268 846 99.6608 1211.76 513.829
1477 0 59.0812 13.6761 808 102.974 1213.17 515.226
1478 0 61.2066 14.9984 918 99.658 1214.92 513.939
1479 0 63.0806 15.1552 956 99.5282 1216.96 515.046
1480 0 63.1576 14.3767 908 99.7566 1220.64 515.327
1481 0 64.0873 15.198 974 98.0493 1222.59 517.298
1482 0 64.2281 15.0869 969 99.129 1225.17 516.714
1483 0 68.0513 15.8704 1080 96.7074 1226.66 516.951
1484 0 68.1727 15.0794 1028 100.947 1227.92 518.245
1485 0 71.0719 14.5486 1034 102.783 1228.35 519.1
1486 0 73.0715 15.9843 1168 101.256 1228.28 518.267
1487 0 75.1778 17.319 1302 98.0046 1227.52 520.006
1488 0 76.0838 15.4041 1172 109.526 1225.84 519.918
1489 0 78.1481 15.5474 1215 109.463 1223.77 518.83
1490 0 81.1606 15.8944 1290 109.584 1222.53 520.103
1491 1 43.1462 12.8169 553 110.145 1218.03 538.633
1492 0 45.1776 11.6208 525 114.472 1217.15 536.922
1493 0 46.177 12.712 587 112.073 1215.47 533.526
1494 0 45.1552 13.5754 613 111.933 1212.21 536.481
1495 0 46.2136 12.6153 583 117.386 1210.67 535.504
1496 0 49.3328 14.2704 704 111.442 1208.45 534.483
1497 0 49.0832 14.0985 692 113.155 1207.4 534.218
1498 0 50.1343 13.7032 687 113.773 1206.1 533.412
1499 0 52.227 15.222 795 109.46 1204.56 530.457
1500 0 53.152 14.4491 768 112.398 1204.6 529.076
1501 0 55.0433 13.771 758 112.524 1203.42 529.08
1502 0 54.1307 13.5598 734 116.098 1202.15 525.779
1503 0 55.0384 14.5716 802 111.685 1202.74 525.702
1504 0 54.0999 13.9557 755 115.298 1203.9 523.287
1505 0 55.1733 14.1554 781 114.832 1205.23 520.981
1506 0 56.0335 13.9024 779 116.279 1204.96 520.245
1507 0 58.0958 13.581 789 116.885 1207.51 519.707
1508 0 58.1448 14.1887 825 113.327 1208.59 519.783
1509 0 59.1082 14.9895 886 112.983 1209.5 518.386
1510 0 58.1094 14.7825 859 113.633 1211.99 518.608
1511 0 60.1236 13.9047 836 114.904 1214.21 517.067
1512 0 59.1145 14.2097 840 114.06 1217.45 516.674
1513 0 59.071 13.4245 793 116.773 1219.95 517.526
1514 0 59.0638 14.442 853 95.4478 1220.69 518.59
1515 0 60.1108 14.989 901 111.451 1224.05 519.312
1516 0 58.179 14.3694 836 112.49 1224.89 520.604
1517 0 60.217 13.9329 839 114.236 1225.62 518.488
1518 0 61.3108 15.2176 933 112.113 1225.96 521.585
1519 0 60.0748 14.9148 896 114.785 1224.6 522.751
1520 1 32.1088 10.4644 336 119.595 1222.78 537.066
1521 0 32.0959 11.9018 382 117.686 1221.82 536.126
1522 0 32.1498 12.0063 386 119.363 1219.94 536.3
1523 0 32.2046 10.5264 339 122.115 1218.22 538.994
1524 0 31.0169 10.5104 326 123.061 1215.57 539.055
1525 0 32.011 11.496 368 117.932 1214.96 539.704
1526 0 33.0207 12.1136 400 116.432 1211.83 536.998
1527 0 33.0224 13.1729 435 112.857 1211.66 536.407
1528 0 32.0446 12.0457 386 116.692 1209.53 536.803
1529 0 28.0105 9.46074 265 121.94 1207.72 536.596
1530 0 35.0209 12.621 442 111.541 1206.27 535.434
1531 0 35.0143 10.4814 367 116.371 1205.45 536.706
1532 0 34.0426 11.2212 382 116.759 1204.47 532.613
1533 0 33.0416 12.3178 407 114.42 1203.86 532.056
1534 0 33.0584 11.4343 378 113.749 1203.51 532.328
1535 0 33.0242 12.6271 417 111.362 1203.86 529.345
1536 0 34.0353 11.8994 405 110.756 1205.84 529.926
1537 0 33.0202 11.6898 386 111.161 1206.35 530.067
1538 0 32.0476 11.3269 363 112.612 1207.4 528.691
1539 0 33.0237 11.9308 394 110.622 1208.97 528.761
1540 0 32.0228 11.4606 367 112.597 1212.92 529.207
1541 0 34.031 11.8421 403 108.794 1215.42 529.692
1542 0 34.028 11.7844 401 108.314 1218.72 532.135
1543 0 34.0528 12.9211 440 105.18 1221.38 530.389
1544 0 35.0582 12.2083 428 105.998 1223.31 531.056
1545 0 35.055 13.0081 456 103.625 1225.05 533.322
1546 0 35.0593 13.2632 465 105.884 1226.66 534.591
1547 0 34.0559 11.5692 394 111.546 1227.73 536.835
1548 0 34.1096 12.8409 438 108.19 1227.23 538.635
1549 0 33.1046 13.7745 456 108.452 1227.55 539.708
1550 0 33.2516 13.9542 464 105.994 1225.58 541.3
1551 0 33.1991 13.7052 455 106.673 1224.22 541.826
1552 0 35.1036 11.8221 415 108.414 1221.98 542.012
1553 0 34.1865 11.9931 410 109.39 1218.91 541.656
1554 0 33.0107 12.6928 419 108.943 1215.7 542.167
1555 0 34.0158 12.0532 410 108.729 1213.39 542.934
1556 0 35.0138 14.7085 515 102.619 1211.7 542.484
1557 0 35.0217 11.8784 416 108.344 1211.34 542.663
