time division length width area intensity CMx CMy
0 0 39.0364 13.8332 540 105.494 1045.37 500.85
1 0 41.0866 13.8975 571 105.292 1047.92 502.24
2 0 42.0479 14.6737 617 106.194 1050.04 500.88
3 0 42.0667 13.7163 577 109.542 1049.44 501.222
4 0 44.2027 15.0669 666 108.713 1049.67 501.901
5 0 45.1246 14.6483 661 109.74 1049.57 501.994
6 0 45.1025 14.456 652 112.391 1048.76 502.282
7 0 49.2068 14.1444 696 112.085 1047.04 503.401
8 0 48.1533 15.6999 756 109.597 1046.1 503.249
9 0 51.1856 15.0237 769 110.189 1045.04 503.518
10 0 51.1419 17.6959 905 104.916 1043.17 502.587
11 0 52.2221 15.9511 833 109.51 1041.56 503.557
12 0 54.0639 16.61 898 107.048 1038.91 504.51
13 0 55.0845 16.4474 906 107.636 1037.48 504.809
14 0 56.0763 16.1566 906 107.777 1035.49 506.168
15 0 58.0635 17.2914 1004 105.008 1033.21 505.493
16 0 58.11 15.9697 928 109.456 1031.04 504.393
17 0 60.0628 16.7158 1004 107.601 1029.22 503.04
18 0 63.1215 16.9356 1069 105.279 1026.93 501.921
19 0 64.0342 15.7572 1009 108.694 1025.75 501.819
20 0 67.1399 16.1305 1083 109.06 1021.79 497.56
21 0 70.1371 17.4515 1224 102.846 1021.89 497.353
22 0 70.0618 16.828 1179 105.728 1022.56 495.955
23 0 74.0679 17.1869 1273 102.913 1022.59 491.79
24 0 77.1144 16.4561 1269 103.34 1023.01 491.63
25 0 79.1395 16.9068 1338 102.753 1024.11 489.167
26 0 81.0879 17.8325 1446 100.565 1026.7 486.794
27 0 82.1824 16.9744 1395 103.154 1027.85 486.151
28 1 41.1899 12.1389 500 104.058 1030.32 505.54
29 0 42.0873 12.379 521 103.639 1032.92 504.603
30 0 43.0298 11.5966 499 104.76 1035.35 505.208
31 0 44.0228 10.9716 483 105.944 1037.3 506.371
32 0 49.034 14.0311 688 104.946 1038.19 506.885
33 0 51.1588 14.8362 759 104.52 1040.32 506.982
34 0 51.0438 14.2819 729 106.147 1039.65 506.288
35 0 55.0349 15.1358 833 103.071 1040.29 507.317
36 0 55.0794 16.0314 883 102.257 1040.02 507.634
37 0 57.0341 15.0612 859 104.481 1040.61 508.953
38 0 59.0252 16.5861 979 101.292 1038.86 506.709
39 0 61.0508 15.2987 934 104.483 1036.48 506.987
40 0 63.0918 14.2808 901 106.743 1034.96 506.377
41 0 65.0507 15.1574 986 105.358 1032.54 506.58
42 0 67.1597 17.2127 1156 102.821 1031.61 504.588
43 0 68.108 15.8719 1081 107.078 1028.99 504.383
44 0 73.1397 16.4753 1205 104.693 1028.04 503.363
45 0 76.1425 15.8519 1207 105.166 1025.88 503.03
46 0 78.1768 17.179 1343 101.331 1024.37 503.125
47 0 81.1893 17.1328 1391 101.84 1021.8 501.59
48 0 81.1963 15.6904 1274 106.987 1019.81 499.618
49 0 86.3147 17.5289 1513 101.942 1018.6 496.701
50 0 88.2643 15.9634 1409 105.119 1016.83 497.312
51 0 92.305 16.3696 1511 104.394 1015.85 491.67
52 0 94.227 15.9402 1502 102.016 1014.8 486.597
53 1 48.1091 11.2869 543 106.459 1013.95 507.772
54 0 50.2113 12.1885 612 105.224 1013.94 506.317
55 0 50.1725 12.8756 646 105.833 1013.91 501.927
56 0 55.1834 13.9354 769 103.917 1014.54 504.72
57 0 57.1635 14.9221 853 104.743 1015.49 500.96
58 0 58.0646 15.2761 887 101.459 1017 501.272
59 0 60.0509 14.5044 871 103.829 1018.33 499.338
60 0 62.1167 15.5353 965 101.218 1020.53 498.982
61 0 64.054 14.4722 927 103.565 1022.72 498.09
62 0 67.1538 15.6506 1051 100.645 1025.92 498.859
63 0 71.0784 17.5159 1245 96.9317 1028.81 497.227
64 0 69.14 14.3477 992 105.444 1030.32 497.301
65 0 74.1378 15.8489 1175 101.454 1031.65 498.556
66 0 74.0381 15.5325 1150 103.572 1033.83 495.904
67 0 78.1197 14.8362 1159 105.174 1034.33 497.398
68 0 81.1044 14.7218 1194 105.477 1034.97 495.848
69 0 83.1507 15.5862 1296 104.671 1034.85 497.381
70 0 86.2179 16.5047 1423 103.613 1033.76 497.892
71 0 87.1998 15.2753 1332 109.231 1033.22 497.49
72 0 91.186 16.4389 1499 106.73 1032.11 495.633
73 0 94.1353 15.7114 1479 108.394 1029.79 496.942
74 1 49.0729 11.432 561 110.449 1028.07 518.576
75 0 51.0254 12.1312 619 109.919 1025.53 517.68
76 0 54.097 12.644 684 107.041 1023.5 517.151
77 0 54.037 12.6395 683 106.133 1021.09 517.482
78 0 58.0619 12.6072 732 105.653 1018.31 516.008
79 0 60.0647 14.9838 900 102.881 1016.27 513.268
80 0 58.0872 12.9977 755 106.707 1016.06 515.617
81 0 61.0644 13.5431 827 105.247 1014.08 512.272
82 0 64.0486 13.3024 852 105.991 1012.49 511.647
83 0 67.1144 15.4065 1034 100.444 1010.77 511.499
84 0 68.1343 14.1045 961 104.636 1010.14 506.85
85 0 70.1289 14.7015 1031 104.586 1009.78 502.812
86 0 72.1499 14.0264 1012 104.953 1007.78 502.096
87 0 76.0738 13.9601 1062 105.743 1008.1 499.994
88 0 78.2564 14.3247 1121 106.701 1008.29 499.098
89 0 82.2268 17.549 1443 99.8288 1008.82 497.459
90 1 44.0869 12.2712 541 106.261 1009.39 515.667
91 0 43.1324 9.36651 404 112.46 1010.22 515.02
92 0 45.0781 11.3581 512 109.865 1011.27 513.861
93 0 47.1013 11.592 546 109.965 1014.03 512.275
94 0 48.0944 12.725 612 107.361 1015.59 511.02
95 0 47.1583 12.511 590 107.351 1019.2 511.275
96 0 50.0333 12.6516 633 107.908 1021.14 510.306
97 0 51.084 13.5463 692 106.03 1023.8 509.642
98 0 51.084 13.5855 694 136.359 1026.82 509.601
99 0 51.084 13.5463 692 135.968 1029.82 509.617
100 0 57.1373 13.0213 744 108.353 1028.55 511.362
101 0 58.1248 14.0904 819 108.897 1029.21 511.304
102 0 58.1248 14.142 822 142.796 1030.18 511.291
103 0 61.1093 13.664 835 113.135 1028.88 512.714
104 0 62.081 13.6112 845 114.452 1027.78 512.781
105 0 66.084 14.8447 981 112.643 1026.17 510.472
106 0 67.2509 13.7545 925 115.631 1025.13 510.12
107 0 71.153 13.7591 979 115.091 1023.29 508.571
108 0 72.1465 14.027 1012 114.285 1022.44 505.282
109 0 74.2548 13.6422 1013 114.375 1019.59 506.889
110 0 78.1433 13.5648 1060 111.708 1018.54 503.072
111 0 77.0904 13.0496 1006 113.426 1015.77 501.218
112 0 81.2028 13.103 1064 111.89 1013.75 500.023
113 1 41.1405 9.96586 410 105.378 1012.72 519.583
114 0 40.1219 8.67358 348 105.796 1011.42 519.589
115 0 43.2291 10.2709 444 103.036 1009.99 516.975
116 0 44.234 9.38193 415 130.631 1008.87 517.366
117 0 44.2277 9.33804 413 130.104 1007.86 517.465
118 0 48.0703 12.1281 583 107.129 1004.6 518.369
119 0 50.1893 13.6284 684 105.253 1005.87 517.7
120 0 52.1409 13.3484 696 104.76 1004.81 514.362
121 0 54.1051 14.1022 763 102.823 1005.48 512.932
122 0 55.1828 13.1019 723 105.219 1004.68 511.562
123 0 57.1057 13.3087 760 105.208 1004.66 508.859
124 0 58.1928 13.5756 790 105.046 1006.45 507.344
125 0 61.1673 13.929 852 103.965 1007.48 506.566
126 0 61.2122 12.6936 777 107.885 1008.98 506.225
127 0 63.2059 14.0651 889 105.868 1011.61 503.785
128 0 66.0529 14.9728 989 103.056 1013.85 503.928
129 0 69.1324 13.6405 943 112.182 1016.38 503.663
130 0 70.2244 14.3825 1010 111.774 1018.43 503.153
131 0 72.1046 14.7702 1065 112.029 1020.21 502.983
132 1 40.0544 9.81166 393 114.911 1023.55 520.318
133 0 40.1441 10.7114 430 113.774 1024.89 521.1
134 0 41.0077 9.65673 396 115.598 1025.76 522.715
135 0 41.0217 8.48332 348 117.856 1026.36 524.997
136 0 45.0277 10.5047 473 114.829 1027.37 525.241
137 0 45.0678 10.4287 470 114.462 1026.79 525.732
138 0 46.0524 12.1818 561 111.784 1025.98 524.961
139 0 50.1145 12.7907 641 110.181 1025.24 523.577
140 0 50.1756 13.4727 676 105.685 1022.77 523.237
141 0 51.0929 13.6614 698 103.953 1020.46 523.795
142 0 53.1806 14.4414 768 102.225 1019.19 522.46
143 0 55.0845 13.2887 732 105.616 1018.22 524.664
144 0 56.1325 13.4147 753 106.547 1014.94 522.012
145 0 58.1721 13.7179 798 105.242 1013.37 520.033
146 0 59.1588 12.7454 754 107.224 1012.44 522.07
147 0 62.1482 14.6102 908 103.543 1009.87 519.965
148 0 64.1678 13.1063 841 108.617 1010.02 517.801
149 0 65.1341 13.6795 891 108.007 1008.19 515.414
150 0 66.1005 13.0861 865 109.491 1006.44 515.185
151 0 69.1445 13.5079 934 108.709 1005.42 512.602
152 0 70.1808 12.5248 879 111.903 1004.33 511.65
153 1 38.0161 10.8375 412 110.519 1004.7 526.163
154 0 40.0454 11.3371 454 111.463 1003.52 524.344
155 0 40.0417 10.9136 437 110.206 1002.82 526.419
156 0 42.0351 12.1565 511 109.935 1003.33 521.849
157 0 43.0812 12.1166 522 110.37 1004.23 520.946
158 0 45.0415 12.877 580 105.988 1004.26 520.109
159 0 45.0431 12.8321 578 104.083 1005.39 518.062
160 0 46.03 13.0784 602 103.684 1005.91 515.98
161 0 47.1356 13.4506 634 104.144 1009.93 515.103
162 0 49.2401 14.0333 691 103.084 1013.09 515.428
163 0 50.1235 14.0653 705 103.932 1015.94 515.925
164 0 49.1847 12.3412 607 108.552 1017.95 516.9
165 0 52.1086 13.2608 691 106.334 1019.25 516.831
166 0 52.0818 11.5971 604 110.267 1020.74 515.257
167 0 56.1199 13.8454 777 103.145 1021.06 515.543
168 0 56.1948 14.0226 788 103.699 1022.44 516.466
169 0 60.1362 13.7687 828 102.033 1023.23 516.487
170 0 61.022 13.7655 840 101.179 1022.62 517.731
171 0 63.0561 13.0043 820 101.116 1022.14 517.391
172 0 65.1876 13.929 908 97.9273 1022.6 516.322
173 0 66.182 14.3997 953 98.1343 1020.45 515.085
174 0 70.156 13.5698 952 98.1166 1019.24 514.501
175 0 70.1816 13.2656 931 98.8539 1017.64 513.884
176 0 75.1426 14.1198 1061 95.6023 1015.73 512.715
177 0 74.2052 12.8697 955 98.5278 1012.44 510.605
178 0 78.0693 13.7826 1076 95.8848 1010.56 510.582
179 0 78.1452 11.3379 886 99.9537 1009.86 510.088
180 1 42.0494 10.5828 445 96.7978 1008.32 528.227
181 0 41.0171 11.3611 466 97.676 1006.08 526.59
182 0 44.036 11.6723 514 97.1693 1004.35 525.477
183 0 44.0456 12.1238 534 98.1835 1004.45 523.691
184 0 46.0526 12.5292 577 94.9324 1004.16 522.768
185 0 47.1248 11.756 554 98.0993 1003.08 521.087
186 0 47.1248 11.7772 555 125.505 1003.08 521.047
187 0 52.0884 12.21 636 96.923 1000.98 515.266
188 0 51.0855 11.7646 601 97.7338 1000.9 516.574
189 0 54.1053 12.4572 674 96.8457 1001.45 512.539
190 0 55.1018 12.9034 711 94.5527 1001.83 513.21
191 0 57.0773 11.6333 664 97.3223 1002.9 511.536
192 0 60.0799 12.5832 756 97.0344 1004.59 507.886
193 0 60.1041 12.5283 753 97.3559 1006.59 506.671
194 0 64.0936 13.2775 851 95.1187 1008.11 507.1
195 0 64.147 12.0037 770 97.6623 1010.29 505.499
196 0 68.1804 14.2416 971 93.9825 1013.86 505.337
197 1 34.0363 9.95995 339 98.941 1017.45 521.475
198 0 38.0195 11.2837 429 96.1888 1019.46 522.923
199 0 36.047 8.23925 297 100.832 1022.33 523.566
200 0 37.0966 10.54 391 98.4731 1023 523.568
201 0 40.3096 10.5434 425 96.7835 1021.87 521.586
202 0 42.3229 11.1996 474 97.5464 1022.76 518.749
203 0 44.3964 12.1631 540 96.15 1023.26 520.109
204 0 44.2923 11.9885 531 98.3314 1023.15 517.235
205 0 46.0822 11.9569 551 98.4864 1024.32 522.704
206 0 47.0135 12.4645 586 97.6553 1022.99 522.671
207 0 50.0225 11.2949 565 99.7451 1021.85 521.581
208 0 53.1013 14.2369 756 92.7857 1020.56 524.033
209 0 53.0989 12.2978 653 97.8606 1018.31 523.911
210 0 55.0495 14.2962 787 93.6023 1016.4 523.015
211 0 57.1487 14.1036 806 92.6551 1014.32 525.306
212 0 60.2388 12.6994 765 97.6732 1013.09 517.09
213 0 63.1711 14.8486 938 92.3497 1007.15 519.78
214 0 64.1573 13.6851 878 95.3816 1006.29 518.99
215 0 63.1745 12.2518 774 100.213 1005.15 518.571
216 0 68.2214 14.3064 976 96.6014 1003.75 513.278
217 0 69.2453 13.9071 963 96.7186 1002.53 511.417
218 0 73.2508 13.7063 1004 96.757 1002.1 511.281
219 0 77.1494 14.621 1128 94.6073 1002.15 507.739
220 0 78.1402 13.8469 1082 96.3189 1001.69 504.374
221 0 81.145 15.3429 1245 93.1012 1001.1 502.659
222 0 84.2741 15.0224 1266 93.2733 1002.79 498.803
223 1 46.0344 11.2742 519 98.2158 1003.19 517.965
224 0 47.118 10.9725 517 100.313 1003.73 517.331
225 0 49.036 12.2155 599 98.995 1005.88 513.768
226 0 51.089 11.8421 605 99.4066 1007.65 514.826
227 0 52.074 12.7127 662 99.3716 1010.17 511.728
228 0 52.072 12.6748 660 137.342 1011.16 511.694
229 0 51.075 12.9613 662 136.792 1012.15 511.582
230 0 58.0962 13.6842 795 92.512 1017.61 514.122
231 0 58.0928 12.8932 749 94.8638 1018.81 514.951
232 0 61.081 14.5544 889 91.2328 1020.65 513.965
233 0 64.0824 13.0145 834 94.3669 1022.8 513.797
234 0 63.2127 12.276 776 96.817 1023.14 513.384
235 0 65.213 12.5895 821 136.358 1024.07 512.613
236 0 70.1113 14.0206 983 93.3062 1022.96 514.263
237 0 69.1464 12.5242 866 97.9353 1022.31 513.214
238 0 73.1518 13.8069 1010 94.7852 1020.83 514.752
239 0 77.1171 14.679 1132 93.0786 1018.44 511.903
240 0 78.196 14.8729 1163 93.4609 1017.67 513.682
241 0 78.196 14.9113 1166 135.102 1016.69 513.685
242 1 45.153 9.16883 414 101.981 1015.85 530.754
243 0 47.0732 9.19844 433 98.1894 1013.61 533.485
244 0 45.0519 9.32258 420 100.686 1011.95 531.883
245 0 48.1762 10.8352 522 96.0996 1011.57 530.385
246 0 50.1446 11.7261 588 95.7704 1008.52 529.014
247 0 50.1446 11.7859 591 137.288 1006.52 528.929
248 0 50.1401 11.787 591 136.904 1004.51 528.9
249 0 57.152 13.0354 745 91.3893 1003.15 522.377
250 0 58.2081 13.4517 783 92.2478 1001.32 516.501
251 0 60.1338 10.5432 634 96.7224 1001.01 515.356
252 0 60.1059 10.6479 640 96.1203 1001.45 518.342
253 0 61.1341 12.3008 752 92.5665 1000.36 514.882
254 0 63.1513 12.5888 795 92.6138 1000.78 511.611
255 0 68.083 14.3795 979 90.3401 1000.93 507.859
256 0 70.1064 12.8234 899 94.1079 1001.39 505.027
257 0 72.0981 12.3165 888 93.7376 1000.31 506.28
258 0 75.0896 12.1189 910 94.5385 1001.42 504.5
259 0 78.2392 13.4971 1056 91.7746 1002.72 498.946
260 0 81.2036 12.9797 1054 93.0863 1005.83 500.617
261 0 84.2774 13.9421 1175 91.9387 1007.84 497.485
262 0 86.2133 13.7566 1186 92.5438 1010.47 496.334
263 0 90.1269 12.4491 1122 95.1506 1013.35 497.617
264 0 94.1842 13.1126 1235 94.2332 1015.35 495.428
265 1 49.0682 9.94535 488 98.4283 1018.78 515.711
266 0 52.2233 12.8295 670 93.2836 1020.85 515.33
267 0 55.272 12.6827 701 91.7689 1023.04 516.702
268 0 57.0742 13.8241 789 90.493 1022.81 517.038
269 0 56.2824 12.5261 705 95.8326 1023.08 515.435
270 0 60.2651 13.6231 821 94.1705 1022.21 516.061
271 0 61.2493 13.4369 823 95.8032 1021.87 515.414
272 0 63.2979 14.1553 896 94.2991 1020.99 515.451
273 0 64.1982 13.8322 888 95.4155 1019.14 514.615
274 0 68.23 13.3372 910 96.1494 1017.93 515.047
275 0 70.3337 13.9051 978 94.8323 1016.73 514.551
276 0 73.215 12.8935 944 97.2871 1014.91 516.22
277 0 75.1689 15.9108 1196 91.8754 1013.3 512.407
278 0 77.1816 14.3428 1107 95.6206 1011.13 510.431
279 1 40.0454 7.69126 308 101.477 1011.02 532.351
280 0 42.0415 10.228 430 98.9954 1008.88 530.333
281 0 44.0545 11.1226 490 98.0878 1007.87 530.18
282 0 46.0209 11.6034 534 95.7416 1006.71 526.869
283 0 46.1044 11.6258 536 97.4907 1004.55 526.597
284 0 48.0616 11.0899 533 95.4953 1001.54 527.146
285 0 49.2403 12.1242 597 95.2161 999.57 520.491
286 0 51.4008 12.8986 663 96.0679 999.217 516.95
287 0 52.1573 12.5198 653 97.6922 998.438 515.959
288 0 56.1135 13.6865 768 94.9258 998.203 514.035
289 0 57.1636 15.5169 887 90.3393 999.56 512.625
290 0 59.1213 15.4767 915 92.1322 999.468 510.782
291 0 60.0875 13.8465 832 95.0565 1000.68 510.504
292 0 63.141 15.9009 1004 90.8884 1002.27 508.983
293 0 63.087 14.4562 912 95.0066 1003.13 509.282
294 0 64.0615 14.7827 947 96.2492 1004.83 502.904
295 0 68.0829 15.4371 1051 94.0656 1007.44 505.279
296 0 69.1882 14.5111 1004 95.0916 1009.58 505.858
297 0 71.1001 14.1631 1007 97.3565 1012.96 504.211
298 0 75.085 15.1162 1135 94.6035 1015.57 503.956
299 0 76.1188 15.8042 1203 93.3674 1017.61 504.132
300 0 79.0783 14.7196 1164 95.6813 1019.32 504.673
301 0 79.0696 13.2415 1047 99.8004 1019.87 504.291
302 1 46.0365 11.5126 530 97.5189 1020.87 526.053
303 0 46.0317 10.71 493 99.5903 1021.13 526.006
304 0 46.0317 10.7752 496 164.577 1021.14 525.95
305 0 46.0357 12.512 576 99.0833 1019.43 524.062
306 0 50.0535 12.5466 628 97.008 1018.06 525.974
307 0 51.0504 12.7325 650 96.4108 1016.88 524.982
308 0 52.3013 12.9825 679 96.2253 1017.92 521.063
309 0 53.3216 13.4842 719 96.3199 1016.42 520.644
310 0 55.0574 13.4768 742 96.7763 1013.7 522.306
311 0 56.0725 13.7501 771 94.891 1012.84 521.245
312 0 59.1202 13.887 821 93.5968 1011.62 521.565
313 0 59.0907 11.88 702 96.849 1009.74 520.641
314 0 63.1021 12.3926 782 95.3913 1007.7 520.615
315 0 62.1859 12.4948 777 97.6152 1006.99 517.454
316 0 66.1256 13.4592 890 90.8629 1004.61 516.164
317 0 67.1487 14.8178 995 89.8111 1002.79 512.396
318 0 68.1652 11.5748 789 95.5526 1001.05 512.45
319 0 71.0495 12.3857 880 94.833 998.095 511.219
320 0 74.0787 12.7027 941 95.4102 998.14 508.814
321 0 76.1247 14.1872 1080 93.5565 997.727 504.897
322 0 79.1013 13.5522 1072 94.4487 998.194 503.574
323 0 82.1022 14.1775 1164 93.2998 998.141 501.83
324 0 83.0923 12.1913 1013 97.999 998.389 498.1
325 0 88.0924 14.2805 1258 94.3847 1000.04 495.7
326 1 47.0354 11.2894 531 96.8493 1000.32 514.414
327 0 48.0452 12.5923 605 95.114 1002.33 513.374
328 0 50.0766 12.0615 604 96.1639 1005.1 514.743
329 0 51.0553 13.7498 702 91.6766 1007.29 511.762
330 0 51.0553 13.691 699 131.132 1009.3 511.771
331 0 54.2852 12.0843 656 97.0594 1013.42 512.677
332 0 55.1044 12.4673 687 92.5691 1016.59 516.111
333 0 54.1265 12.3599 669 93.7803 1019.56 514.873
334 0 57.0897 12.7168 726 92.7176 1022.11 515.957
335 0 60.0671 12.8689 773 93.9741 1022.27 514.44
336 0 60.1304 12.0072 722 95 1023.16 515.265
337 0 62.135 12.9235 803 94.3973 1022.8 515.491
338 0 65.0945 12.9658 844 93.6469 1021.99 517.914
339 0 67.1877 11.9218 801 94.7416 1020.68 518.05
340 0 71.1617 13.7855 981 91.3547 1018.94 515.904
341 0 72.1498 12.1414 876 94.3333 1017.53 514.82
342 1 40.089 10.6264 426 93.5399 1017.28 532.282
343 0 41.0393 11.0138 452 92.5708 1015.5 531.412
344 0 45.0207 9.77329 440 89.6545 1013.25 532.643
345 0 45.0229 12.0605 543 87.4328 1010.92 530.276
346 0 48.0718 11.3996 548 86.9069 1009.78 529.524
347 0 47.0509 11.647 548 87.7701 1008.27 527.427
348 0 50.026 13.9128 696 83.3218 1006.99 527.716
349 0 50.0744 10.8838 545 89.4661 1006.28 526.692
350 0 52.1735 11.7684 614 87.0114 1003.51 523.073
351 0 55.1358 13.7297 757 81.9273 1002.27 519.754
352 0 56.0837 13.6047 763 80.7615 1000.33 518.592
353 0 59.1361 13.1561 778 81.7198 1000.04 515.618
354 0 59.1534 11.8167 699 83.8154 999.013 513.94
355 0 61.156 13.2612 811 83.815 999.138 511.699
356 0 64.1162 13.5691 870 83.8793 999.436 509.32
357 0 65.0805 12.9071 840 87.175 999.66 505.63
358 0 68.1766 14.2278 970 84.6175 1001.08 506.579
359 0 69.1991 14.5378 1006 85.0497 1002.85 506.259
360 0 73.0842 15.0922 1103 83.4805 1003.63 504.551
361 0 75.1016 14.9664 1124 84.2162 1006.02 500.331
362 0 77.2101 14.467 1117 85.111 1007.85 498.333
363 0 81.1321 14.0758 1142 85.7583 1010.42 497.456
364 1 41.1 9.19707 378 89.963 1013.96 519.772
365 0 45.2581 11.114 503 88.7217 1015.51 516.425
366 0 49.18 11.0411 543 87.8913 1017.63 516.656
367 0 48.3307 12.0834 584 87.4538 1018.89 514.253
368 0 50.1557 12.2618 615 82.8244 1019.63 518.494
369 0 50.1951 13.1885 662 82.9743 1020.32 518.856
370 0 52.1445 12.427 648 84.7052 1020.65 519.849
371 0 56.1172 13.7035 769 82.7165 1020.48 518.049
372 0 57.174 12.6981 726 84.5344 1019.05 519.058
373 0 57.1088 11.9947 685 86.7066 1019.08 521.855
374 0 59.175 12.5729 744 86.4987 1017.85 519.157
375 0 60.0976 12.696 763 87.8034 1016.52 519.239
376 0 62.0983 11.6911 726 90.708 1014.74 518.373
377 0 66.0922 13.1029 866 89.3776 1013.21 517.64
378 0 68.0931 12.8354 874 90.4027 1010.63 516.688
379 0 71.1284 13.9326 991 88.1423 1009.16 517.671
380 0 73.1667 13.2574 970 89.6835 1007.03 514.403
381 0 76.148 15.3123 1166 87.2393 1005.73 512.696
382 0 77.2143 12.7567 985 92.533 1005.45 512.039
383 0 79.1259 13.4216 1062 92.7354 1003.43 508.117
384 0 79.1259 13.4469 1064 137.805 1001.43 508.147
385 0 79.1278 13.4592 1065 137.25 999.424 508.171
386 0 89.141 14.1574 1262 92.2338 999.585 500.819
387 1 48.1017 12.7854 615 90.6293 1000.11 523.319
388 0 50.2275 13.0606 656 92.029 998.572 517.127
389 0 51.3881 13.8748 713 90.7349 997.23 512.59
390 0 51.0478 12.4197 634 83.142 998.132 513.872
391 0 53.0707 12.6435 671 87.0358 1000.31 516.222
392 0 54.1735 13.8075 748 86.0134 1001.35 514.4
393 0 56.1176 13.2935 746 86.3351 1002.62 514.134
394 0 56.0723 11.4495 642 89.9065 1003.78 513.763
395 0 58.0783 12.2765 713 89.0533 1006.56 512.024
396 0 61.1411 13.8532 847 87.974 1008.84 512.081
397 0 61.2326 12.9669 794 91.7771 1012.76 509.261
398 0 61.2097 12.351 756 94.1799 1014.52 508.443
399 0 63.1574 11.8909 751 95.8722 1017.91 510.937
400 0 66.1839 13.5834 899 92.1146 1019.5 511.156
401 0 65.167 13.1048 854 131.692 1021.53 510.29
402 0 71.1411 13.2835 945 93.6656 1022.06 508.298
403 0 74.1817 12.8199 951 94.4227 1022.32 510.855
404 1 40.1485 10.1872 409 97.9951 1022.58 526.795
405 0 42.1106 10.8761 458 94.7795 1021.67 527.177
406 0 44.0341 9.83328 433 94.0785 1020.46 529.275
407 0 44.0935 10.455 461 93.0629 1018.07 528.872
408 0 47.2106 11.8617 560 91.2304 1015.21 526.795
409 0 49.0586 12.1284 595 92.5597 1014.51 525.946
410 0 52.04 13.2975 692 91.2659 1013.34 524.582
411 0 51.0899 12.5661 642 93.9284 1010.98 525.978
412 0 54.0411 13.4342 726 91.7934 1009.49 525.185
413 0 56.1401 12.8072 719 93.3992 1008.57 525.124
414 0 56.1036 13.7246 770 93.2351 1006.95 522.601
415 0 59.1874 15.037 890 89.7629 1005.28 522.057
416 0 59.1405 13.3073 787 94.2313 1004.38 523.69
417 0 58.1171 12.2511 712 97.6236 1002.45 517.956
418 0 62.0703 14.3708 892 92.3218 1001.47 518.07
419 0 64.238 13.3566 858 95.2984 1000.39 514.334
420 0 64.1514 13.437 862 95.8097 999.659 513.528
421 0 65.1757 13.594 886 95.6264 999.766 509.705
422 0 68.2559 12.9806 886 96.2111 999.621 507.181
423 0 69.101 13.5888 939 95.6507 999.642 508.808
424 0 75.104 15.8447 1190 88.495 999.518 500.858
425 0 77.0985 15.6683 1208 89.6962 1000.48 498.361
426 0 80.1136 13.5433 1085 93.0406 1001.28 497.478
427 1 39.0246 7.84121 306 95.451 1003.78 514.444
428 0 46.0509 11.5307 531 92.1224 1005.52 514.84
429 0 45.0543 11.586 522 93.3448 1008.67 516.874
430 0 47.0511 12.9221 608 93.9095 1011.5 515.849
431 0 49.0481 14.2717 700 91.7529 1011.62 516.109
432 0 50.0671 13.2822 665 88.806 1016.47 515.101
433 0 51.1213 13.243 677 87.6765 1018.73 515.607
434 0 55.191 14.1327 780 85.8897 1021.07 517.124
435 0 55.0622 14.2021 782 86.7916 1019.72 517.208
436 0 55.0622 14.2021 782 131.474 1022.73 517.161
437 0 57.0813 14.2078 811 87.4118 1020.42 517.631
438 0 59.1164 13.1943 780 89.0731 1020.65 520.032
439 0 61.1182 14.4801 885 86.9446 1019.28 517.959
440 0 64.0881 13.8715 889 87.7289 1017.99 516.435
441 0 66.0656 13.4412 888 88.0191 1016.15 516.761
442 0 67.2001 13.7649 925 87.5676 1014.14 517.494
443 0 70.2304 13.3418 937 87.8495 1011.9 516.757
444 0 70.0916 13.4396 942 89.0977 1009.8 514.777
445 0 75.1484 16.2212 1219 83.3101 1008.09 512.683
446 1 38.0546 9.77543 372 93.4516 1005.84 532.427
447 0 39.0151 11.2008 437 92.6888 1005.05 529.536
448 0 41.1513 9.76882 402 93.8955 1003.67 528.51
449 0 44.0624 12.4369 548 88.8869 1002.32 527.411
450 0 46.0495 12.226 563 88.7034 1001.18 525.636
451 0 47.0253 13.1631 619 90.0888 1001.47 524.719
452 0 47.0901 13.6334 642 89.4642 1001.63 522.871
453 0 49.1228 13.2729 652 88.7699 1000.48 521.503
454 0 51.0313 13.3251 680 88.4485 997.366 519.347
455 0 54.0688 12.7245 688 87.0916 998.765 517.454
456 0 56.1217 15.2169 854 89.1827 999.569 512.826
457 0 57.0432 13.5161 771 92.703 999.157 512.477
458 0 56.0829 11.9823 672 97.4509 1000.27 512.177
459 0 59.0883 13.8775 820 92.7476 1000.93 508.9
460 0 62.0292 14.0095 869 92.2497 1002.87 506.488
461 0 64.0662 13.7982 884 92.2998 1004.51 507.154
462 0 63.1128 12.8975 814 94.8489 1006.35 504.967
463 0 68.338 14.6478 1001 91.1219 1009.31 506.606
464 0 69.2052 14.9122 1032 91.4312 1012.83 504.665
465 0 72.1316 13.2258 954 93.4497 1016.58 504.673
466 0 76.2408 15.1625 1156 89.5839 1018.01 505.779
467 0 78.3187 15.1943 1190 90.3462 1018.85 504.729
468 1 38.0666 9.5622 364 97.2967 1020.96 525.791
469 0 40.1138 9.92178 398 94.6432 1022.87 526.465
470 0 42.1147 10.4239 439 91.7472 1021.23 523.818
471 0 45.1542 11.7818 532 89.7256 1021.78 525.126
472 0 46.1196 12.0556 556 88.795 1021.53 527.556
473 0 47.041 12.7336 599 88.8498 1020.73 526.187
474 0 49.0775 11.3901 559 91.1324 1018.82 526.726
475 0 52.1146 14.0651 733 86.8131 1016.37 523.832
476 0 52.0459 12.585 655 91.3863 1015.74 527.463
477 0 54.0505 13.0618 706 90.8853 1013.38 525.695
478 0 58.101 13.3733 777 89.48 1010.64 525.767
479 0 59.2204 14.2181 842 88.3515 1009.43 525.306
480 0 61.1096 13.7294 839 89.031 1006.97 523.515
481 0 62.0976 15.0247 933 88.0193 1005.92 521.673
482 0 65.3363 14.4177 942 89.018 1004.1 521.56
483 0 67.1072 14.7227 988 89.665 1003.46 519.61
484 0 68.1664 13.1443 896 93.1328 1002.38 515.98
485 0 70.1879 13.4069 941 92.4655 1001.49 516.314
486 0 73.2878 15.5551 1140 88.3158 1000.51 516.161
487 0 76.2353 15.098 1151 89.742 999.628 510.579
488 0 77.3285 15.9579 1234 88.8938 998.075 507.375
489 0 79.3587 14.4534 1147 91.83 998.457 505.084
490 0 81.2682 13.6093 1106 94.1085 997.908 500.627
491 1 48.2944 11.285 545 93.989 998.497 519.615
492 0 48.2921 10.9128 527 94.6945 998.736 518.101
493 0 50.2313 12.7411 640 93.9156 1000 514.719
494 0 51.4202 12.2714 631 95.5594 1002.91 512.152
495 0 52.1058 11.5918 604 87.9553 1004.89 511.674
496 0 54.148 11.7271 635 88.8535 1007.46 513.183
497 0 56.1625 12.7487 716 87.4986 1009.55 511.954
498 0 58.1695 12.2401 712 88.8146 1012.28 512.169
499 0 59.1336 13.7147 811 87.5549 1015.6 513.185
500 0 60.1813 12.9774 781 88.5211 1017.83 511.712
501 0 63.1216 13.0225 822 89.5998 1019.95 511.167
502 0 66.1766 13.736 909 88.2134 1020.75 513.263
503 0 68.099 12.7462 868 90.0933 1021.23 514.785
504 0 70.1046 13.38 938 89.9168 1021.02 511.52
505 0 74.2007 12.6414 938 90.1397 1020.18 510.527
506 0 76.2263 13.6436 1040 90.1029 1019.6 510.2
507 1 39.1151 9.40813 368 90.4755 1017.14 535.682
508 0 40.0951 8.42995 338 92.7515 1015.38 535.778
509 0 41.1879 11.2654 464 87.25 1013.81 534.487
510 0 42.1605 9.03689 381 90.9003 1010.99 534.795
511 0 44.1565 10.6213 469 89.6247 1009.51 533.759
512 0 47.1227 12.3507 582 85.835 1007.45 533.278
513 0 47.128 11.4794 541 89.366 1005.56 529.603
514 0 50.084 12.8584 644 84.8059 1004.28 526.671
515 0 51.1039 12.4257 635 85.9638 1002.67 530.639
516 0 54.1216 13.6914 741 82.2213 1001.56 527.098
517 0 55.1427 13.4741 743 82.8116 1000.35 526.884
518 0 55.1222 12.4995 689 84.1364 999.518 523.298
519 0 56.0757 12.7685 716 83.4441 997.859 521.043
520 0 57.0641 12.9679 740 82.6514 997.107 518.499
521 0 60.0597 12.5042 751 82.8522 997.774 520.425
522 0 61.1069 13.4027 819 80.9402 995.613 512.841
523 0 63.2056 12.2774 776 82.5928 995.334 514.764
524 0 66.0824 11.864 784 82.764 996.143 511.195
525 0 67.2376 12.2997 827 84.717 996.874 509.341
526 0 69.1196 13.0064 899 82.6207 997.342 509.315
527 0 72.119 11.9941 865 83.9353 998.228 504.808
528 0 75.1209 13.871 1042 82.2965 1001.42 504.641
529 1 38.0191 11.2312 427 86.8829 1002.48 523.026
530 0 40.0241 9.54425 382 88.1204 1005.14 523.419
531 0 43.0829 11.6288 501 86.3234 1007.98 523.098
532 0 41.0332 12.039 494 87.4615 1011.05 523.383
533 0 45.0858 11.2452 507 87.8521 1014.66 522.337
534 0 47.0315 12.5023 588 86.2279 1018.77 524.786
535 0 48.0403 12.6768 609 86.3333 1020.15 522.716
536 0 50.0822 14.9754 750 82.1267 1020.36 523.835
537 0 50.1797 13.4517 675 84.7289 1019.92 524.03
538 0 52.0284 13.2043 687 85.5706 1019.14 524.285
539 0 55.0479 14.8235 816 82.5944 1018.14 526.26
540 0 56.0515 13.9871 784 83.7398 1016.14 524.504
541 0 59.1682 14.3827 851 82.8472 1014.36 523.491
542 0 59.1307 14.4088 852 83.3674 1013.02 524.587
543 0 63.0711 14.5709 919 82.3678 1011.34 523.639
544 0 63.1742 13.2966 840 85.6679 1009.53 521.373
545 0 68.1809 15.8989 1084 79.8976 1008.07 520.052
546 0 70.1113 16.2028 1136 79.7799 1005.92 518.491
547 0 72.1267 15.6253 1127 80.3975 1004.39 517.687
548 1 36.0363 12.1822 439 87.1617 1002.48 533.255
549 0 38.1089 12.1494 463 86.9611 1000.12 533.354
550 0 37.0121 9.21322 341 91.1026 998.98 533.575
551 0 41.0192 11.9212 489 86.2372 997.556 531.335
552 0 42.0637 9.98487 420 89.9024 996.133 529.036
553 0 42.012 12.0918 508 86.5354 997.319 527.238
554 0 43.1384 13.6305 588 83.1174 995.534 524.301
555 0 43.1278 12.7528 550 84.5109 995.673 522.002
556 0 44.0706 12.843 566 83.9823 997.744 521.936
557 0 48.0427 13.5713 652 81.3681 998.058 521.259
558 0 49.1644 14.3803 707 80.4795 997.562 515.939
559 0 50.0844 14.236 713 81.2202 999.032 516.815
560 0 52.0807 14.4583 753 80.6839 999.503 513.604
561 0 54.1448 13.8333 749 81.6182 1001.35 513.192
562 0 54.0798 12.9623 701 84.3652 1003.39 512.795
563 0 57.163 13.7676 787 82.9543 1006.28 511.451
564 0 58.0796 14.4113 837 82.7288 1010.62 510.257
565 0 62.2994 15.875 989 78.9141 1013.6 511.439
566 0 62.1208 14.6167 908 81.6057 1014.94 508.617
567 0 63.1781 13.7548 869 84.0034 1018.24 509.732
568 0 68.1541 15.1715 1034 80.6209 1020.02 514.018
569 0 71.1194 15.2138 1082 80.646 1021.47 508.849
570 0 72.1778 13.3559 964 83.9149 1022.27 512.658
571 0 75.1402 14.9587 1124 82.524 1021.57 509.274
572 1 38.0606 12.5064 476 83.2983 1022.67 530.01
573 0 43.135 10.5946 457 85.0438 1021.8 530.961
574 0 42.1545 12.0983 510 84.5235 1020.34 528.392
575 0 44.272 13.7333 608 79.9112 1016.97 528.423
576 0 43.0797 12.6742 546 82.2198 1015.47 532.396
577 0 45.0751 13.4442 606 78.4076 1012.5 528.054
578 0 44.1062 12.946 571 78.4326 1009.13 528.63
579 0 45.2961 10.2658 465 82.2817 1007.89 525.568
580 0 49.1544 12.6337 621 77.6956 1005.59 522.942
581 0 51.1153 13.6945 700 77.1229 1005.33 524.277
582 0 51.1193 11.6003 593 80.8347 1004.05 523.992
583 0 54.1538 15.4929 839 75.553 1002.26 522.889
584 0 55.1532 11.9485 659 80.912 1000.98 519.795
585 0 56.1959 12.2607 689 81.4557 1000.92 517.112
586 0 58.1506 14.1357 822 78.5292 999.589 515.06
587 0 59.1093 13.0944 774 80.6111 999.3 514.683
588 0 62.1036 13.2037 820 79.8024 998.289 512.23
589 0 62.1018 11.2396 698 83.7464 997.494 511.874
590 1 32.016 8.68317 278 79.7626 998.252 527.41
591 0 33.0934 8.85372 293 78.0478 997.805 526.778
592 0 34.1315 9.81497 335 78.8866 998.794 521.579
593 0 35.0381 11.3591 398 78.6709 999.354 520.515
594 0 37.0498 11.8489 439 77.7585 1000.44 520.458
595 0 38.0112 11.9965 456 79.3092 1002.45 519.25
596 0 40.0449 12.8855 516 84.1202 1004.98 521.988
597 0 42.0515 12.6987 534 84.0843 1006.46 520.331
598 0 42.042 13.3676 562 84.5516 1008.48 521
599 0 43.0889 12.625 544 86.6305 1012.51 521.844
600 0 46.1177 15.1785 700 81.3429 1013.9 521.786
601 0 45.0622 12.4051 559 89.2075 1017.46 522.562
602 0 46.1068 14.0977 650 85.6754 1019.44 520.071
603 0 50.0904 13.9947 701 85.1655 1020.58 522.699
604 0 53.0529 14.8908 790 84.5114 1021.35 523.665
605 0 51.0942 12.8978 659 89.9939 1021.13 525.24
606 0 54.0463 14.5246 785 87.7223 1020.19 523.746
607 0 54.0463 14.5431 786 133.293 1019.18 523.765
608 0 57.08 14.6461 836 89.0167 1016.95 524.214
609 0 60.1202 15.9348 958 85.8622 1015.16 521.862
610 0 62.1389 14.3549 892 88.2679 1013.25 521.786
611 1 32.05 11.4197 366 94.4016 1012.72 539.262
612 0 32.049 11.7944 378 93.0714 1009.82 537.444
613 0 36.0027 12.1102 436 90.8486 1008.26 537.005
614 0 38.0495 13.6139 518 86.8475 1006.63 537.523
615 0 38.0509 10.9853 418 91.2273 1005.29 538.208
616 0 41.0447 12.9858 533 88.1876 1004.09 535.349
617 0 40.0397 13.0371 522 90.6552 1002.92 533.615
618 0 40.064 12.7047 509 90.8173 1002.14 531.525
619 0 44.0356 13.6026 599 89.8932 1000.43 529.583
620 0 46.0662 14.8699 685 88.0248 999.366 526.489
621 0 47.0265 14.3536 675 89.1274 998.522 524.557
622 0 45.0397 13.6324 614 92.7638 997.728 523.155
623 0 48.0839 15.0362 723 89.2254 997.876 520.364
624 0 51.0357 15.5381 793 88.0076 998.264 520.24
625 0 52.0852 14.6491 763 91.1298 998.486 517.241
626 0 53.1119 14.8743 790 91.2734 999.397 519.858
627 0 55.2014 15.9235 879 90.1251 1000.37 514.446
628 0 56.0669 14.8929 835 93.6982 1002.27 514.665
629 0 58.1321 15.6024 907 92.9625 1004.45 511.246
630 0 60.1664 15.4239 928 94.6703 1007.14 510.434
631 0 63.0895 15.5335 980 94.0204 1009.83 510.384
632 0 65.1793 14.928 973 95.2467 1013 512.393
633 0 65.1773 15.1893 990 96.7374 1015.87 510.293
634 0 68.1691 15.1535 1033 96.9361 1018.69 510.502
635 0 70.116 14.7755 1036 97.3041 1020.52 513.444
636 0 74.0605 16.4325 1217 94.6122 1020.86 513.776
637 1 38.0718 11.7935 449 96.902 1021.52 532.067
638 0 38.0603 12.3751 471 100.183 1021.84 528.554
639 0 38.0196 11.5993 441 100.104 1021.67 531.243
640 0 39.0463 11.3967 445 98.4584 1020.9 532.578
641 0 43.0123 12.2988 529 97.7089 1019.24 531.805
642 0 46.0366 12.7724 588 94.8622 1018.15 532.544
643 0 46.0101 13.7796 634 96.5473 1016.57 529.446
644 0 47.031 13.0552 614 98.5 1013.6 527.958
645 0 50.0848 14.6551 734 91.4005 1009.66 529.766
646 0 50.0671 13.442 673 94.6389 1007.81 530.805
647 0 55.065 15.5089 854 87.9122 1006.88 532.205
648 0 54.0367 14.7862 799 91.9374 1005.21 525.577
649 0 58.0264 14.8036 859 91.0326 1004.6 526.605
650 0 58.0306 15.1127 877 90.8358 1001.6 523.584
651 0 59.0771 16.0468 948 90.2511 1001.03 520.092
652 0 63.0624 16.6343 1049 87.6292 1000.08 519.288
653 0 63.107 15.2756 964 91.0539 999.025 517.196
654 0 66.1634 16.0209 1060 89.184 998.159 516.304
655 0 68.1394 14.9253 1017 83.8977 998.382 511.079
656 0 71.0936 15.2194 1082 83.2357 997.302 509.777
657 0 71.242 14.9491 1065 85.1822 997.527 508.458
658 0 72.1624 14.9524 1079 85.3633 997.704 505.5
659 1 37.0506 8.58286 318 91.8459 998.67 522.289
660 0 38.1661 11.6858 446 90.213 1000 521.469
661 0 42.0381 12.7028 534 96.3221 999.981 521.277
662 0 40.0634 11.4069 457 98.6849 1001.17 522.95
663 0 43.0383 12.7561 549 96.2532 1003.51 522.714
664 0 46.0963 13.3416 615 93.7301 1007.41 521.444
665 0 48.0826 13.6432 656 89.0747 1010.86 518.113
666 0 49.1068 13.0532 641 88.4243 1013.93 523.261
667 0 49.0377 14.5806 715 87.7259 1016.09 519.979
668 0 54.0882 15.0865 816 84.5012 1018.67 521.039
669 0 53.0555 13.9665 741 88.6032 1019.94 518.198
670 0 54.0998 14.5842 789 87.2066 1021.29 521.449
671 0 56.0332 15.5979 874 86.5801 1021.29 522.289
672 0 59.1066 14.4992 857 84.0455 1020.86 522.382
673 0 59.0563 13.902 821 90.9927 1018.77 522.216
674 0 63.1939 15.0489 951 87.5762 1018.36 520.486
675 0 67.1525 14.2065 954 87.5031 1016.93 521.921
676 1 34.1066 11.2588 384 93.8958 1015.74 536.253
677 0 35.0549 11.4107 400 93.91 1013.84 536.825
678 0 39.0789 13.4599 526 86.1483 1011.71 537.681
679 0 39.1145 12.5785 492 87.6707 1009.66 536.411
680 0 40.1775 12.9426 520 88.4173 1008.16 535.465
681 0 41.0803 13.1693 541 87.8299 1006.48 532.662
682 0 44.1353 14.4329 637 84.5416 1003.91 531.907
683 0 44.0288 12.7871 563 87.9165 1002.2 532.902
684 0 47.0903 15.6508 737 82.2266 1000.9 529.658
685 0 47.0535 14.8342 698 83.659 1000.06 526.663
686 0 48.0833 13.6222 655 84.716 998.823 525.899
687 0 49.0527 13.5568 665 85.215 998.147 524.806
688 0 51.0591 14.7868 755 83.0318 997.497 523.103
689 0 52.222 14.6873 767 83.4576 997.36 520.168
690 0 53.1346 14.5291 772 83.579 996.46 517.102
691 0 56.1709 14.6339 822 82.3881 997.22 519.269
692 0 59.2501 16.9114 1002 77.9002 997.365 518.32
693 0 58.1907 14.5384 846 83.208 997.103 513.82
694 0 59.1871 14.0233 830 85.3807 997.736 513.33
695 0 62.2126 14.7237 916 83.0087 998.946 512.781
696 0 63.2802 14.3647 909 84.4301 1000.65 509.636
697 0 66.2399 15.4439 1023 82.8475 1001.84 506.733
698 0 70.2338 15.2918 1074 83.6508 1004.87 504.56
699 1 34.1343 12.9196 441 87.4422 1008.47 524.925
700 0 35.0324 12.7025 445 88.8315 1010.67 523.218
701 0 36.0584 12.5907 454 90.3304 1013.1 522.548
702 0 38.0835 11.6061 442 90.6878 1015.72 523.242
703 0 40.0581 13.6801 548 86.4361 1018.01 521.985
704 0 42.0609 14.7405 620 84.7258 1018.74 524.153
705 0 42.1108 14.7706 622 88.2347 1019.03 528.463
706 0 45.129 15.223 687 86.9199 1018.76 526.536
707 0 46.3128 16.0215 742 85.8464 1016.95 525.412
708 0 49.1103 16.1066 791 80.3388 1015.82 525.905
709 0 50.133 15.4988 777 81.9048 1013.92 526.243
710 0 49.1892 15.3286 754 83.3912 1011.8 527.094
711 0 52.0575 15.1755 790 83.5658 1010.13 524.818
712 0 53.3096 14.669 782 85.2174 1007.71 525.561
713 0 56.0842 15.7798 885 83.4667 1006.96 524.604
714 0 57.0721 15.4191 880 84.7159 1004.72 523.812
715 0 58.1756 16.072 935 84.2481 1003.29 519.942
716 0 60.1171 16.5011 992 84.503 1001.96 521.843
717 1 27.0491 14.4552 391 93.2685 1000.53 533.831
718 0 30.0432 13.9466 419 92.5442 1000.21 532.327
719 0 31.2398 14.2766 446 91.4484 999.309 530.3
720 0 30.0543 13.0098 391 97.289 997.639 529.087
721 0 33.1671 14.5928 484 92.7893 996.984 528.217
722 0 34.3498 13.5663 466 92.6266 996.38 527.442
723 0 33.3838 12.7907 427 95.7377 995.628 525.679
724 0 35.1402 14.6271 514 92.3735 995.549 522.121
725 0 36.4752 14.2289 519 93.6821 996.193 519.969
726 0 38.1907 14.6371 559 93.0984 996.34 520.306
727 0 38.315 15.3987 590 92.4525 998.134 517.812
728 0 40.2858 15.2411 614 92.3192 997.78 518.358
729 0 44.4397 15.3242 681 90.7269 998.894 515.928
730 0 43.2918 14.6679 635 93.9197 999.906 515.89
731 0 45.3606 15.8287 718 91.6936 1001.76 514.909
732 0 48.5125 16.6349 807 89.1314 1004.66 516.886
733 0 48.2709 18.044 871 88.4168 1007.44 516.168
734 0 49.7009 15.9957 795 92.356 1009.58 513.595
735 0 51.4474 14.4614 744 94.3884 1012.47 514.448
736 0 53.334 15.0561 803 92.99 1014.44 513.578
737 0 57.4376 15.025 863 92.5805 1015.93 512.373
738 0 57.5281 15.3664 884 93.0362 1016.56 512.945
739 0 58.4344 16.0864 940 91.9745 1016.78 514.17
740 0 62.3241 16.2217 1011 92.2186 1016.95 516.001
741 0 64.1364 15.6386 1003 94.1645 1015.1 515.242
742 0 64.278 16.522 1062 94.0217 1014.64 514.323
743 0 69.2087 17.31 1198 90.6068 1012.63 517.253
744 0 70.5416 15.2818 1078 95.5649 1011.87 515.982
745 0 73.3877 15.7247 1154 94.2106 1008.55 512.301
746 0 76.1462 16.2713 1239 94.9661 1006.93 513.257
747 0 77.7292 14.5763 1133 98.316 1005.29 512.131
748 1 40.3383 12.2464 494 102.498 1003.65 528.83
749 0 41.2762 9.9573 411 106.406 1002.82 527.088
750 0 43.1999 11.6898 505 101.139 1001.23 528.948
751 0 44.3478 12.9657 575 99.3287 999.365 525.174
752 0 48.616 12.465 606 98.4373 997.682 524.99
753 0 45.5148 12.5234 570 102.035 997.165 520.177
754 0 50.1574 13.8165 693 98.316 995.043 518.944
755 0 54.3667 14.5126 789 95.8112 995.427 517.483
756 0 54.1985 14.5207 787 97.0191 995.052 516.37
757 0 56.2004 14.6974 826 97.0327 994.518 512.354
758 0 61.0447 14.8743 908 95.0374 994.944 513.249
759 0 63.2883 15.7533 997 93.9539 995.539 512.773
760 0 64.2018 15.0463 966 95.8799 995.652 508.164
761 0 66.1061 14.7641 976 96.5861 995.964 507.533
762 0 67.3331 15.0297 1012 97.1453 997.245 506.433
763 0 71.2041 15.8558 1129 95.0363 998.174 504.41
764 0 71.0898 15.8251 1125 96.7831 999.693 503.189
765 0 75.1749 17.0935 1285 94.7899 1002.58 504.282
766 0 78.1334 16.0367 1253 98.2498 1003.54 500.857
767 0 79.147 14.9721 1185 101.676 1006.97 501.254
768 0 85.0791 16.6903 1420 97.231 1009.18 500.345
769 0 85.1831 15.003 1278 100.949 1011.92 499.669
770 0 89.1779 16.226 1447 99.2377 1014.4 500.638
771 0 93.2678 15.1499 1413 102.234 1014.69 498.8
772 0 98.1657 15.8915 1560 100.5 1015.65 498.935
773 0 101.183 15.5659 1575 103.204 1016.83 497.896
774 0 106.334 15.5547 1654 104.434 1017.36 497.215
775 1 60.2652 10.4206 628 103.971 1015.83 519.116
776 0 62.1062 9.27444 576 103.344 1014.18 522.88
777 0 63.124 10.6616 673 103.08 1013.14 520.842
778 0 67.2968 12.7049 855 100.25 1011.57 519.929
779 0 70.0731 11.8448 830 101.031 1009.5 519.125
780 0 71.1976 12.1774 867 103.88 1007.42 516.356
781 0 74.1764 12.6455 938 102.358 1005.85 513.433
782 1 46.1147 9.17277 423 96.5721 1005.55 532.754
783 0 44.0126 7.54329 332 97.2922 1004.95 533.91
784 0 48.0369 10.2838 494 97.2328 1003.05 528.549
785 0 51.0762 8.223 420 99.0548 1002.45 529.862
786 0 51.0793 10.2977 526 97.0418 1001.85 528.089
787 0 52.1138 10.6882 557 98.9551 999.889 521.451
788 0 53.1314 8.86482 471 98.1295 998.934 521.943
789 0 50.106 9.63956 483 98.1387 997.807 514.487
790 0 53.1124 9.77173 519 96.4952 997.324 514.378
791 0 56.0646 11.7365 658 92.6596 995.214 515.831
792 0 59.0626 10.4296 616 94.2581 996.122 516.847
793 0 58.0541 10.318 599 94.7646 995.796 514.813
794 0 62.1068 9.41926 585 95.6906 996.121 515.106
795 0 62.0858 10.9204 678 94.3894 996.979 510.117
796 0 64.1482 10.8031 693 94.3708 997.292 510.636
797 0 66.097 10.182 673 95.6077 998.854 509.6
798 0 68.0742 11.0174 750 93.8747 1000.88 505.456
799 0 71.0672 12.1857 866 91.545 1003.3 504.415
800 0 70.1 8.75891 614 96.7769 1006.51 507.41
801 0 74.2634 8.34866 620 97.6016 1009.3 507.671
802 0 78.1387 10.2894 804 95.1406 1011.33 502.996
803 0 81.1149 10.5899 859 95.8335 1013.25 505.083
804 0 85.0569 8.65303 736 99.1671 1013.9 503.052
805 0 85.402 9.37917 801 100.223 1015.85 503.891
806 0 86.7102 10.7023 928 97.4127 1017.96 504.727
807 0 88.437 10.7308 949 98.3182 1018.37 507.591
808 0 92.5984 10.2702 951 98.7655 1017.51 505.231
809 0 92.5151 8.30135 768 100.858 1016.67 505.112
810 0 97.3306 11.4763 1117 95.034 1015.67 503.051
811 0 100.401 10.219 1026 97.6452 1013.81 501.457
812 0 102.567 7.5073 770 99.8286 1012.15 506.905
813 0 107.282 8.60348 923 98.7443 1009.97 499.789
814 0 108.54 8.62356 936 99.3333 1007.69 500.249
815 0 113.396 10.5118 1192 96.6728 1005.8 496.501
816 0 116.377 7.68192 894 99.0962 1003.78 498.916
817 0 122.283 11.0563 1352 94.3225 1002.5 493.45
818 0 125.469 9.32502 1170 96.7462 1001.28 493.193
819 0 122.62 8.17157 1002 97.8752 999.309 495.988
820 0 122.633 7.75484 951 96.4196 998.514 501.935
821 0 122.554 8.20046 1005 97.2109 997.828 497.466
822 1 73.1706 6.69668 490 94.8857 997.076 519.996
823 0 70.0937 10.5288 738 89.7954 996.293 512.318
824 0 69.1515 8.64768 598 92.9565 996.599 510.41
825 0 70.1738 9.71873 682 92.371 996.368 509.572
826 0 70.1738 9.64748 677 107.493 995.368 509.42
827 0 73.3143 7.27007 533 97.1989 997.105 505.994
828 0 78.3858 8.44541 662 94.2417 998.319 507.625
829 0 75.4031 10.5831 798 93.5163 997.013 504.244
830 1 22.0134 5.26952 116 94.9483 998.155 529.31
831 0 19.0062 8.15522 155 88.7032 995.923 528.052
832 1 50.1721 12.3774 621 81.1079 998.997 514.364
833 0 51.145 11.399 583 83.5643 1001.87 517.789
834 0 47.074 10.4729 493 87.6998 1004.98 515.625
835 0 49.0517 10.2749 504 86.4107 1007.17 519.55
836 0 50.0756 9.98491 500 88.346 1009.14 520.528
837 0 52.0611 10.3724 540 89.137 1011.87 518.111
838 0 53.0907 10.1713 540 89.6018 1013.29 519.978
839 0 55.1086 12.0852 666 87.3303 1014.96 516.625
840 0 57.0812 12.7362 727 85.5846 1016.21 521.22
841 0 59.1076 10.6924 632 88.1804 1015.98 523.693
842 0 61.1452 13.1327 803 86.3499 1015.28 520.134
843 1 29.0259 8.85415 257 94.2257 1013.04 536.42
844 0 34.0819 9.79994 334 95.7515 1012.43 536.62
845 0 36.038 10.9606 395 92.6684 1011.06 535.851
846 0 36.0473 10.4308 376 93.2553 1008.57 536.894
847 0 39.0264 13.9393 544 86.9485 1006.56 534.042
848 0 40.0316 12.3402 494 92.1538 1003.94 535.083
849 0 40.0211 12.2935 492 92.9004 1002.17 534.25
850 0 42.0187 13.2322 556 91.3669 1001.65 535.784
851 0 41.0582 12.5675 516 94.5388 999.527 531.851
852 0 43.0324 13.7803 593 90.8533 999.113 532.587
853 0 44.0889 12.7243 561 93.3797 996.986 530.326
854 0 46.0494 14.8102 682 89.5499 996.218 528.028
855 0 46.0275 13.0791 602 93.0266 994.962 528.13
856 0 48.0219 14.6183 702 89.235 995.289 526.271
857 0 49.0345 16.0907 789 86.8023 994.014 524.947
858 0 49.0802 12.8158 629 95.1669 994.429 523.307
859 0 49.1111 12.767 627 95.5439 994.506 523.761
860 0 50.1897 12.8513 645 93.9023 994.172 522.13
861 0 52.0481 13.3915 697 92.9684 994.594 520.61
862 0 53.0348 12.9538 687 94.064 995.312 520.275
863 0 55.0577 13.2952 732 92.2637 996.628 517.335
864 0 54.0398 13.268 717 93.4826 997.693 516.862
865 0 56.066 14.911 836 90.3206 999.838 517.246
866 0 57.0788 12.7893 730 94.063 1001.32 515.566
867 0 60.2385 14.3596 865 90.4647 1004.91 514.864
868 0 62.1844 14.8912 926 89.5421 1007.67 514.55
869 1 31.0342 11.4068 354 93.1469 1009.48 531.814
870 0 32.0345 9.58342 307 95.101 1011.81 534.704
871 0 32.0559 9.70182 311 97.0675 1013.53 532.91
872 0 35.0377 12.7006 445 91.7079 1015.48 532.267
873 0 35.0231 11.7922 413 93.3366 1015.44 533.305
874 0 36.0464 10.9304 394 94.7335 1015.91 533.579
875 0 37.0103 11.9426 442 94.5996 1015.75 530.448
876 0 41.063 13.394 550 89.0236 1014.2 531.391
877 0 40.1685 13.6176 547 92.3163 1013.62 532.256
878 0 42.0407 12.1073 509 93.9136 1011.71 535.043
879 0 46.1337 13.2658 612 90.3399 1009.71 534.297
880 0 46.135 14.7394 680 89.0632 1007.8 533.987
881 0 47.1242 14.5997 688 88.9738 1005.65 534.93
882 0 49.0646 13.6962 672 90.2902 1003.49 531.772
883 0 51.0957 14.5609 744 89.0255 1001.94 530.648
884 0 52.0738 14.4026 750 87.816 1000.3 530.003
885 0 55.1518 14.1609 781 88.2177 999.088 526.434
886 0 55.1754 14.2817 788 88.1612 997.343 525.466
887 0 57.1695 13.8011 789 88.3511 996.436 524.413
888 0 60.0676 14.4504 868 87.1221 995.376 522.758
889 0 60.1028 15.3737 924 86.3626 994.641 519.646
890 0 62.1617 14.6392 910 89.5022 993.675 517.791
891 0 64.2569 13.8818 892 90.0034 994.046 516.016
892 0 65.1643 14.3483 935 89.6578 994.07 515.904
893 0 67.1611 14.0558 944 91.3972 993.387 512.151
894 0 70.1622 15.6922 1101 89.3996 994.643 509.287
895 0 73.1118 15.2096 1112 89.2662 994.807 509.047
896 0 74.2676 14.0034 1040 91.9067 996.225 507.485
897 0 78.2066 13.5538 1060 91.6198 996.353 504.015
898 0 80.2275 14.5087 1164 89.9227 998.873 504.256
899 1 41.0202 9.89756 406 95.1355 999.84 522.212
900 0 41.077 10.6629 438 93.2443 1002.24 521.998
901 0 43.1101 11.3662 490 93.2388 1004.38 523.078
902 0 45.0571 11.0305 497 92.6237 1006.68 524.117
903 0 47.1394 12.6858 598 90.4649 1010.83 523.62
904 0 50.2353 12.0035 603 92.0663 1012.57 524.96
905 0 50.2017 12.6689 636 92.1541 1014.96 521.495
906 0 51.1679 12.9769 664 92.5196 1015.36 521.114
907 0 55.2202 13.8898 767 89.8435 1015.63 522.119
908 0 56.2532 14.2747 803 90.9925 1015.73 522.134
909 0 59.1465 14.7769 874 89.5092 1015.46 522.582
910 0 58.3022 13.6873 798 94.7243 1014.03 522.831
911 0 62.109 12.301 764 96.9987 1012.31 522.599
912 0 66.101 14.266 943 92.9714 1011.24 523.071
913 0 66.1592 13.4675 891 95.6453 1008.4 522.481
914 0 71.2234 15.2618 1087 92.0294 1006.86 520.146
915 0 75.2869 14.2389 1072 93.4039 1004.71 518.863
916 1 37.0364 11.4482 424 94.8042 1003.3 535.731
917 0 42.075 11.5983 488 92.293 1003.03 536.217
918 0 42.0865 11.7377 494 93.2045 1001.09 534.093
919 0 41.207 10.7506 443 96.3792 1001.23 531.034
920 0 44.0465 11.556 509 90.4145 1000.5 533.079
921 0 46.1351 12.6802 585 89.653 999.056 529.486
922 0 46.0959 13.038 601 90.416 998.752 527.837
923 0 51.0173 13.6228 695 87.7568 996.74 527.751
924 0 49.0455 13.3142 653 89.7458 995.502 526.113
925 0 52.0383 14.5854 759 86.668 995.223 522.281
926 0 55.0927 13.686 754 87.3554 996.454 521.732
927 0 55.0505 13.0244 717 89.6904 995.801 520.847
928 0 55.0639 12.7488 702 91.3348 997.292 517.541
929 0 59.1596 14.52 859 85.9569 997.709 517.596
930 0 59.0952 13.9944 827 87.8513 999.058 514.929
931 0 61.108 14.0244 857 87.8541 1000.29 514.006
932 0 60.065 12.7529 766 91.1031 1001.73 513.001
933 0 65.1157 14.1287 920 86.9511 1003.9 511.275
934 0 68.0905 14.1283 962 87.7193 1006.08 510.977
935 0 72.0744 16.1084 1161 82.7407 1008.69 510.569
936 0 74.1125 14.424 1069 86.304 1011.84 510.252
937 1 38.0917 12.8374 489 89.5358 1015.66 527.579
938 0 39.0487 11.4985 449 93.2806 1017.07 527.566
939 0 39.0241 10.8907 425 93.8188 1017.6 529.518
940 0 39.0306 10.5815 413 97.6876 1019.2 528.676
941 0 43.0692 13.0488 562 93.2046 1019.17 528.431
942 0 47.0895 13.3363 628 89.6465 1018.57 529.818
943 0 48.0656 13.7729 662 88.5423 1017.01 528.07
944 0 52.0532 13.9473 726 87.051 1015.49 529.176
945 0 52.033 14.4716 753 88.0544 1013.87 528.891
946 0 55.1849 15.5296 857 84.6628 1012.14 528.884
947 0 56.1481 14.0877 791 88.1745 1009.74 528.002
948 0 57.159 14.276 816 87.8076 1006.66 526.377
949 0 59.1482 13.4239 794 89.4232 1004.9 526.54
950 0 61.15 15.045 920 86.3794 1003.34 524.377
951 0 62.0975 14.2357 884 88.4604 1002.18 524.008
952 0 66.2032 14.9691 991 86.553 1000.3 519.463
953 0 69.2796 15.1271 1048 86.0687 999.921 519.102
954 0 70.2135 15.7662 1107 85.1165 997.308 514.69
955 0 74.0981 15.412 1142 85.4912 997.477 514.54
956 0 74.1635 15.5063 1150 87.0644 996.533 512.997
957 0 78.1519 15.7642 1232 86.2865 995.11 506.882
958 0 81.1969 16.109 1308 85.1147 994.395 505.673
959 1 41.0768 12.148 499 93.7736 995.359 524.395
960 0 42.1866 13.5825 573 92.719 995.995 521.136
961 0 43.1574 13.4855 582 91.9089 996.014 519.959
962 0 45.049 13.4742 607 92.458 997.456 519.977
963 0 45.113 12.3246 556 96.6277 998.169 519.005
964 0 47.0765 14.657 690 92.3145 1000.64 516.345
965 0 48.1142 14.5695 701 90.097 1001.37 517.708
966 0 51.0862 14.1134 721 87.3148 1003.97 518.832
967 0 53.2155 14.3943 766 87.1997 1006.15 518.206
968 0 52.1971 13.8513 723 91.7912 1010.29 518.589
969 0 55.1262 14.9112 822 87.0547 1011.45 518.425
970 0 55.1355 13.0225 718 92.6616 1013.61 517.682
971 0 58.1389 14.3965 837 87.6953 1016.54 519.476
972 0 61.1378 14.3937 880 88.9193 1016.85 517.93
973 0 64.1476 13.7807 884 90.138 1017.75 519.674
974 0 68.127 14.3409 977 89.3163 1017.95 519.905
975 0 68.0929 13.9662 951 91.9664 1017.2 519.879
976 0 71.1737 16.5792 1180 87.5924 1015.87 518.329
977 0 76.1359 14.9338 1137 89.9982 1015.12 516.925
978 0 77.3219 14.1098 1091 94.33 1014.21 513.049
979 1 41.0649 8.96143 368 96.2853 1012.46 536.802
980 0 40.1286 11.2139 450 97.1756 1009.94 531.736
981 0 40.1253 10.5918 425 98.6847 1007.81 532.315
982 0 43.1912 9.7705 422 94.801 1004.58 530.692
983 0 47.0958 10.7441 506 91.4526 1002.39 531.542
984 0 49.2061 12.3968 610 91.7607 1000.91 529.372
985 0 50.1228 13.7263 688 92.1904 998.894 522.458
986 0 51.1475 13.158 673 89.315 998.449 524.416
987 0 56.2407 14.5446 818 85.0342 996.952 525.888
988 0 53.1501 13.2079 702 91.2607 996.625 518.692
989 0 54.147 13.2787 719 91.185 995.89 517.816
990 0 56.1841 13.8117 776 89.5026 995.588 516.794
991 0 58.0895 12.9111 750 91.296 995.584 516.713
992 0 63.1392 14.1434 893 87.8466 995.385 513.7
993 0 65.0722 15.3061 996 86.0181 995.228 510.514
994 0 67.2074 15.0132 1009 86.3419 995.625 507.25
995 0 69.124 13.946 964 88.8703 995.839 506.484
996 0 69.3062 14.6019 1012 89.2777 997.715 503.759
997 0 73.4088 15.1753 1114 87.9767 999.896 500.176
998 0 75.5045 14.5025 1095 89.2091 1001.74 497.67
999 0 79.2593 15.1149 1198 90.8297 1005.32 500.934
1000 0 81.3252 14.5342 1182 91.6937 1007.74 498.97
1001 1 44.2511 9.62687 426 92.1901 1011 521.772
1002 0 45.1609 9.74293 440 92.9205 1014.12 522.139
1003 0 46.2579 10.9387 506 90.8261 1017.14 522.862
1004 0 47.4248 10.543 500 93.25 1017.65 519.9
1005 0 50.2127 13.4627 676 88.645 1018.35 520.179
1006 0 50.1424 12.9431 649 91.5855 1019.65 520.076
1007 0 54.383 13.2027 718 89.6462 1019.42 520.311
1008 0 56.2967 15.7203 885 84.5695 1018.64 520.748
1009 0 57.2556 13.0293 746 88.8686 1017.4 520.66
1010 0 60.4254 14.3483 867 85.8247 1015.91 518.589
1011 0 64.2592 15.6865 1008 82.6756 1013.39 517.945
1012 0 66.3541 13.9554 926 86.4978 1011.25 520.081
1013 0 68.2137 13.6776 933 87.0461 1009.81 519.274
1014 0 71.1794 13.487 960 87.3875 1007.31 516.797
1015 0 74.2089 13.8393 1027 86.483 1006.25 517.071
1016 1 36.0731 9.67479 349 88.2407 1005.03 536.444
1017 0 39.0582 11.1116 434 89.2028 1003.65 529.816
1018 0 44.2928 10.5886 469 88.3582 1002.78 530.192
1019 0 43.1133 10.716 462 88.2208 1001.65 529
1020 0 45.0769 9.4727 427 89.4262 999.653 530.522
1021 0 45.2479 10.6745 483 89.2153 999.669 526.139
1022 0 46.0327 10.5794 487 90.0205 998.06 525.123
1023 0 51.2694 13.2048 677 85.6278 996.963 518.025
1024 0 51.1851 13.4609 689 83.3628 997.02 520.572
1025 0 53.2079 12.423 661 85.702 996.144 516.241
1026 0 54.1866 13.6565 740 83.5635 996.362 515.057
1027 0 55.2058 11.9734 661 85.7443 997.206 515.203
1028 0 59.2506 12.3543 732 84.3306 998.279 513.113
1029 0 59.1583 13.3709 791 83.4804 998.617 510.131
1030 0 60.1996 12.6579 762 84.8215 1000.76 509.509
1031 0 64.289 12.646 813 84.0566 1002.22 508.153
1032 0 64.3662 11.7764 758 85.7573 1003.65 506.504
1033 0 67.2372 12.6864 853 84.5873 1006.68 505.25
1034 0 69.2458 13.5026 935 83.2749 1009.3 507.615
1035 0 73.3394 13.2671 973 84.0421 1012.21 506.629
1036 0 76.1864 14.0182 1068 83.3305 1014.04 507.641
1037 0 77.2224 13.2475 1023 86.4516 1015.28 506.296
1038 0 80.2135 12.7659 1024 87.6377 1016.82 507.041
1039 0 81.1632 12.5796 1021 89.2576 1018.1 508.553
1040 0 86.1392 13.4201 1156 87.4715 1015.91 506.714
1041 0 90.3609 13.5789 1227 87.6398 1014.75 502.804
1042 0 92.3948 13.2042 1220 89.6393 1013.13 499.102
1043 0 95.469 13.8684 1324 88.327 1012.07 501.214
1044 1 51.2238 9.25352 474 91.2257 1011.51 523.302
1045 0 52.2363 11.0651 578 86.7543 1008.22 526.516
1046 0 54.1989 9.94485 539 90.898 1006.34 524.321
1047 0 55.2645 9.82548 543 89.7716 1003.91 523.562
1048 0 58.1429 12.3489 718 86.6309 1002.56 519.862
1049 0 60.148 12.2365 736 83.0068 1002.52 521.496
1050 0 64.2662 13.7709 885 81.9785 1001.36 521.078
1051 0 67.1048 13.5907 912 81.3586 999.899 522.778
1052 0 68.0614 14.7514 1004 79.7649 999.262 521.181
1053 0 70.1427 13.9002 975 81.9497 997.497 516.947
1054 0 72.2033 14.7362 1064 80.7867 996.491 515.131
1055 0 72.1045 12.0658 870 86.3874 994.841 513.026
1056 0 74.2062 13.0043 965 85.5845 993.268 508.228
1057 0 78.1407 14.4867 1132 83.0504 993.341 508.224
1058 0 80.2698 13.3425 1071 85.3137 993.232 505.761
1059 0 80.2108 13.5767 1089 84.7062 993.608 504.306
1060 0 84.2132 12.9433 1090 85.5037 994.938 502.686
1061 1 43.0617 9.45156 407 88.312 996.712 523.376
1062 0 47.1626 10.2624 484 89.3719 997.459 517.424
1063 0 49.0734 10.576 519 87.2408 998.699 518.738
1064 0 51.1351 10.3842 531 90.1262 1000.46 515.621
1065 0 52.0577 11.7946 614 84.399 1003.16 515.577
1066 0 53.3736 12.3657 660 85.6758 1004.79 510.508
1067 0 54.1199 11.4745 621 87.9291 1005.41 513.808
1068 0 55.1527 12.9821 716 85.331 1007.75 513.75
1069 0 60.2538 14.5551 877 81.9156 1011.15 512.886
1070 0 61.1181 12.9258 790 86.2797 1011.88 513.989
1071 0 63.1464 13.7458 868 85.7811 1013.22 510.059
1072 0 65.2146 12.9572 845 87.1704 1014.5 513.234
1073 0 66.2075 12.6572 838 89.0227 1015.73 511.598
1074 0 69.1038 12.8792 890 88.8573 1016.22 511.694
1075 0 71.1322 13.7631 979 89.1348 1015.83 512.333
1076 0 75.2218 14.6101 1099 87.5314 1013.99 510.856
1077 0 77.2152 14.0516 1085 89.718 1012.44 511.166
1078 0 79.1838 13.7023 1085 91.6949 1010.01 509.74
1079 1 41.0482 8.11242 333 96.1682 1009.08 532.778
1080 0 43.1209 10.7605 464 93.0797 1006.96 530.791
1081 0 42.06 11.7213 493 94.3266 1004.94 530.375
1082 0 44.0604 11.0076 485 94.5361 1004.16 529.829
1083 0 45.0312 11.0368 497 93.4386 1003.73 530.137
1084 0 49.3684 14.4627 714 87.5266 1001.82 522.849
1085 0 50.3877 13.4557 678 93.3348 1000.17 521.687
1086 0 48.0831 12.3536 594 94.0488 1000.4 524.049
1087 0 52.0385 13.2402 689 90.6763 998.684 521.704
1088 0 52.0458 13.2191 688 91.1265 997.541 519.352
1089 0 55.1494 13.2005 728 90.0797 997.786 516.386
1090 0 57.0714 12.6508 722 91.421 996.964 514.212
1091 0 58.0714 12.984 754 91.7268 997.349 512.344
1092 0 59.1166 12.247 724 93.3633 997.934 510.496
1093 0 62.1731 13.7841 857 90.3221 997.448 509.24
1094 0 64.1649 14.0731 903 89.7486 998.18 506.955
1095 0 66.0998 13.6914 905 90.7779 999.493 505.084
1096 0 69.147 13.6955 947 90.9292 1001.3 503.286
1097 0 71.1524 13.6468 971 91.3224 1002.84 504.26
1098 0 71.1956 13.0345 928 94.0679 1004.85 502.339
1099 0 76.1937 13.8725 1057 93.0047 1007.44 503.553
1100 0 79.1952 14.3822 1139 92.5303 1010.13 500.211
1101 0 82.1954 14.5142 1193 92.3512 1012.09 496.288
1102 0 85.2684 13.6041 1160 94.2069 1014.83 499.52
1103 0 89.3081 13.9965 1250 93.9824 1015.34 498.175
1104 1 46.158 11.6773 539 96.1818 1017.26 521.095
1105 0 48.1708 12.9954 626 96.2316 1016.99 520.337
1106 0 49.2336 14.5023 714 93.9552 1018.11 519.489
1107 0 53.2208 15.0693 802 90.879 1017.33 522.483
1108 0 55.2714 12.9181 714 95.8922 1015.75 521.478
1109 0 55.3352 14.3489 794 94.4635 1014.12 521.17
1110 0 57.1477 14.5413 831 94.1998 1011.61 521.235
1111 0 59.1721 14.4663 856 95.1262 1009.6 520.193
1112 0 61.2293 14.2089 870 95.7207 1006.39 520.237
1113 0 61.2063 14.3123 876 96.2169 1004.69 517.052
1114 0 62.0899 13.6576 848 96.8868 1003.12 518.45
1115 0 66.098 14.191 938 97.0928 1002.1 515.285
1116 0 68.1675 14.4497 985 96.9736 1000.46 511.264
1117 0 70.224 15.0803 1059 96.0378 998.995 509.828
1118 0 74.5121 15.2458 1136 95.3028 996.768 507.491
1119 0 75.3124 15.4689 1165 94.2472 996.022 501.781
1120 0 78.4834 14.64 1149 95.2019 994.229 496.325
1121 0 78.3224 12.9848 1017 94.5015 993.45 497.175
1122 0 83.1766 13.4773 1121 92.9688 993.197 496.418
1123 1 44.1635 11.865 524 89.0172 992.769 514.735
1124 0 45.1292 9.39524 424 90.8514 993.087 515.12
1125 0 43.1845 9.49414 410 90.961 994.888 513.376
1126 0 48.1048 9.25064 445 89.3124 995.955 513.157
1127 0 50.1351 10.8507 544 87.2408 997.985 511.006
1128 0 50.115 10.1167 507 88.718 1000.03 510.363
1129 0 53.0905 10.5104 558 86.8513 1001.74 509.957
1130 0 55.2024 13.2241 730 82.6589 1003.79 507.967
1131 0 57.2444 12.7698 731 63.1436 1007.14 511.294
1132 0 57.2645 11.3858 652 85.7347 1010.06 505.891
1133 0 60.1436 12.7528 767 83.6428 1012 507.112
1134 0 61.194 12.4195 760 84.5118 1014.74 506.863
1135 0 64.1923 13.0389 837 83.8268 1016.83 507.18
1136 0 66.2597 11.5002 762 86.315 1017.28 509.682
1137 0 70.2776 13.2901 934 83.5161 1018.56 507.536
1138 0 71.194 13.3579 951 85.0505 1018.42 508.117
1139 0 74.2379 13.2547 984 85.7053 1017.33 507.321
1140 1 39.1662 9.4214 369 89.0325 1017.54 526.008
1141 0 39.0305 9.81284 383 90.1306 1014.88 526.846
1142 0 42.1451 10.1554 428 89.2313 1013.56 527.738
1143 0 42.0849 11.0253 464 88.944 1011.91 528.55
1144 0 44.1017 12.0857 533 87.4278 1009.17 527.779
1145 0 47.1427 12.0485 568 86.0845 1006.65 526.998
1146 0 48.1088 11.9729 576 87.4358 1004.55 526.564
1147 0 50.1487 12.0641 605 86.5835 1003.77 525.664
1148 0 51.0815 11.5306 589 87.3226 1002.73 522.526
1149 0 53.0773 12.4724 662 85.7085 1000.26 521.87
1150 0 56.105 14.0273 787 83.3647 1000.35 522.529
1151 0 57.0692 13.1595 751 85.3715 998.963 520.043
1152 0 58.1113 12.5449 729 86.1084 997.141 516.303
1153 0 59.0771 12.7291 752 86.9495 995.742 514.56
1154 0 61.1593 13.2114 808 86.1002 995.814 510.922
1155 0 63.1574 13.3001 840 86.319 995.608 512.494
1156 0 66.1234 14.231 941 84.3571 994.827 508.762
1157 0 68.1515 13.8515 944 84.9894 994.921 504.731
1158 0 69.1638 14.6898 1016 84.2037 996.373 505.477
1159 0 72.1331 13.2256 954 86.8816 997.688 503.276
1160 0 75.2176 12.4971 940 87.9564 998.573 502.505
1161 0 77.2249 13.26 1024 87.0225 1000.58 499.714
1162 1 40.0398 10.3147 413 91.586 1002.58 517.879
1163 0 44.0256 9.92604 437 89.8124 1004.88 520.913
1164 0 45.0291 9.39392 423 91.5272 1007.83 521.069
1165 0 46.0187 10.7565 495 90.1636 1010.37 519.984
1166 0 49.0368 10.1964 500 91.926 1012.35 517.318
1167 0 48.0794 11.0442 531 92.1601 1014.74 517.51
1168 0 50.0666 9.48736 475 95.339 1016.16 518.533
1169 0 53.2884 12.423 662 89.6072 1014.18 519.491
1170 0 55.1783 12.5774 694 89.8386 1015.14 519.31
1171 0 57.2292 13.4721 771 89.6511 1014.61 519.569
1172 0 58.2307 11.1281 648 93.9198 1013.58 517.989
1173 0 63.172 13.2654 838 89.4821 1011.95 519.765
1174 0 64.271 14.0188 901 89.2231 1010 520.301
1175 0 66.2489 12.5134 829 91.5308 1007.35 520.719
1176 0 69.2299 12.4657 863 92.1738 1004.4 517.404
1177 0 70.3481 12.2249 860 93.2314 1002.26 516.666
1178 0 74.3886 14.2898 1063 89.7949 1001.07 513.985
1179 0 80.2282 14.8078 1188 87.5379 999.359 514.363
1180 1 43.213 9.3259 403 89.6501 998.047 534.293
1181 0 45.4019 11.1009 504 88.4325 997.98 529.629
1182 0 43.0913 10.5126 453 85.6115 994.241 532.435
1183 0 48.1009 11.7046 563 84.135 992.551 529.574
1184 0 51.1308 10.6981 547 85.2431 993.525 528.693
1185 0 51.1041 12.7974 654 82.4251 991.612 525.859
1186 0 52.0769 11.9823 624 84.9487 991.824 522.463
1187 0 54.0356 12.1401 656 85.3094 990.803 519.723
1188 0 54.0792 11.3167 612 86.0964 991.886 519.458
1189 0 55.1982 12.9352 714 84.3249 991.287 515.997
1190 0 59.0696 13.391 791 83.2832 992.09 514.512
1191 0 60.123 13.7551 827 83.3216 993.284 514.765
1192 0 63.2113 13.6843 865 84.4867 995.222 512.809
1193 0 64.1476 13.2351 849 85.4499 996.013 512.7
1194 0 67.16 13.2817 892 85.685 998.349 510.109
1195 0 70.0907 13.882 973 85.261 999.878 510.065
1196 0 71.1119 14.6389 1041 85.4611 1002.43 508.456
1197 0 73.1223 12.9646 948 89.2162 1005.15 508.159
1198 0 75.0877 13.9037 1044 90.5488 1008.57 508.055
1199 0 78.0856 13.8438 1081 92.6133 1011.16 506.76
1200 1 42.0459 10.8691 457 97.5361 1010.86 525.512
1201 0 45.0325 11.3029 509 96.3615 1013.18 526.532
1202 0 44.1265 13.0534 576 94.1615 1013.61 526.391
1203 0 43.0588 11.5888 499 98.6994 1013.47 527.463
1204 0 46.2052 12.1631 562 95.7171 1015.56 527.868
1205 0 48.1757 13.8244 666 91.3393 1014.92 528.05
1206 0 49.1876 13.4384 661 91.5567 1013.78 526.192
1207 0 52.0667 12.3303 642 93.7975 1011.99 526.877
1208 0 54.0486 12.9883 702 93.4501 1009.59 526.832
1209 0 57.0989 12.3995 708 93.2938 1007.42 528.294
1210 0 58.0401 13.0944 760 93.2092 1005.09 524.018
1211 0 58.1347 12.3678 719 95.3741 1003.86 525.548
1212 0 61.0654 13.5429 827 94.3059 1001.9 521.567
1213 0 63.0333 14.0402 885 92.7492 1000.29 521.988
1214 0 64.0559 13.6599 875 93.6823 999.406 520.419
1215 0 67.0646 13.4497 902 92.633 998.292 517.999
1216 0 69.0964 13.17 910 94.2385 997.042 513.401
1217 0 75.0656 14.3474 1077 90.2108 996.478 512.368
1218 0 77.1318 13.1593 1015 93.5005 995.878 508.256
1219 0 79.1739 13.6787 1083 93.2262 995.275 507.922
1220 1 40.0872 10.7266 430 98.9605 997.021 523.367
1221 0 41.0492 8.33148 342 100.439 997.19 525.026
1222 0 45.0775 12.2899 554 94.4332 997.256 522.282
1223 0 46.0986 11.6489 537 96.1359 997.585 520.074
1224 0 47.1464 12.5354 591 95.0372 999.061 516.376
1225 0 50.079 11.1224 557 95.8097 1000.89 515.824
1226 0 53.0291 12.3706 656 92.5625 1002.34 515.642
1227 0 49.1431 11.843 582 94.8608 1003.82 514.763
1228 0 54.1216 11.6405 630 94.019 1006.13 512.187
1229 0 54.0765 12.1864 659 93.8786 1009.68 512.495
1230 0 59.1246 13.4293 794 90.0743 1011.83 514.127
1231 0 58.1092 12.184 708 94.7585 1013.71 514.267
1232 0 56.2294 12.2712 690 89.5029 1014.5 511.112
1233 0 54.2563 10.2292 555 88.1964 1015.11 512.701
1234 0 55.1836 11.797 651 85.1429 1016.14 508.472
1235 0 53.3462 11.2848 602 85.485 1015.24 510.774
1236 0 53.1174 9.43194 501 89.3194 1015.08 511.84
1237 0 54.2114 12.4513 675 84.28 1014.6 514.287
1238 0 54.0521 11.1744 604 85.4917 1013.19 514.82
1239 0 51.1188 9.46813 484 89.0475 1011.88 514.744
1240 0 54.1784 10.1886 552 87.4221 1010.21 516.964
1241 0 54.2587 10.4131 565 88.7876 1007.73 520.273
1242 0 54.1958 9.87162 535 87.9495 1005.1 518.897
1243 0 55.1253 11.5374 636 84.1085 1003.37 521.536
1244 0 53.16 9.23628 491 86.888 1001.79 517.904
1245 0 52.1755 10.3497 540 83.6241 999.917 517.044
1246 0 48.154 9.28271 447 82.9172 998.913 512.647
1247 0 47.1288 8.80565 415 81.7566 997.841 514.407
1248 0 50.1016 11.2771 565 76.4018 996.347 513.212
1249 1 122.257 12.351 1510 101.777 995.501 469.635
1250 0 125.434 13.5928 1705 98.3865 995.317 468.171
