time division length width area intensity CMx CMy
0 0 56.0602 14.3596 805 115.222 1190.57 510.799
1 0 60.0477 15.0713 905 110.438 1193.03 511.707
2 0 60.0477 15.088 906 164.331 1195.03 511.566
3 0 61.0657 15.2295 930 111.981 1193.57 510.34
4 0 62.1147 14.6986 913 113.124 1194.41 514.348
5 0 65.0535 14.4958 943 112.344 1193.85 511.767
6 0 68.1645 15.668 1068 108.735 1192.93 512.15
7 0 68.0883 15.7443 1072 112.513 1192.09 511.27
8 0 71.0572 15.9027 1130 110.75 1190.82 511.255
9 0 71.0675 15.239 1083 114.148 1189.3 512.823
10 0 76.1436 15.6415 1191 111.043 1188.19 512.08
11 1 39.0382 11.3735 444 121.282 1185.62 529.038
12 0 39.1028 11.7127 458 119.397 1183.93 531.378
13 0 43.0323 13.1994 568 114.504 1181.56 531.412
14 0 43.038 13.2441 570 115.839 1179.56 529.918
15 0 44.1081 11.5625 510 119.367 1177.39 530.588
16 0 45.047 12.9198 582 117.029 1175.48 528.347
17 0 48.0417 13.8213 664 112.316 1173.32 528.355
18 0 49.0128 14.9961 735 108.331 1170.65 525.954
19 0 51.073 15.331 783 107.566 1169.81 524.968
20 0 55.0486 14.1875 781 106.775 1166.92 522.097
21 0 56.1733 14.6333 822 104.389 1167.18 521.842
22 0 57.1148 14.6372 836 105.167 1167.53 519.872
23 0 57.0469 14.0937 804 104.738 1167.58 517.423
24 0 60.0823 15.5786 936 100.885 1168.66 514.316
25 0 63.0457 13.9264 878 102.655 1169.78 514.298
26 0 64.0285 13.8844 889 103.423 1171.81 513.859
27 0 67.095 14.8297 995 99.7387 1173.71 512.993
28 0 71.1679 15.1332 1077 99.1913 1175.41 511.463
29 0 72.0722 15.1931 1095 104.577 1178.28 508.611
30 0 75.0575 16.5873 1245 100.567 1180.7 507.323
31 0 78.104 15.7226 1228 102.459 1182.77 507.607
32 0 80.1363 15.2864 1225 103.231 1184.37 507.996
33 0 83.1504 15.1412 1259 102.396 1184.99 511.232
34 0 86.1253 15.2452 1313 101.829 1186.18 508.973
35 0 90.2297 15.7044 1417 100.531 1186.3 510.397
36 1 45.0313 12.6579 570 105.104 1185.13 529.953
37 0 50.0133 11.7769 589 105.041 1184.93 530.973
38 0 51.0348 10.9925 561 104.681 1182.84 531.652
39 0 52.0144 11.9967 624 104.455 1180.59 530.184
40 0 52.0144 11.939 621 159.807 1178.62 530.124
41 0 56.0524 12.7559 715 105.713 1180.25 528.789
42 0 58.0458 13.6788 794 101.786 1177.07 527.126
43 0 60.0778 13.6989 823 103.078 1174.71 527.618
44 0 63.0768 14.0622 887 101.483 1172.23 528.329
45 0 63.1492 14.5687 920 98.6087 1172.06 526.886
46 0 66.1145 14.127 934 98.5257 1170.29 527.73
47 0 69.077 15.4176 1065 95.5784 1167.94 527.155
48 0 70.1292 15.0722 1057 98.3841 1166.19 525.212
49 0 73.1313 14.4534 1057 98.07 1164.33 524.158
50 0 75.103 14.5933 1096 99.7473 1162.91 522.761
51 0 78.1085 15.6961 1226 97.7945 1161.71 517.426
52 0 82.1946 14.271 1173 99.509 1160.7 513.691
53 0 85.2159 15.5605 1326 96.7398 1159.95 510.578
54 1 47.0603 11.6659 549 99.7213 1160.55 531.342
55 0 46.0538 11.1391 513 101.639 1160.89 528.712
56 0 49.0296 12.9921 637 97.3218 1160.92 527.049
57 0 52.1211 13.9675 728 92.5879 1162.11 525.593
58 0 53.1365 12.1197 644 97.7174 1162.75 522.557
59 0 55.0383 13.6632 752 94.2088 1164.99 523.439
60 0 55.0218 14.2853 786 95.9109 1166.91 520.141
61 0 59.1014 14.3651 849 96.6584 1168.47 520.24
62 0 60.1107 14.5565 875 94.8686 1170.67 520.555
63 0 62.0595 14.6472 909 100.226 1172.56 520.149
64 0 66.1191 15.1999 1005 97.9831 1174.94 520.305
65 0 67.1706 15.2597 1025 100.205 1176.6 518.878
66 0 68.1366 15.7918 1076 99.9851 1179.11 519.21
67 0 71.2675 15.4909 1104 100.409 1179.45 522.635
68 0 72.1266 14.7518 1064 99.1617 1179.92 519.858
69 0 75.2775 14.5196 1093 99.3074 1180.78 521.751
70 0 77.1049 15.3168 1181 102.912 1179.7 518.686
71 0 79.1418 14.9352 1182 102.722 1178.43 521.642
72 0 83.1388 14.975 1245 102.878 1176.78 521.196
73 0 85.1435 15.1039 1286 103.393 1174.99 519.226
74 0 87.2021 15.7106 1370 102.089 1172.8 518.644
75 1 47.036 11.9058 560 104.75 1171.22 539.489
76 0 48.0796 11.2314 540 104.007 1170.61 540.754
77 0 50.0257 13.0533 653 101.147 1167.19 539.283
78 0 50.0257 13.0733 654 151.696 1164.18 539.226
79 0 51.0299 12.9336 660 102.823 1163.77 535.92
80 0 53.0743 12.1151 643 99.7652 1160.21 534.437
81 0 56.0556 13.665 766 98.6697 1159.88 534.373
82 0 58.0905 13.7028 796 104.276 1157.56 531.234
83 0 60.0645 13.3523 802 104.693 1156.87 530.364
84 0 65.1813 14.4827 944 99.8633 1155.04 528.82
85 0 64.232 14.4476 928 102.197 1153.77 524.268
86 0 67.375 13.8924 936 102.4 1152.28 523.257
87 0 69.1798 15.3658 1063 99.3396 1152.72 521.94
88 0 72.1126 14.3387 1034 100.678 1153.09 522.369
89 0 74.1522 14.187 1052 102.463 1154.11 516.835
90 0 75.1392 13.1223 986 103.469 1153.69 517.698
91 0 81.2325 14.8586 1207 98.0099 1153.96 516.54
92 0 82.2761 15.7397 1295 97.7606 1157.04 514.01
93 0 84.175 14.2798 1202 101.095 1158.56 513.445
94 0 86.0967 13.6474 1175 103.882 1160.82 510.843
95 1 47.0933 12.4858 588 96.5816 1163 531.505
96 0 45.094 9.13647 412 101.823 1165.7 533.121
97 0 48.1669 11.0034 530 98.9057 1168.8 530.451
98 0 50.2948 11.9495 601 96.0466 1171.26 532.479
99 0 53.3079 11.9494 637 100.009 1172.69 529.972
100 0 56.1413 13.4126 753 93.2072 1173.36 532.438
101 0 54.0328 13.2327 715 96.0406 1173.79 532.322
102 0 56.1448 11.9512 671 97.7958 1174.18 532.997
103 0 60.0739 13.9162 836 92.7907 1174.23 535.427
104 0 60.1572 13.3484 803 95.7173 1173.11 532.795
105 0 64.2288 13.592 873 99.4582 1172.03 530.777
106 0 66.1852 12.7672 845 98.684 1171.01 532.164
107 0 69.2928 13.4502 932 95.971 1169.16 529.196
108 0 69.1959 12.3707 856 95.1075 1167.16 529.131
109 0 72.2638 12.6619 915 93.6995 1164.53 525.514
110 0 75.1222 13.1253 986 91.9249 1163.32 525.711
111 1 36.036 9.768 352 128.318 1162.37 545.716
112 0 40.1884 9.92823 399 92.4185 1161.41 545.293
113 0 44.093 10.1377 447 90.9195 1159.18 545.745
114 0 44.0394 9.74128 429 92.4825 1157.68 544.016
115 0 45.0981 9.95608 449 93.735 1156.55 540.102
116 0 45.1194 10.5941 478 92.6841 1155.98 540.395
117 0 47.3552 11.4032 540 92.7296 1153.64 537.05
118 0 48.1358 12.257 590 92.0661 1152.27 537.192
119 0 52.1691 12.9579 676 89.4334 1151.23 535.024
120 0 52.0417 13.0088 677 89.1521 1151.11 532.459
121 0 55.1351 13.4579 742 88.1563 1148.83 531.023
122 0 53.1378 11.8748 631 92.58 1148.67 529.588
123 0 56.2146 12.5946 708 91.3969 1149.26 526.451
124 0 59.1253 12.9725 767 90.704 1150.41 525.724
125 0 60.2915 12.6386 762 91.8163 1151.81 525.743
126 0 63.1006 11.5371 728 60.5192 1153.42 526.618
127 0 64.0736 13.5781 870 90.0885 1156.3 521.238
128 0 69.0425 13.3396 921 87.4897 1156.98 523.572
129 0 69.1825 12.5899 871 91.4076 1162.15 520.656
130 0 72.1344 13.8353 998 88.0842 1164.24 522.892
131 0 74.1405 13.6228 1010 89.2535 1166.73 520.536
132 0 76.1253 13.8719 1056 89.5985 1167.8 519.242
133 0 78.1585 14.6881 1148 89.3554 1169.32 519.733
134 0 79.1286 13.952 1104 90.4728 1169.73 523.06
135 0 81.1757 13.2182 1073 92.7773 1170.32 519.652
136 1 46.0134 9.30165 428 90.1636 1172.28 544.984
137 0 47.1319 10.6934 504 91.7718 1169.15 540.165
138 0 47.2563 11.4694 542 90.7878 1169.23 538.345
139 0 50.2658 12.414 624 89.6154 1167.79 537.021
140 0 51.3699 11.8747 610 90.482 1165.65 537.562
141 0 53.2043 12.0667 642 89.6308 1163.45 537.413
142 0 56.28 13.0597 735 85.8449 1162.19 536.103
143 0 56.4118 13.3128 751 86.3236 1161.73 541.073
144 0 57.3387 14.1963 814 84.8194 1159.28 538.253
145 0 59.1818 12.5207 741 87.3212 1158.59 536.978
146 0 63.2669 14.0832 891 86.7015 1156.53 537.617
147 0 61.1964 13.808 845 86.3408 1155.73 535.299
148 0 66.1062 12.3892 819 87.9951 1154.25 535.784
149 0 68.1717 14.3168 976 86.3381 1152.49 531.981
150 0 70.143 14.1425 992 87.5131 1151.27 531.856
151 0 72.2183 13.5561 979 87.8774 1149.85 529.651
152 0 75.1288 13.8296 1039 87.6737 1149.37 524.404
153 0 77.1008 14.2541 1099 86.9636 1148.34 523.446
154 0 81.1593 14.527 1179 86.0331 1146.51 521.095
155 0 82.0919 13.3143 1093 87.8042 1147.23 519.879
156 1 45.1521 10.5643 477 92.1447 1149.3 537.874
157 0 46.0439 8.64393 398 93.5302 1149.99 538.696
158 0 49.0424 12.6829 622 88.2363 1150.44 535.039
159 0 50.0906 12.5772 630 88.2206 1150.98 533.462
160 0 51.1296 13.0648 668 88.3488 1152.71 532.657
161 0 53.302 13.9394 743 88.1992 1155.26 529.841
162 0 53.0365 12.8591 682 88.1012 1156.39 533.499
163 0 56.0658 13.7517 771 86.3022 1159.41 531.043
164 0 57.1516 13.7354 785 87.7299 1160.96 530.724
165 0 58.0928 11.8603 689 92.3149 1163.22 530.395
166 0 62.0625 13.9859 868 88.5553 1164.79 531.783
167 0 64.1329 13.7527 882 90.0601 1165.31 530.262
168 0 64.1086 14.1947 910 91.0989 1166.39 529.751
169 0 67.1854 13.2172 888 93.8592 1168.01 530.965
170 0 71.0904 14.362 1021 91.3859 1168.03 532.077
171 0 72.2027 13.7391 992 94.1482 1168.02 530.086
172 0 73.1402 12.688 928 94.8136 1166.91 530.095
173 1 38.0619 11.3499 432 92.2963 1166.59 549.083
174 0 41.0769 10.5169 432 93.4745 1164.18 547.16
175 0 40.0434 9.91423 397 94.9471 1162.79 548.038
176 0 44.0358 10.8094 476 92.8761 1160.91 546.962
177 0 45.0594 11.8732 535 92.5794 1158.66 546.09
178 0 46.0387 12.9022 594 92.5303 1157.63 544.347
179 0 48.0376 11.5326 554 95.0217 1156.01 543.016
180 0 49.0399 14.1313 693 89.3016 1153.82 541.254
181 0 51.3184 13.6014 698 90.1519 1151.36 538.668
182 0 50.1131 14.168 710 90.6718 1151.21 536.956
183 0 56.1144 15.2545 856 86.9334 1149.55 536.627
184 0 54.1024 14.7683 799 89.8986 1149.04 535.124
185 0 57.0997 15.5167 886 87.8939 1148.14 534
186 0 59.1453 13.9994 828 91.7283 1147.72 531.979
187 0 60.0997 14.8254 891 91.56 1146.84 529.708
188 0 61.1752 13.1589 805 94.8385 1147.33 527.344
189 0 64.0997 13.8066 885 92.9695 1146.69 527.655
190 0 68.2037 14.2221 970 93.0093 1147.29 524.101
191 0 68.1824 15.5465 1060 91.5736 1148.27 523.04
192 0 68.1129 14.2704 972 96.0175 1149.88 519.929
193 0 71.1999 13.8764 988 96.4322 1151.76 519.633
194 0 73.1388 14.3289 1048 95.4542 1153.94 521.531
195 0 74.1409 15.6998 1164 94.3058 1155.25 518.019
196 0 78.1077 16.7845 1311 92.8658 1158.96 519.346
197 0 79.1247 15.7852 1249 97.2154 1161.52 517.686
198 0 82.1032 15.4562 1269 97.4799 1164.72 520.215
199 0 84.1244 15.7861 1328 98.4556 1166.96 517.641
200 0 86.1472 16.762 1444 98.4217 1168.09 517.985
201 0 90.2057 15.6309 1410 100.348 1168.74 514.579
202 0 90.1591 15.151 1366 103.272 1170.67 514.257
203 0 96.2219 17.4804 1682 96.8276 1169.76 514.747
204 1 54.0582 10.2667 555 103.777 1169.84 534.951
205 0 57.0848 10.826 618 101.207 1168.97 536.898
206 0 59.1684 12.2194 723 99.8907 1168.08 536.615
207 0 61.2537 13.0278 798 98.0965 1166.37 536.221
208 0 59.0949 12.9453 765 101.292 1165.6 535.416
209 0 64.1312 13.8622 889 94.7053 1162.47 536.171
210 0 67.046 14.1097 946 93.3932 1160.18 536.853
211 0 70.1021 15.8911 1114 88.9722 1157.57 535.134
212 0 73.033 13.7061 1001 95.01 1156.41 525.587
213 0 76.1349 14.0934 1073 93.7279 1152.51 530.322
214 0 79.1202 14.914 1180 92.8678 1150.58 528.58
215 0 82.1325 14.9636 1229 92.8047 1149.57 525.943
216 1 40.0725 9.03362 362 95.5884 1148.82 545.149
217 0 43.0705 9.89076 426 93.7817 1147.59 544.263
218 0 47.056 10.4131 490 93.6102 1148.14 543.133
219 0 47.0398 11.8835 559 89.1467 1147.43 540.857
220 0 48.0809 10.4823 504 91.8631 1147.63 539.331
221 0 50.1958 10.5786 531 92.6234 1145.35 535.26
222 0 51.2005 11.5819 593 91.3103 1145.93 533.444
223 0 53.0844 11.1709 593 93.5194 1149.52 532.002
224 0 56.0531 13.6656 766 89.3525 1149.53 531.76
225 0 58.1228 13.5919 790 89.6962 1152.07 526.72
226 0 58.0703 12.8293 745 92.3141 1153.56 529.749
227 0 60.0449 13.873 833 90.4466 1155 528.956
228 0 62.107 13.1386 816 91.4547 1157.58 527.76
229 0 63.1181 13.0232 822 92.3856 1161.25 525.931
230 0 66.2322 13.5282 896 91.8705 1163.16 526.854
231 0 70.1347 13.2174 927 91.6462 1164.8 526.606
232 0 70.1676 12.2849 862 95.2401 1167.05 526.21
233 0 72.152 13.0835 944 94.7394 1167.95 525.97
234 0 72.152 13.1805 951 130.674 1168.95 525.975
235 1 40.0534 9.88681 396 94.6136 1169.84 544.081
236 0 39.0428 9.2975 363 97.1488 1168.88 542.744
237 0 44.0449 11.6472 513 91.616 1168.3 544.103
238 0 45.0583 12.1176 546 90.0568 1166.94 544.701
239 0 47.1329 12.1571 573 88.4311 1164.6 543.97
240 0 48.0708 13.3345 641 83.3214 1163.99 546.697
241 0 49.1636 11.3499 558 87.3118 1161.85 546.251
242 0 49.0493 10.6831 524 89.771 1159.9 546.273
243 0 53.1279 12.1029 643 85.9533 1157.47 546.639
244 0 53.0959 11.7146 622 87.5305 1156.59 545.305
245 0 54.114 11.6421 630 88.281 1154.52 542.841
246 0 55.2807 12.2647 678 86.9985 1153.35 542.912
247 0 58.1315 12.4029 721 86.0388 1151.72 542.534
248 0 59.0681 12.2401 723 86.6957 1149.36 539.422
249 0 59.0717 12.4594 736 86.7242 1147.75 539.829
250 0 63.0908 12.585 794 86.3615 1146.28 535.519
251 0 63.1692 13.1393 830 86.4398 1144.96 535.294
252 0 65.0648 12.234 796 87.5867 1145.15 533.491
253 0 67.0991 12.9659 870 86.5057 1144.49 528.299
254 0 70.1829 13.4506 944 84.5328 1145.26 527.658
255 0 73.1465 12.974 949 85.6723 1145.65 522.603
256 0 75.2238 13.8121 1039 85.2031 1145.75 519.051
257 1 38.0216 9.49459 361 87.0554 1147.2 539.343
258 0 40.0185 9.57058 383 89.0496 1148.62 540.086
259 0 42.0908 12.4968 526 85.8422 1148.74 535.506
260 0 43.1859 10.559 456 87.2939 1151.34 537.072
261 0 44.1565 10.6893 472 90.1695 1153.6 536.015
262 0 47.2714 12.1215 573 87.3368 1155.03 534.017
263 0 49.2674 12.5844 620 84.3274 1159.04 537.113
264 0 51.1438 14.469 740 81.9392 1160.96 535.2
265 0 48.0753 11.2324 540 89.3148 1163.8 533.204
266 0 53.1382 13.8695 737 83.3487 1165.78 536.202
267 0 52.1958 11.955 624 88.1731 1166.96 536.455
268 0 56.2184 13.7144 771 86.5266 1167.32 535.979
269 0 55.2528 11.3478 627 92.0271 1167.45 537.697
270 0 59.2643 14.0557 833 87.8511 1168.1 538.116
271 0 61.1644 14.3711 879 88.0546 1167.52 535.824
272 0 60.2519 12.5971 759 92.9368 1164.56 534.725
273 0 61.1973 13.1051 802 93.106 1165.05 535.596
274 0 65.1521 14.5352 947 89.8944 1162.69 534.214
275 0 66.1521 14.4667 957 90.8757 1161.7 533.042
276 0 69.2781 13.1932 914 93.4179 1159.48 535.3
277 0 71.3464 14.2684 1018 91.0599 1157.56 533.372
278 0 73.3161 15.6855 1150 90.2939 1156.33 529.474
279 0 73.3161 15.7128 1152 123.888 1155.33 529.477
280 0 76.1317 14.1071 1074 94.7756 1153.53 528.911
281 0 78.3014 13.9717 1094 95.1892 1151.92 529.294
282 0 83.1724 14.3317 1192 93.8607 1150.56 525.764
283 0 84.1276 13.7173 1154 96.1551 1148.57 522.449
284 0 87.1087 14.8435 1293 95.307 1146.77 520.667
285 0 90.1461 15.9408 1437 92.5421 1146.79 517.063
286 0 92.1875 14.1993 1309 96.8755 1145.91 516.277
287 1 52.0742 11.0611 576 96.3542 1146.39 534.913
288 0 50.0591 10.2878 515 99.3223 1146.3 533.922
289 0 51.0588 10.8307 553 137.778 1145.34 534.627
290 0 51.0721 10.8474 554 137.217 1144.33 534.616
291 0 53.204 12.7058 676 96.3107 1147.78 529.827
292 0 55.2423 12.7438 704 94.7983 1148.63 526.784
293 0 55.1601 12.5634 693 93.0649 1148.3 529.017
294 0 60.0551 14.2369 855 88.2807 1149.66 525.317
295 0 60.1314 13.7033 824 89.96 1152.84 526.801
296 0 62.0906 14.0118 870 88.6437 1154.79 525.043
297 0 65.0697 14.2309 926 87.9644 1157.75 524.703
298 0 66.0739 13.727 907 88.4344 1160.2 524.8
299 0 68.0719 12.5896 857 91.0093 1163.69 521.788
300 0 68.0719 12.5456 854 124.448 1166.69 521.731
301 0 74.0877 13.835 1025 90.0215 1165.49 523.618
302 0 78.4413 17.1593 1346 85.4116 1166.68 525.233
303 0 80.2011 15.8352 1270 87.652 1167.11 524.639
304 0 81.2771 13.7677 1119 91.723 1166.99 529.342
305 0 83.2427 14.704 1224 91.2288 1166.16 523.295
306 1 44.2012 9.50202 420 94.169 1164.96 545.09
307 0 44.2012 9.47939 419 154.234 1163.97 545.043
308 0 46.1532 9.36012 432 92.375 1160.08 543.315
309 0 51.1655 12.3716 633 88.425 1158.04 542.627
310 0 51.1152 12.4034 634 89.5568 1155.81 541.688
311 0 52.2747 13.0273 681 88.3142 1154.31 540.94
312 0 55.0423 12.554 691 89.5398 1153.31 539.117
313 0 57.0796 14.4185 823 85.7643 1154.23 541.085
314 0 60.1698 13.412 807 86.9058 1152.39 539.874
315 0 62.2618 14.4712 901 84.6903 1152.29 538.925
316 0 61.1454 13.2144 808 85.9394 1149.86 535.486
317 0 64.1069 11.7928 756 89.5939 1149.12 533.646
318 0 67.2779 13.7787 927 85.2848 1146.44 531.71
319 0 69.1216 15.697 1085 84.2166 1145.34 527.822
320 0 70.1548 13.9691 980 86.948 1144.39 528.296
321 0 73.1912 14.428 1056 89.6733 1144.49 524.762
322 0 77.3226 15.3771 1189 87.8722 1144.68 520.704
323 0 80.2742 14.2885 1147 89.8666 1144.94 518.118
324 0 81.1638 15.3147 1243 89.3379 1145.86 515.656
325 0 84.15 12.5847 1059 90.1879 1147.05 515.057
326 1 46.0225 9.82129 452 91.8319 1148.67 531.792
327 0 46.0726 9.94084 458 91.441 1151.48 533.041
328 0 49.0945 10.6529 523 90.2428 1153.65 533.373
329 0 49.096 9.41014 462 93.6515 1156.25 530.788
330 0 53.0252 11.7491 623 88.7159 1158.54 532.573
331 0 54.0437 12.2679 663 88.5249 1161.21 532.246
332 0 56.118 13.0618 733 87.8022 1163.36 530.016
333 0 56.118 13.0439 732 138.836 1165.36 529.891
334 0 61.0746 14.3759 878 85.3667 1167.6 533.511
335 0 61.034 13.7301 838 89.0513 1166.88 530.865
336 0 63.1015 14.2786 901 88.9834 1168.25 529.948
337 0 67.0368 14.1564 949 87.3846 1167.99 534.424
338 0 67.0368 14.1415 948 140.35 1167.99 534.472
339 0 71.1097 15.455 1099 85.8226 1166.25 534.879
340 0 70.0384 13.7496 963 89.2741 1164.61 534.072
341 0 73.0994 13.5432 990 90.2808 1162.8 530.396
342 0 77.0587 14.6901 1132 87.6687 1161.18 535.254
343 0 77.0613 13.0156 1003 92.1535 1159.64 532.039
344 0 77.0613 12.9507 998 157.804 1157.64 532.122
345 0 84.1118 13.6961 1152 90.5564 1155.18 528.17
346 1 45.0971 10.4885 473 91.4355 1155.52 548.106
347 0 46.1138 10.7777 497 92.1952 1154.06 544.7
348 0 47.0597 11.4323 538 91.4294 1152.15 545.929
349 0 48.06 11.0487 531 90.7589 1150.55 546.073
350 0 48.06 11.1527 536 143.451 1149.52 546.11
351 0 52.1771 13.2434 691 89.5499 1146.93 538.003
352 0 54.0314 12.8999 697 89.5093 1146.96 536.905
353 0 54.0444 13.4149 725 90.3766 1146.32 534.186
354 0 55.1087 13.7183 756 88.963 1146.05 533.708
355 0 59.0549 13.8177 816 88.8787 1146.17 530.575
356 0 60.0997 12.4626 749 91.3191 1145.58 531.142
357 0 62.1039 13.3647 830 90.3506 1145.81 527.749
358 0 63.1183 13.847 874 91.0389 1147.2 525.595
359 0 65.1249 14.5259 946 88.7072 1147.62 526.081
360 0 67.1022 14.6791 985 88.2853 1149.28 524.555
361 0 68.1126 13.7566 937 90.8079 1151.56 521.624
362 0 69.1149 13.0941 905 92.6597 1153.97 519.849
363 0 73.1352 13.4272 982 91.5285 1156.48 521.718
364 0 76.0777 14.012 1066 90.5741 1159.01 522.92
365 0 76.0777 13.9988 1065 148.367 1162.01 522.777
366 0 81.0957 13.6752 1109 92.0243 1163.29 520.236
367 1 46.0301 9.55896 440 92.2182 1165.03 541.136
368 0 46.0256 10.1465 467 90.8073 1165.9 543.801
369 0 49.0533 10.3357 507 91.2663 1167.25 543.036
370 0 49.0163 12.0776 592 90.549 1167.32 541.715
371 0 52.1069 12.033 627 91.177 1164.99 539.675
372 0 50.0333 11.8121 591 93.2978 1162.85 539.959
373 0 55.294 14.1607 783 87.5683 1162.31 537.276
374 0 54.0622 13.059 706 91.5028 1159.6 539.863
375 0 58.0345 13.5264 785 90.4115 1158.44 540.688
376 0 61.0434 13.2856 811 91.3588 1156 540.309
377 0 61.0434 13.3675 816 140.431 1153.05 540.284
378 0 63.0539 14.8603 937 90.3426 1152.15 537.692
379 0 63.0539 14.7651 931 133.714 1151.15 537.586
380 0 65.0972 13.3954 872 93.7729 1149.55 534.307
381 0 68.1293 13.0634 890 94 1148.55 534.263
382 0 70.0363 14.1926 994 92.1378 1147.8 532.914
383 0 71.1598 12.5914 896 95.1484 1145.9 531.734
384 0 72.0252 13.6619 984 93.7439 1145.99 531.466
385 1 39.0338 9.09469 355 94.738 1144.32 547.107
386 0 40.022 11.2688 451 92.2949 1143.12 546.122
387 0 41.0397 10.9406 449 94.0958 1142.54 543.078
388 0 41.0495 10.3777 426 94.0516 1141.46 541.376
389 0 43.024 11.9933 516 91.1957 1141.37 537.147
390 0 44.0199 12.04 530 89.1623 1141.66 537.347
391 0 46.0323 13.534 623 84.8571 1142.34 536.186
392 0 46.2486 11.1787 517 88.0928 1143.74 533.383
393 0 49.2253 12.8389 632 86.0839 1145.76 532.703
394 0 51.3086 12.8049 657 86.6484 1146.58 531.204
395 0 52.2388 14.6251 764 84.428 1149.43 529.829
396 0 53.3321 11.4565 611 93.5794 1152.52 527.563
397 0 54.3258 11.6703 634 94.1372 1155.68 527.461
398 0 58.28 13.9842 815 89.2957 1157.64 527.412
399 0 59.2828 13.8489 821 88.7357 1160.65 528.29
400 0 62.1947 14.2938 889 87.4871 1164.08 528.513
401 0 62.1947 14.1974 883 120.041 1167.05 528.447
402 0 63.3218 13.3288 844 90.0616 1165.95 529.294
403 0 66.2143 14.1812 939 88.7199 1166.16 528.673
404 0 70.1036 13.1092 919 90.5147 1165.92 527.608
405 0 71.2069 15.2935 1089 87.2617 1163.52 526.86
406 1 37.06 8.79654 326 93.1319 1161.98 547.847
407 0 42.019 9.78128 411 90.1192 1160.48 548.866
408 0 40.0169 11.2952 452 87.6527 1159.17 549.675
409 0 44.0196 11.3586 500 88.178 1157.51 548.856
410 0 44.034 11.6274 512 89.541 1155.44 546.262
411 0 45.1501 12.9125 583 87.5557 1153.66 547.101
412 0 45.1501 12.8682 581 140.427 1151.68 547.088
413 0 48.1004 14.3866 692 80.198 1150.27 545.098
414 0 48.1004 14.4905 697 128.096 1149.29 545.086
415 0 49.0499 13.9858 686 82.621 1150.39 542.606
416 0 49.1668 12.8949 634 85.7603 1149.8 543.355
417 0 52.0824 14.6307 762 83.668 1148.46 539.024
418 0 52.0824 14.6307 762 135.789 1144.46 539.012
419 0 56.1057 12.6725 711 87.5795 1147 536.501
420 0 57.1133 13.0092 743 88.5774 1145.59 533.95
421 0 58.0765 13.5511 787 87.7446 1145.88 531.301
422 0 60.0888 14.6117 878 86.82 1144.33 529.953
423 0 64.1083 15.2242 976 84.4068 1146.19 533.22
424 0 66.2266 12.9404 857 89.0432 1145.56 527.684
425 0 65.0314 14.3008 930 88.829 1146.21 524.014
426 0 69.0644 14.9281 1031 87.0844 1147.72 523.675
427 1 35.0453 10.6719 374 89.4171 1149.98 540.655
428 0 35.0453 10.6434 373 154.7 1152.03 540.716
429 0 40.0185 10.1953 408 91.451 1154.31 540.534
430 0 39.0256 11.0953 433 91.0508 1157.48 540.746
431 0 43.2184 12.3327 533 86.1388 1159.56 542.872
432 0 43.0111 12.5317 539 88.692 1162.62 540.033
433 0 44.0309 12.9909 572 87.1311 1165.19 540.453
434 0 43.0289 13.8511 596 87.6913 1166.96 541.419
435 0 45.1451 13.0247 588 90.5918 1168.04 541.588
436 0 44.0101 13.6105 599 92.9098 1169.1 542.583
437 0 47.11 13.6489 643 92.2722 1168.35 541.711
438 0 48.0904 13.3914 644 93.6941 1168.07 543.188
439 0 50.0495 13.9262 697 93.2683 1167.26 544.254
440 0 52.0364 13.087 681 96.0984 1165.76 543.423
441 0 52.0881 14.1683 738 95.2493 1164.09 541.882
442 0 54.1079 13.7133 742 96.1361 1161.69 543.167
443 0 57.0444 15.076 860 93.2756 1159.74 542.216
444 0 58.0284 13.6485 792 96.9836 1157.79 541.766
445 0 59.1526 13.9977 828 97.1944 1156.39 540.258
446 0 63.0873 15.217 960 94.5323 1154.86 540.449
447 0 62.0604 13.9864 868 98.2581 1153.51 539.25
448 0 68.1201 15.2672 1040 93.6385 1151.69 537.124
449 0 67.081 14.2663 957 97.8485 1150.26 534.313
450 0 69.1265 14.7556 1020 95.6373 1149.15 532.045
451 0 71.096 14.8391 1055 95.0872 1148.14 530.108
452 1 34.1579 11.3297 387 98.0982 1147.29 548.602
453 0 40.0802 11.7515 471 95.5117 1146.04 547.486
454 0 40.1131 9.89703 397 99.7103 1145.6 545.521
455 0 41.0724 12.8797 529 96.7164 1145.37 543.25
456 0 42.05 11.415 480 99.7542 1144.88 536.521
457 0 44.0785 12.5004 551 97.2377 1144.19 537.55
458 0 44.0785 12.5458 553 152.781 1143.18 537.561
459 0 47.1925 13.9005 656 95.2805 1145.52 533.163
460 0 49.0717 13.735 674 94.6751 1148.56 532.442
461 0 48.2007 13.3608 644 94.7174 1150.13 532.93
462 0 49.0163 12.8325 629 96.0079 1152.84 532.68
463 0 51.0539 14.5728 744 93.9758 1155.98 532.98
464 0 55.0975 14.0115 772 94.9197 1159.85 534.623
465 0 57.0838 13.7167 783 95.5172 1162.22 533.323
466 0 57.0736 14.4725 826 95.1634 1163.75 534.489
467 0 58.0499 14.0396 815 96.3276 1165.45 533.038
468 0 60.0645 14.0349 843 96.8968 1167.76 533.425
469 0 62.112 13.8782 862 96.5684 1168.35 533.324
470 0 65.1372 14.8302 966 95.6915 1169.44 531.671
471 0 69.0693 14.3045 988 94.334 1168.84 533.231
472 0 72.1147 14.3105 1032 94.0368 1168.06 534.968
473 0 71.0571 13.7495 977 97.4872 1166.73 533.325
474 0 73.0953 13.1472 961 99.0635 1165.79 532.257
475 0 80.0917 15.682 1256 92.1919 1163.21 529.393
476 0 80.1393 13.4516 1078 96.0937 1162.23 532.363
477 0 81.1195 14.1643 1149 95.2454 1159.42 529.214
478 1 44.0978 11.4972 507 92.5345 1157.1 551.314
479 0 46.0522 10.423 480 92.9417 1156.13 552.646
480 0 47.0324 10.631 500 96.326 1154.33 548.28
481 0 50.0234 13.1139 656 90.875 1152.39 546.998
482 0 49.0343 11.7061 574 96.6969 1150.4 545.42
483 0 53.034 14.2173 754 91.435 1148.9 545.279
484 0 53.0178 13.1465 697 95.1162 1147.94 542.41
485 0 55.1465 15.4135 850 90.9518 1148.06 540.632
486 0 56.0427 13.8466 776 94.9755 1146.52 540.434
487 0 57.177 14.3065 818 95.368 1145.76 535.61
488 0 60.1254 13.5716 816 94.9461 1145.83 533.636
489 0 60.1278 13.5711 816 96.7328 1145.19 530.871
490 0 63.1114 13.4841 851 95.6099 1144.64 529.604
491 0 63.1114 13.5475 855 153.004 1143.65 529.546
492 0 67.1669 14.5012 974 95.5749 1145.35 524.267
493 0 68.097 15.4632 1053 94.0912 1145.76 525.227
494 0 70.0818 16.2239 1137 93.7617 1148.38 523.522
495 0 73.0576 14.6597 1071 96.8291 1149.29 524.962
496 0 75.1504 14.4643 1087 97.356 1152.71 524.759
497 0 79.1518 15.0344 1190 95.8874 1155.28 523.378
498 0 78.1554 14.5607 1138 98.8251 1157.48 522.928
499 0 84.1166 15.6331 1315 96.143 1160.38 523.868
500 0 82.1186 14.6008 1199 151.368 1163.39 522.215
501 0 82.1186 14.6374 1202 150.735 1166.4 522.131
502 0 90.1588 16.6484 1501 96.1979 1165.75 523.47
503 0 91.1599 13.6902 1248 102.635 1166.17 522.623
504 0 95.1397 14.9044 1418 99.5501 1165.4 521.897
505 1 54.1221 9.33076 505 102.687 1164.8 545.76
506 0 54.0565 11.0625 598 100.5 1163.03 546.254
507 0 55.0367 12.1919 671 99.3607 1161.67 545.322
508 0 54.0556 10.6187 574 102.784 1160.83 545.399
509 0 56.1639 12.1787 684 101.202 1159.74 542.253
510 0 59.1939 13.2108 782 97.5435 1159.37 541.566
511 0 62.0854 14.7861 918 93.4815 1158.47 542.499
512 0 64.2629 13.8649 891 94.8058 1155.9 541.131
513 0 63.1519 14.283 902 95.3936 1152.63 538.813
514 0 66.1794 13.2821 879 96.7588 1152.11 535.728
515 0 68.1612 14.5684 993 94.3021 1150.57 536.683
516 0 70.2107 14.2144 998 95.3196 1149.31 533.981
517 0 72.1323 13.3782 965 97.7679 1148.5 533.968
518 0 74.2089 14.2436 1057 95.9413 1146.35 530.274
519 0 76.1831 13.9138 1060 97.8858 1145.23 528.718
520 0 80.1579 14.8831 1193 96.0578 1144.39 524.928
521 0 81.1262 15.3218 1243 96.3797 1144.71 524.504
522 0 83.1527 13.0363 1084 101.134 1143.01 518.344
523 1 45.0614 11.4288 515 100.031 1144.25 537.412
524 0 48.028 11.2018 538 98.0186 1142.44 534.717
525 0 50.0327 12.292 615 95.5626 1143.5 536.002
526 0 48.1034 10.4566 503 93.8509 1145.8 533.853
527 0 49.0383 10.3185 506 93.7451 1147.38 531.559
528 0 54.0805 12.2965 665 90.1398 1149.05 529.239
529 0 54.0302 13.0298 704 88.7358 1150.47 528.3
530 0 57.045 12.3061 702 89.5584 1153.51 529.623
531 0 59.0762 12.0861 714 91.1064 1156.01 530.387
532 0 59.025 11.978 707 92.3762 1160.18 529.004
533 0 62.0698 11.5032 714 93.9342 1162.18 527.143
534 0 67.1577 13.8629 931 93.9463 1164.54 531.945
535 0 67.1577 13.8331 929 150.562 1166.53 531.792
536 0 71.2118 14.0847 1003 73.3599 1166.12 529.885
537 0 73.0938 13.7084 1002 93.4661 1167.13 531.563
538 1 38.1845 10.135 387 98.8863 1167.69 546.284
539 0 42.1751 10.5512 445 97.5236 1166.39 548.663
540 0 43.0264 8.97123 386 100.479 1164.4 552.37
541 0 47.0485 10.0322 472 98.8792 1163.95 549.383
542 0 48.0127 10.5389 506 97.8597 1161.66 550.927
543 0 50.0387 11.9507 598 96.5853 1158.85 549.423
544 0 49.4232 12.1198 599 92.6327 1155.57 544.573
545 0 49.1414 10.948 538 93.3829 1155.49 547.082
546 0 53.1141 13.4616 715 89.214 1154.27 546.736
547 0 56.0531 13.737 770 90.9701 1153.25 545.718
548 0 58.1868 13.5941 791 90.8293 1151.03 542.75
549 0 60.105 13.7592 827 91.3253 1149.92 542.692
550 0 59.1686 13.4869 798 93.2368 1148.11 539.028
551 0 61.1657 13.0465 798 93.9599 1146.01 536.692
552 0 65.1704 14.3163 933 90.6463 1146.38 536.378
553 0 66.1928 13.2945 880 94.3648 1145.32 533.036
554 0 68.1169 13.5356 922 92.5911 1144.28 532.352
555 0 68.2008 13.1523 897 93.4303 1143.96 528.217
556 0 70.1308 13.4463 943 92.3998 1143.28 527.635
557 0 73.2347 13.4909 988 91.1235 1143.96 525.177
558 0 74.1756 13.3467 990 91.9576 1144.05 524.319
559 0 75.235 13.3316 1003 93.0489 1144.45 521.091
560 0 80.3245 12.686 1019 92.9264 1145.62 519.689
561 0 82.2403 13.2295 1088 92.9871 1147.96 519.154
562 0 84.2247 13.3927 1128 91.9441 1149.73 516.616
563 0 86.3308 12.9386 1117 95.171 1152.09 514.239
564 1 46.0517 12.0734 556 88.3381 1156.77 538.541
565 0 47.0769 10.6209 500 90.666 1158.88 537.614
566 0 46.0867 11.218 517 90.4894 1161.87 535.938
567 0 49.1154 12.1958 599 86.8497 1164.11 535.696
568 0 51.0432 13.0478 666 86.8078 1165.99 539.204
569 0 55.0555 13.0051 716 86.148 1168.17 537.845
570 0 55.0424 13.7712 758 86.5858 1168.65 538.059
571 0 58.0865 12.533 728 88.2802 1167.78 540.327
572 0 57.097 13.0305 744 88.2849 1167.76 538.94
573 0 60.1347 13.7525 827 86.4498 1166.58 539.254
574 0 60.068 12.8188 770 89.1883 1164.28 537.864
575 0 62.085 12.95 804 93.2861 1162.45 538.124
576 0 64.1376 14.313 918 90.915 1161.22 541.136
577 0 65.0801 13.1223 854 93.3548 1158.76 534.714
578 0 70.1648 13.4683 945 90.6646 1156.95 539.232
579 0 71.1036 14.0499 999 90.4845 1155.77 534.337
580 0 74.1093 14.8564 1101 88.6149 1153.58 533.376
581 0 75.1066 13.9402 1047 90.4346 1152.01 532.341
582 0 79.0817 14.4661 1144 88.6241 1150.74 531.131
583 0 81.1503 13.5181 1097 90.0966 1149.03 530.099
584 1 43.0705 11.2838 486 90.144 1148.8 545.87
585 0 45.0975 9.73446 439 91.1071 1148.55 546.289
586 0 45.106 10.0874 455 91.6 1147.72 544.899
587 0 47.1168 11.8005 556 90.4568 1145.99 542.655
588 0 49.1008 10.896 535 91.2019 1143.11 540.174
589 0 50.0526 10.6888 535 91.1888 1143.01 542.024
590 0 53.1295 12.8177 681 87.3891 1143.9 537.894
591 0 54.316 12.5746 683 86.8331 1145.08 535.092
592 0 55.3062 13.362 739 87.0487 1144.78 529.687
593 0 59.3724 14.2827 848 84.4823 1145.9 529.597
594 0 61.2583 15.0674 923 83.818 1147.71 529.919
595 0 60.1253 12.3742 744 88.918 1149.75 529.142
596 0 62.0982 13.8812 862 86.5209 1150.97 527.495
597 0 64.0944 14.7439 945 85.3598 1153.72 526.903
598 0 68.0423 14.3881 979 85.002 1156.8 525.931
599 0 70.127 15.4577 1084 81.7638 1159.48 527.113
600 0 71.1395 15.069 1072 83.2388 1161.92 526.475
601 0 73.0856 14.5583 1064 83.9953 1164.79 527.705
602 0 76.1811 15.8963 1211 81.8811 1165.52 525.756
603 0 77.1891 14.8078 1143 84.776 1166.51 525.045
604 0 83.2621 16.0697 1338 80.6921 1166.92 527.333
605 0 84.0696 15.3325 1289 82.976 1167.82 525.413
606 0 87.0919 15.3057 1333 82.8357 1166.79 526.971
607 1 45.1459 9.92338 448 89.4955 1164.95 545.734
608 0 48.0506 11.4879 552 86.8007 1163.4 547.507
609 0 48.1471 11.2364 541 88.4233 1161.97 544.898
610 0 52.0785 11.1562 581 85.9398 1160.13 545.752
611 0 54.0633 11.0426 597 86.9883 1158.05 548.784
612 0 54.081 13.2394 716 79.3729 1154.81 540.595
613 0 52.1361 12.5249 653 82.1317 1153.05 537.285
614 0 60.1716 15.0403 905 81.0077 1152.25 542.11
615 0 62.0582 14.7442 915 82.8896 1151.86 543.456
616 0 62.1381 14.162 880 83.842 1149.24 540.31
617 0 62.1381 14.0815 875 144.843 1147.25 540.305
618 0 67.0628 14.7772 991 81.8981 1146.95 535.408
619 0 67.1889 14.1392 950 84.7842 1146.22 533.325
620 0 69.0762 13.7819 952 84.9832 1145.71 529.428
621 0 72.1445 14.5264 1048 83.1918 1144.32 528.456
622 0 74.162 14.9268 1107 81.953 1144.23 527.534
623 0 76.1697 15.2292 1160 80.9466 1144.51 523.449
624 0 78.0818 15.599 1218 80.5952 1143.95 523.961
625 0 79.1468 13.7592 1089 84.292 1143.89 519.612
626 0 83.234 14.9218 1242 83.0773 1144.92 521.417
627 0 86.3138 14.5284 1254 84.0008 1145.55 514.253
628 0 89.2191 15.2994 1365 82.9934 1147.67 514.407
629 0 90.3042 13.6538 1233 85.9132 1150.19 510.488
630 0 95.2166 16.5832 1579 82.0355 1152.35 510.591
631 1 50.0747 13.3201 667 82.1754 1155.77 533.186
632 0 50.0733 9.44616 473 86.9218 1157.69 537.378
633 0 54.1075 9.86925 534 86.3801 1162.45 536.234
634 0 56.0453 14.2385 798 80.1441 1165.18 534.001
635 0 55.0241 11.9584 658 77.2128 1165.69 532.237
636 0 56.0505 11.9713 671 78.927 1167.06 530.103
637 0 60.099 11.4478 688 78.9012 1167.85 530.34
638 0 61.132 10.2074 624 81.633 1167.13 529.106
639 0 66.0674 13.5165 893 76.8208 1165.87 530.224
640 0 69.1786 14.1662 980 76.6765 1165.25 527.349
641 0 68.1871 12.8763 878 80.1378 1164.32 527.923
642 0 72.0713 13.6393 983 78.5727 1163.29 530.906
643 0 75.0951 13.4496 1010 80.3218 1161.57 526.203
644 0 77.1319 13.5223 1043 81.3931 1158.16 526.53
645 0 80.1101 14.2803 1144 80.6031 1156.97 525.392
646 0 82.0645 12.8192 1052 83.2424 1154.78 527.67
647 0 86.0776 13.4762 1160 82.3784 1154.29 530.171
648 0 89.1868 14.4192 1286 81.1649 1153.15 520.954
649 0 91.1197 14.1353 1288 83.1925 1150.99 522.136
650 1 45.0485 8.27997 373 83.3432 1149.11 546.92
651 0 48.0536 10.9461 526 80.4278 1148.57 542.103
652 0 52.064 13.0801 681 82.138 1146.93 541.007
653 0 55.148 12.2398 675 84.6044 1145.69 540.348
654 0 52.2405 11.6193 607 79.5107 1144.25 534.842
655 0 55.2178 12.3149 680 79.5559 1144.2 533.284
656 0 55.2178 12.3149 680 129.304 1144.2 533.284
657 0 58.169 13.4264 781 85.5915 1145.04 533.143
658 0 59.2725 13.885 823 84.819 1144.46 530.541
659 0 63.2273 15.3731 972 81.5288 1145 525.987
660 0 66.3065 13.9353 924 83.3701 1145.82 526.426
661 0 66.3107 15.548 1031 81.8885 1146.52 523.638
662 0 66.3107 15.5028 1028 146.425 1147.51 523.625
663 0 70.2654 13.7194 964 82.4813 1151.92 525.437
664 0 72.181 13.9787 1009 82.0466 1153.73 525.813
665 0 77.1958 15.3894 1188 79.2997 1157.46 521.012
666 0 79.1432 14.6443 1159 80.629 1159.62 527.33
667 0 80.2219 13.6372 1094 84.6563 1161.68 522.641
668 1 45.0423 10.0572 453 86.5762 1164.69 542.015
669 0 47.0494 12.2212 575 83.0313 1166.24 542.202
670 0 47.0509 11.902 560 82.6054 1166.51 542.304
671 0 49.1555 13.1623 647 80.1994 1164.28 542.739
672 0 51.1843 12.5234 641 81.9111 1164.04 543.819
673 0 51.1843 12.5624 643 135.451 1164.07 543.84
674 0 53.0693 14.1702 752 82.7713 1162.03 540.455
675 0 55.0663 14.0195 772 83.0997 1160.2 543.228
676 0 55.0239 13.3397 734 85.0341 1158.63 541.293
677 0 57.1161 14.1641 809 82.0692 1157.46 542.213
678 0 61.0308 15.9264 972 78.6276 1154.88 540.736
679 0 60.0528 12.8387 771 83.5253 1152.69 542.315
680 0 63.0821 13.5696 856 82.8213 1151.58 541.266
681 0 66.0557 14.5937 964 81.7313 1149.34 537.952
682 0 69.1827 16.3914 1134 80.3607 1147.59 536.547
683 0 70.047 14.6901 1029 84.346 1148.21 535.374
684 0 71.0651 14.4093 1024 85.9014 1147.38 532.119
685 0 73.0803 12.8078 936 88.9284 1145.41 533.068
686 0 76.0895 14.0624 1070 86.8869 1144.9 529.351
687 0 77.0561 13.8211 1065 88.0883 1144.56 525.677
688 0 84.1225 15.1684 1276 85.0697 1144.53 524.962
689 0 87.1918 14.7835 1289 85.3863 1144.06 520.799
690 1 41.0575 11.6179 477 87.6436 1143.51 539.954
691 0 46.0245 11.1897 515 85.6816 1143.57 543.819
692 0 44.1228 10.3348 456 87.3838 1144.69 540.524
693 0 46.0533 10.8353 499 85.1303 1145.12 540.904
694 0 49.0988 11.9758 588 85.5731 1145.26 536.813
695 0 51.2194 13.6081 697 82.5108 1145.96 537.796
696 0 53.1548 13.2255 703 83.7212 1145.99 534.504
697 0 53.0649 12.5695 667 86.8321 1148.43 533.478
698 0 56.1162 14.0601 789 85.3587 1151.03 534.79
699 0 57.2428 13.7135 785 87.9669 1153.19 531.396
700 0 60.07 12.9183 776 89.1534 1155.5 530.983
701 0 60.07 12.9515 778 135.934 1157.48 531.046
702 0 66.2547 16.014 1061 81.9312 1160.32 531.91
703 0 67.147 13.6268 915 87.624 1162.17 530.758
704 0 71.2161 14.8281 1056 85.5152 1163.01 531.993
705 0 73.2177 14.5866 1068 86.1152 1163.66 533.676
706 0 75.1322 14.7606 1109 86.3742 1163.65 532.065
707 0 78.148 13.6152 1064 90.1212 1161.88 530.311
708 0 78.148 13.628 1065 135.861 1161.87 530.213
709 1 45.0931 10.4672 472 91.0805 1158.22 549.328
710 0 44.062 10.9618 483 91.2464 1156.71 551.193
711 0 46.0739 11.6552 537 90.9088 1155.28 548.769
712 0 47.069 10.1553 478 91.9916 1152.45 551.582
713 0 50.0833 12.6389 633 90.7362 1152.37 548.193
714 0 53.1267 12.6302 671 89.8689 1151.61 547.762
715 0 53.1566 12.7171 676 91.0133 1149.82 543.553
716 0 56.0437 15.1132 847 86.9244 1148.79 544.503
717 0 58.0488 13.9366 809 89.1434 1147.91 542.722
718 0 59.0948 12.3699 731 92.2668 1146.67 542.361
719 0 62.1717 13.6396 848 89.8608 1145.33 539.053
720 0 65.1962 15.7218 1025 86.0283 1144.71 538.824
721 0 64.1015 13.9934 897 91.5028 1143.95 535.46
722 0 66.089 14.193 938 91.1279 1143.12 534.249
723 0 68.0473 14.343 976 90.9395 1142.83 531.531
724 0 72.1071 14.0208 1011 91.3027 1142.52 528.538
725 0 72.1426 14.4991 1046 91.6224 1143 525.597
726 0 74.0821 15.8878 1177 89.5013 1142.99 523.875
727 0 75.1172 13.3924 1006 94.9503 1144.42 523.571
728 0 80.1022 15.0558 1206 90.7985 1143.79 522.592
729 0 83.1777 14.6914 1222 92.063 1145.68 520.712
730 1 42.0145 11.9483 502 93.3944 1148.25 538.649
731 0 44.1706 9.169 405 90.6469 1149.77 541.491
732 0 45.0557 10.7423 484 93.5682 1152.45 541.758
733 0 48.0172 12.1623 584 91.5342 1154.73 542.491
734 0 49.1214 12.3775 608 92.5181 1156.64 539.931
735 0 51.1221 15.9618 816 86.3811 1160.19 540.583
736 0 54.2076 14.7212 798 88.0414 1160.5 538.649
737 0 56.1168 14.7728 829 88.7937 1162.23 539.408
738 0 56.112 13.4196 753 92.8035 1162.18 541.129
739 0 57.2444 14.6215 837 95.3118 1162.96 540.851
740 0 60.2251 14.2133 856 96.9229 1163.21 543.095
741 0 60.1039 13.7928 829 99.7286 1161.52 540.305
742 0 63.2372 14.7856 935 96.9936 1160.59 540.17
743 0 68.2672 15.8348 1081 93.4413 1159.8 541.995
744 0 71.2596 15.7031 1119 93.3351 1158.38 534.79
745 0 72.2643 15.125 1093 95.7466 1155.84 532.184
746 0 76.2481 17.1283 1306 91.7236 1153.75 534.508
747 0 78.2911 14.5738 1141 96.4137 1151.23 537.348
748 0 81.1805 15.8289 1285 94.1471 1149.48 536.159
749 1 42.0869 10.7635 453 95.7461 1148.11 554.808
750 0 42.3301 10.4417 442 96.3009 1148.34 556.647
751 0 44.3702 11.7872 523 155.711 1147.23 554.426
752 0 47.2887 12.0325 569 91.6907 1146.49 549.819
753 0 48.1251 12.7376 613 90.6346 1144.04 545.85
754 0 51.2166 13.6674 700 88.7514 1143.31 543.959
755 0 52.1598 14.0338 732 92.5833 1141.5 542.986
756 0 52.0118 14.1891 738 93.6856 1139.89 538.789
757 0 55.0341 15.1179 832 90.9651 1139.79 536.722
758 0 56.0731 14.1066 791 91.957 1139.36 537.918
759 0 58.0778 13.4475 781 93.7849 1139.78 537.492
760 0 61.0617 14.1988 867 91.6782 1140.49 532.405
761 0 61.0617 14.3134 874 92.151 1140.8 531.224
762 0 62.0697 14.9348 927 92.0431 1142.22 529.557
763 0 64.077 13.7023 878 94.4237 1143.9 528.021
764 0 66.1224 15.0479 995 92.5075 1146.12 526.933
765 0 71.0644 16.6187 1181 89.2786 1148.07 527.939
766 0 70.2018 13.0623 917 97.0938 1149.85 527.011
767 0 74.2319 16.4619 1222 89.8216 1152.46 526.705
768 0 76.1306 14.265 1086 93.3923 1155.29 524.882
769 0 80.1034 14.6186 1171 89.8266 1158.2 526.59
770 0 84.0993 14.7445 1240 89.5065 1159.73 524.38
771 0 86.1657 14.2516 1228 90.3982 1161.63 523.59
772 1 46.0394 11.6856 538 93.5651 1161.61 545.405
773 0 47.1076 11.9938 565 92.7664 1162.09 548.143
774 0 48.1027 10.9973 529 94.3214 1161.78 547.739
775 0 51.1538 13.391 685 90.5854 1160.16 545.372
776 0 52.0755 13.0772 681 91.0543 1159.04 546.934
777 0 56.0974 14.2787 801 87.9563 1158.19 545.386
778 0 55.0831 14.1604 780 89.4641 1155.89 544.724
779 0 60.1322 14.7176 885 87.0034 1154.52 545.023
780 0 59.0928 16.5164 976 85.9406 1151.76 543.036
781 0 63.1648 15.1983 960 87.3125 1149.65 543.376
782 0 65.0597 14.8479 966 89.0745 1147.78 542.327
783 0 67.0823 14.5493 976 90.3371 1146.51 539.201
784 0 71.2792 13.5523 966 92.1749 1145.37 539.466
785 0 74.2724 14.4738 1075 90.8856 1144.26 536.656
786 0 76.2377 15.6747 1195 89.3858 1144.44 534.853
787 0 77.2328 14.1261 1091 93.1384 1141.86 528.728
788 0 80.2524 13.794 1107 94.0813 1142.15 529.466
789 0 83.2999 15.066 1255 91.851 1141.52 524.927
790 0 85.3302 14.5083 1238 93.3619 1140.65 527.288
791 0 86.1393 15.0454 1296 94.108 1140.29 519.606
792 1 43.182 9.58733 414 100.266 1140.69 541.79
793 0 47.1083 11.4205 538 96.513 1140.35 537.894
794 0 47.1083 11.4417 539 159.43 1140.35 537.852
795 0 48.1081 11.973 576 97.5938 1141.65 535.505
796 0 49.1123 11.8911 584 97.0291 1142.87 536.322
797 0 52.2864 13.5599 709 94.6051 1145.69 531.794
798 0 55.1831 14.6965 811 92.0666 1147.44 531.723
799 0 54.1134 14.1554 766 93.8956 1148.39 532.48
800 0 57.1107 15.2511 871 91.527 1151.94 531.447
801 0 60.1333 15.2162 915 92.0579 1153.78 532.019
802 0 62.1882 14.9385 929 91.2013 1156.77 532.166
803 0 65.1486 16.7924 1094 89.021 1159.34 532.603
804 0 66.0661 14.4098 952 93.2426 1160.9 531.56
805 0 70.1442 15.3541 1077 90.9006 1161.7 532.415
806 0 73.1126 15.7976 1155 90.8052 1163.36 530.637
807 0 76.25 15.8951 1212 91.6691 1163.64 532.981
808 0 78.2627 15.6269 1223 92.4391 1163.12 532.42
809 1 42.0904 11.0001 463 96.8294 1161.46 550.136
810 0 42.0408 11.251 473 94.6956 1159.95 552.228
811 0 45.212 12.3861 560 93.4196 1158.77 551.23
812 0 47.0729 12.4275 585 93.9402 1156.71 550.928
813 0 50.3422 14.1233 711 90.4219 1155.31 547.84
814 0 49.2294 13.6097 670 94.8388 1152.53 545.634
815 0 50.1341 13.9426 699 95.1102 1150.22 545.967
816 0 54.1959 14.7797 801 91.9201 1148.43 547.014
817 0 54.2393 13.3667 725 95.5545 1148.16 548.502
818 0 57.1478 15.4687 884 91.5769 1146.25 546.847
819 0 58.129 14.2098 826 93.4697 1145.12 544.436
820 0 59.1733 14.0942 834 95.6823 1143.87 540.365
821 0 62.1709 15.3287 953 91.9748 1142.78 541.389
822 0 63.1318 14.3351 905 95.189 1141.91 538.044
823 0 68.2607 15.9096 1086 91.861 1141.14 532.037
824 0 69.2297 15.2825 1058 92.6049 1141.28 532.416
825 0 73.2326 16.3862 1200 89.5967 1140.59 531.913
826 0 71.1609 13.9402 992 97.4718 1139.94 528.494
827 0 76.2624 15.3024 1167 93.9006 1141.51 524.408
828 0 78.2732 14.6027 1143 95.4129 1141.52 521.381
829 1 39.009 10.7155 418 96.555 1141.75 542.964
830 0 39.0542 9.70447 379 100.018 1143.34 541.929
831 0 43.0755 10.8647 468 96.2308 1144.54 540.848
832 0 45.0271 11.6818 526 95.5038 1146.44 540.156
833 0 44.1816 11.4754 507 97.1637 1149.85 538.923
834 0 47.3045 13.022 616 92.7338 1152.67 537.123
835 0 47.1539 11.8548 559 91.3184 1156.45 537.428
836 0 50.1355 12.905 647 91.6167 1158.82 537.005
837 0 51.0735 12.6288 645 92.8946 1162.76 536.329
838 0 52.1238 13.7365 716 91.6983 1162.91 533.673
839 0 55.1606 11.4756 633 92.8784 1164.17 539.179
840 0 55.1241 13.7326 757 91.1783 1164.45 537.711
841 0 58.0845 14.6855 853 88.5346 1164.73 539.617
842 0 61.0343 14.1396 863 90.08 1164.3 537.65
843 0 64.1364 14.0638 902 90.3758 1162.84 535.208
844 0 66.0833 15.1324 1000 88.124 1161.29 537.329
845 0 68.1348 13.8549 944 91.1663 1159.59 537.193
846 0 70.0373 15.3347 1074 88.9171 1157.41 536.957
847 0 73.1036 13.5151 988 92.9413 1154.75 537.39
848 0 76.1738 14.3488 1093 90.3385 1152.91 539.012
849 1 39.2684 11.2049 440 93.6886 1150.99 551.864
850 0 41.1519 10.0117 412 94.0097 1150.53 554.799
851 0 42.2788 12.1811 515 91.8602 1149.22 550.262
852 0 44.2041 11.9898 530 93.4075 1146.44 547.468
853 0 45.32 13.2171 599 92.8815 1144.94 546.018
854 0 43.2189 11.3145 489 96.7117 1144.88 546.599
855 0 47.2976 11.8399 560 94.9304 1142.87 544.12
856 0 47.2266 12.7047 600 94.0033 1143.33 542.987
857 0 49.0731 14.2848 701 91.1427 1141.2 540.158
858 0 51.3503 14.9366 767 89.086 1142.44 538.336
859 0 54.1589 13.4973 731 90.8181 1142.65 535.648
860 0 54.1761 14.6005 791 90.4766 1142.41 536.895
861 0 55.0739 14.3262 789 90.3916 1142.74 535.305
862 0 57.2586 14.1813 812 90.1145 1143.87 534.685
863 0 59.0466 15.5979 921 87.1422 1143.44 532.103
864 0 61.061 14.7066 898 88.931 1146.4 532.401
865 0 63.2445 13.4083 848 91.2028 1147.49 531.684
866 0 66.2969 14.2239 943 89.6129 1149.51 528.356
867 0 66.1186 14.3227 947 89.7086 1152.5 529.2
868 0 68.119 14.3572 978 90.182 1155.59 529.914
869 0 71.0786 15.1804 1079 89.2428 1158.2 528.076
870 0 73.3044 13.5872 996 90.9066 1160.73 531.628
871 0 76.2153 15.8105 1205 87.9145 1161.9 526.622
872 0 81.1042 14.9191 1210 88.7314 1162.42 526.996
873 0 82.1259 13.9177 1143 91.2187 1163.76 525.659
874 0 86.1368 15.1503 1305 87.8437 1163.12 521.762
875 1 41.0332 11.576 475 89.2526 1162.5 545.128
876 0 44.0656 10.1667 448 91.6585 1162.49 544.355
877 0 46.1298 11.0558 510 89.8941 1161.35 546.484
878 0 48.1281 11.4486 551 91.1978 1159.95 546.515
879 0 49.0971 11.5078 565 92.2 1156.73 545.545
880 0 54.0429 14.507 784 87.9018 1155.49 547.638
881 0 55.1656 13.7223 757 86.2523 1153.39 547.287
882 0 58.2073 13.5035 786 87.2125 1151.79 544.26
883 0 58.1123 13.233 769 89.7061 1149.85 540.821
884 0 62.1093 14.4745 899 85.8276 1147.59 541.697
885 0 62.2057 13.8733 863 88.1251 1146.52 538.118
886 0 66.1465 15.0877 998 85.6683 1145.27 536.35
887 0 69.1313 14.8124 1024 86.498 1143.93 533.98
888 0 70.1596 14.0537 986 90.1298 1142.93 533.11
889 0 72.0924 14.315 1032 90.4729 1141.51 530.127
890 0 75.1272 14.8548 1116 91.0547 1140.59 528.926
891 0 77.1237 15.9614 1231 88.4257 1140.7 526.408
892 0 80.0589 15.5885 1248 89.0545 1140.33 525.375
893 0 82.1102 14.7972 1215 90.9588 1140.92 523.3
894 0 83.1378 14.7346 1225 91.8669 1140.95 519.923
895 0 86.1682 14.8779 1282 91.7785 1142.28 518.988
896 0 88.2945 14.9839 1323 91.6538 1142.56 514.35
897 0 92.2192 14.0643 1297 91.4202 1144.75 514.502
898 0 94.1496 15.3585 1446 89.6369 1145.85 513.817
899 1 47.1445 10.3936 490 94.3265 1148.55 535.327
900 0 51.1283 10.6008 542 91.9077 1149.7 535.399
901 0 53.1698 12.0369 640 89.9875 1152.53 536.228
902 0 52.1327 11.4899 599 90.3856 1156.8 536.758
903 0 58.1111 12.7858 743 88.7752 1157.4 534.865
904 0 57.2296 12.0392 689 91.238 1159.32 537.586
905 0 60.0889 13.3635 803 89.0598 1161.38 535.701
906 0 61.0954 13.1761 805 92.5416 1161.86 532.453
907 0 67.2143 14.967 1006 88.5437 1161.75 532.788
908 0 70.1617 13.9962 982 88.5642 1161.97 537.273
909 0 74.1688 15.7613 1169 85.4679 1160.87 534.461
910 0 76.1697 15.6755 1194 86.4899 1160.03 534.657
911 0 79.1507 17.713 1402 83.3474 1158.15 534.133
912 0 82.1345 15.986 1313 86.8423 1156.79 534.141
913 0 82.1345 15.9251 1308 160.81 1155.81 534.123
914 0 88.2956 15.6633 1383 87.4881 1152.91 532.484
915 1 44.0684 9.3718 413 95.2349 1150.17 550.39
916 0 46.0356 9.70988 447 93.7785 1149.11 550.803
917 0 49.0541 12.7614 626 86.8035 1147.97 551.693
918 0 51.0451 13.1648 672 86.5193 1145.93 547.833
919 0 51.0429 11.0495 564 89.9255 1147.37 545.619
920 0 54.0546 13.5604 733 85.5048 1144.23 544.216
921 0 54.0708 13.9817 756 86.0463 1143.16 542.91
922 0 57.117 14.2164 812 85.5283 1144.47 542.724
923 0 58.1545 12.6559 736 89.6046 1142 539.649
924 0 60.2064 14.3008 861 87.3891 1141.09 536.086
925 0 60.067 14.3173 860 87.7709 1141.51 535.079
926 0 62.0765 13.9828 868 88.8998 1141.03 533.474
927 0 63.1879 14.4806 915 72.6066 1141.08 530.138
928 0 66.0867 14.7533 975 89.3087 1143.04 528.498
929 0 69.1374 15.5632 1076 87.0697 1142.61 528.052
930 0 71.1158 14.5397 1034 89.4207 1144.64 527.949
931 0 72.1708 15.3109 1105 89.6959 1145.78 524.53
932 0 75.1279 15.7598 1184 90.1816 1147.64 521.672
933 0 79.1483 15.1235 1197 89.8947 1150.38 524.516
934 0 80.1124 14.7293 1180 91.7754 1152.85 524.214
935 0 83.1566 15.1281 1258 92.0016 1154.07 520.508
936 1 43.0236 9.48316 408 95.7426 1158.18 542.556
937 0 45.0077 9.39838 423 91.7754 1161.03 544.636
938 0 48.0571 10.8621 522 93.8774 1161.79 541.167
939 0 50.1616 11.443 574 91.5192 1161.57 541.611
940 0 52.0478 12.7575 664 89.366 1164.95 542.599
941 0 53.079 13.2821 705 90.5546 1164.12 542.722
942 0 56.0731 13.7499 771 91.0104 1164.62 543.079
943 0 58.1306 13.2288 769 91.9532 1163.37 540.962
944 0 61.0492 14.4637 883 88.9898 1160.85 541.439
945 0 61.1368 14.4103 881 91.4245 1160.4 539.669
946 0 62.1998 13.6978 852 92.6009 1157.85 539.484
947 0 66.089 14.5561 962 90.6538 1154.98 539.154
948 0 68.1701 12.7475 869 93.6686 1153.02 540.93
949 0 70.0767 14.4413 1012 91.5257 1150.99 536.296
950 0 73.1611 15.008 1098 90.724 1149.79 534.527
951 0 75.0702 13.8937 1043 94.0872 1148.86 534.182
952 0 79.2007 14.116 1118 93.2513 1146.38 532.374
953 0 81.0959 13.6505 1107 94.5537 1145.31 529.329
954 1 41.0562 9.03639 371 101.396 1144.44 545.412
955 0 43.0377 10.4327 449 97.6392 1143.98 545.615
956 0 44.0856 10.5023 463 99.2484 1142.12 543.747
957 0 46.1128 11.0165 508 97.7933 1141.39 541.014
958 0 45.1239 11.2579 508 98.1043 1141.11 536.888
959 0 50.0783 12.3007 616 93.9935 1141.17 538.409
960 0 50.1612 11.6026 582 99.1787 1141.62 535.649
961 0 52.076 11.7905 614 99.4772 1141.81 532.881
962 0 54.1382 12.9668 702 88.1453 1142.89 529.933
963 0 55.105 13.2837 732 89.5792 1143.87 528.469
964 0 54.04 12.1206 655 93.7115 1146.2 527.569
965 0 58.0745 12.9661 753 91.0106 1147.87 527.784
966 0 62.0493 12.9574 804 90.4005 1150.52 526.704
967 0 62.0719 13.4038 832 91.9976 1153.35 525.13
968 0 63.0637 11.3219 714 94.7115 1155.35 524.993
969 0 67.391 12.2865 828 90.878 1157.31 525.864
970 0 70.0898 15.2947 1072 85.8769 1160.63 524.297
971 0 72.0629 13.1968 951 92.7865 1162.88 525.613
972 0 74.0721 11.7318 869 96.4856 1163.73 526.083
973 0 76.1259 12.7158 968 95.5816 1163.88 526.248
974 0 80.096 13.1717 1055 93.3782 1164.08 524.618
975 0 83.1364 13.135 1092 93.5485 1163.72 525.854
976 1 42.0924 11.2847 475 92.6653 1161.75 545.975
977 0 44.1722 9.712 429 93.5711 1161.52 543.851
978 0 46.2312 9.84183 455 93.7516 1160.12 544.437
979 0 48.1652 11.0453 532 92.0602 1158.39 543.793
980 0 50.0959 11.8173 592 91.4443 1155.59 540.713
981 0 54.0915 15.4738 837 90.8065 1152.23 544.827
982 0 54.1139 13.9151 753 92.158 1150.4 542.847
983 0 55.2273 13.1276 725 93.989 1148.33 542.49
984 0 57.2302 13.8039 790 91.8316 1147.02 541.152
985 0 59.2224 14.9606 886 89.7788 1145.39 538.863
986 0 61.1456 13.8685 848 91.9953 1144.55 536.825
987 0 63.0999 13.439 848 93.3125 1142.54 534.728
988 0 65.0666 13.7244 893 89.4793 1142.13 533.001
989 0 68.1287 13.9148 948 89.8333 1141.14 529.282
990 1 35.0562 9.55609 335 94.8746 1140.47 544.582
991 0 38.0476 10.4869 399 93.0677 1140.35 542.792
992 0 40.0922 11.0994 445 95.6697 1139.74 539.169
993 0 42.1064 11.4234 481 94.6466 1140.2 538.455
994 0 41.1816 11.2914 465 98.9527 1140.79 535.127
995 0 43.2943 12.75 552 96.1884 1142.41 534.292
996 0 44.5185 12.1972 543 95.5543 1145.16 533.676
997 0 45.3767 12.848 583 95.3928 1146.38 533.609
998 0 47.1562 13.2114 623 89.0915 1149.34 533.372
999 0 47.1562 13.275 626 126.97 1152.35 533.276
1000 0 51.0857 14.0548 718 88.7173 1154.65 533.326
1001 0 50.089 12.937 648 92.8148 1156.39 532.844
1002 0 53.0945 12.958 688 91.5974 1160.64 534.118
1003 0 53.0317 11.8985 631 95.4628 1162.68 534.583
1004 0 55.0937 12.7964 705 93.0085 1164.34 535.99
1005 0 56.1328 12.4882 701 94.6476 1165.23 535.585
1006 0 61.121 14.4304 882 90.4184 1166.51 536.588
1007 0 62.0671 13.5337 840 92.45 1164.77 536.493
1008 0 62.0605 13.1968 819 94.685 1163.35 536.849
1009 0 66.0482 12.8391 848 93.0979 1161.26 537.31
1010 0 70.0876 14.5104 1017 90.6401 1158.97 535.476
1011 0 70.0524 12.9617 908 93.7081 1157.63 535.312
1012 0 73.1426 14.3965 1053 92.1662 1156.06 534.063
1013 1 41.1437 11.3748 468 94.7393 1153.07 551.549
1014 0 44.0112 12.3605 544 91.9926 1150.66 550.033
1015 0 45.1188 11.5695 522 93.4885 1150.04 548.722
1016 0 46.0299 12.4702 574 93.601 1147.98 546.796
1017 0 46.116 13.5528 625 91.8752 1147.41 544.794
1018 0 49.0593 13.6569 670 90.8537 1145.5 544.725
1019 0 53.0678 13.4545 714 90.584 1144.04 542.102
1020 0 52.0705 13.1552 685 92.673 1142.96 541.448
1021 0 55.1274 14.0765 776 90.2745 1143.33 538.588
1022 0 56.0552 14.2895 801 90.7528 1140.91 535.382
1023 0 59.1327 13.3767 791 92.4223 1140.63 533.561
1024 0 60.1191 13.0907 787 94.8513 1140.8 533.638
1025 0 61.0499 13.3334 814 95.5295 1140.17 529.125
1026 0 61.0499 13.3825 817 143.84 1137.18 529.152
1027 0 65.1338 12.9886 846 96.7009 1140.73 527.452
1028 0 67.0561 13.7795 924 95.7186 1142.23 525.593
1029 0 70.0746 14.6273 1025 94.8917 1142.77 522.598
1030 0 73.055 14.4275 1054 95.4364 1144.74 521.476
1031 1 39.0146 10.8934 425 99.2212 1146.16 538.426
1032 0 41.0729 10.4449 429 102.394 1148.16 537.548
1033 0 44.0266 10.6981 471 101.72 1151.02 536.962
1034 0 43.0422 9.8508 424 104.425 1154.12 537.818
1035 0 43.0812 11.0257 475 103.731 1155.87 537.301
1036 0 48.0596 12.6926 610 100.167 1157.77 537.734
1037 0 48.1096 13.3029 640 99.2609 1159.43 538.214
1038 0 51.0456 12.6945 648 96.875 1161.23 534.887
1039 0 52.0342 12.3573 643 98.4666 1162.69 537.064
1040 0 55.0651 14.1287 778 95.2314 1162.25 541.314
1041 0 56.0515 13.3449 748 97.2968 1161.27 540.154
1042 0 60.0496 13.2224 794 96.5101 1160.07 540.139
1043 0 61.034 14.5493 888 95.3356 1159.5 541.073
1044 0 63.114 14.4184 910 94.8769 1157.49 540.575
1045 0 65.0636 14.9546 973 93.9137 1155.52 539.533
1046 0 64.0719 13.7658 882 97.8322 1151.78 539.141
1047 0 68.1341 13.5909 926 97.2959 1150.08 539.366
1048 0 70.07 15.5416 1089 94.303 1148.16 535.748
1049 0 73.0732 15.1081 1104 95.4375 1146.23 533.049
1050 0 77.1188 15.4567 1192 94.0881 1145.66 533.352
1051 1 40.0174 11.8948 476 98.771 1143.76 550.574
1052 0 43.038 10.7115 461 99.8178 1142.48 549.256
1053 0 44.014 11.36 500 98.254 1141.4 547.782
1054 0 45.0307 11.9696 539 98.9963 1140.43 545.776
1055 0 46.0338 11.2309 517 99.0638 1138.44 545.453
1056 0 48.0313 12.8458 617 96.6451 1138.18 540.971
1057 0 49.0426 14.3549 704 94.1662 1138.08 538.683
1058 0 51.2283 14.289 732 94.8265 1139.55 536.648
1059 0 51.1486 14.0766 720 95.4097 1141.25 536.312
1060 0 52.0961 13.1488 685 97.3387 1142.04 534.693
1061 0 53.1103 14.1216 750 96.284 1142.62 533.467
1062 0 54.0861 14.3475 776 97.1688 1144.17 530.406
1063 0 55.1639 14.0672 776 98.6314 1144.69 527.729
1064 0 58.1572 13.8418 805 97.9938 1147.18 528.564
1065 0 58.1572 13.859 806 148.586 1149.17 528.62
1066 0 61.175 14.4994 887 97.3833 1151.89 525.236
1067 0 65.1379 14.7226 959 95.8936 1154 526.46
1068 0 67.1682 14.4265 969 96.9474 1156.98 523.609
1069 0 70.1965 13.6759 960 97.3 1159.02 525.853
1070 0 71.1285 14.5511 1035 96.5739 1160.15 524.776
1071 0 75.0886 14.2898 1073 96.8863 1161.14 523.599
1072 0 79.0957 14.4761 1145 95.1031 1161.69 526.234
1073 1 43.0529 12.3801 533 99.2664 1163.17 544.22
1074 0 45.06 12.2503 552 98.0018 1161.85 544.455
1075 0 46.0868 13.7566 634 96.6404 1161.72 543.992
1076 0 47.1647 12.3609 583 99.5386 1160.67 542.317
1077 0 48.078 11.3357 545 100.686 1158.74 544.785
1078 0 50.2508 13.0545 656 99.4787 1156.94 541.959
1079 0 52.1574 14.6288 763 96.6409 1153.82 543.583
1080 0 54.1932 12.9721 703 99.8819 1151.53 541.639
1081 0 55.1738 13.8653 765 99.2954 1150.26 541.482
1082 0 57.2212 13.0022 744 100.233 1149.84 540.165
1083 0 61.2426 13.8139 846 97.5319 1148.37 539.115
1084 0 63.0685 13.7945 870 98.323 1146.61 533.999
1085 0 64.1767 12.824 823 101.711 1146.72 536.214
1086 0 67.2013 13.6158 915 100.515 1144.65 532.634
1087 0 70.2693 14.9425 1050 97.7095 1143.62 530.771
1088 0 72.1589 15.3411 1107 97.2448 1143.23 529.07
1089 0 75.2302 15.1269 1138 98.0685 1142.13 526.155
1090 0 75.1401 13.202 992 104.203 1142.4 523.324
1091 0 79.1905 14.7492 1168 100.301 1142.51 519.154
1092 0 84.2202 14.8183 1248 99.9231 1142.18 517.655
1093 1 46.0685 11.6131 535 103.684 1143.92 537.077
1094 0 46.0327 11.1442 513 105.119 1144.35 535.879
1095 0 49.0555 13.2503 650 100.485 1146.15 535.674
1096 0 50.0625 12.8639 644 103.185 1147.97 533.697
1097 0 52.0386 13.6053 708 100.662 1147.15 533.137
1098 0 54.0637 14.187 767 100.272 1150.19 532.412
1099 0 55.0812 13.4529 741 103.043 1152.93 532.762
1100 0 57.0233 13.4857 769 102.735 1154.74 531.01
1101 0 57.0114 15.6986 895 99.5117 1156.98 531.699
1102 0 58.031 13.9408 809 103.413 1159.38 531.65
1103 0 59.0253 14.0279 828 104.849 1160.33 531.133
1104 0 63.047 14.5447 917 102.716 1161.4 532.052
1105 0 66.0237 15.5096 1024 100.42 1161.62 531.146
1106 0 68.0473 15.5333 1057 101.142 1162.16 532.068
1107 0 71.0605 14.354 1020 102.901 1161.03 531.774
1108 0 70.0868 14.6104 1024 105.071 1159.61 528.848
1109 0 75.0894 15.6081 1172 101.223 1158.15 530.364
1110 0 78.064 15.7307 1228 102.258 1156.61 528.3
1111 0 80.0908 15.8695 1271 102.354 1153.92 527.775
1112 0 85.1245 16.8459 1434 99.1381 1151.59 528.018
1113 0 88.0891 15.9952 1409 101.534 1149.41 523.043
1114 0 91.2571 17.5329 1600 97.8669 1148.04 522.418
1115 0 94.1195 16.564 1559 100.917 1146.87 520.318
1116 1 50.0805 10.9224 547 108.492 1145.53 541.537
1117 0 53.0774 10.4753 556 110.46 1144.43 539.532
1118 0 56.1005 12.9767 728 105.474 1142.12 537.146
1119 0 56.1031 13.0652 733 165.774 1140.11 537.07
1120 0 60.1043 12.9275 777 101.689 1140.43 528.035
1121 0 61.1473 12.5762 769 104.155 1139.66 524.692
1122 0 64.1073 13.6178 873 100.889 1140.49 523.806
1123 0 65.1398 14.1235 920 97.0924 1140.53 521.836
1124 0 68.1833 14.505 989 96.6047 1141.17 519.946
1125 0 70.1073 13.5221 948 99.4631 1142.35 516.661
1126 0 70.1504 13.1004 919 101.52 1143.58 515.206
1127 0 75.1875 13.0474 981 101.073 1145.4 514.502
1128 0 77.3058 14.2163 1099 99.4732 1147.72 514.53
1129 0 82.1164 13.7853 1132 99.4638 1148.61 513.125
1130 0 82.0832 14.3635 1179 100.822 1151.31 510.925
1131 0 86.2044 14.9064 1285 99.5385 1153.6 509.482
1132 0 89.141 15.1782 1353 99.745 1155.82 508.619
1133 0 93.133 13.3465 1243 102.389 1157.46 509.253
1134 0 96.1013 14.6616 1409 100.827 1159.67 507.346
1135 1 50.0678 11.2448 563 103.465 1161.72 531.616
1136 0 54.1122 9.66511 523 104.147 1162.84 533.325
1137 0 56.1377 11.2758 633 102.621 1163.54 532.741
1138 0 56.0533 12.5238 702 101.571 1163.42 533.098
1139 0 58.0752 11.6917 679 102.878 1163.15 535.183
1140 0 62.0182 14.0443 871 96.9426 1162.37 535.604
1141 0 64.1354 13.2532 850 99.2588 1159.13 533.388
1142 0 68.0542 13.9742 951 94.0799 1157.54 531.859
1143 0 71.085 13.0548 928 99.8696 1157.35 535.767
1144 0 72.1177 13.0204 939 100.558 1153.9 535.708
1145 0 76.1092 13.9799 1064 97.9211 1151.35 533.323
1146 0 78.2499 12.9329 1012 99.9931 1149.67 532.241
1147 0 82.1255 15.111 1241 95.133 1148.16 530.857
1148 0 85.1719 12.7624 1087 99.1702 1147.26 528.032
1149 1 46.0532 10.7919 497 98.501 1146.81 547.726
1150 0 45.1214 11.5688 522 99.9847 1145.34 545.55
1151 0 45.0293 11.548 520 97.2212 1144.43 546.094
1152 0 49.1197 12.9276 635 95.6189 1142.74 543.304
1153 0 48.1846 12.2238 589 98.1596 1141.96 539.214
1154 0 49.243 13.0983 645 94.4636 1140.83 534.819
1155 0 52.1063 13.933 726 92.3981 1141.12 537.775
1156 0 53.0205 13.0516 692 94.3613 1140.9 536.773
1157 0 56.1013 12.5309 703 94.4395 1141.38 534.101
1158 0 56.0807 13.4271 753 93.2789 1143.05 533.518
1159 0 60.0957 14.4603 869 89.7284 1144.17 529.239
1160 0 60.1119 12.144 730 93.9315 1145.27 530.06
1161 0 62.0509 13.9079 863 92.2538 1146.83 529.767
1162 0 65.1173 13.4373 875 93.4034 1148.44 527.389
1163 0 64.0705 12.6735 812 96.1946 1150.93 526.645
1164 0 69.1377 12.8729 890 95.309 1154.2 528.463
1165 0 72.1439 13.2374 955 94.1592 1156.25 527.203
1166 0 74.1271 13.5848 1007 94.1092 1158.75 525.943
1167 0 78.0917 14.0348 1096 93.4206 1160.77 526.966
1168 1 43.0813 9.9115 427 98.8665 1161.81 545.539
1169 0 41.0608 10.9594 450 97.6689 1162.48 545.473
1170 0 45.0462 10.8999 491 96.2587 1162.52 546.937
1171 0 47.0674 11.8341 557 95.3339 1161.57 546.526
1172 0 47.0674 11.7704 554 144.897 1160.56 546.583
1173 0 47.2189 12.3044 581 92.7762 1159.28 545.115
1174 0 52.1524 13.0771 682 91.0323 1157.39 548.499
1175 0 51.0906 12.6638 647 93.6136 1154.66 547.988
1176 0 56.1098 13.7231 770 90.1909 1152.35 546.019
1177 0 57.301 13.4029 768 91.9701 1150.26 543.794
1178 0 61.1861 14.1862 868 90.3272 1148.19 540.894
1179 0 63.2179 14.8059 936 89.9017 1145.81 541.716
1180 0 65.209 14.2772 931 91.8228 1144.46 540.404
1181 0 66.188 13.8545 917 93.6685 1143.93 537.914
1182 0 69.2148 15.8203 1095 90.2785 1141.89 536.737
1183 0 70.2356 14.2663 1002 94.1567 1141.33 536.148
1184 0 73.1885 14.3055 1047 95.4556 1139.82 531.33
1185 0 76.1912 15.1461 1154 94.5069 1139.03 530.334
1186 1 40.1032 11.8943 477 101.356 1140.22 545.65
1187 0 41.1398 11.5217 474 103.973 1140.96 543.57
1188 0 43.1374 12.1704 525 101.996 1137.77 543.28
1189 0 44.04 11.535 508 103.114 1138.15 543.313
1190 0 45.0764 11.0036 496 105.274 1138.55 541.147
1191 0 48.0873 12.4149 597 104.387 1140.8 538.035
1192 0 49.0478 14.2106 697 103.851 1141.1 534.987
1193 0 51.0954 13.602 695 104.157 1143.23 535.528
1194 0 51.0779 14.1157 721 103.559 1144.85 533.406
1195 0 53.102 13.4081 712 105.058 1148.59 536.638
1196 0 56.0418 15.0067 841 101.535 1150.4 536.499
1197 0 58.13 14.3816 836 102.788 1153.08 534.879
1198 0 59.092 13.9274 823 106.638 1155.67 534.722
1199 0 64.1112 13.3362 855 106.592 1158.16 534.938
1200 0 64.0807 14.5754 934 106.433 1160.19 531.769
1201 0 70.1537 15.5801 1093 102.888 1161.67 531.839
1202 0 70.1275 14.7731 1036 105.271 1161.64 532.262
1203 0 74.1622 15.6144 1158 105.417 1162.17 532.844
1204 0 78.2342 17.3581 1358 102.219 1161.49 531.522
1205 0 80.1783 16.2388 1302 105.534 1160.48 530.392
1206 0 83.2293 14.0575 1170 110.767 1159.29 530.993
1207 1 41.0292 11.3578 466 114.582 1158.69 551.871
1208 0 44.0455 13.0093 573 113.674 1155.66 549.812
1209 0 45.0519 12.8075 577 114.847 1153.65 549.964
1210 0 48.0592 14.066 676 112.432 1150.9 549.904
1211 0 49.0587 14.5948 716 110.726 1148.11 548.507
1212 0 50.118 13.9471 699 114.167 1147.71 545.741
1213 0 53.0591 15.7183 834 108.457 1144.99 544.532
1214 0 55.08 14.2701 786 111.953 1143.44 543.626
1215 0 58.0578 15.0023 871 108.993 1142.73 541.984
1216 0 58.0969 14.5447 845 112.321 1140.61 537.888
1217 0 59.0785 14.6923 868 113.206 1140.87 536.063
1218 0 62.0412 14.8289 920 112.876 1139.94 532.69
1219 0 64.213 16.1027 1034 109.673 1140.53 531.337
1220 0 67.1678 15.0816 1013 112.503 1140.43 530.661
1221 0 67.0746 14.4615 970 117.003 1140.95 527.649
1222 0 71.1606 15.4861 1102 113.926 1140.23 526.23
1223 0 72.0829 14.6498 1056 117.749 1141.39 524.147
1224 0 76.1629 14.7185 1121 117.308 1143.45 524.663
1225 0 79.3173 14.6626 1163 117.838 1144.65 522.332
1226 0 82.2292 15.5906 1282 114.571 1145.98 522.104
1227 0 84.1006 15.6598 1317 115.845 1148.86 520.709
1228 1 48.0475 10.3856 499 125.257 1151.61 538.048
1229 0 47.0478 10.9038 513 121.684 1154.37 538.634
1230 0 49.1046 10.4267 512 125.324 1157.86 538.025
1231 0 51.1583 13.6635 699 118.983 1160.4 536.741
1232 0 52.1587 12.8838 672 121.007 1162.21 538.234
1233 0 53.1361 13.8889 738 119.31 1163.39 536.642
1234 0 53.1361 13.8136 734 162.136 1165.4 536.649
1235 0 59.166 14.8227 877 116.413 1164.46 535.561
1236 0 62.0858 14.8343 921 115.482 1164.14 537.166
1237 0 64.0256 14.1974 909 117.734 1162.45 537.22
1238 0 67.1099 14.4986 973 115.545 1161.92 535.819
1239 0 69.0784 14.3171 989 116.404 1160.62 536.813
1240 0 73.0818 15.4621 1130 113.541 1157.65 534.604
1241 0 74.1387 15.7003 1164 114.675 1156.19 533.297
1242 0 78.0778 15.0107 1172 115.368 1153.52 532.993
1243 0 80.1267 14.839 1189 115.056 1151.9 531.675
1244 0 85.1522 15.0906 1285 114.153 1150.23 528.906
1245 1 44.1298 11.4662 506 118.227 1149.44 544.314
1246 0 45.1271 10.0826 455 114.209 1148.49 547.211
1247 0 46.1183 10.7116 494 113.123 1146.55 544.905
1248 0 45.1695 10.516 475 107.499 1144.68 540.503
1249 0 48.0905 10.5218 506 105.866 1144.46 542.913
1250 0 51.1003 13.0136 665 107.668 1142.96 538.023
1251 0 51.0665 12.4152 634 106.27 1142.45 536.582
1252 0 55.1046 14.2093 783 101.936 1141.96 535.158
1253 0 56.1384 13.5023 758 103.813 1142.74 532.522
1254 0 59.161 14.3507 849 102.852 1142.35 530.739
1255 0 59.2064 14.745 873 103.23 1142.95 528.995
1256 0 62.0463 14.0701 873 102.19 1142.41 526.211
1257 0 65.1009 14.9153 971 100.963 1145.04 525.402
1258 0 67.1749 15.3778 1033 100.623 1147.08 523.666
1259 0 69.1965 15.4921 1072 100.05 1148.89 524.289
1260 0 73.0972 15.6367 1143 97.4838 1150.64 523.366
1261 0 72.1053 14.2015 1024 97.4971 1153.58 519.851
1262 0 76.0747 15.0116 1142 93.2662 1156.5 520.451
1263 0 78.1884 14.1581 1107 95.1491 1159.07 522.494
1264 0 81.2268 13.2961 1080 97.0194 1160.96 520.722
1265 0 86.183 15.177 1308 92.0038 1163.16 519.719
1266 0 87.159 14.2383 1241 95.6463 1164.23 517.349
1267 0 92.1837 15.2522 1406 93.5156 1164.81 519.071
1268 0 96.1693 15.7951 1519 92.106 1164.13 521.006
1269 0 98.2414 14.1997 1395 96.4215 1163.32 518.93
1270 0 104.181 15.3867 1603 92.4847 1162.05 518.8
1271 1 54.1481 10.7114 580 98.3017 1161.19 542.614
1272 0 58.0706 13.1564 764 94.9699 1160.25 539.374
1273 0 60.1758 13.7431 827 94.2237 1157.94 539.453
1274 0 61.1266 14.2 868 94.4839 1155.81 538.484
1275 0 64.1822 14.1005 905 93.6862 1153.56 537.473
1276 0 66.0708 13.0769 864 94.3935 1150.06 537.243
1277 0 67.1477 13.0756 878 92.5615 1149.09 531.658
1278 0 69.0827 12.2896 849 93.9388 1147.7 529.016
1279 0 73.0736 12.6995 928 93.43 1147.72 527.768
1280 0 77.1913 13.5508 1046 91.4598 1145.59 525.878
1281 0 80.1287 12.7919 1025 93.6566 1144.88 527.79
1282 0 83.0916 14.4419 1200 93.3517 1144.32 522.904
1283 0 87.1778 15.3365 1337 90.2962 1142.94 520.383
1284 1 43.2152 10.4824 453 96.8918 1142.91 540.585
1285 0 46.0878 11.0658 510 94.2353 1142.58 539.778
1286 0 47.042 10.8626 511 96.2779 1141.61 536.286
1287 0 50.0259 11.0143 551 95.4828 1142.04 535.41
1288 0 50.1237 10.3544 519 95.7803 1140.53 531.254
1289 0 52.0303 12.6273 657 92.9026 1144.23 531.446
1290 0 53.0686 12.286 652 93.319 1146.39 530.301
1291 0 54.0948 12.1268 656 94.4345 1146.4 527.634
1292 0 56.0878 13.0866 734 90.0027 1149.92 525.159
1293 0 58.0417 13.6454 792 92.1806 1151.8 526.799
1294 0 58.0825 13.9285 809 92.3832 1154.81 528.967
1295 0 61.1051 13.3868 818 92.5599 1157.87 527.216
1296 0 64.0634 14.5325 931 91.2342 1159.18 524.639
1297 0 68.1635 14.5532 992 90.6452 1162.74 525.243
1298 0 70.1601 14.2674 1001 91.1858 1164.37 526.156
1299 0 74.3088 15.9604 1186 87.8929 1164.95 523.469
1300 0 76.2619 14.2535 1087 93.4655 1164.88 526.36
1301 0 80.2502 16.1246 1294 90.0943 1164.26 525.868
1302 0 86.2129 14.8122 1277 98.6625 1160.33 523.901
1303 0 89.3118 15.5747 1391 97.7728 1159.02 523.499
1304 0 91.2797 14.0776 1285 102.179 1156.93 522.532
1305 0 94.2216 15.4211 1453 100.077 1154.8 519.495
1306 0 98.2962 14.9548 1470 101.229 1153 518.803
1307 0 100.46 15.5783 1565 100.458 1150.59 513.454
1308 0 104.533 15.4974 1620 100.375 1149.8 511.37
1309 1 57.3506 11.3512 651 100.69 1148.42 537.2
1310 0 59.4242 11.6787 694 99.4121 1148.24 536.869
1311 0 62.1482 12.6794 788 95.7741 1146.4 536.24
1312 0 65.1929 13.0996 854 96.8056 1145.3 531.984
1313 0 71.2563 13.8935 990 100.587 1141.47 526.654
1314 0 73.2394 14.1454 1036 101.869 1140.72 522.094
1315 0 75.4089 15.1043 1139 100.067 1141.2 520.25
1316 0 75.4 14.0981 1063 102.123 1140.78 518.851
1317 0 79.3516 14.4673 1148 100.259 1141.25 515.037
1318 0 80.3045 13.3741 1074 102.342 1141.02 515.853
1319 0 85.297 14.2444 1215 100.733 1142.63 515.543
1320 0 90.4054 14.5235 1313 98.4912 1144.06 513.502
1321 0 90.2721 13.8359 1249 102.214 1145.08 511.519
1322 1 49.2523 8.52752 420 105.274 1148.8 534.421
1323 0 51.2123 9.93903 509 102.566 1151.41 535.532
1324 0 51.1907 9.02507 462 106.92 1153.55 533.071
1325 0 54.1785 11.3698 616 102.687 1156.29 533.881
1326 0 58.087 11.3795 661 100.216 1157.78 535.552
1327 0 57.0307 11.0642 631 94.3899 1158.63 530.753
1328 0 60.1467 11.2891 679 93.3991 1159.73 533.801
1329 0 63.0586 12.8452 810 88.3914 1160.05 533.549
1330 0 65.1533 11.5113 750 92.4093 1159.47 534.241
1331 0 68.129 12.6084 859 90.7753 1158.84 535.597
1332 0 70.1972 12.6928 891 91.6723 1156.97 534.878
1333 0 74.1795 12.6046 935 91.493 1155.22 533.836
1334 0 76.1817 12.5227 954 91.5839 1153.75 532.665
1335 0 79.2369 12.8602 1019 91.0461 1152.34 533.44
1336 0 81.0791 13.8877 1126 92.3792 1148.65 532.395
1337 0 82.2258 11.2495 925 98.147 1147.2 529.425
1338 1 50.1112 9.71839 487 89.7515 1145.33 551.48
1339 0 47.0873 8.34621 393 93.8702 1142.9 554.351
1340 0 49.027 9.48458 465 96.3355 1141.3 554.254
1341 0 52.0166 11.4771 597 92.9765 1138.51 549.173
1342 0 54.0801 10.8358 586 94.07 1138.48 551.514
1343 0 56.0407 11.9199 668 94.0808 1135.79 544.789
1344 0 56.1093 12.8321 720 93.4389 1135.01 545.467
1345 0 56.1198 12.8119 719 127.897 1132.01 545.35
1346 0 59.155 12.0193 711 99.3882 1135.98 541.958
1347 0 64.0978 13.0426 836 95.8553 1135.78 544.596
1348 0 65.1184 12.7614 831 98.9446 1135.98 539.549
1349 0 65.1959 12.8229 836 100.74 1135.92 537.145
1350 0 69.0848 14.142 977 96.9079 1136.76 535.181
1351 0 69.2297 12.4657 863 101.906 1137.82 534.125
1352 0 70.1409 12.1755 854 102.998 1138.66 531.712
1353 0 76.1942 13.3081 1014 98.5917 1139.99 531.265
1354 0 78.3221 13.2147 1035 99.7159 1143.03 529.387
1355 0 79.2016 13.7371 1088 99.148 1144.64 529.261
1356 1 41.092 7.95775 327 104.529 1148.27 549.138
1357 0 44.29 9.88937 438 100.801 1149.46 548.21
1358 0 42.1924 8.69824 367 103.673 1152.88 547.286
1359 0 48.1248 9.97406 480 100.306 1154.57 548.017
1360 0 49.1862 12.3002 605 95.8281 1154.8 549.526
1361 0 49.2514 10.4363 514 102.158 1156.36 547.965
1362 0 51.3077 12.922 663 98.6652 1156.86 543.91
1363 0 52.326 12.6323 661 99.2057 1155.75 545.874
1364 0 53.0798 13.1123 696 97.0848 1156.42 548.205
1365 0 57.0717 13.5444 773 94.3596 1155.79 549.59
1366 0 58.091 13.8748 806 95.8499 1153.45 549.154
1367 0 60.1792 13.7257 826 96.0145 1152.3 547.958
1368 0 63.1398 13.6364 861 97.2613 1149.7 548.741
1369 0 66.1586 14.3443 949 94.8525 1146.25 548.889
1370 0 66.1369 15.4377 1021 93.5798 1143.28 548.004
1371 0 69.132 14.1613 979 96.5015 1141.05 544.568
1372 0 70.1253 13.3903 939 98.8477 1139.77 542.42
1373 0 74.2011 16.2936 1209 92.1787 1138.33 541.76
1374 1 37.0245 10.0204 371 100.868 1137.74 559.391
1375 0 42.0495 10.2498 431 98.8051 1135.83 558.988
1376 0 41.0273 10.1396 416 101.387 1134.69 557.221
1377 0 42.0473 11.059 465 100.095 1134.53 556.316
1378 0 41.0685 11.4199 469 101.443 1134.6 551.083
1379 0 43.048 12.2886 529 98.3913 1134.16 548.612
1380 0 45.1377 12.3843 559 89.8408 1134.27 542.991
1381 0 44.1429 12.3689 546 92.0476 1134.77 542.141
1382 0 48.1234 12.364 595 91.7563 1137.02 540.785
1383 0 48.1688 13.079 630 89.8683 1137.99 541.835
1384 0 49.1427 11.7617 578 92.0294 1139.98 541.073
1385 0 51.0763 12.4715 637 90.4584 1141.79 538.257
1386 0 52.1315 12.7178 663 90.2383 1143.71 539.376
1387 0 53.2307 13.3945 713 89.4123 1146.06 537.47
1388 0 56.1882 13.3836 752 88.8936 1149.22 537.33
1389 0 56.1889 13.7394 772 89.079 1150.9 537.205
1390 0 60.096 13.8944 835 88.0335 1153.62 537.375
1391 0 58.122 11.7339 682 92.9663 1154.48 537.211
1392 0 64.114 13.4916 865 85.0613 1154.95 537.343
1393 0 67.0816 14.1022 946 84.2526 1156.98 538.574
1394 0 68.1238 12.4333 847 87.8583 1156.84 537.194
1395 0 72.0725 14.0275 1011 85.456 1155.6 535.642
1396 0 80.583 17.423 1404 61.2279 1154.26 542.785
1397 0 78.0756 13.3716 1044 86.9521 1152.78 535.534
1398 0 80.0553 12.4789 999 89.2633 1150.97 535.428
1399 1 45.0683 9.4967 428 91.715 1149.37 553.187
1400 0 45.1698 8.8112 398 92.6709 1146.78 555.844
1401 0 48.0188 11.9953 576 93.0017 1144.82 555.832
1402 0 49.0418 12.0917 593 93.2749 1142.63 554.784
1403 0 51.0566 12.7506 651 90.6974 1140.14 553.853
1404 0 52.124 12.9691 676 92.3003 1138.83 550.593
1405 0 55.0499 14.1871 781 87.105 1138.01 548.667
1406 0 57.0708 13.3694 763 88.882 1137.07 549.109
1407 0 58.0302 13.7859 800 87.9287 1135.58 545.122
1408 0 61.0838 14.1609 865 87.6613 1134.51 544.898
1409 0 63.1755 14.7209 930 87.4516 1133.72 540.585
1410 0 65.0962 13.3188 867 90.331 1133 541.719
1411 0 65.1137 13.6838 891 91.4444 1133.34 539.2
1412 0 69.1461 14.332 991 90.5469 1133.38 538.123
1413 0 69.2045 13.6407 944 91.661 1135.33 536.688
1414 0 74.1267 14.2324 1055 90.8408 1136.81 533.89
1415 1 39.0382 12.2444 478 91.5356 1139.09 553.617
1416 0 41.0419 11.3542 466 95.2682 1139.54 553.06
1417 0 40.0083 11.7226 469 94.9829 1142.77 551.552
1418 0 41.1393 10.744 442 97.6312 1145.17 554.839
1419 0 43.2247 10.9197 472 98.5572 1148.72 552.146
1420 0 45.2202 12.1185 548 94.6369 1151.41 552.989
1421 0 45.1468 11.5623 522 98.0939 1152.57 553.716
1422 0 49.1097 14.7425 724 93.9572 1153.45 554.128
1423 0 49.3023 13.2448 653 95.7044 1154.49 556.063
1424 0 52.1524 14.4768 755 92.3073 1154.65 554.935
1425 0 54.1511 13.5916 736 95.0068 1155.28 556.261
1426 0 58.0419 15.6094 906 90.4757 1153.79 556.205
1427 0 59.1099 15.9364 942 90.6327 1150.81 556.714
1428 0 63.1571 14.4718 914 95.4956 1149.09 556.591
1429 0 63.111 14.5458 918 94.6656 1146.05 554.247
1430 0 67.1683 14.754 991 94.3835 1144.49 553.885
1431 0 69.1599 15.0665 1042 94.5509 1142.48 551.56
1432 0 72.3158 13.8835 1004 97.3865 1139.67 549.68
1433 0 74.3001 14.1319 1050 99.2371 1138.09 550.73
1434 0 77.1008 14.3578 1107 99.6947 1135.96 547.053
1435 1 41.1924 11.1185 458 102.286 1134.61 559.1
1436 0 43.2236 12.1693 526 100.633 1134.01 558.12
1437 0 45.2063 9.68891 438 103.505 1132.35 557.285
1438 0 46.1243 10.927 504 101.002 1131.2 555.698
1439 0 47.4321 12.5653 596 100.56 1131.47 551.049
1440 0 51.1536 14.0166 717 97.0335 1131.29 550.252
1441 0 54.2406 13.7535 746 96.0349 1130.66 547.444
1442 0 54.1473 13.611 737 97.0991 1130.64 544.528
1443 0 56.1053 13.5103 758 96.5383 1131.19 544.091
1444 0 58.288 13.9308 812 95.7389 1132.68 544.202
1445 0 60.1185 14.172 852 96.3533 1133.69 539.322
1446 0 61.1473 15.2419 932 94.2554 1136.22 537.129
1447 0 63.1657 14.0108 885 97.191 1137 537.61
1448 0 67.1984 15.923 1070 92.857 1139.76 537.665
1449 0 68.1598 14.51 989 96.2042 1142.07 536.559
1450 0 69.1229 13.1794 911 100.553 1144.41 536.696
1451 0 70.1447 13.8286 970 100.544 1147.93 534.588
1452 0 74.1947 14.6506 1087 97.7065 1149.47 533.316
1453 0 77.2503 14.1747 1095 98.8447 1151.51 534.502
1454 0 80.1706 14.6064 1171 98.3194 1153.57 533.303
1455 0 82.5494 13.4223 1108 101.523 1153.51 532.202
1456 1 44.2464 11.436 506 103.702 1153.38 549.358
1457 0 43.2901 11.6655 505 102.212 1152.24 551.604
1458 0 46.31 12.3731 573 100.565 1151.12 552.01
1459 0 49.2066 11.3806 560 99.8893 1149.55 553.712
1460 0 51.3733 12.3216 633 99.169 1147.48 551.926
1461 0 53.3027 12.6635 675 98.7926 1145.53 551.695
1462 0 56.0416 12.6335 708 99.0353 1144.22 553.189
1463 0 59.156 13.8278 818 94.0452 1140.65 550.837
1464 0 59.133 12.6494 748 96.4158 1140.29 549.655
1465 0 65.1282 13.8189 900 93.3322 1139.11 549.156
1466 0 65.2136 13.1261 856 96.3493 1137.56 547.752
1467 0 69.1657 14.7327 1019 93.315 1136.69 543.465
1468 0 68.1153 13.3597 910 98.3132 1136.19 538.368
1469 0 74.0627 13.9611 1034 96.7785 1134.89 537.893
1470 0 74.1716 12.8486 953 99.7671 1134.8 537.773
1471 0 80.1275 14.5892 1169 96.1916 1134.15 536.426
1472 0 83.1659 14.0683 1170 96.9624 1134.93 532.453
1473 0 83.0928 14.4417 1200 98.0258 1135.4 528.263
1474 0 87.1264 14.6569 1277 97.6594 1135.88 525.269
1475 0 90.2767 13.802 1246 100.058 1136.28 525.65
1476 0 92.1982 14.3604 1324 100.606 1138.81 524.97
1477 1 46.0423 10.6207 489 103.783 1141.25 546.644
1478 0 47.0591 8.64869 407 104.803 1142.61 549.971
1479 0 50.0272 9.99456 500 103.912 1144.64 547.046
1480 0 55.117 9.99691 551 103.169 1146.59 546.94
1481 0 54.0624 11.4497 619 101.611 1149.64 547.628
1482 0 57.0947 13.1886 753 102.215 1151.57 544.672
1483 0 63.1801 13.7227 867 98.5513 1151.24 545.67
1484 0 64.1546 13.2025 847 101.189 1152.73 545.268
1485 0 62.1196 12.2828 763 105.721 1153.93 542.754
1486 0 67.1023 14.5152 974 100.857 1153.41 544.915
1487 0 70.1737 13.0676 917 103.033 1151.66 545.284
1488 0 74.2284 13.8626 1029 102.164 1150.85 543.919
1489 0 75.1927 13.4588 1012 104.006 1149.29 544.263
1490 0 80.1488 13.7369 1101 102.044 1147.29 545.353
1491 0 85.2168 15.0792 1285 98.9588 1145.58 544.209
1492 0 85.1183 12.2535 1043 99.8543 1143.94 546.052
1493 1 47.1152 10.4425 492 95.7744 1139.67 566.888
1494 0 49.0688 10.7604 528 100.712 1138.61 563.216
1495 0 53.0843 12.0563 640 100.537 1137.54 562.706
1496 0 56.1997 14.0392 789 96.5399 1135.25 560.378
1497 0 55.1052 13.8462 763 97.3866 1133.11 558.45
1498 0 60.0485 15.9871 960 92.7906 1131.65 556.086
1499 0 61.051 14.103 861 95.4785 1131.06 553.891
1500 0 61.1325 13.2826 812 97.947 1130.54 553.691
1501 0 63.0648 12.9708 818 98.4572 1129.28 551.924
1502 0 65.0727 13.2621 863 97.6767 1128.99 546
1503 0 68.1149 13.0221 887 98.0417 1129.12 542.311
1504 0 70.1387 13.3307 935 98.0791 1129.19 542.889
1505 0 72.1118 13.5761 979 97.5046 1130.53 539.61
1506 0 77.3342 15.1938 1175 93.0443 1132.57 537.98
1507 0 80.1627 14.5329 1165 94.6309 1132.96 534.458
1508 0 82.1434 13.0503 1072 97.5261 1134.74 533.836
1509 1 44.0172 8.95106 394 98.9162 1137.03 554.063
1510 0 46.0986 9.80507 452 95.9314 1138.71 551.803
1511 0 48.0156 11.1839 537 94.5084 1142.24 552.924
1512 0 48.0513 9.98933 480 97.1667 1144.64 552.373
1513 0 49.0967 12.2208 600 98.0733 1146.52 549.182
1514 0 50.065 10.8259 542 99.0387 1148.94 548.795
1515 0 52.0629 11.3324 590 97.978 1151.41 548.497
1516 0 55.1282 11.827 652 98.1288 1151.34 550.113
1517 0 57.0357 13.7458 784 95.9375 1152.35 548.846
1518 0 58.0856 13.8589 805 95.0099 1151.75 548.682
1519 0 58.1747 12.7719 743 98.393 1150.81 547.631
1520 0 62.2043 12.3947 771 98.6783 1150.22 546.451
1521 0 63.0785 12.6192 796 98.5616 1148.03 546.011
1522 0 66.319 13.2993 882 102.693 1147.2 544.831
1523 0 70.2099 13.9724 981 100.554 1144.28 546.732
1524 0 73.2332 15.2526 1117 98.9373 1143.13 545.38
1525 0 75.2055 13.4831 1014 103.523 1141 544.314
1526 0 80.3837 14.1447 1137 101.838 1139.2 540.129
1527 0 81.1365 13.237 1074 105.909 1137.88 539.585
1528 0 85.1607 14.6781 1250 102.835 1136.43 538.773
1529 0 85.1782 13.7124 1168 106.796 1134.16 534.416
1530 1 47.058 9.35016 440 109.014 1132.22 555.459
1531 0 47.1888 9.38783 443 108.919 1131.49 556.108
1532 0 47.0609 10.5183 495 108.473 1130.75 551.556
1533 0 50.1229 11.1326 558 107.462 1130.56 549.102
1534 0 54.0882 12.7384 689 100.775 1130.78 549.554
1535 0 55.1224 12.3725 682 100.405 1131.28 546.708
1536 0 57.0706 13.3168 760 93.6474 1132.23 546.197
1537 0 58.0482 14.109 819 94.0916 1132.63 545.186
1538 0 59.1067 12.3505 730 102.163 1134.3 543.534
1539 0 62.0272 13.5747 842 99.1508 1137.18 542.789
1540 0 61.0697 13.46 822 100.685 1138.97 538.735
1541 0 66.0833 13.6343 901 98.5205 1142.06 541.547
1542 0 68.0842 14.6143 995 97.1668 1144.74 542.104
1543 0 69.0873 13.3454 922 99.7711 1147.06 539.292
1544 0 72.0825 15.2048 1096 96.0876 1149.11 537.429
1545 0 74.1805 15.314 1136 93.2421 1151.98 535.759
1546 0 78.156 15.4946 1211 92.5954 1152.98 535.253
1547 0 77.0676 13.1832 1016 98.4016 1154.3 534.82
1548 0 82.1083 13.6527 1121 97.7413 1153.4 536.877
1549 0 85.2616 14.1213 1204 98.1661 1152.44 535.198
1550 0 88.0996 13.7912 1215 100.155 1150.43 535.691
1551 1 43.2547 9.94112 430 99.7907 1150.8 561.458
1552 0 46.2779 10.3505 479 100.593 1147.18 558.392
1553 0 47.3348 9.92928 470 101.134 1145.48 557.566
1554 0 51.1269 11.3443 580 97.9 1143.67 560.778
1555 0 54.0521 11.5444 624 100.038 1141.64 558.2
1556 0 54.2091 13.8538 751 95.7989 1139.79 556.754
1557 0 57.1739 12.4707 713 98.7125 1138.21 555.882
1558 0 58.1206 12.6633 736 98.5652 1137.11 554.732
1559 0 63.1818 13.3266 842 96.0024 1135.88 553.067
1560 0 62.1577 12.9992 808 97.9715 1134.45 548.973
1561 0 65.2529 12.7504 832 97.3654 1133.04 547.989
1562 0 68.1471 12.7518 869 97.1726 1132.35 547.197
1563 0 71.2843 13.7618 981 94.842 1131.96 545.679
1564 0 73.1416 13.5217 989 95.5379 1131.26 543.473
1565 1 37.0457 9.09687 337 103.955 1131.65 554.982
1566 0 42.0302 10.8018 454 97.2137 1132.74 556.326
1567 0 42.0403 10.4899 441 98.4286 1133.66 554.036
1568 0 44.1711 10.2782 454 97.9251 1135.09 553.833
1569 0 47.1044 11.6125 547 95.7879 1135.06 551.554
1570 0 47.1173 12.8827 607 93.4053 1137.51 549.817
1571 0 48.0128 12.5175 601 95.6073 1140.37 547.213
1572 0 51.0481 13.3795 683 89.5534 1141.88 548.507
1573 0 50.2006 12.8086 643 91.9627 1143.75 549.367
1574 0 51.0522 12.262 626 94.6358 1147.9 549.206
1575 0 53.0675 13.3227 707 94.6846 1149.59 547.72
1576 0 57.0785 12.7894 730 94.2712 1150.72 547.055
1577 0 58.0878 13.1353 763 93.9227 1152.32 546.759
1578 0 60.1278 14.6355 880 91.7227 1153.18 547.627
1579 0 62.1484 13.0333 810 95.4827 1152.88 547.57
1580 0 65.1122 13.8991 905 94.7414 1152.98 548.577
1581 0 67.1087 14.5585 977 94.2395 1152.69 548.909
1582 0 70.1672 14.0949 989 96.6876 1149.63 545.817
1583 0 72.3289 14.6276 1058 96.586 1148.22 545.008
1584 0 74.3649 13.9985 1041 97.9769 1147.07 543.974
1585 0 78.2277 15.391 1204 99.0183 1144.53 542.979
1586 0 81.2099 13.9515 1133 99.3407 1142.12 541.459
1587 0 85.1775 13.8769 1182 99.3545 1140.02 539.519
1588 1 49.0223 11.1174 545 97.7229 1139.03 558.176
1589 0 48.2153 10.1835 491 97.4379 1135.81 557.739
1590 0 45.1093 9.55458 431 99.3828 1134.61 558.114
1591 0 50.1289 9.95434 499 98.1864 1133.33 555.455
1592 0 51.1719 11.6666 597 97.0452 1133.62 552.129
1593 0 52.0598 11.8518 617 97.4344 1131.55 551.057
1594 0 56.1031 13.8317 776 94.6972 1132.92 549.742
1595 0 56.0823 12.7313 714 97.4328 1133.18 544.119
1596 0 57.1402 12.9331 739 97.2544 1133.85 543.368
1597 0 59.0755 13.3558 789 97.5057 1133.94 541.414
1598 0 62.1707 13.4147 834 96.1295 1136.04 543.335
1599 0 62.1213 12.8941 801 98.603 1136.3 538.205
1600 0 65.0797 12.9687 844 99.0249 1138.39 539.601
1601 0 67.0609 13.6891 918 96.7821 1141.9 539.001
1602 0 70.1528 14.6822 1030 94.0893 1143.87 539.07
1603 0 72.0954 15.1882 1095 94.3644 1145.64 536.046
1604 0 71.0425 12.7811 908 99.7676 1148.59 538.295
1605 0 75.0521 14.883 1117 96.3062 1151.99 535.171
1606 0 77.1225 13.8222 1066 98.8236 1153.51 537.408
1607 0 81.0902 13.7008 1111 98.8992 1155.29 536.497
1608 0 84.11 14.3978 1211 96.9265 1156.55 537.464
1609 0 87.2196 14.217 1240 98.154 1156.29 536.035
1610 1 44.0517 8.62624 380 103.513 1155.08 558.237
1611 0 49.035 10.6454 522 100.04 1153.48 556.661
1612 0 52.0946 10.2698 535 98.6037 1152.84 557.14
1613 0 53.0755 11.8322 628 97.0701 1150.55 556.478
1614 0 54.0539 12.025 650 96.6692 1148.39 555.529
1615 0 57.1697 11.6145 664 97.1295 1145.66 553.461
1616 0 58.2835 11.9931 699 98.3634 1143.05 549.931
1617 0 62.2078 13.7603 856 93.5759 1142.08 551.107
1618 0 64.1306 12.5993 808 97.0668 1141.19 549.384
1619 0 66.1703 12.6794 839 97.9857 1139.29 548.478
1620 0 70.1235 14.888 1044 93.408 1139.07 546.251
1621 0 71.1151 12.8946 917 99.5442 1137.28 543.21
1622 0 72.1108 13.1464 948 100.238 1136.2 542.505
1623 1 38.0188 8.62731 328 105.424 1134.91 559.811
1624 0 39.0192 10.3283 403 104.734 1133.99 555.6
1625 0 41.0137 10.3868 426 103.847 1133.59 553.397
1626 0 41.0597 10.2777 422 106.242 1133.85 551.211
1627 0 44.0693 11.0054 485 102.786 1134.38 550.961
1628 0 45.0255 10.9716 494 106.569 1134.33 546.628
1629 0 49.0712 13.3072 653 100.594 1135.34 548.727
1630 0 48.1043 12.5976 606 104.233 1137.48 546.847
1631 0 50.1176 12.9096 647 101.549 1138.43 540.971
1632 0 53.0862 13.6194 723 100.165 1140.4 542.505
1633 0 51.1626 13.1737 674 102.507 1143.34 541.932
1634 0 54.1462 13.5374 733 102.151 1144.85 541.196
1635 0 54.0816 12.5181 677 105.204 1148.22 543.573
1636 0 56.0573 14.0749 789 103.328 1152.23 543.946
1637 0 59.0965 13.2664 784 103.518 1155.56 545.832
1638 0 63.0829 14.1084 890 103.263 1155.75 546.213
1639 0 65.1718 16.4335 1071 97.8982 1155.45 545.812
1640 0 65.1205 14.4962 944 104.211 1155.58 545.327
1641 0 67.0992 13.711 920 107.296 1155.59 544.99
1642 0 71.0622 14.2551 1013 106.723 1154.07 545.149
1643 0 75.1213 15.0157 1128 104.486 1152 545.356
1644 0 79.1467 14.9722 1185 104.205 1149.88 544.407
1645 0 83.1957 15.2893 1272 104.031 1147.22 542.52
1646 0 83.1511 14.8405 1234 106.7 1145.62 541.963
1647 0 89.2833 16.1508 1442 103.218 1143.47 542.526
1648 1 47.1609 11.0897 523 110.713 1141.98 559.665
1649 0 50.1954 11.0767 556 108.081 1139.97 558.728
1650 0 48.2182 11.3857 549 108.829 1137.9 555.978
1651 0 53.0665 12.946 687 104.766 1136.91 555.262
1652 0 55.0331 13.1739 725 107.957 1136.52 552.032
1653 0 55.0613 12.7857 704 105.246 1134.77 551.477
1654 0 56.0683 13.0377 731 105.631 1133.57 551.317
1655 0 59.1903 13.9719 827 103.135 1132.24 548.568
1656 0 60.1524 14.2472 857 103.769 1132.74 546.154
1657 0 61.1209 13.1379 803 108.049 1132.33 542.426
1658 0 64.1885 14.0212 900 105.334 1133.4 538.797
1659 0 66.1956 13.7622 911 106.342 1134.41 537.677
1660 0 67.1632 13.8915 933 107.686 1134.85 536.534
1661 0 72.4127 14.7074 1065 103.796 1137.96 537.054
1662 0 73.1192 13.7994 1009 107.326 1139.24 533.901
1663 0 75.3148 13.7025 1032 107.756 1141.71 532.259
1664 1 43.0527 10.0342 432 106.981 1144.42 551.644
1665 0 43.0334 11.7583 506 108.291 1147.16 551.407
1666 0 45.0725 10.2945 464 107.556 1150.31 550.733
1667 0 46.051 10.7055 493 107.7 1152.23 551.4
1668 0 45.0614 11.1847 504 108.488 1152.84 552.665
1669 0 49.0862 12.0197 590 105.397 1154.5 549.932
1670 0 48.1352 10.3251 497 105.292 1155.05 549.579
1671 0 52.1262 13.122 684 102.088 1155.08 548.912
1672 0 54.3424 13.6726 743 99.0148 1154.45 548.552
1673 0 56.2933 14.0869 793 97.372 1152.24 547.827
1674 0 58.1579 12.5864 732 102.005 1150.89 546.551
1675 0 58.1205 12.9903 755 100.796 1148.74 551.872
1676 0 61.1941 13.8412 847 99.2562 1146.37 549.623
1677 0 64.0841 14.0753 902 97.5809 1144.88 551.364
1678 0 64.156 13.1087 841 101.434 1142.97 546.983
1679 0 69.1641 14.8343 1026 96.7018 1140.8 545.686
1680 0 70.21 13.3029 934 98.5771 1139.68 545.382
1681 0 69.239 12.0163 832 101.025 1138.34 539.911
1682 0 73.268 13.0343 955 98.1864 1137.02 538.933
1683 1 41.2015 10.7278 442 93.2308 1135.82 556.828
1684 0 40.0443 9.53944 382 97.4764 1134.88 555.503
1685 0 40.0883 10.9508 439 95.9658 1133.88 555.549
1686 0 41.1799 10.782 444 96.1982 1133.81 554.689
1687 0 44.1687 12.3617 546 93.5879 1134.01 551.374
1688 0 47.127 13.1772 621 91.1771 1134.69 549.108
1689 0 48.1744 12.9944 626 91.8227 1137.21 545.618
1690 0 50.2111 13.9212 699 88.1559 1136.98 544.996
1691 0 51.2588 13.188 676 90.5976 1139.01 544.21
1692 0 53.1722 13.5785 722 90.5042 1140.72 543.981
1693 0 56.3195 13.1216 739 89.7334 1143.06 543.032
1694 0 56.2549 12.6211 710 92.0915 1145.4 541.555
1695 0 58.275 13.7967 804 90.2861 1148.48 542.075
1696 0 60.1644 13.0143 783 92.7586 1151.11 541.221
1697 0 62.2816 13.0536 813 92.3419 1154.08 542.018
1698 0 62.3089 12.7269 793 94.9672 1155.46 540.752
1699 0 66.235 13.4823 893 93.2296 1156.5 540.468
1700 0 68.3001 14.5241 992 91.1815 1157.42 540.586
1701 0 71.309 14.2198 1014 91.6529 1157.67 541.653
1702 0 71.3443 12.9653 925 96.52 1156.8 539.864
1703 0 76.1829 13.2313 1008 95.6726 1155.9 540.264
1704 0 78.2714 13.6576 1069 96.4434 1153.7 539.564
1705 0 80.3683 12.2187 982 99.6762 1152.44 539.512
1706 0 84.2958 13.2628 1118 98.6601 1149.89 537.552
1707 1 44.0254 10.8801 479 97.4154 1147.95 561.491
1708 0 46.0732 10.6136 489 96.5174 1144.81 555.757
1709 0 48.0756 9.44347 454 99.0551 1142.18 555.181
1710 0 49.1939 12.2779 604 98.2831 1141.77 551.132
1711 0 53.2986 13.7715 734 95.2193 1140.04 552.559
1712 0 56.2058 14.3046 804 95.3756 1140.63 552.402
1713 0 57.1382 13.4061 766 97.688 1138.72 552.778
1714 0 57.2005 13.5313 774 98.5065 1137.84 549.93
1715 0 59.0968 14.417 852 97.4589 1137.24 548.358
1716 0 61.1562 14.2422 871 98.3249 1136.65 545.789
1717 0 63.2157 14.1579 895 99.8916 1135.84 540.876
1718 0 67.3294 14.1989 956 99.1632 1135.72 539.786
1719 0 69.3841 14.4269 1001 99.3576 1135.97 536.45
1720 0 69.3914 14.4398 1002 101.808 1136.68 534.46
1721 0 75.4123 16.6551 1256 96.758 1137.77 532.973
1722 1 42.1395 11.4145 481 96.9543 1138.37 547.958
1723 0 44.2007 10.5202 465 98.9871 1139.38 547.058
1724 0 45.2388 11.4283 517 97.8259 1141.63 547.838
1725 0 47.2162 13.1311 620 95.5581 1144.46 546.447
1726 0 48.0786 11.0444 531 99.7156 1147.44 547.202
1727 0 50.0985 12.5952 631 98.3899 1149.12 547.113
1728 0 51.1045 13.4039 685 101.714 1153.99 548.353
1729 0 54.0479 12.9515 700 103.591 1156.42 549.454
1730 0 53.0584 13.2495 703 103.831 1157.48 550.161
1731 0 57.1857 14.8464 849 100.775 1157.92 550.782
1732 0 56.1283 13.968 784 104.355 1157.84 547.805
1733 0 61.0677 15.0816 921 102.091 1156.59 549.972
1734 0 60.1024 14.6916 883 104.819 1155.56 548.946
1735 0 65.2163 16.499 1076 99.1719 1154.07 549.148
1736 0 68.1379 15.454 1053 102.759 1151.59 546.816
1737 0 70.1114 14.7908 1037 104.638 1150.04 546.092
1738 1 38.0322 8.83461 336 111.357 1147.37 563.705
1739 0 37.0488 9.93286 368 113.582 1145.36 560.834
1740 0 41.2052 10.1686 419 107.919 1144.47 562.785
1741 0 41.1351 11.9606 492 106.22 1142.36 561.612
1742 0 42.0612 12.7909 538 106.013 1140.82 558.796
1743 0 41.0627 10.5936 435 110.345 1139.56 556.214
1744 0 45.0378 13.2111 595 96.916 1136.92 551.292
1745 0 44.0799 12.9084 569 99.7487 1136.24 550.575
1746 0 46.1802 13.7288 634 98.582 1134.96 547.252
1747 0 48.066 12.7741 614 98.7199 1134.47 546.909
1748 0 48.0863 11.521 554 101.944 1134.79 544.303
1749 0 50.1047 12.873 645 98.6047 1135.17 545.029
1750 0 52.089 12.4402 648 100.974 1134.93 541.557
1751 0 54.0627 13.1699 712 98.9972 1136.07 538.152
1752 0 55.0572 12.26 675 99.9111 1137.91 539.883
1753 0 58.052 14.332 832 94.9351 1138.78 541.387
1754 0 59.2415 13.7066 812 95.4901 1140.69 538.384
1755 0 61.1407 12.0869 739 97.7375 1142.74 538.526
1756 0 62.0745 13.3549 829 95.1062 1145.52 536.647
1757 0 65.1208 13.5133 880 93.4455 1148.82 538.62
1758 0 68.0351 13.4195 913 94.2629 1150.8 537.719
1759 0 70.0739 14.6417 1026 92.2281 1153.22 537.013
1760 0 73.0754 13.7666 1006 93.9841 1155.51 537.451
1761 0 76.0304 14.2575 1084 93.5286 1156.32 536.452
1762 0 75.115 13.7789 1035 95.0348 1155.97 534.353
1763 0 80.1238 13.3543 1070 95.4131 1155.36 537.319
1764 0 83.1121 13.921 1157 94.4728 1155.68 534.514
1765 0 87.1036 15.3036 1333 92.1103 1153.51 533.344
1766 1 50.0637 11.3056 566 92.8057 1152.19 555.749
1767 0 47.0706 9.58136 451 96.6164 1150.24 554.153
1768 0 53.0598 9.42333 500 102.552 1148.88 556.56
1769 0 54.1773 11.1117 602 100.339 1146.34 553.173
1770 0 57.1385 11.2884 645 100.033 1143.79 551.857
1771 0 61.1556 12.7544 780 96.3167 1141.91 547.267
1772 0 62.1617 13.9958 870 94.8414 1139.78 547.309
1773 0 65.1118 14.2217 926 92.7916 1139.81 546.33
1774 0 67.1469 14.7885 993 92.999 1137.82 543.425
1775 0 69.068 13.9862 966 95.8913 1136.28 541.063
1776 0 71.1267 14.3266 1019 96.3916 1135.8 538.947
1777 0 75.1112 14.352 1078 96.2328 1135.4 538.577
1778 0 77.2171 13.2872 1026 98.768 1134.67 532.671
1779 0 81.0935 15.8089 1282 93.2137 1134.66 528.697
1780 0 83.114 14.6786 1220 95.923 1135.06 526.3
1781 0 86.0991 14.8782 1281 95.7572 1136.55 527.093
1782 0 87.1501 14.2283 1240 93.3839 1136.74 519.084
1783 0 89.1267 13.1947 1176 96.6429 1137.62 519.027
1784 0 93.1873 15.0664 1404 93.6859 1140.27 520.561
1785 0 95.2361 13.9128 1325 96.2219 1142.36 517.645
1786 0 100.248 14.0452 1408 96.9567 1143.11 516.993
1787 0 100.156 14.4175 1444 98.6898 1145.57 512.342
1788 0 104.224 14.9869 1562 98.1472 1149.69 512.615
1789 0 105.256 13.5575 1427 102.137 1151.12 511.604
1790 0 113.297 14.9606 1695 98.8855 1153.32 511.209
1791 0 118.298 15.444 1827 98.0963 1154.85 511.259
1792 0 120.262 14.4685 1740 101.564 1155.91 510.235
1793 0 128.215 15.2713 1958 100.906 1157.09 508.579
1794 0 131.279 14.3892 1889 104.998 1155.7 509.468
1795 0 138.225 15.4458 2135 103.008 1154.56 507.511
1796 0 146.344 15.4841 2266 103.105 1153.07 506.428
1797 0 150.211 15.2452 2290 104.892 1151.69 505.11
1798 1 79.1311 10.6785 845 105.331 1148.57 540.478
1799 0 84.1298 12.9799 1092 103.786 1146.78 536.693
1800 0 87.0792 13.815 1203 101.782 1144.73 536.431
1801 0 90.0786 15.0313 1354 100.104 1142.71 536.536
1802 0 92.1631 12.7166 1172 102.598 1141.96 534.75
1803 0 95.1806 13.3641 1272 101.55 1141.21 531.812
1804 0 100.259 14.9214 1496 98.4084 1138.99 530.187
1805 0 105.297 14.7203 1550 98.9903 1137.95 523.429
1806 0 107.333 14.3665 1542 102.096 1136.11 522.503
1807 0 110.436 14.6601 1619 107.204 1135.53 521.233
1808 0 115.382 14.881 1717 106.115 1135.47 517.562
1809 0 120.446 15.0441 1812 104.786 1134.33 512.01
1810 0 126.489 14.5783 1844 105.986 1134.38 508.461
1811 0 130.296 15.8178 2061 102.071 1135.05 506.632
1812 1 75.1749 8.65981 651 110.366 1136.15 530.379
1813 0 78.2687 10.0934 790 109.523 1136.94 526.423
1814 0 81.3735 12.7683 1039 104.553 1136.42 522.116
1815 0 83.4082 12.9484 1080 106.981 1138.82 521.958
1816 0 85.2369 12.5415 1069 108.182 1140.36 521.935
1817 0 89.2588 13.8026 1232 105.244 1142.44 519.403
1818 0 93.1745 15.0363 1401 101.48 1145.1 519.344
1819 0 95.371 14.1238 1347 104.624 1148.39 518.857
1820 0 99.2469 13.6024 1350 106.875 1150.01 517.71
1821 0 100.191 13.8835 1391 108.829 1152 514.216
1822 0 104.332 14.3293 1495 107.848 1153.04 515.607
1823 0 107.159 13.2327 1418 110.894 1153.71 511.424
1824 0 113.334 14.5764 1652 108.404 1155.19 515.391
1825 1 59.1768 8.80413 521 110.476 1155.12 543.188
1826 0 66.1546 8.72199 577 111.539 1153.82 540.002
1827 0 67.1614 10.8247 727 108.986 1152.69 542.503
1828 0 70.2167 10.553 741 111.707 1151.56 539.823
1829 0 75.2642 13.2467 997 102.309 1149.51 536.925
1830 0 78.3145 13.2287 1036 105.636 1146.22 535.793
1831 0 81.2197 13.6543 1109 104.77 1143.87 534.396
1832 0 85.2132 13.566 1156 100.531 1142.47 540.244
1833 0 85.3553 12.3835 1057 104.691 1140.69 538.101
1834 0 90.2324 13.4541 1214 101.727 1138.62 534.498
1835 0 93.3932 13.7376 1283 102.489 1137.84 528.298
1836 1 50.2405 11.2061 563 98.5524 1136.6 550.524
1837 0 52.3349 10.7194 561 100.542 1135.21 549.936
1838 0 53.3981 11.0865 592 100.12 1134.05 545.978
1839 0 57.2588 12.5396 718 96.8719 1134.48 544.777
1840 0 59.1933 12.7886 757 97.321 1133.21 541.083
1841 0 62.1511 14.0947 876 92.9326 1133.66 544.925
1842 0 63.2465 13.4079 848 94.9988 1135.53 538.801
1843 0 63.2257 13.4914 853 96.1794 1136.29 537.87
1844 0 65.1537 12.9233 842 98.6069 1136.81 536.698
1845 0 67.1386 12.9583 870 93.8184 1138.39 536.772
1846 0 70.2359 13.7394 965 93.0187 1140.33 536.39
1847 0 74.2383 14.3726 1067 92.0084 1141.55 534.304
1848 0 76.2491 14.3346 1093 93.1235 1143.32 529.2
1849 0 78.4186 14.1421 1109 95.7042 1146.29 526.028
1850 1 40.2065 9.00352 362 99.7044 1147.96 549.84
1851 0 44.1422 10.8513 479 97.6952 1151.06 547.196
1852 0 47.2439 10.5199 497 97.3843 1153.4 547.594
1853 0 48.3508 9.45176 457 98.8731 1154.35 549.455
1854 0 48.3925 12.8326 621 95.7037 1155.12 547.266
1855 0 51.2799 10.862 557 98.1221 1154.43 548.858
1856 0 55.0311 13.7559 757 92.2801 1154.41 551.983
1857 0 54.1357 12.6349 684 96.6243 1154.03 552.576
1858 0 57.1148 12.9389 739 97.4141 1151.27 551.843
1859 0 60.224 12.6196 760 98.6855 1151.38 552.725
1860 0 61.2768 13.1861 808 97.9183 1148.74 549.158
1861 0 65.1623 13.8577 903 96.5725 1146.41 548.254
1862 0 67.1258 13.0799 878 97.9442 1143.7 550.773
1863 0 70.0884 14.9953 1051 95.0657 1141.71 547.736
1864 0 71.1838 13.5143 962 98.3462 1140.03 546.059
1865 0 73.2698 12.3789 907 101.86 1138.34 539.707
1866 0 77.4283 13.2122 1023 99.435 1137.39 538.185
1867 0 77.5389 12.6904 984 101.991 1136.55 535.642
1868 0 82.4398 13.1611 1085 100.13 1135.03 535.673
1869 1 46.3536 8.60775 399 104.9 1134.67 549.361
1870 0 47.4094 8.77463 416 104.183 1134.48 548.24
1871 0 47.4029 10.8432 514 101.311 1133.5 547.093
1872 0 49.472 10.9557 542 101.244 1133.68 544.48
1873 0 51.2978 11.6184 596 99.7836 1134.8 543.334
1874 0 53.3263 11.1765 596 100.849 1134.68 540.06
1875 0 55.3748 12.6772 702 97.2849 1135.22 540.056
1876 0 57.0212 13.0828 746 97.4008 1137.91 541.036
1877 0 59.0672 12.7651 754 100.837 1139.01 540.065
1878 0 58.1049 14.0436 816 99.7426 1140.65 538.2
1879 0 63.0835 14.029 885 95.5311 1144.14 538.693
1880 0 64.1173 12.7111 815 104.205 1148.46 536.578
1881 0 68.1705 13.1582 897 102.197 1150.49 537.769
1882 0 70.1822 13.5932 954 101.874 1152.38 539.155
1883 0 71.0747 13.6617 971 103.297 1154.73 535.787
1884 0 74.2082 13.4756 1000 102.97 1155.4 535.509
1885 0 76.1886 13.3616 1018 102.477 1157.03 537.705
1886 0 81.1772 14.339 1164 98.8591 1156.44 536.38
1887 0 81.1253 13.4114 1088 102.613 1156.65 536.248
1888 0 87.1779 14.8662 1296 98.6443 1154.64 536.802
1889 0 87.1862 12.4102 1082 105.234 1152.6 532.221
1890 0 92.1892 14.1991 1309 99.6555 1151.15 533.39
1891 0 95.1603 14.6069 1390 98.9791 1149.26 533.04
1892 0 99.2417 14.8022 1469 99.1981 1147.11 528.884
1893 0 104.272 15.2007 1585 97.2915 1144.07 527.55
1894 0 105.297 13.875 1461 96.4189 1142.84 522.816
1895 1 62.1921 8.53806 531 93.194 1140.3 551.038
1896 0 61.2345 9.88005 605 93.7603 1139.09 547.436
1897 0 65.2602 11.1553 728 94.2816 1137.48 546.383
1898 0 65.3396 10.9122 713 95.0323 1136.6 545.046
1899 0 66.2009 10.5739 700 96.6971 1135.97 542.873
1900 0 68.1924 12.582 858 94.6492 1135.85 541.611
1901 0 72.2644 13.1738 952 91.145 1133.98 536.524
1902 0 75.2018 13.5369 1018 90.9666 1133.3 534.843
1903 0 78.1944 14.6942 1149 89.8259 1133.34 532.424
1904 0 80.2313 13.8973 1115 91.9587 1133.14 531.065
1905 0 82.215 12.6863 1043 93.4928 1134.21 528.865
1906 0 84.264 12.7931 1078 95.0946 1134.41 526.334
1907 0 88.2767 13.3897 1182 94.044 1135.87 527.183
1908 0 89.3512 13.1839 1178 96.2402 1137.82 526.559
1909 0 90.4199 11.8558 1072 99.4944 1139.96 521.626
1910 0 93.2955 13.2911 1240 97.8613 1142.81 520.256
1911 0 96.2459 14.2344 1370 95.9686 1144.46 519.377
1912 0 101.254 13.9648 1414 97.0644 1146.38 519.001
1913 1 55.1756 10.1313 559 92.839 1147.64 544.855
1914 0 57.1576 9.72749 556 94.6799 1150.99 545.135
1915 0 59.1244 11.4673 678 94.91 1153.11 542.956
1916 0 60.1067 11.3964 685 96.6569 1154.17 539.501
1917 0 64.0746 12.345 791 93.4501 1154.31 543.642
1918 0 66.0659 11.7459 776 93.049 1155.95 541.656
1919 0 67.2269 11.1711 751 93.8096 1155.76 543.202
1920 0 71.2666 11.9832 854 92.7049 1154.32 541.41
1921 0 72.2957 10.9135 789 97.6324 1152.31 540.478
1922 0 78.1932 12.3029 962 93.8586 1150.48 542.037
1923 0 81.2005 12.6847 1030 94.3398 1148.2 541.099
1924 0 84.1606 12.8564 1082 95.0028 1145.67 539.038
1925 0 86.3017 12.2361 1056 97.0881 1143.59 534.441
1926 0 89.2348 13.8287 1234 94.5357 1142.53 535.143
1927 0 91.2537 12.8871 1176 97.3759 1140.55 532.743
1928 0 94.3767 12.6832 1197 98.0334 1138.95 532.336
1929 0 100.434 13.0733 1313 95.0571 1138.03 531.2
1930 0 103.311 13.9675 1443 94.5745 1137.86 527.432
1931 1 59.1775 10.7304 635 91.778 1136.96 548.039
1932 0 61.3028 9.10236 558 92.5197 1137.36 548.703
1933 0 61.3444 10.3514 635 93.0992 1136.33 544.15
1934 0 64.3463 10.6611 686 94.019 1135.78 541.138
1935 0 65.1282 11.6232 757 91.2721 1136.36 539.166
1936 0 69.1988 11.98 829 91.7551 1136.49 535.147
1937 0 70.1765 10.9011 765 94.7516 1137.49 533.915
1938 0 73.241 13.162 964 91.2469 1138.02 532.672
1939 0 76.1139 13.5061 1028 91.2267 1140.54 530.119
1940 0 76.1703 12.1964 929 94.6685 1141.8 528.954
1941 0 81.2584 13.8201 1123 91.5779 1145.1 530.092
1942 0 82.5351 14.1516 1168 91.0188 1147.39 528.652
1943 0 84.2276 12.7512 1074 96.1089 1149.05 529.711
1944 0 85.1955 12.6767 1080 95.6241 1151.87 525.82
1945 0 93.4827 14.3342 1340 91.556 1154.67 526.91
1946 0 93.4655 13.3418 1247 96.7033 1155.27 525.029
1947 0 96.2532 13.2671 1277 101.444 1157.09 523.574
1948 1 53.275 8.99108 479 99.7829 1158 550.148
1949 0 55.2876 9.89372 547 99.362 1157.87 552.117
1950 0 56.2238 10.8495 610 98.6361 1157.23 550.3
1951 0 57.2506 11.9649 685 98.5401 1155.56 549.581
1952 0 60.2936 10.4323 629 100.382 1153.81 551.698
1953 0 62.2723 12.3651 770 98.1649 1152.09 548.196
1954 0 63.2426 11.7326 742 98.5849 1149.62 551.023
1955 0 66.1155 13.0983 866 101.577 1146.64 547.375
1956 0 67.3028 14.8434 999 98.3664 1145.09 545.22
1957 0 70.2552 14.2765 1003 99.1376 1143.31 544.398
1958 0 72.3269 14.711 1064 98.3825 1141.05 539.434
1959 0 76.1943 15.6442 1192 94.7777 1139.98 539.547
1960 0 77.394 15.2596 1181 97.641 1138.33 538.806
1961 0 79.1954 14.5337 1151 99.3736 1136.81 535.25
1962 0 79.3951 13.7036 1088 100.934 1136.43 533.009
1963 0 82.3546 13.7819 1135 100.096 1135.22 530.594
1964 0 87.273 15.102 1318 97.192 1135.43 526.511
1965 1 49.1699 9.7824 481 104.181 1134.2 547.424
1966 0 49.2071 10.7505 529 103.822 1135.16 544.52
1967 0 47.2287 8.40591 397 109.937 1135.04 540.368
1968 0 49.1638 9.82431 483 105.079 1135.97 538.534
1969 0 49.1297 11.1134 546 104.927 1137.06 534.423
1970 0 52.1952 11.1505 582 105.952 1139.67 534.162
1971 0 55.2392 12.7084 702 104.791 1141.13 535.682
1972 0 58.1563 13.4809 784 102.791 1142.65 535.705
1973 0 63.2336 15.1976 961 95.514 1144.5 538.857
1974 0 65.1723 14.2085 926 97.6458 1147 538.689
1975 0 68.5205 14.8423 1017 95.8269 1150.01 537.173
1976 0 70.1633 15.0791 1058 95.9367 1152.3 537.184
1977 0 70.1495 14.1555 993 98.9597 1154.1 535.97
1978 0 74.1442 15.9419 1182 94.9797 1155.58 536.806
1979 0 76.1721 15.1762 1156 97.1583 1156.39 536.907
1980 0 80.3026 13.7604 1105 99.0507 1155.91 538.101
1981 0 81.333 14.5697 1185 98.773 1155.71 536.803
1982 0 85.3136 15.6716 1337 96.4046 1154.03 536.67
1983 0 89.2996 15.252 1362 96.9288 1153.22 533.72
1984 0 91.3469 14.6146 1335 97.7169 1150.82 531.198
1985 0 97.2526 16.781 1632 92.402 1148.88 530.392
1986 1 52.1924 11.8408 618 98.5809 1146.42 552.757
1987 0 56.2872 10.482 590 102.539 1144.96 546.914
1988 0 58.2883 11.9407 696 98.4813 1142.51 550.253
1989 0 58.336 10.8509 633 101.055 1141.27 546.678
1990 0 62.3432 12.9766 809 97.241 1140.63 543.981
1991 0 67.4215 14.5058 978 93.8773 1139.42 544.767
1992 0 66.176 15.1414 1002 96.9142 1137.74 538.685
1993 0 67.2169 14.5648 979 97.1614 1136.84 542.872
1994 0 71.3886 15.8709 1133 95.406 1136.25 539.177
1995 0 72.2883 15.95 1153 96.5126 1134.77 537.831
1996 0 75.3787 13.996 1055 101.147 1135.2 536.653
1997 0 78.2331 16.3997 1283 95.3344 1134.55 532.661
1998 0 80.2391 15.5286 1246 98.9342 1135.02 529.387
1999 0 85.291 16.4613 1404 95.2778 1136.26 530.697
2000 0 88.3488 16.5594 1463 95.8893 1137.13 528.16
2001 1 50.2843 11.5742 582 103.091 1139.02 545.56
2002 0 49.2832 12.0934 596 106.067 1140.85 543.143
2003 0 50.2704 12.4725 627 104.152 1142.88 543.172
2004 0 53.3211 12.134 647 104.527 1146.19 540.335
2005 0 55.2234 13.8709 766 96.2232 1149.22 539.368
2006 0 55.154 13.4895 744 97.9059 1152.57 541.309
2007 0 59.3438 14.8289 880 99.3489 1153.9 540.597
2008 0 59.198 14.3248 848 101.604 1154.67 540.935
2009 0 61.1812 14.596 893 102.747 1156.48 541.352
2010 0 64.1547 14.465 928 101.87 1156.81 541.568
2011 0 67.2314 15.4838 1041 99.708 1156.93 542.671
2012 0 68.2253 15.0677 1028 101.348 1156.3 542.323
2013 0 69.1844 15.0034 1038 101.991 1155.99 542.645
2014 0 72.1998 14.9585 1080 103.604 1152.97 538.431
2015 0 76.2701 16.0744 1226 97.783 1152.08 536.789
2016 0 78.2942 14.2539 1116 104.501 1150.74 534.733
2017 0 82.2199 16.3221 1342 99.9858 1148.22 534.22
2018 0 84.3923 15.5346 1311 103.241 1146.21 533.365
2019 0 86.1639 14.7161 1268 105.313 1144.08 531.32
2020 0 90.3552 15.6604 1415 104.107 1143.07 529.029
2021 0 92.2065 15.5412 1433 105.657 1141.52 529.429
2022 0 96.324 15.4582 1489 105.846 1139.87 526.21
2023 1 51.1152 11.973 612 107.804 1138.9 548.902
2024 0 54.1943 12.1599 659 107.256 1138.42 544.575
2025 0 55.1805 11.8883 656 111.142 1136.72 540.139
2026 0 56.2031 13.0954 736 107.746 1136.19 537.944
2027 0 61.249 15.2002 931 101.24 1136.02 541.382
2028 0 63.0798 15.9481 1006 99.493 1135.44 541.707
2029 0 63.0814 14.3783 907 105.097 1135.66 538.498
2030 0 66.0574 16.0164 1058 101.517 1136.29 532.673
2031 0 69.2016 16.1846 1120 101.554 1138.03 535.1
2032 0 71.0366 15.1049 1073 103.385 1139.17 534.243
2033 0 73.1119 15.0865 1103 103.645 1139.96 528.133
2034 0 80.051 13.1541 1053 104.367 1142.16 528.217
2035 0 79.0793 16.1357 1276 99.6661 1144.04 524.348
2036 0 82.1476 15.0704 1238 102.414 1147.01 523.915
2037 0 83.1056 14.2469 1184 105.684 1149.21 524.046
2038 0 89.238 15.0945 1347 102.762 1152.15 520.796
2039 0 93.2317 15.8637 1479 100.784 1154.84 521.531
2040 0 95.2399 16.0647 1530 100.661 1156.26 521.441
2041 1 52.1382 8.78434 458 106.349 1157.39 545.441
2042 0 56.1696 11.5721 650 104.997 1157 542.311
2043 0 57.1031 13.642 779 104.096 1155.72 550.236
2044 0 61.2601 14.9363 915 103.092 1155.1 550.033
2045 0 60.0545 13.6376 819 105.02 1152.74 549.801
2046 0 64.2881 14.7306 947 101.672 1151.46 549.468
2047 0 64.1979 13.7543 883 109.66 1149.28 548.179
2048 0 69.2055 14.9266 1033 106.106 1147.56 548.962
2049 0 71.3159 14.2885 1019 106.729 1144.72 548.604
2050 0 76.2116 15.4832 1180 102.798 1143.45 545.714
2051 0 77.3089 16.1818 1251 103.38 1141.44 543.59
2052 0 78.289 14.587 1142 107.043 1140.03 542.345
2053 0 82.2173 16.2253 1334 103.744 1137.62 540.682
2054 0 85.5371 16.8816 1444 101.977 1137.52 538.543
2055 0 85.25 14.5924 1244 109.084 1135.54 536.246
2056 0 88.2282 14.9159 1316 110.052 1134.92 534.119
2057 0 91.3731 14.9169 1363 110.904 1133.39 531.988
2058 0 96.3734 16.104 1552 108.18 1133.73 527.529
2059 0 99.3606 14.8349 1474 111.636 1133.81 526.9
2060 0 101.304 15.3005 1550 111.972 1134.19 522.337
2061 0 103.254 15.6894 1620 111.612 1134.86 518.609
2062 0 105.35 15.0356 1584 114.688 1135.14 516.938
2063 0 111.457 15.8716 1769 112.347 1137.21 515.651
2064 0 112.32 14.8416 1667 112.834 1138.42 511.793
2065 1 67.1702 10.0193 673 109.021 1140.4 539.357
2066 0 69.1766 13.0535 903 108.037 1141.76 533.027
2067 0 72.2701 11.8721 858 109.79 1143.18 533.093
2068 0 75.43 13.3899 1010 107.309 1145.07 531.217
2069 0 77.4946 12.7751 990 107.122 1147.37 529.499
2070 0 81.1348 13.2372 1074 103.545 1151.16 523.636
2071 0 82.1248 13.3334 1095 104.772 1153.28 525.379
2072 0 87.1239 14.5999 1272 101.985 1154.64 528.544
2073 0 90.1733 13.596 1226 103.364 1154.36 533.665
2074 0 94.1229 14.088 1326 101.857 1155.47 535.646
2075 0 96.2689 12.7144 1224 106.527 1154.96 529.23
2076 0 101.282 14.7508 1494 101.588 1154.2 528.069
2077 0 103.417 13.8566 1433 105.853 1152.71 528.962
2078 0 108.162 13.036 1410 107.367 1151.35 528.402
2079 1 62.2549 10.6658 664 101.824 1149.7 554.896
2080 0 62.2977 10.0806 628 105.721 1147.79 553.315
2081 0 64.1852 11.1552 716 103.155 1145.02 551.77
2082 0 67.2511 12.3715 832 100.853 1143.08 549.516
2083 0 69.1952 11.547 799 103.698 1142.59 544.805
2084 0 72.1656 13.2612 957 97.2539 1139.83 546.561
2085 0 76.189 14.359 1094 94.6819 1139.66 543.412
2086 0 80.1755 13.3831 1073 97.2554 1137.9 544.649
2087 0 80.1493 13.2378 1061 99.3921 1136.84 538.378
2088 0 84.1382 13.3946 1127 99.6859 1135.68 537.445
2089 0 85.2457 14.7691 1259 97.5346 1135.18 530.177
2090 0 88.1388 14.0233 1236 97.6019 1133.42 529.515
2091 0 91.2052 14.7689 1347 97.5694 1134.29 525.883
2092 0 94.3073 14.7921 1395 98.6638 1134.12 522.91
2093 0 96.2902 14.4044 1387 101.885 1134.44 520.181
2094 0 99.3909 13.7236 1364 102.103 1135.69 520.205
2095 1 57.1613 12.0011 686 97.2609 1137.96 543.229
2096 0 57.074 12.3699 706 97.3371 1139.46 540.365
2097 0 57.111 11.4164 652 100.721 1141.16 540.525
2098 0 61.2113 12.9061 790 97.4873 1142.97 536.535
2099 0 64.115 12.7271 816 98.9522 1144.47 538.83
2100 0 66.2231 13.5149 895 97.7061 1147.6 537.977
2101 0 67.11 13.7237 921 97.013 1150.67 536.592
2102 0 70.1061 14.6064 1024 95.0381 1152.17 534.751
2103 0 73.1832 13.9513 1021 95.9667 1154.31 534.104
2104 0 73.0859 13.5731 992 98.252 1154.91 535.216
2105 0 77.1504 14.2319 1098 95.9936 1155.34 536.582
2106 0 80.0953 14.2206 1139 94.8894 1155.89 533.315
2107 0 85.2241 13.928 1187 94.5366 1155.24 535.223
2108 0 86.1631 13.1379 1132 97.2067 1154.41 533.865
2109 0 91.1012 14.8187 1350 93.3474 1154.2 536.144
2110 0 93.213 14.1504 1319 94.257 1152.07 529.377
2111 0 97.2955 13.8958 1352 94.5496 1149.43 529.917
2112 0 101.278 13.1619 1333 96.9205 1147.49 526.827
2113 1 56.1336 10.4216 585 95.6342 1146.05 550.863
2114 0 57.319 11.0958 636 94.1305 1144 550.443
2115 0 59.2108 11.8897 704 93.1761 1142.41 547.794
2116 0 63.1174 12.2153 771 92.4202 1141.76 545.935
2117 0 65.2056 11.9928 782 92.3453 1140.16 544.439
2118 0 66.1817 13.8256 915 88.6765 1138.59 545.478
2119 0 68.1305 13.9145 948 87.8175 1136.44 542.201
2120 0 71.144 12.7066 904 90.6538 1136.03 539.405
2121 0 72.2597 12.5519 907 90.9967 1135.69 534.734
2122 0 78.1117 16.9117 1321 82.3512 1134.14 534.101
2123 0 80.0898 13.2726 1063 89.1167 1134.11 529.197
2124 0 84.3053 13.8425 1167 87.7378 1134.26 526.318
2125 0 84.3419 13.9314 1175 88.3234 1136.29 523.168
2126 0 87.1728 12.1139 1056 90.7547 1136.48 523.945
2127 0 92.3647 14.0746 1300 87.9977 1139 521.898
2128 0 94.3492 13.2275 1248 89.7155 1139.61 518.189
2129 0 98.2566 14.1365 1389 87.9042 1141.43 514.585
2130 0 101.234 14.0368 1421 88.8677 1144.11 515.873
2131 0 103.367 12.9538 1339 91.2203 1146.42 512.948
2132 1 57.0631 11.1631 637 91.4192 1149.89 536.297
2133 0 58.1585 11.6406 677 91.4756 1151.86 535.808
2134 0 60.1992 13.2726 799 89.4155 1154.84 536.449
2135 0 65.25 14.5134 947 88.3992 1156.73 535.185
2136 0 66.1312 13.1103 867 86.6701 1156.66 539.755
2137 0 68.1043 13.5968 926 86.7333 1157.14 541.49
2138 0 72.0872 15.3148 1104 83.7862 1156.65 542.034
2139 0 74.1603 13.4978 1001 88.2108 1155.09 542.639
2140 0 78.0976 15.2757 1193 86.5272 1153.51 538.168
2141 0 81.1684 15.0798 1224 88.4191 1151.92 537.009
2142 0 82.2169 14.6928 1208 90.8907 1150.09 536.04
2143 0 84.1821 14.5399 1224 93.5743 1148.19 536.189
2144 0 89.2467 16.7625 1496 89.8349 1145.08 537.01
2145 0 92.4611 15.2605 1411 96.3097 1144.11 528.629
2146 0 95.1984 15.2103 1448 95.741 1142.24 527.49
2147 0 99.391 15.3837 1529 95.1164 1141.42 529.227
2148 0 100.214 14.5589 1459 97.5284 1139.42 526.858
2149 0 103.265 13.5187 1396 100.176 1137.56 522.923
2150 0 106.445 14.646 1559 97.4426 1136.37 522.677
2151 0 109.485 14.8879 1630 98.1975 1134.88 518.304
2152 0 113.24 14.2352 1612 99.4094 1134.24 516.305
2153 0 118.277 15.6498 1851 96.9708 1133.81 511.592
2154 0 122.213 15.1947 1857 98.3818 1134.02 507.906
2155 0 128.255 14.5648 1868 98.0385 1133.57 505.26
2156 1 68.3086 11.6237 794 99.6763 1134.57 531.895
2157 0 71.228 12.7618 909 97.8152 1135.9 532.572
2158 0 75.2861 13.9069 1047 98.9179 1137.32 528.383
2159 0 77.1158 12.9027 995 101.113 1139.79 526.305
2160 0 80.408 14.1901 1141 98.3804 1141.46 524.551
2161 0 83.6482 13.4372 1124 100.373 1142.47 524.919
2162 0 87.1995 16.0551 1400 95.3957 1144.83 521.723
2163 0 90.2032 15.1879 1370 97.6745 1147.16 521.395
2164 0 94.3784 15.5544 1468 97.3134 1149.5 521.211
2165 0 94.4139 14.4364 1363 102.006 1152.16 518.087
2166 0 101.316 16.5719 1679 96.8106 1154.95 516.72
2167 0 104.395 15.269 1594 100.248 1155.17 515.95
2168 0 108.275 15.8116 1712 99.9778 1155.36 516.523
2169 0 114.356 15.8453 1812 99.016 1154.57 514.515
2170 0 121.699 15.8752 1932 99.1905 1153.01 512.423
2171 1 66.2983 10.5433 699 104.765 1152.38 541.999
2172 0 68.2565 12.5995 860 103.066 1150.94 538.669
2173 0 70.645 12.4425 879 104.381 1148.8 537.788
2174 0 75.4964 14.2258 1074 102.057 1146.28 537.317
2175 0 75.3059 13.0003 979 106.265 1144.3 534.46
2176 0 81.2581 14.4355 1173 104.146 1142.65 532.767
2177 0 83.3484 14.6613 1222 105.013 1140.61 529.124
2178 0 87.2366 14.0079 1222 106.547 1138.71 526.756
2179 0 89.7683 14.5151 1303 106.711 1136.99 525.981
2180 0 92.4115 13.613 1258 108.977 1135.8 524.875
2181 0 98.276 14.2558 1401 106.582 1135.51 522.845
2182 0 98.3678 14.1916 1396 109.87 1134.13 519.595
2183 0 103.389 16.317 1687 105.03 1134.32 516.955
2184 0 107.554 15.0621 1620 108.314 1133.03 514.79
2185 0 109.394 15.7869 1727 108.127 1132.97 511.782
2186 0 113.602 15.4663 1757 108.289 1133.86 509.421
2187 0 118.429 14.4221 1708 110.563 1134.82 506.628
2188 1 69.3055 9.22005 639 109.512 1134.56 534.872
2189 0 69.2587 9.78939 678 109.314 1135.16 530.414
2190 0 74.3287 11.4088 848 108.584 1137.38 527.564
2191 0 74.204 10.4577 776 112.61 1139.22 523.125
2192 0 77.4613 12.3804 959 109.093 1141.12 521.826
2193 0 80.2516 13.2957 1067 107.396 1144.31 519.928
2194 0 85.2567 12.8436 1095 107.238 1146.93 518.845
2195 0 89.2971 14.9613 1336 102.591 1148.8 519.017
2196 0 92.3051 14.6146 1349 104.915 1151.18 516.25
2197 0 93.3397 13.2955 1241 108.637 1153.53 516.354
2198 0 98.2722 13.4524 1322 107.601 1154.41 516.777
2199 0 101.208 13.8033 1397 108.133 1155.8 515.349
2200 1 56.2862 8.93647 503 104.588 1153.79 540.205
2201 0 59.2353 8.59285 509 102.898 1153.88 543.479
2202 0 60.119 10.396 625 102.458 1152.32 540.187
2203 0 63.1814 9.03747 571 104.895 1151.22 544.818
2204 0 65.2292 11.7585 767 102.827 1149.72 546.332
2205 0 68.4821 12.7333 872 103.008 1147.38 545.734
2206 0 71.393 12.4102 886 101.837 1146.15 545.345
2207 0 74.3078 13.7805 1024 99.6396 1143.98 541.989
2208 0 76.3133 13.5363 1033 100.143 1141.93 541.852
2209 0 78.2611 13.8894 1087 100.482 1140.54 540.985
2210 0 80.1852 14.4665 1160 100.035 1139.33 537.333
2211 0 82.405 13.5793 1119 102.409 1137.13 535.158
2212 0 84.3863 12.5731 1061 104.348 1136.28 535.621
2213 0 87.4818 13.4885 1180 103.401 1135.59 528.788
2214 0 90.4414 13.3899 1211 103.203 1135.85 529.267
2215 0 93.4816 14.4734 1353 101.323 1134.08 523.069
2216 0 94.7436 13.0035 1232 106.593 1134.1 517.932
2217 0 97.4157 12.5134 1219 107.341 1134.36 514.298
2218 0 99.3909 13.5928 1351 105.289 1134.31 512.81
2219 0 97.3258 13.1106 1276 107.399 1135.68 506.457
2220 1 48.0339 8.82711 424 111.946 1135.8 527.406
2221 0 53.2092 8.90823 474 106.234 1136.65 530.308
2222 0 54.1598 9.15808 496 107.321 1138.74 526.494
2223 0 60.2847 8.85797 534 103.491 1141.09 531.985
2224 0 59.2798 11.3867 675 99.5926 1143.23 527.923
2225 0 65.2872 9.75688 637 101.614 1145.96 523.672
2226 0 68.1913 11.5557 788 98.0457 1149.07 525.385
2227 0 70.4111 11.1062 782 99.0473 1150.14 525.769
2228 0 71.3213 12.0581 860 97.9558 1154.12 526.155
2229 0 77.2114 10.7497 830 96.9602 1155.77 532.783
2230 0 76.3476 11.1857 854 105.905 1155.39 530.574
2231 0 80.346 11.7741 946 104.834 1155.51 528.573
2232 0 84.4728 11.4356 966 105.358 1155.59 528.92
2233 0 84.4504 12.2083 1031 105.879 1154.33 528.851
2234 0 89.3362 10.634 950 108.951 1153.37 527.921
2235 0 92.2887 12.0275 1110 107.06 1151.35 525.927
2236 0 97.5118 12.8292 1251 105.739 1150.87 524.209
2237 0 102.378 13.0985 1341 105.447 1148.82 525.417
2238 0 103.497 12.4158 1285 105.722 1146.41 521.465
2239 0 109.457 13.6492 1494 102.077 1144.91 520.206
2240 0 111.427 12.1066 1349 105.253 1143.45 516.904
2241 0 118.37 12.3511 1462 101.601 1141.73 515.737
2242 0 121.414 12.165 1477 100.222 1139.55 509.657
2243 1 69.176 7.80617 540 98.2667 1139.87 541.267
2244 0 70.1613 8.03862 564 100.184 1137.85 533.057
2245 0 74.2267 10.67 792 97.7412 1135.69 527.077
2246 0 77.1558 10.3686 800 97.455 1135.48 522.197
2247 0 80.1921 12.071 968 96.1983 1135.48 517.178
2248 0 82.1937 11.7162 963 99.3011 1136.95 523.145
2249 0 83.2973 12.5694 1047 98.6371 1137.54 519.56
2250 0 86.2655 12.334 1064 99.1758 1137.3 516.874
2251 0 91.2088 12.8387 1171 97.3911 1138.76 514.968
2252 0 92.1821 12.6163 1163 97.9802 1140.88 514.123
2253 0 96.293 13.0851 1260 97.2302 1142.31 512.042
2254 0 99.356 13.195 1311 98.0953 1144.12 509.836
2255 0 105.346 14.8273 1562 94.4974 1146.62 511.035
2256 0 106.599 12.336 1315 100.216 1149.32 513.102
2257 0 110.309 13.5981 1500 98.3587 1151.39 509.955
2258 0 113.492 13.3842 1519 99.5589 1154.56 507.238
2259 1 62.3038 8.57091 534 103.105 1156.94 532.852
2260 0 67.4155 9.35986 631 98.5166 1156.81 531.036
2261 0 68.2189 8.83919 603 100.861 1157.31 534
2262 0 72.4258 11.529 835 98.6144 1158.46 535.081
2263 0 73.5694 11.8392 871 98.5454 1157.73 530.592
2264 0 77.1869 12.9556 1000 92.873 1156.52 537.464
2265 0 79.2204 13.0017 1030 92.9029 1153.84 537.519
2266 0 83.1573 12.9273 1075 93.3451 1152.66 536.636
2267 0 83.1148 12.0556 1002 96.3244 1150.97 536.641
2268 0 87.2977 12.3027 1074 94.4823 1148.42 532.578
2269 0 93.2524 13.5117 1260 91.4103 1146.89 534.314
2270 0 95.2739 13.0991 1248 92.2171 1143.93 532.603
2271 0 98.1764 12.4164 1219 94.1854 1142.37 529.377
2272 0 104.646 13.7893 1443 91.3992 1140.8 527.172
2273 1 53.4701 10.043 537 94.3445 1138.91 551.207
2274 0 58.3657 11.8392 691 91.9884 1136.59 544.567
2275 0 58.7297 11.1358 654 93.0856 1135.36 547.024
2276 0 61.491 11.7903 725 92.1131 1134.6 543.599
2277 0 62.496 12.1128 757 92.6314 1134.49 540.226
2278 0 63.4093 12.7111 806 92.1935 1132.85 537.334
2279 0 64.3654 11.2327 723 95.5546 1132.14 535.82
2280 0 69.4892 13.2107 918 90.4216 1131.85 537.037
2281 0 70.5855 12.4247 877 92.6135 1132.06 532.783
2282 0 71.1603 13.0269 927 92.3366 1132.81 531.359
2283 0 71.4579 12.6648 905 93.5768 1133.48 529.252
2284 0 77.4145 13.5246 1047 89.8825 1135.03 532.56
2285 0 78.3465 13.6956 1073 90.9581 1136.54 529.155
2286 0 81.3516 13.9026 1131 91.9337 1138.67 527.523
2287 0 84.3956 14.8823 1256 91.4068 1139.94 526.759
2288 0 85.2428 15.6612 1335 91.5498 1141.58 523.477
2289 0 88.3654 13.9987 1237 93.9806 1144.22 523.628
2290 0 89.4155 13.3534 1194 97.3107 1147.32 522.691
2291 0 92.2576 13.0938 1208 99.418 1149.66 522.906
2292 0 97.3674 14.4093 1403 96.7904 1150.11 519.63
