time division length width area intensity CMx CMy
0 0 95.5161 16.6045 1586 115.209 205.792 490.232
1 1 57.0773 12.667 723 118.614 208.254 510.436
2 0 55.0683 12.8386 707 146.038 221.274 510.904
3 1 32.0151 12.2755 393 118.308 208.796 522.786
4 0 31.0283 11.6346 361 120.751 209.884 525.562
5 0 33.1515 10.8291 359 120.084 209.195 524.641
6 0 34.0785 11.2094 382 115.634 208.332 525.9
7 0 36.1095 11.3544 410 119.012 207.595 526.366
8 0 36.0968 10.3056 372 120.105 206.505 526.941
9 0 36.052 11.4279 412 120.102 204.68 527.442
10 0 39.1052 11.712 458 121.406 203.19 528.28
11 0 40.0262 13.1414 526 117.188 201.234 528.07
12 0 41.0141 12.898 529 118.716 199.631 526.849
13 0 42.0207 12.5652 528 119.722 196.299 527.419
14 0 47.0607 15.6394 736 111.042 195.261 528.413
15 0 47.0882 13.5915 640 114.63 192.872 525.284
16 0 49.0433 13.9468 684 113.113 191.228 523.844
17 0 49.1241 15.1046 742 111.608 189.593 522.709
18 0 51.1084 13.6964 700 113.251 187.217 519.786
19 0 52.0639 14.5014 755 111.442 186.448 520.501
20 0 55.2018 14.3655 793 112.092 182.624 517.038
21 0 57.0692 14.1933 810 110.496 182.684 515.585
22 0 57.0415 13.5691 774 114.171 183.324 514.589
23 0 60.2156 16.1254 971 107.398 183.144 511.706
24 0 62.249 15.1007 940 109.337 184.112 511.38
25 0 65.1346 15.5371 1012 106.708 185.772 511.318
26 0 67.1541 15.0251 1009 109.273 187.633 509.698
27 0 71.1655 16.1455 1149 103.464 189.531 511.42
28 0 73.2241 15.4048 1128 106.186 191.079 506.782
29 0 75.0929 15.1412 1137 106.69 193.803 505.697
30 1 40.1817 11.4978 462 104.128 197.331 527.61
31 0 39.0693 12.0811 472 106.684 199.159 525.811
32 0 39.1892 10.0028 392 107.342 200.939 529.421
33 0 41.1594 12.2937 506 104.164 201.126 526.972
34 0 44.1616 11.8202 522 101.852 202.41 528.877
35 0 46.0836 12.1518 560 102.357 202.102 529.261
36 0 49.1205 12.2149 600 100.718 201.692 528.908
37 0 50.0714 14.7789 740 96.4338 201.369 527.922
38 0 51.0846 14.2117 726 97.5399 198.828 529.269
39 0 53.0559 13.6837 726 99.1791 196.183 527.91
40 0 55.1695 14.392 794 97.1196 195.679 528.052
41 0 56.1139 14.3815 807 98.7832 194.802 527.016
42 0 59.0547 13.9532 824 98.6408 191.858 526.642
43 0 60.1318 13.038 784 101.366 189.89 526.312
44 0 61.0424 13.1712 804 101.83 188.343 526.806
45 0 65.1923 14.1581 923 99.0076 186.71 524.436
46 0 67.1688 13.7862 926 99.7862 184.965 525.071
47 0 71.133 13.3131 947 100.884 182.635 524.432
48 0 71.2747 14.381 1025 101.741 180.928 522.116
49 0 76.1966 14.6069 1113 100.222 178.922 519.75
50 0 80.1646 14.9193 1196 98.7483 177.933 518.559
51 0 82.2202 15.1544 1246 98.3186 176.949 512.929
52 0 85.2284 13.9155 1186 100.152 176.008 511.199
53 0 87.1584 14.4105 1256 98.781 175.135 507.59
54 1 48.1254 11.096 534 96.7809 175.341 530.89
55 0 48.1277 13.0486 628 95.7484 175.478 526.697
56 0 49.1594 12.8561 632 95.2073 175.592 526.098
57 0 51.1113 12.2282 625 95.088 177.005 522.728
58 0 54.1103 13.6019 736 92.966 177.476 521.681
59 0 57.1406 14.7531 843 90.9229 179.287 521.202
60 0 57.1977 13.4796 771 94.415 181.726 518.232
61 0 57.1561 13.8218 790 94.943 183.353 519.216
62 0 60.1796 14.3072 861 94.8223 186.64 516.936
63 0 62.0765 13.1773 818 99.9242 188.612 517.883
64 0 63.0731 13.9045 877 99.2634 190.623 516.887
65 0 68.0934 13.6871 932 97.8938 191.68 518.694
66 0 70.1633 14.2952 1003 97.7826 194.424 518.327
67 0 73.111 14.7721 1080 97.3972 195.004 518.24
68 0 75.0745 14.106 1059 100.452 194.326 516.632
69 0 78.0832 14.0107 1094 100.968 195.305 517.83
70 0 80.1606 14.0593 1127 101.741 194.683 518.785
71 0 85.4067 16.2751 1390 97.9971 193.388 516.056
72 0 85.3539 14.9261 1274 102.394 191.743 514.666
73 1 44.2733 10.8643 481 104.911 190.603 536.343
74 0 47.2619 10.5582 499 104.713 188.529 536.473
75 0 49.3299 11.2711 556 103.676 186.862 537.948
76 0 49.2157 11.1143 547 104.715 185.693 536.814
77 0 49.3141 10.9299 539 106.083 182.592 536.336
78 0 54.2055 12.6371 685 101.368 180.609 534.272
79 0 57.1808 12.819 733 101.589 178.911 533.638
80 0 58.0888 13.7376 798 100.144 176.615 533.737
81 0 60.1034 14.3752 864 99.0336 174.589 530.384
82 0 62.0836 13.5785 843 101.6 173.153 530.681
83 0 65.127 13.9266 907 101.591 172.77 529.363
84 0 66.1625 14.2981 946 102.062 170.641 526.159
85 0 70.1864 15.2879 1073 100.191 169.755 521.41
86 0 72.2066 13.8768 1002 103.233 168.479 521.746
87 0 73.1152 13.2257 967 106.586 168.79 518.385
88 0 76.1898 13.0857 997 107.038 169.251 517.261
89 0 79.1879 13.9036 1101 107.084 170.182 513.574
90 1 42.0252 12.3735 520 106.794 170.092 532.069
91 0 45.0188 11.5063 518 106.465 170.452 531.641
92 0 44.1134 10.9491 483 106.6 171.582 532.627
93 0 44.0397 11.6486 513 107.733 172.75 530.912
94 0 45.1552 10.8736 491 107.855 175.619 532.265
95 0 48.0675 12.5657 604 102.795 177.795 532.02
96 0 48.1026 11.9536 575 104.664 180.798 530.376
97 0 50.0386 11.2114 561 102.702 183.633 533.059
98 0 52.0208 12.6296 657 101.132 186.075 530.951
99 0 54.0191 13.3101 719 98.7413 187.704 532.33
100 0 56.0158 13.4248 752 100.206 188.492 531.485
101 0 56.0859 13.0157 730 103.011 189.262 532.133
102 0 60.0722 14.4659 869 97.5063 188.16 533.185
103 0 60.0796 12.833 771 103.977 188.035 531.048
104 0 64.0776 14.4512 926 99.3812 186.499 530.639
105 0 62.1197 12.2344 760 106.949 185.607 530.099
106 0 68.1015 14.0232 955 101.203 184.333 528.559
107 0 70.0513 15.246 1068 97.6142 183.585 528.676
108 0 73.1107 13.3086 973 102.126 183.043 527.333
109 1 37.0664 9.63137 357 105.35 181.535 546.266
110 0 40.0774 9.93078 398 101.1 180.349 546.209
111 0 42.0187 11.4235 480 99.0812 177.148 544.481
112 0 44.0573 10.8268 477 101.824 175.644 544.679
113 0 42.0417 10.8226 455 105.69 174.174 542.826
114 0 43.0806 11.6758 503 103.644 172.68 542.561
115 0 46.065 11.4187 526 100.519 172.095 540.709
116 0 46.064 12.3524 569 98.9209 170.511 539.764
117 0 49.0354 12.8886 632 103.69 169.411 538.225
118 0 52.016 13.0537 679 102.268 168.206 537.514
119 0 51.084 12.7633 652 104.307 167.048 534.147
120 0 50.0313 12.5721 629 101.623 165.372 532.768
121 0 52.0367 12.2414 637 102.551 165.658 530.512
122 0 55.0896 12.1802 671 101.982 165.604 529.683
123 0 56.119 12.9724 728 102.251 165.876 526.08
124 0 56.0844 11.7145 657 105.647 167.058 525.964
125 0 58.1222 11.8199 687 106.378 168.485 525.358
126 0 66.187 14.0813 932 63.7672 170.142 525.486
127 0 64.1489 13.1569 844 101.181 173.088 523.316
128 0 67.1351 13.4505 903 99.5969 173.525 523.146
129 0 68.208 14.3532 979 101.8 177.899 521.474
130 0 69.1218 12.8324 887 105.108 179.63 522.84
131 0 70.1786 12.9099 906 106.485 182.182 520.434
132 0 76.2195 13.4874 1028 103.728 183.53 522.635
133 0 76.1489 13.9726 1064 105.426 185.099 519.154
134 0 80.1914 13.7671 1104 105.495 185.236 523.697
135 0 83.2381 13.7077 1141 105.691 185.706 522.574
136 1 44.1145 10.5861 467 110.878 187.679 541.308
137 0 48.1625 10.9629 528 110.481 185.812 541.199
138 0 49.1441 10.3369 508 111.876 186.03 540.921
139 0 49.1849 10.7147 527 111.759 184.55 540.446
140 0 53.2545 13.4636 717 104.689 182.006 539.566
141 0 56.027 14.1896 795 102.104 177.303 538.6
142 0 56.0708 12.5912 706 106.846 176.231 536.911
143 0 57.0238 13.5031 770 104.514 174.529 539.82
144 0 57.0391 12.395 707 108.301 172.045 536.76
145 0 62.0897 13.4 832 103.109 171.619 535.377
146 0 63.0718 13.5243 853 102.975 169.294 534.059
147 0 63.0753 12.0174 758 107.602 168.587 535.727
148 0 66.0134 13.7396 907 103.143 167.447 534.212
149 0 70.1561 13.7123 962 102.758 165.814 530.358
150 0 71.0846 13.0267 926 103.99 164.634 531.034
151 0 72.1079 11.247 811 101.37 163.457 529.001
152 0 76.1211 12.0729 919 98.9282 163.141 526.911
153 0 78.1172 11.4571 895 99.8659 162.166 522.581
154 0 79.1094 12.7545 1009 98.0842 161.172 519.082
155 1 42.1327 8.97165 378 98.291 161.608 541.444
156 0 46.1292 10.3839 479 96.1649 162.042 537.424
157 0 45.2558 10.7169 485 97.3031 162.73 535.602
158 0 48.1396 10.0956 486 97.358 163.755 536.621
159 0 50.2958 11.5119 579 95.4905 164.045 532.858
160 0 50.383 10.4996 529 97.6257 165.713 533.488
161 0 52.1148 11.3403 591 98.4636 168.942 531.154
162 0 55.1032 13.2297 729 94.5089 171.188 531.49
163 0 55.1339 12.388 683 96.5461 174.073 531.662
164 0 58.2053 11.6484 678 103.562 176.51 532.996
165 0 58.2787 12.955 755 102.774 178.171 529.766
166 0 62.1954 13.5862 845 100.693 179.595 530.905
167 0 63.2169 13.2243 836 102.373 180.459 529.996
168 0 63.2248 12.8905 815 102.844 181.677 532.34
169 0 67.2637 13.395 901 99.7769 182.077 531.77
170 1 32.015 9.62049 308 98.6948 180.445 550.01
171 0 35.0467 10.1579 356 97.1461 180.907 548.688
172 0 37.0422 11.9593 443 97.3838 180.129 549.892
173 0 38.1153 10.4158 397 100.824 179.071 549.131
174 0 40.0694 10.9061 437 101.462 176.929 547.146
175 0 42.4023 12.5465 532 97.391 177.182 543.671
176 0 43.2144 12.8429 555 98.0468 175.847 542.829
177 0 44.0864 14.1767 625 95.248 173.71 545.291
178 0 44.1238 12.2836 542 102.196 172.72 543.581
179 0 44.0949 13.0174 574 101.418 171.275 543.984
180 0 47.2922 13.0465 617 100.473 168.702 542.345
181 0 48.3062 13.5386 654 100.286 166.13 541.604
182 0 48.3669 13.1288 635 102.285 165.992 538.575
183 0 52.2177 15.129 790 94.5089 164.111 538.895
184 0 53.1289 13.7778 732 94.8607 164.322 539.981
185 0 53.1983 15.0193 799 94.0025 163.13 536.3
186 0 55.2038 14.6367 808 95.1906 162.772 533.748
187 0 55.3331 13.3374 738 100.375 161.833 530.936
188 0 56.0846 13.6758 767 100.176 162.274 530.175
189 0 58.096 14.0629 817 98.5887 161.594 530.106
190 0 60.1899 13.4574 810 100.031 162.351 528.42
191 0 63.172 13.7244 867 98.9723 163.196 526.473
192 0 63.1328 13.4162 847 100.737 164.976 526.679
193 0 64.2222 14.9481 960 98.6104 166.757 523.725
194 0 66.1365 14.3491 949 99.2424 168.905 525.654
195 0 69.2041 13.7998 955 100.568 170.271 520.999
196 0 69.1077 13.7901 953 102.545 173.941 522.87
197 0 72.1095 13.8123 996 102.24 176.575 523.18
198 0 76.1345 15.5383 1183 98.2976 179.691 522.626
199 1 39.0488 13.3167 520 100.213 182.715 541.375
200 0 38.0284 12.0173 457 105.877 183.63 541.147
201 0 41.0165 11.2638 462 104.197 184.251 541.673
202 0 43.1218 12.0125 518 103.068 185.998 542.958
203 0 42.1135 12.0389 507 104.71 185.239 542.475
204 0 44.0231 12.0391 530 104.428 184.425 542.383
205 0 46.034 12.8166 590 100.249 183.368 542.393
206 0 47.3089 13.0842 619 99.706 180.42 539.082
207 0 48.0605 12.9836 624 96.6923 180.724 543.115
208 0 49.0523 14.9432 733 94.206 179.401 542.705
209 0 50.0678 12.0636 604 100.662 176.95 543.528
210 0 52.0736 13.8842 723 95.6916 176.032 543.076
211 0 53.1023 13.4646 715 97.1455 173.543 542.059
212 0 53.1023 13.5022 717 149.488 170.545 542.148
213 0 61.1081 13.3861 818 94.5905 167.72 537.132
214 0 63.0506 13.3702 843 94.1234 165.834 538.798
215 0 65.0757 14.291 930 93.8301 164.538 534.446
216 0 67.167 12.7592 857 96.6581 163.657 533.407
217 0 70.0883 14.4247 1011 93.3571 162.366 531.221
218 0 71.1665 13.6722 973 95.0987 162.295 532.245
219 0 74.1282 14.1646 1050 95.2095 161.581 525.744
220 0 77.11 14.1616 1092 95.6813 161.212 525.604
221 1 39.0093 11.5614 451 95.2927 160.543 541.854
222 0 41.1093 11.4816 472 94.7585 161.284 539.903
223 0 44.1677 12.045 532 94.2237 161.93 539.304
224 0 44.0627 11.7787 519 95.3025 163.435 539.657
225 0 45.1529 11.9151 538 95.6933 165.691 535.961
226 0 46.3476 12.8378 595 95.6067 168.19 532.582
227 0 49.2618 14.494 714 91.8123 170.092 531.255
228 0 48.1493 12.9181 622 95.7154 172.735 534.981
229 0 52.0969 13.3405 695 94.0662 175.498 534.57
230 0 52.1037 13.9721 728 94.0055 177.512 535.021
231 0 55.2558 15.1477 837 90.8447 178.993 533.822
232 0 57.183 13.9727 799 93.4093 181.323 534.14
233 0 59.1759 13.7556 814 94.1118 182.246 534.166
234 0 59.1639 13.7415 813 95.0541 183.128 534.312
235 0 63.1302 14.0978 890 93.8798 182.971 535.234
236 0 62.3128 14.8124 923 94.1928 181.944 534.53
237 0 65.1 14.1321 920 95.3011 181.422 536.133
238 0 68.1769 14.9024 1016 94.8524 180.252 535.002
239 0 71.1159 15.0037 1067 93.8772 178.094 534.791
240 0 73.1807 13.1182 960 101.853 177.247 536.167
241 0 73.2278 12.864 942 102.972 175.202 533.435
242 0 78.3094 14.8896 1166 98.8602 173.869 533.211
243 0 80.1199 14.4409 1157 99.5436 172.187 532.399
244 1 42.0251 10.9458 460 97.5848 172.274 552.028
245 0 43.1081 11.3668 490 99.0041 170.194 548.778
246 0 45.0204 11.3726 512 97.1133 169.049 549.957
247 0 46.0424 12.3364 568 94.0968 167.111 548.158
248 0 47.0458 13.9439 656 90.9497 164.64 543.598
249 0 47.0856 11.872 559 95.39 162.125 543.517
250 0 52.1203 13.0659 681 92.4376 161.661 540.383
251 0 52.1359 12.6784 661 93.531 160.569 539.818
252 0 53.0676 13.3038 706 92.7833 161.193 538.68
253 0 57.1322 13.355 763 91.7588 160.038 534.038
254 0 58.1455 13.4318 781 92.0948 160.261 531.301
255 0 61.0983 13.6829 836 91.006 160.725 529.841
256 0 61.0837 12.5238 765 93.4235 160.868 529.407
257 0 64.1022 12.8857 826 92.4492 160.823 525.452
258 0 66.1252 13.1417 869 91.8895 162.81 525.273
259 0 67.2229 12.9718 872 92.9553 163.405 522.171
260 0 70.1608 13.9394 978 90.6605 166.111 521.78
261 0 72.2341 13.6916 989 90.6582 168.706 521.685
262 0 75.1689 13.6626 1027 89.8082 170.531 519.743
263 0 77.1998 12.8498 992 91.5998 171.946 518.852
264 0 79.1042 12.8438 1016 91.5797 174.117 516.111
265 1 39.0179 10.6105 414 87.9251 176.471 538.123
266 0 37.022 9.07569 336 90.0387 178.473 538.518
267 0 43.0173 7.53186 324 91.9815 179.478 537.975
268 0 46.0605 9.29213 428 95.9136 179.717 540.236
269 0 46.0837 9.41764 434 95.9378 180.502 541.779
270 0 49.0849 10.3494 508 94.1811 180.97 542.094
271 0 51.0251 11.6609 595 94.4924 180.398 540.563
272 0 52.0927 12.1322 632 90.7389 179.717 540.546
273 0 54.1989 12.3619 670 89.4194 180.346 541.204
274 0 55.1186 12.6818 699 89.2432 177.88 540.315
275 0 55.047 11.3539 625 93.056 177.032 539.269
276 0 56.153 11.0591 621 94.2721 174.808 542.57
277 0 57.0961 10.7013 611 95.0671 172.805 538.084
278 0 61.1745 12.0965 740 93.4243 171.468 538.17
279 0 61.1954 11.978 733 93.9332 170.651 537.066
280 0 66.2504 12.8754 853 91.2098 168.692 535.767
281 0 70.1493 14.0985 989 87.9535 167.107 536.341
282 0 70.2741 11.4267 803 92.8095 165.867 530.788
283 1 37.01 9.97026 369 93.1816 164.504 546.634
284 0 41.077 11.4419 470 90.0426 162.787 545.926
285 0 42.0443 10.3938 437 90.7529 163.05 544.702
286 0 44.0672 11.2782 497 88.67 161.922 543.113
287 0 43.0716 10.9121 470 90.2979 161.281 541.562
288 0 47.0419 10.4162 490 91.2551 160.502 537.837
289 0 46.1543 10.5299 486 91.2243 159.206 536.7
290 0 48.2287 13.7677 664 88.6145 159.401 531.64
291 0 50.2253 13.7779 692 89.7746 161.068 532.195
292 0 51.1712 11.6667 597 92.7337 163.611 531.342
293 0 52.1589 12.8262 669 90.4275 164.96 532.078
294 0 55.1985 12.1742 672 91.5833 166.121 528.641
295 0 57.2481 12.4022 710 91.1507 169.542 530.204
296 0 58.1553 12.0195 699 92.6795 171.489 529.258
297 0 61.1908 14.1851 868 89.0714 174.272 528.6
298 0 63.168 12.0156 759 95.0382 176.717 527.958
299 0 65.1789 12.8723 839 94.8653 180.005 528.585
300 0 65.1789 12.8416 837 140.946 183.012 528.658
301 0 71.221 13.5213 963 95.6116 181.907 527.649
302 1 37.0981 9.81182 364 99.3571 183.747 548.835
303 0 39.0862 12.3573 483 96.2298 184.089 547.075
304 0 40.0856 11.8995 477 98.8637 182.673 548.778
305 0 40.1481 11.4078 458 100.766 182.288 546.48
306 0 42.0306 11.3251 476 100.973 180.929 547.418
307 0 43.1182 12.2454 528 95.0985 178.958 546.451
308 0 46.2875 13.7834 638 97.0219 176.505 544.444
309 0 46.1007 13.6224 628 97.9252 176.201 545.986
310 0 48.035 13.0322 626 99.746 173.367 545.926
311 0 51.0375 14.1073 720 96.8361 172.154 545.872
312 0 51.0142 14.3293 731 99.4514 170.862 542.219
313 0 51.1449 13.3542 683 102.215 169.262 542.366
314 0 53.0968 13.5978 722 102.492 167.367 542.349
315 0 56.1029 14.2773 801 101.271 167.773 540.635
316 0 54.0456 12.9335 699 103.923 165.541 537.594
317 0 58.0506 15.1247 878 99.1082 164.562 538.772
318 0 58.0356 14.5256 843 101.358 162.243 536.343
319 0 59.0184 14.4023 850 104.501 161.225 530.8
320 0 63.1042 14.1829 895 104.149 160.667 531.374
321 0 66.0548 15.2752 1009 101.089 160.129 530.971
322 0 66.0592 14.4567 955 105.34 160.461 525.183
323 0 68.0504 14.1366 962 106.467 160.659 522.795
324 0 71.0405 14.3439 1019 105.422 161.667 521.331
325 0 75.055 15.4953 1163 101.52 162.923 520.206
326 0 74.0846 13.714 1016 107.664 163.565 517.552
327 1 38.0093 10.208 388 109.737 166.637 535.497
328 0 41.0613 10.9349 449 104.697 168.82 537.127
329 0 41.0656 12.1513 499 105.986 171.559 534.533
330 0 43.0389 11.478 494 107.267 173.577 535.132
331 0 45.0914 12.774 576 102.917 176.042 533.726
332 0 43.0184 11.2277 483 106.393 176.677 532.555
333 0 49.1475 13.1034 644 93.8571 178.5 534.073
334 0 50.2158 11.6099 583 100.801 180.144 535.012
335 0 51.1855 12.3277 631 98.7036 180.32 535.74
336 0 50.1296 11.7695 590 102.32 181.195 534.337
337 0 55.1828 13.3194 735 96.702 180.675 537.148
338 0 55.1828 13.3737 738 135.157 179.686 537.116
339 0 57.2324 12.6502 724 99.3191 179.093 537.243
340 0 60.0791 13.5821 816 97.9203 177.865 535.527
341 0 63.1255 14.3207 904 95.9746 176.061 535.627
342 0 65.1727 12.8428 837 98.6882 175.011 538.056
343 0 68.247 13.1434 897 96.5674 173.268 534.182
344 1 34.0778 9.59569 327 94.5505 171.22 550.532
345 0 34.239 10.2222 350 93.9714 169.289 549.826
346 0 36.1251 9.38406 339 93.997 169.218 549.879
347 0 36.066 9.6767 349 94.8023 167.708 547.175
348 0 39.1736 11.4363 448 102.44 167.118 550.442
349 0 41.1093 13.0628 537 99.0056 165.214 549.495
350 0 46.1341 10.101 466 140.433 163.255 550.661
351 0 43.1226 13.5428 584 93.7243 162.058 545.271
352 0 46.1766 13.1019 605 94.4281 160.934 543.074
353 0 45.193 12.7896 578 95.7699 159.631 540.251
354 0 45.1369 13.16 594 95.0252 159.439 538.872
355 0 50.0962 13.4541 674 92.8309 159.614 537.509
356 0 49.2319 12.8575 633 102.036 158.934 535.071
357 0 51.3076 13.6822 702 100.369 159.274 530.746
358 0 54.3099 13.9201 756 99.1032 160.72 533.775
359 0 56.1757 14.9709 841 97.9037 161.579 532.533
360 0 57.1522 13.8402 791 100.411 163.058 530.913
361 0 60.1647 14.2276 856 98.854 165.36 529.51
362 0 60.2847 13.5524 817 102.514 167.799 526.233
363 0 62.2713 13.9069 866 100.833 170.447 526.147
364 0 65.1663 13.3658 871 102.308 173.742 526.284
365 0 68.3871 14.6373 1001 98.8022 175.976 526.571
366 0 72.3187 13.5511 980 100.774 178.314 525.79
367 0 73.3182 14.5121 1064 99.4088 179.769 524.512
368 0 76.1888 14.9497 1139 95.0729 180.644 526.437
369 1 39.1478 11.6482 456 97.7566 181.447 545.86
370 0 41.2533 11.0294 455 100.78 181.706 545.086
371 0 44.2792 12.2631 543 100.142 181.72 543.123
372 0 43.2823 11.3903 493 101.862 179.716 545.018
373 0 46.3476 12.1689 564 100.298 178.234 544.966
374 0 50.2328 13.4574 676 96.358 176.666 545.994
375 0 49.3851 13.1011 647 100.81 175.23 545.526
376 0 51.1606 12.6074 645 104.09 173.569 545.333
377 0 51.1606 12.6856 649 156.012 171.573 545.342
378 0 54.1184 14.4498 782 98.1176 169.097 545.302
379 0 55.1683 14.7005 811 97.487 168.047 544.572
380 0 56.1759 13.7959 775 102.548 166.748 542.942
381 0 59.3502 15.3833 913 98.1292 165.524 542.715
382 0 60.3473 13.4057 809 103.456 164.723 540.375
383 0 60.4334 14.8593 898 102.256 162.586 537.128
384 0 64.5095 15.052 971 103.577 162.529 538.296
385 0 67.338 15.2069 1024 103.263 160.939 535.109
386 0 67.1679 13.5779 912 105.628 159.688 532.759
387 0 69.1369 14.5219 1004 103.443 158.998 531.805
388 0 73.408 13.3092 977 105.223 157.902 528.491
389 0 76.1961 15.2764 1164 99.9373 157.542 526.932
390 1 38.0399 10.2787 391 105.701 158.317 544.724
391 0 40.0413 10.9387 438 106.774 158.623 542.123
392 0 42.079 12.5716 529 102.637 159.839 540.318
393 0 43.1753 12.2061 527 104.395 161.586 540.055
394 0 43.1934 12.4788 539 104.57 162.59 538.523
395 0 47.0636 13.1737 620 101.434 164.665 538.455
396 0 47.0467 13.9011 654 103.557 167.91 536.917
397 0 48.1172 14.0283 675 104.833 171.519 536.633
398 0 49.0446 13.9057 682 104.953 173.435 536.106
399 0 50.0376 13.27 664 106.366 176.438 536.634
400 0 55.1706 14.5911 805 100.491 179.692 537.421
401 0 54.1657 14.788 801 100.568 180.513 537.439
402 0 57.0515 14.9864 855 100.019 180.747 535.212
403 0 59.0451 13.6675 807 102.223 180.914 539.486
404 0 61.0919 14.4045 880 100.98 180.732 537.165
405 0 64.1145 13.975 896 101.722 178.373 537.116
406 0 65.1568 12.8613 838 104.677 177.999 536.869
407 0 68.112 14.021 955 102.544 176.375 536.78
408 0 70.1667 14.6651 1029 103.084 175.113 536.662
409 0 73.2259 15.418 1129 103.24 173.139 534.55
410 0 77.4648 14.7938 1146 103.507 171.161 533.394
411 0 80.3086 14.8926 1196 104.059 169.123 533.458
412 1 41.2899 12.4486 514 104.49 167.088 549.591
413 0 41.1859 11.1931 461 108.907 166.065 549.753
414 0 41.1859 11.1203 458 151.627 164.041 549.694
415 0 42.2326 10.8921 460 110.737 163.63 547.902
416 0 46.1729 13.0163 601 105.995 162.519 547.829
417 0 47.0998 12.8663 606 105.767 160.686 543.85
418 0 48.0438 13.8207 664 105.685 160.541 541.905
419 0 52.19 14.8496 775 100.088 158.875 538.698
420 0 53.0695 16.7328 888 97.9167 157.744 538.554
421 0 54.0521 14.449 781 102.853 158.195 537.339
422 0 55.1412 16.3036 899 99.4127 156.683 535.562
423 0 55.2402 15.1339 836 103.484 158.211 534.353
424 0 58.3368 13.9877 816 105.096 157.663 529.314
425 0 60.2588 15.3007 922 102.82 158.436 525.776
426 0 62.1709 15.0714 937 103.439 159.926 524.815
427 0 67.3454 14.3885 969 103.851 161.722 524.81
428 0 67.3454 14.4034 970 162.582 164.737 524.886
429 0 71.1841 14.4695 1030 104.383 165.992 525.436
430 0 72.3275 15.0703 1090 105.255 169.314 522.439
431 0 77.3153 17.5127 1354 99.1595 171.535 522.617
432 0 78.3597 17.1006 1340 102.547 174.803 519.029
433 0 80.2913 16.901 1357 104.123 177.407 518.349
434 0 83.3605 15.7149 1310 108.112 178.76 519.988
435 1 46.1931 11.1056 513 109.452 179.593 541.801
436 0 46.1426 10.0775 465 113.249 180.447 543.938
437 0 46.1668 9.98553 461 114.245 180.002 543.566
438 0 46.1101 12.0364 555 114.933 179.914 541.573
439 0 50.0496 12.9472 648 107.37 179.622 541.941
440 0 52.1786 12.4764 651 105.287 179.306 539.796
441 0 53.0695 13.944 740 105.508 178.28 542.782
442 0 54.072 12.3354 667 108.469 175.984 543.264
443 0 58.1967 14.1245 822 104.725 173.884 541.686
444 0 59.0454 13.3965 791 105.439 171.981 543.477
445 0 63.1127 14.0859 889 105.308 170.616 539.117
446 0 62.1518 13.29 826 108.284 169.173 540.093
447 0 65.193 13.4677 878 107.796 167.781 538.928
448 0 68.1392 13.7513 937 107.429 165.999 537.146
449 0 70.0627 14.5013 1016 107.426 164.492 534.487
450 0 72.113 14.824 1069 107.492 163.55 530.84
451 0 75.1838 14.7106 1106 107.003 162.731 530.784
452 0 75.1104 14.5253 1091 108.705 161.852 528.212
453 0 77.157 13.5568 1046 112.781 160.696 526.298
454 0 80.0986 14.8816 1192 110.032 158.905 521.659
455 0 86.2215 15.3442 1323 106.998 158.33 524.929
456 0 87.1791 14.6365 1276 110.866 158.04 516.077
457 0 88.1495 14.6796 1294 111.861 157.794 515.973
458 0 94.1172 15.0557 1417 110.238 159.164 515.169
459 0 96.124 15.1575 1457 111.461 159.523 510.97
460 0 98.1372 13.9499 1369 114.419 161.57 508.264
461 0 102.112 14.6701 1498 112.08 162.923 508.523
462 0 105.065 15.0193 1578 110.884 165.556 506.003
463 0 110.147 15.561 1714 109.861 169.234 503.865
464 1 58.1384 11.4726 667 110.229 172.058 534.544
465 0 56.1335 11.1698 627 113.359 174.604 531.782
466 0 62.0832 13.0148 808 107.692 176.108 533.746
467 0 63.1075 13.2789 838 106.947 177.957 532.309
468 0 65.072 14.4148 938 103.838 180.841 533.308
469 0 68.1393 13.1348 895 106.458 182.554 533.882
470 0 69.1318 13.1488 909 107.459 183.211 531.298
471 0 71.2029 12.7663 909 108.976 182.751 531.813
472 0 76.3111 14.2312 1086 103.958 181.858 533.212
473 0 79.1168 13.2842 1051 105.419 180.467 533.042
474 1 40.0408 11.0138 441 109.018 179.39 548.644
475 0 42.0331 11.0151 463 106.857 177.026 548.056
476 0 44.0505 10.3518 456 106.825 176.011 551.068
477 0 46.0657 11.9395 550 102.9 172.667 549.913
478 0 47.1867 11.232 530 104.843 169.211 548.86
479 0 48.115 12.1584 585 103.73 168.121 547.788
480 0 51.0329 12.9328 660 101.267 167.18 546.552
481 0 53.0524 13.4772 715 99.0587 165.488 545.938
482 0 52.028 12.6086 656 104.694 164.71 546.044
483 0 55.046 13.7158 755 102.6 163.11 543.878
484 0 55.082 13.3256 734 103.282 162.099 542.283
485 0 57.0617 13.4241 766 103.197 162.371 540.691
486 0 60.0725 13.2507 796 104.186 161.322 539.177
487 0 62.1499 13.7088 852 102.574 160.283 536.123
488 0 64.103 13.7591 882 101.732 160.207 532.409
489 0 66.1451 13.9239 921 101.115 159.632 532.421
490 0 67.1491 13.2839 892 102.695 159.021 530.016
491 0 71.0976 14.895 1059 99.3277 159.231 526.663
492 0 71.1581 12.8025 911 105.631 159.847 525.933
493 0 73.0779 14.9977 1096 101.142 160.764 523.623
494 0 74.1819 15.0171 1114 102.474 163.613 522.583
495 0 77.1523 14.776 1140 103.178 164.46 522.888
496 0 81.0612 15.0874 1223 102.729 168.055 523.118
497 0 82.1183 15.1123 1241 103.747 170.425 520.736
498 0 86.2484 15.3742 1326 102.925 173.127 520.443
499 1 43.092 10.1875 439 109.481 176.636 544.21
500 0 46.0982 11.6924 539 107.909 178.844 542.139
501 0 49.0917 12.0387 591 107.526 179.357 541.457
502 0 52.2461 13.2259 691 103.912 181.041 544.292
503 0 51.1861 12.7769 654 107.194 181.905 544.246
504 0 53.0603 11.5906 615 110.941 181.363 543.771
505 0 56.2164 13.537 761 103.025 180.405 542.448
506 0 59.4225 14.3548 853 102.987 177.824 541.49
507 0 60.2551 12.9782 782 105.91 176.261 540.132
508 0 64.2697 14.7192 946 100.279 175.437 541.926
509 0 67.2797 14.9228 1004 100.5 173.97 538.06
510 0 68.2621 13.5214 923 103.537 171.533 540.265
511 0 70.3644 14.567 1025 103.24 170.719 538.866
512 0 74.2935 13.7832 1024 103.31 168.286 539.449
513 0 74.1633 14.4276 1070 98.8794 165.73 535.864
514 0 77.2765 12.7464 985 101.904 164.994 533.865
515 1 37.1038 10.1607 377 103.854 162.355 554.53
516 0 43.0453 10.1986 439 100.649 161.374 553.519
517 0 39.0185 9.35453 365 102.277 160.499 555.499
518 0 43.037 11.1532 480 99.3354 158.562 549.654
519 0 44.0848 13.8823 612 94.0948 157.253 549.247
520 0 45.0495 12.9191 582 98.7113 157.677 544.041
521 0 47.2919 14.5479 688 95.4375 159.295 543.747
522 0 50.0654 13.6821 685 95.5898 155.742 540.68
523 0 49.1021 12.9322 635 97.4756 155.813 540.863
524 0 51.0924 13.0156 665 96.9098 155.875 536.183
525 0 51.0571 12.8679 657 97.8615 156.758 535.845
526 0 53.053 13.8918 737 95.6377 157.955 536.564
527 0 54.122 12.8044 693 97.368 159.659 535.192
528 0 57.1629 15.5346 888 91.4426 161.68 534.787
529 0 57.0795 12.9994 742 96.8949 163.26 532.833
530 0 59.1007 13.6378 806 95.4752 166.243 532.331
531 0 61.0443 14.2356 869 94.6018 168.728 531.644
532 0 64.0295 14.4308 924 90.4426 173.317 532.443
533 0 64.0601 13.7059 878 96.7904 175.428 531.116
534 0 65.0822 12.369 805 97.036 177.116 530.555
535 0 68.1064 13.9341 949 93.5342 178.237 529.901
536 0 69.1466 15.1851 1050 71.5019 178.09 530.11
537 0 74.1653 14.0767 1044 94.2998 179.755 529.925
538 0 78.2483 14.569 1140 92.107 179.484 532.909
539 0 80.0708 14.2874 1144 94.9152 178.686 533.461
540 0 82.1124 14.0417 1153 97.1821 177.018 531.474
541 0 85.2094 15.0688 1284 96.873 176.699 528.111
542 0 89.387 15.0246 1343 95.9025 174.769 525.721
543 0 90.2913 15.4057 1391 98.0309 172.582 526.615
544 1 47.2555 11.5542 546 103.038 172.342 547.293
545 0 48.3005 11.8218 571 102.48 169.625 545.692
546 0 51.4541 13.2351 681 99.3554 168.048 544.872
547 0 49.2284 10.9083 537 103.728 166.937 545.568
548 0 51.4665 13.0376 671 101.194 164.459 542.759
549 0 53.339 13.3486 712 102.07 163.258 541.639
550 0 57.3041 15.7755 904 93.698 161.768 542.656
551 0 56.3325 13.4558 758 100.766 159.445 538.826
552 0 60.0745 13.0671 785 100.013 158.625 540.457
553 0 62.083 14.6739 911 98.7245 157.737 535.229
554 0 62.1347 14.5329 903 99.0986 156.638 535.084
555 0 65.2478 13.7476 897 101.138 156.472 531.88
556 0 68.1361 15.5277 1058 97.2722 155.774 529.993
557 0 70.065 15.9709 1119 95.5523 156.58 528.751
558 0 71.0863 14.7426 1048 100.208 156.634 525.983
559 0 74.0591 14.826 1098 100.01 157.768 524.462
560 0 76.1255 15.5007 1180 99.8915 158.782 520.504
561 0 79.185 15.8995 1259 99.8896 160.975 520.5
562 0 82.1681 15.0667 1238 100.749 162.868 519.605
563 0 83.1577 15.4045 1281 103.134 165.317 515.393
564 0 88.0885 15.2914 1347 102.408 168.844 517.141
565 0 90.0916 14.6185 1317 103.172 171.047 518.055
566 1 47.0412 11.6919 550 100.382 174.098 539.956
567 0 47.1184 12.0547 568 102.664 177.31 537.931
568 0 49.0733 12.8176 629 102.005 178.242 541.515
569 0 52.1319 13.5234 705 101.509 180.189 538.655
570 0 52.142 15.7263 820 94.2061 182.384 540.123
571 0 52.1007 13.8002 719 98.9986 181.524 540.291
572 0 58.1267 13.4534 782 95.8785 181.781 540.263
573 0 59.0882 13.9283 823 96.1081 180.803 539.825
574 0 62.0801 15.1901 943 93.9226 178.415 538.585
575 0 64.1809 14.5682 935 95.4824 176.227 536.984
576 0 65.1692 12.9816 846 99.5106 175.108 541.732
577 0 65.158 12.5081 815 101.772 172.655 535.902
578 1 35.0257 10.1354 355 98.1296 171.856 557.53
579 0 36.0529 9.37512 338 104.615 170.426 554.219
580 0 38.0139 9.18085 349 103.983 168.077 552
581 0 39.0103 9.74101 380 103.45 166.697 551.516
582 0 43.0114 9.64861 415 100.34 165.096 552.453
583 0 42.0579 10.2478 431 101.652 163.239 550.084
584 0 43.3915 12.4448 540 98.6018 163.48 543.77
585 0 45.3546 13.0748 593 97.4806 162.953 542.263
586 0 48.1395 11.8821 572 100.841 160.042 542.79
587 0 47.0395 13.6906 644 98.5994 158.432 542.989
588 0 49.1398 13.0851 643 98.8896 158.285 540.146
589 0 49.1337 11.9063 585 102.285 158.021 540.75
590 0 54.0587 13.8738 750 97.168 157.653 537.849
591 0 54.0269 13.3267 720 99.0264 158.103 534.06
592 0 55.0787 13.8529 763 99.2988 157.946 528.375
593 0 58.1056 12.7354 740 101.066 158.936 532.023
594 0 58.0652 13.261 770 102.306 160.24 528.303
595 0 60.2172 12.8867 776 102.878 162.052 526.515
596 0 64.1525 13.2185 848 103.191 163.466 525.401
597 0 64.0778 13.9518 894 102.279 166.104 527.187
598 0 67.1533 11.8982 799 104.821 169.174 526.417
599 0 71.0888 13.1244 933 103.592 171.915 524.472
600 0 73.0939 13.1064 958 102.619 174.453 525.105
601 0 75.082 13.9048 1044 103.261 177.434 524.029
602 0 79.0887 14.174 1121 100.07 178.742 523.605
603 0 81.0799 13.2339 1073 102.406 180.336 522.604
604 0 83.0631 11.6538 968 105.551 180.745 524.465
605 0 89.1171 12.7024 1132 103.186 181.685 524.054
606 0 91.2008 13.081 1193 102.521 180.348 522.059
607 1 47.0337 12.0764 568 101.044 178.766 545.611
608 0 49.0971 12.5873 618 97.9207 178.739 544.188
609 0 50.0532 14.2249 712 95.1573 176.598 542.417
610 0 51.2466 13.0936 671 96.775 174.967 542.39
611 0 55.1878 13.0826 722 95.7673 172.771 544.935
612 0 56.2212 15.1366 851 92.8813 170.26 540.477
613 0 59.1733 12.2521 725 96.9793 168.615 542.126
614 0 59.2354 13.5223 801 96.3845 166.753 539.327
615 0 61.2817 12.0917 741 100.479 166.548 538.695
616 0 62.1711 12.8999 802 98.7918 164.07 536.855
617 0 67.3384 15.2365 1026 93.0253 163.202 535.656
618 0 68.1871 14.0202 956 96.3598 161.748 530.545
619 0 69.0881 13.5624 937 100.312 160.356 532.372
620 0 71.0301 13.4732 957 101.203 160.194 529.896
621 0 74.0238 13.6578 1011 101.291 158.893 526.826
622 1 40.0078 8.84828 354 101.596 160.407 544.469
623 0 41.048 9.72032 399 101.8 160.652 541.586
624 0 41.0566 9.06066 372 107.562 159.962 538.363
625 0 45.0832 10.3365 466 104.024 160.026 537.2
626 0 46.0133 11.5619 532 102.09 161.071 539.733
627 0 47.023 12.4407 585 100.398 161.658 534.959
628 0 51.0498 12.7914 653 96.3813 163.672 536.061
629 0 51.0908 13.8772 709 93.4951 166.032 533.118
630 0 51.0661 13.6294 696 97.0172 165.716 532.993
631 0 52.0977 11.8623 618 101.612 168.657 532.524
632 0 54.0421 14.6922 794 94.9471 170.613 534.418
633 0 55.0626 13.185 726 97.6818 174.654 535.55
634 0 54.0961 11.2762 610 103.531 177.048 535.541
635 0 58.0472 12.9378 751 100.383 178.407 535.594
636 0 58.0864 12.6363 734 101.605 179.689 537.012
637 0 63.0829 13.8389 873 97.6415 180.315 536.01
638 0 62.096 12.9477 804 101.43 179.764 534.568
639 0 66.1082 12.6611 837 101.309 178.859 535.072
640 0 66.1162 11.2983 747 104.285 178.195 535.17
641 0 70.0763 12.4578 873 101.64 176.952 534.479
642 0 73.1322 13.5371 990 99.6697 176.391 533.681
643 0 75.0789 12.973 974 100.877 174.554 532.96
644 0 78.1187 13.4667 1052 100.71 171.506 531.706
645 0 81.0847 13.7757 1117 99.7404 170.751 531.801
646 1 40.0701 11.1055 445 102.596 168.272 552.786
647 0 44.0258 10.403 458 100.242 166.806 553.98
648 0 42.0437 9.68039 407 103.464 165.506 547.747
649 0 44.0503 10.6242 468 101.609 163.944 549.306
650 0 45.075 11.98 540 98.8148 162.031 548.633
651 0 48.0167 12.6414 607 98.3097 160.942 545.867
652 0 49.1136 11.9519 587 102.308 159.361 541.135
653 0 49.0299 13.5428 664 100.75 157.581 539.642
654 0 51.0293 13.8156 705 99.2383 157.342 537.328
655 0 51.0592 13.0045 664 100.758 157.084 536.164
656 0 51.0592 13.0045 664 136.69 157.084 536.164
657 0 55.0758 12.0561 664 100.291 156.655 535.754
658 0 57.0461 13.3576 762 97.6037 156.604 532.457
659 0 56.0271 12.6724 710 100.239 157.23 530.411
660 0 58.065 14.1738 823 97.6622 157.948 529.448
661 0 60.0793 13.7651 827 95.9335 160.917 528.044
662 0 60.0822 13.831 831 128.361 161.911 528.078
663 0 64.3009 13.3591 859 93.9453 166.74 528.023
664 0 66.1013 13.4793 891 92.8216 168.244 529.8
665 0 66.1167 12.4326 822 97.0985 171.954 526.582
666 0 70.0972 14.1375 991 93.1796 173.916 529.743
667 0 71.049 14.0748 1000 94.115 176.206 525.926
668 0 75.0934 15.0746 1132 91.227 178.305 526.269
669 1 38.0367 10.6213 404 97.4653 180.097 543.681
670 0 40.0382 11.6389 466 95.8734 180.519 544.088
671 0 40.0357 9.54148 382 99.5524 180.432 548.113
672 0 39.0091 11.7921 460 96.7283 180.111 547.741
673 0 39.0091 11.8434 462 142.736 180.078 547.745
674 0 40.0483 8.78938 352 101.969 177.574 548.588
675 0 42.0226 12.4219 522 96.0249 175.571 548.33
676 0 42.0592 10.3426 435 99.3218 173.793 550.538
677 0 42.1141 12.1812 513 95.6004 172.349 549.61
678 0 43.1185 12.4772 538 91.645 169.68 551.805
679 0 44.1386 12.9818 573 88.4468 168.178 551.171
