time division length width area intensity CMx CMy
0 0 41.0977 16.8622 693 113.609 661.066 497.277
1 0 41.1092 16.2737 669 114.422 661.987 499.807
2 0 44.1038 17.8216 786 109.547 663.004 499.492
3 0 44.0957 16.2147 715 114.229 663.676 498.919
4 0 44.0824 15.4937 683 117.31 663.329 500.1
5 0 45.0775 16.3718 738 116.581 662.332 501.424
6 0 47.1313 16.7617 790 115.88 661.934 502.068
7 0 49.1687 16.901 831 114.888 661.6 502.118
8 0 49.2823 15.4417 761 120.869 660.217 502.386
9 0 51.1827 16.5876 849 120.389 658.856 502.104
10 0 53.0948 18.1562 964 114.832 656.982 501.223
11 0 55.1622 18.7447 1034 112.204 655.951 501.514
12 0 56.093 17.3819 975 115.855 653.104 502.796
13 0 58.1335 17.0298 990 117.826 652.321 501.942
14 1 29.0822 11.5878 337 127.724 651.095 519.021
15 0 29.1608 11.5566 337 131.276 650.092 516.941
16 0 28.0496 12.6918 356 131.744 646.801 516.638
17 0 32.2855 12.1107 391 129.691 644.315 515.517
18 0 33.1409 12.0093 398 126.447 643.038 515.387
19 0 35.1595 13.0548 459 122.878 642.272 513.571
20 0 39.1689 13.2248 518 122.309 638.124 509.189
21 0 39.1978 14.108 553 119.391 638.056 509.548
22 0 42.1333 15.095 636 114.865 638.58 508.357
23 0 43.1124 15.564 671 117.328 638.678 506.139
24 0 44.1545 15.9893 706 115.79 639.493 504.952
25 0 42.0735 13.7616 579 124.877 640.933 506.575
26 0 45.1782 14.8966 673 123.058 642.731 502.401
27 0 48.1539 15.762 759 119.119 644.374 503.024
28 0 51.1235 15.2572 780 119.281 646.667 502.168
29 0 51.2226 16.0281 821 118.771 648.951 502.961
30 0 53.275 15.2041 810 119.043 651.156 502.236
31 0 55.1975 15.5079 856 119.396 653.729 502.806
32 0 54.0718 15.6459 846 120.454 653.953 503.053
33 0 54.1029 15.4336 835 121.483 655.093 503.987
34 0 58.0998 16.8675 980 115.179 655.868 501.716
35 0 58.1181 15.5545 904 118.695 656.196 505.343
36 0 62.0618 14.4695 898 119.349 655.158 505.538
37 0 62.2317 15.2816 951 119.075 654.616 504.846
38 0 65.2245 15.9909 1043 118.061 653.222 504.15
39 0 70.136 17.8225 1250 112.091 651.581 503.472
40 0 71.1854 16.1971 1153 116.662 650.109 504.199
41 0 73.2456 16.9294 1240 116.332 647.857 502.334
42 0 77.1594 16.1484 1246 116.938 646.218 501.885
43 1 41.0548 12.1058 497 119.996 645.416 519.608
44 0 48.0593 12.7135 611 116.149 643.507 518.447
45 0 45.0645 12.0494 543 170.32 641.44 517.538
46 0 45.0367 13.3891 603 116.539 638.391 518.405
47 0 48.0804 13.0823 629 115.886 637.253 517.979
48 0 49.1443 14.549 715 109.622 633.573 513.096
49 0 49.112 13.0518 641 109.005 632.087 508.769
50 0 51.0779 13.4109 685 105.758 631.495 512.977
51 0 55.0403 14.4076 793 106.844 630.863 509.847
52 0 55.0408 14.9526 823 107.323 629.576 509.646
53 0 57.0747 14.8577 848 108.013 629.057 507.321
54 0 59.0925 14.9934 886 107.367 627.907 503.3
55 0 61.1194 15.1834 928 106.476 627.698 503.188
56 0 62.0886 15.3973 956 107.315 628.078 500.078
57 0 66.049 15.0494 994 108.152 629.016 497.283
58 0 69.0614 16.1161 1113 105.418 630.402 494.877
59 0 72.0596 15.3068 1103 106.368 632.827 495.479
60 0 74.2122 15.3075 1136 106.341 634.667 493.137
61 0 76.0729 15.1697 1154 105.068 637.943 492.095
62 1 42.0928 11.8548 499 103.325 640.782 511.599
63 0 42.0588 9.55804 402 109.03 642.774 512
64 0 45.0509 11.4537 516 105.705 645.471 510.605
65 0 44.0586 10.8038 476 107.174 647.813 511.79
66 0 47.0924 11.849 558 103.412 647.919 511.728
67 0 49.1414 12.8812 633 96.5956 648.167 510.433
68 0 50.0322 14.6506 733 96.5989 648.535 511.202
69 0 51.0157 13.3684 682 100.811 648.789 511.314
70 0 53.093 13.2409 703 100.69 647.124 512.979
71 0 56.1937 14.1297 794 98.8791 646.072 511.101
72 0 59.1279 13.8175 817 99.3954 643.946 511.649
73 0 60.0499 14.2881 858 98.7238 642.217 510.506
74 0 62.2077 14.0979 877 102.926 641.168 510.12
75 0 65.2598 14.0975 920 103.315 639.314 509.049
76 0 67.1541 13.1489 883 104.781 637.393 510.458
77 0 72.2622 15.6098 1128 99.0496 635.713 508.361
78 0 72.191 13.4227 969 104.507 632.866 506.356
79 0 75.1083 13.7535 1033 104.027 631.635 506.062
80 0 79.1072 13.6524 1080 104 629.269 505.133
81 0 81.1779 15.657 1271 100.059 627.023 503.184
82 1 41.0219 9.97028 409 105.504 624.934 521.67
83 0 42.0168 12.2332 514 100.784 624.782 522.506
84 0 40.0655 10.5078 421 104.751 624.454 519.796
85 0 44.0244 12.6975 559 99.9803 623.771 515.494
86 0 45.0729 13.334 601 94.0865 623.689 516.92
87 0 48.1253 13.4025 645 94.707 623.957 514.724
88 0 49.0988 13.8293 679 93.2298 623.356 513.094
89 0 48.2692 12.4096 599 97.6227 623.798 510.462
90 0 51.0496 13.0265 665 95.7895 624.143 510.008
91 0 52.0909 13.4956 703 96.3798 625.721 508.755
92 0 55.1347 12.4241 685 97.8774 627.308 508.847
93 0 55.1347 12.4604 687 137.294 628.31 508.838
94 0 60.204 13.4542 810 97.0469 630.062 507.514
95 0 60.022 13.4617 808 98.4975 632.579 504.786
96 0 63.0446 14.2756 900 96.8633 635.474 504.596
97 0 64.2189 13.127 843 98.5682 638.004 506.724
98 0 65.1395 13.0029 847 98.9634 640.401 505.858
99 0 69.0484 13.4833 931 97.1633 641.778 505.303
100 0 69.0571 12.5693 868 100.718 643.376 505.909
101 1 38.0263 9.65121 367 99.6785 643.935 524.997
102 0 37.0431 11.3921 422 97.9005 644.344 525.339
103 0 39.068 11.0577 432 99.7593 643.241 525.169
104 0 41.0587 11.1791 459 97.6536 640.874 525.344
105 0 44.0162 12.1546 535 94.6523 639.535 525.064
106 0 45.0358 12.6788 571 94.5254 639.037 524.454
107 0 46.0335 12.013 553 96.1085 637.459 522.743
108 0 48.2759 13.5678 655 92.513 635.605 522.95
109 0 47.1635 12.8277 605 96.2727 634.324 523.833
110 0 50.132 13.6041 682 94.2111 632.544 521.267
111 0 51.0721 12.9425 661 93.7262 630.623 520.018
112 0 53.1046 12.8614 683 94.4334 628.611 521.956
113 0 52.0353 10.8388 564 97.7057 626.569 522.746
114 0 58.1024 13.9237 809 92.157 624.938 519.106
115 0 57.0375 13.0265 743 95.2073 623.622 516.147
116 0 60.0465 13.6394 819 93.011 622.032 516.687
117 0 62.0466 12.6679 786 97.5127 620.523 513.826
118 0 66.1472 14.0142 927 95.5868 620.155 512.224
119 0 68.0974 13.7157 934 96.6274 619.606 510.818
120 0 68.0434 12.9035 878 100.987 619.01 505.105
121 0 73.0936 14.6251 1069 96.42 619.375 503.616
122 1 37.0769 12.4336 461 99.1649 620.245 520.692
123 0 38.0688 11.4267 435 101.646 620.582 518.345
124 0 39.1053 11.5585 452 99.7588 621.538 519.228
125 0 40.0664 11.3811 456 103.581 621.329 515.761
126 0 41.1456 11.277 464 103.442 622.703 517.358
127 0 44.0349 12.3993 546 102.727 625.612 515.427
128 0 46.1157 11.9916 553 103.212 627.848 515.868
129 0 47.0639 13.6835 644 95.7919 631.099 512.542
130 0 49.1043 14.0721 691 92.6165 633.22 512.175
131 0 50.1316 12.6866 636 96.772 633.91 512.786
132 0 50.0666 13.5619 679 96.1517 636.004 512.577
133 0 51.112 13.7737 704 98.473 637.869 512.756
134 0 55.0396 12.918 711 99.6737 638.854 517.318
135 0 54.0442 13.2299 715 101.523 639.436 515.024
136 0 56.0522 12.863 721 101.379 639.32 516.062
137 0 58.0685 12.9158 750 101.315 639.207 514.968
138 0 61.074 14.6216 893 98.8869 638.597 513.884
139 0 61.1134 14.7267 900 100.968 636.118 513.468
140 0 65.0548 15.5254 1010 98.9416 635.32 515.552
141 0 68.1025 15.2564 1039 100.203 634.218 513.501
142 0 70.1446 15.0118 1053 101.105 631.304 511.586
143 0 70.1446 15.0404 1055 149.223 628.304 511.604
144 0 74.1197 14.679 1088 102.946 628.924 509.673
145 0 73.1198 14.7429 1078 157.335 629.926 510.002
146 0 80.0584 16.2256 1299 99.9654 625.6 509.952
147 1 38.1597 10.325 394 111.442 623.01 531.713
148 0 42.024 11.1841 470 108.194 622.677 530.198
149 0 43.0326 11.712 504 107.333 622.415 529.008
150 0 44.0916 11.9297 526 108.937 620.774 527.336
151 0 47.0336 13.7774 648 98.9907 619.238 523.645
152 0 45.0953 12.1964 550 105.489 618.605 520.598
153 0 50.0606 13.204 661 105.843 618.236 520.319
154 0 49.0686 13.0634 641 110.328 618.182 519.181
155 0 53.2542 14.2899 761 105.894 617.742 517.271
156 0 53.3146 13.9174 742 106.229 617.832 514.623
157 0 56.125 13.8975 780 104.767 618.612 514.009
158 0 58.0643 14.4151 837 103.947 620.196 512.95
159 0 60.1936 13.8719 835 104.956 621.059 510.877
160 0 61.1577 14.8959 911 102.895 623.765 509.647
161 0 63.1995 14.3039 904 104.718 625.613 508.696
162 0 65.1662 15.1152 985 104.091 627.193 506.958
163 0 68.1167 14.2696 972 104.81 629.987 508.378
164 0 69.1029 14.6738 1014 103.974 632.25 505.888
165 0 69.1029 14.6882 1015 154.569 634.244 505.975
166 0 76.1206 15.4229 1174 100.586 635.762 507.398
167 0 77.1179 13.3821 1032 106.38 636.726 507.493
168 0 80.0719 14.8242 1187 103.725 637.104 505.071
169 0 84.1272 14.8109 1246 103.333 638.076 504.722
170 0 84.1272 14.799 1245 154.657 639.085 504.687
171 0 84.1179 14.8839 1252 153.899 640.054 504.51
172 1 46.0152 11.4093 525 106.192 637.04 525.166
173 0 48.0168 12.4331 597 102.132 635.362 525.203
174 0 49.0922 11.896 584 102.623 633.753 525.803
175 0 53.0758 12.6046 669 98.7444 631.836 525.701
176 0 55.1122 14.1711 781 96.822 629.767 523.511
177 0 56.0819 14.14 793 97.1929 627.778 522.183
178 0 58.1536 13.7567 800 96.8625 626.304 521.144
179 0 61.2041 13.8063 845 96.2391 624.801 518.894
180 0 65.076 16.3501 1064 90.8261 621.98 516.409
181 0 65.2142 14.552 949 95.8114 621.139 516.072
182 0 67.1161 13.4692 904 98.677 619.356 514.326
183 0 69.1936 13.2816 919 98.4276 618.43 513.381
184 0 73.1516 14.0393 1027 97.8793 617.633 507.473
185 0 76.1723 15.5831 1187 95.9545 615.497 506.086
186 0 78.2001 13.977 1093 99.2562 614.525 503.688
187 0 81.105 14.3641 1165 100.02 613.362 501.297
188 1 44.0706 11.3227 499 101.633 615.18 519.064
189 0 43.0174 10.4841 451 103.623 615.639 517.885
190 0 44.0475 10.92 481 99.1393 617.11 519.674
191 0 48.0851 10.2735 494 100.257 617.994 517.372
192 0 46.0925 11.5637 533 102.668 619.259 516.321
193 0 49.1037 13.3188 654 97.2737 621.249 514.928
194 0 49.1175 11.8695 583 101.081 623.382 515.53
195 0 51.0405 12.0884 617 98.7585 626.366 513.626
196 0 52.0356 11.8188 615 102.333 629.016 513.75
197 0 57.057 13.7932 787 102.849 632.64 511.633
198 0 54.112 12.3633 669 102.894 634.638 514.897
199 0 56.1763 13.4576 756 101.878 636.004 512.835
200 0 59.1216 13.227 782 100.708 637.483 514.325
201 0 62.0751 12.5976 782 101.078 638.789 513.244
202 0 63.1606 13.2203 835 100.61 638.923 514.699
203 0 64.0646 12.7059 814 101.674 639.85 513.826
204 0 66.1782 12.693 840 101.737 638.854 513.32
205 0 69.134 12.7723 883 102.351 637.547 513.511
206 0 70.1209 12.9918 911 102.487 636.254 514.155
207 0 74.1488 12.7177 943 102.618 634.533 511.929
208 0 76.1493 13.4735 1026 102.402 632.448 514.303
209 1 41.0631 11.324 465 101.688 630.725 532.854
210 0 41.048 10.4025 427 105.108 628.752 531.827
211 0 42.0713 11.1002 467 103.465 625.814 531.619
212 0 49.1605 12.6118 620 101.953 623.313 521.487
213 0 51.1117 13.7542 703 104.151 618.963 525.92
214 0 49.0402 13.805 677 104.352 621.183 525.57
215 0 52.0488 14.0637 732 103.705 617.546 523.296
216 0 53.0878 13.0162 691 106.546 618.156 521.311
217 0 53.0357 12.2747 651 109.432 617.344 518.134
218 0 57.0772 14.9797 855 101.922 616.933 519.543
219 0 58.0814 13.7393 798 106.066 615.457 515.437
220 0 60.2462 14.6399 882 103.789 615.652 512.736
221 0 63.2038 15.2522 964 102.479 615.831 512.177
222 0 62.4047 14.0214 875 106.557 616.647 509.531
223 0 65.2582 15.0173 980 105.673 617.035 507.688
224 0 68.2792 14.5725 995 105.422 619.03 506.839
225 0 69.0436 15.3816 1062 106.242 618.172 504.635
226 0 72.0987 15.6868 1131 109.138 620.243 504.326
227 0 75.1211 14.5765 1095 111.537 623.011 503.468
228 0 77.1023 14.5651 1123 112.031 625.232 502.399
229 0 78.1202 15.4122 1204 107.868 627.987 502.74
230 0 82.0835 15.3868 1263 107.489 630.303 504.026
231 0 83.1607 14.466 1203 111.215 632.569 501.275
232 0 86.2555 14.7237 1270 110.469 633.904 499.158
233 1 47.0363 10.9703 516 113.411 633.279 520.368
234 0 48.0533 9.80162 471 115.166 635.414 522.323
235 0 49.0496 10.8462 532 113.415 635.962 522.588
236 0 52.1068 12.2057 636 108.761 635.473 521.723
237 0 51.0356 10.8944 556 100.013 633.637 518.808
238 0 53.1155 12.3316 655 100.884 632.424 519.108
239 0 56.0768 11.2168 629 95.3736 632.882 519.459
240 0 55.1552 10.2438 565 98.9451 631.848 517.83
241 0 56.166 11.1277 625 96.9792 628.061 519.33
242 0 59.1219 11.7046 692 96.5116 625.935 517.893
243 0 61.1013 13.4694 823 93.6343 625.612 517.521
244 0 64.1705 11.937 766 95.1723 623.734 516.957
245 0 65.1324 11.4075 743 96.4778 622.054 516.868
246 0 67.2576 11.8797 799 96.0113 620.735 515.206
247 0 68.1246 11.8753 809 95.419 618.675 514.56
248 1 37.0132 10.0505 372 89.3091 616.067 527.758
249 0 36.011 8.91393 321 90.2804 614.854 528.346
250 0 38.01 8.62931 328 91.1494 614.113 524.771
251 0 41.0558 9.93769 408 90.4632 612.917 524.257
252 0 43.0775 10.1677 438 89.2329 612.005 522.089
253 0 45.0371 11.1908 504 92.127 610.72 520.377
254 0 46.088 12.6931 585 96.0393 611.503 519.296
255 0 47.0665 13.1728 620 96.4968 610.561 517.752
256 0 48.0389 12.2193 587 98.6934 611.852 517.678
257 0 47.1265 12.2861 579 98.5078 613.098 516.237
258 0 50.0797 13.2189 662 95.3066 616.035 516.332
259 0 50.0412 11.9102 596 98.4077 617.079 516.057
260 0 53.0792 12.2835 652 97.5629 617.038 513.736
261 0 56.0745 12.5191 702 95.5456 619.204 514.943
262 0 56.0327 12.9389 725 96.0014 622.846 512.968
263 0 57.0683 13.1422 750 96.9787 625.963 512.516
264 0 59.0893 13.8773 820 94.5463 628.03 511.616
265 0 60.0258 12.2281 734 97.3433 631.181 511.533
266 0 61.0286 12.3549 754 98.5371 631.804 508.985
267 0 65.0826 13.0911 852 92.9636 633.838 513.715
268 0 67.1451 13.4783 905 94.8619 634.203 510.734
269 0 68.0689 12.9575 882 95.6678 634.638 511.769
270 0 71.1234 11.9511 850 96.7012 635.007 511.924
271 1 39.0857 10.2339 400 95.9075 632.112 529.232
272 0 39.039 10.9378 427 95.1054 631.464 528.326
273 0 42.1262 9.04425 381 96.5722 630.961 530.496
274 0 41.1263 9.94497 409 138.685 630.973 530.029
275 0 44.1028 10.9063 481 95.3347 627.333 529.235
276 0 46.0354 12.3818 570 93.993 626.71 528.461
277 0 47.0907 13.2935 626 92.0511 623.762 526.558
278 0 49.0931 13.179 647 92.7635 622.685 525.975
279 0 49.2494 14.1525 697 90.0014 623.91 521.713
280 0 54.1385 13.3362 722 93.0388 620.924 525.076
281 0 55.3403 14.0223 776 92.4884 619.546 524.803
282 0 54.2151 14.2027 770 92.7675 617.187 523.532
283 0 57.1243 14.2846 816 92.7034 614.652 519.683
284 0 59.1209 15.037 889 92.2688 614.592 518.184
285 0 59.0962 13.2496 783 96.728 614.229 516.789
286 0 63.2141 14.3797 909 94.2541 612.847 512.98
287 0 62.1598 13.4975 839 98.4303 612.747 511.746
288 0 62.1598 13.6101 846 153.407 612.733 511.78
289 0 69.2148 13.7976 955 98.0859 611.639 506.635
290 0 70.2364 14.921 1048 96.1002 613.678 506.154
291 1 36.1004 11.2741 407 97.7199 614.496 522.902
292 0 37.0368 11.6101 430 95.5581 615.6 523.072
293 0 39.0876 11.9475 467 95.7902 618.081 522.248
294 0 39.1036 11.7636 460 97.5174 620.333 519.057
295 0 39.1036 11.738 459 150.137 622.314 519.044
296 0 42.1332 12.4368 524 97.4103 625.282 520.632
297 0 43.0986 13.8288 596 94.2064 628.413 519.899
298 0 45.0804 14.4187 650 88.0446 631.608 517.872
299 0 45.0368 13.3002 599 92.6427 632.81 521.055
300 0 47.0282 13.6727 643 92.9984 635.524 520.412
301 0 48.0593 14.274 686 92.0058 637.396 520.22
302 0 50.122 12.9683 650 93.86 637.071 522.645
303 0 52.0568 12.7937 666 99.3574 637.913 523.637
304 0 54.0738 11.6507 630 103.038 637.592 523.914
305 0 57.0632 13.3711 763 99.3526 637.305 520.507
306 0 59.0454 13.1086 774 100.344 635.674 520.929
307 0 60.1376 14.3005 860 98.0349 633.651 518.915
308 0 60.0764 12.9835 780 100.333 632.213 519.922
309 0 65.068 14.8921 969 95.9247 630.007 518.613
310 0 65.0505 12.7593 830 101.517 628.799 517.992
311 0 68.0873 14.3492 977 98.9365 625.702 517.295
312 0 70.1368 13.8729 973 100.164 625.221 513.151
313 0 72.0891 14.8011 1067 96.955 623.636 514.791
314 1 38.0587 9.53791 363 100.95 622.264 532.62
315 0 40.1392 11.0117 442 97.4321 621.366 530.294
316 0 41.1212 11.2351 462 94.2944 618.944 526.675
317 0 42.0459 11.3685 478 96.2929 618.107 525.847
318 0 44.0594 12.1654 536 93.5149 615.698 526.101
319 0 43.0593 12.0532 519 97.0482 615.908 520.495
320 0 46.1176 13.1837 608 90.9688 614.862 520.429
321 0 48.1515 12.253 590 91.2271 614.344 521.224
322 0 48.1279 12.3629 595 91.9328 614.348 518.336
323 0 50.0566 13.1451 658 89.9103 614.384 516.536
324 0 50.1041 12.015 602 91.6478 615.533 512.797
325 0 53.0743 12.7934 679 89.3314 615.592 512.06
326 0 55.1022 13.6655 753 87.6959 616.997 511.064
327 0 54.2056 12.7109 689 90.6386 618.289 509.553
328 0 59.1354 14.7458 872 83.9174 621.024 510.67
329 0 61.2815 14.9311 915 84.071 623.835 510.104
330 0 62.2954 14.2868 890 84.4427 626.633 512.434
331 0 67.2856 13.792 928 84.1272 629.523 510.886
332 0 65.3231 12.752 833 89.5762 631.436 510.046
333 0 69.2579 14.2944 990 87.0323 633.636 511.192
334 0 71.3596 13.7333 980 89.1622 635.459 509.851
335 0 71.2173 13.6765 974 90.2546 635.997 509.5
336 0 74.227 13.8494 1028 91.2831 636.209 508.725
337 0 79.1226 14.13 1118 90.3184 635.443 509.905
338 1 43.024 11.8539 510 92.4176 636.353 526.251
339 0 44.0435 10.4215 459 94.1525 635.05 530.586
340 0 46.0311 12.5785 579 91.6062 633.974 528.383
341 0 46.0206 12.7986 589 91.3005 631.878 527.806
342 0 49.0561 12.8832 632 91.3703 630.021 532.264
343 0 50.0627 13.3632 669 96.4694 627.275 527.824
344 0 49.093 11.631 571 101.94 626.592 527.609
345 0 53.1541 13.395 712 97.0056 624.808 525.61
346 0 53.0402 12.6508 671 99.7422 623.226 524.94
347 0 56.0783 14.4263 809 94.7206 621.335 525.305
348 0 56.0862 13.2475 743 98.9919 620.498 526.358
349 0 59.121 13.8191 817 96.5006 619.842 524.41
350 0 60.0776 12.7169 764 99.8586 617.923 520.526
351 0 62.1344 13.5513 842 97.1259 616.543 517.735
352 0 62.0366 14.0079 869 96.7733 615.228 514.661
353 0 64.0407 13.2572 849 98.1084 613.965 511.695
354 0 67.0429 14.6772 984 93.685 614.537 511.674
355 0 69.0822 13.6504 943 96.035 613.919 508.906
356 0 72.1107 14.0062 1010 95.402 614.474 508.527
357 0 74.0474 14.1936 1051 97.0552 614.962 502.586
358 0 75.1528 13.0401 980 99.9388 614.761 503.937
359 1 43.0855 11.0246 475 95.5242 615.838 525.038
360 0 40.0251 11.8426 474 97.1245 618.601 521.222
361 0 42.05 12.1998 513 98.3665 620.16 517.998
362 0 43.0592 12.1693 524 97.7405 622.868 518.5
363 0 46.0447 11.4888 529 97.7297 625.439 519.338
364 0 46.0804 12.348 569 94.4938 629.773 518.116
365 0 46.0285 13.7958 635 93.715 631.973 515.794
366 0 48.2458 14.6956 709 93.7673 632.058 516.563
367 0 52.0337 14.1639 737 99.194 635.741 519.426
368 0 52.0358 14.1057 734 155.376 637.737 519.444
369 0 52.1321 12.5642 655 105.873 637.461 521.098
370 0 55.0901 14.7032 810 100.175 636.686 521.412
371 0 55.1334 13.9843 771 103.396 636.31 520.93
372 0 56.0783 14.6759 823 102.583 635.689 521.824
373 0 58.2489 13.3393 777 106.506 633.532 520.774
374 0 59.1246 13.8014 816 105.485 632.045 520.772
375 0 60.1565 13.947 839 106.636 629.66 520.882
376 0 66.2178 15.2074 1007 102.13 627.498 521.589
377 0 66.2372 15.2482 1010 104.125 626.154 519.4
378 0 70.2222 15.6646 1100 103.18 624.272 518.868
379 0 71.2335 15.1895 1082 104.634 622.974 518.485
380 0 73.2987 15.1162 1108 105.542 620.421 516.708
381 0 76.4712 15.7576 1205 104.7 619.295 515.69
382 0 77.461 16.0855 1246 105.994 617.479 511.73
383 0 77.4118 14.9719 1159 109.727 616.854 511.034
384 0 79.3632 15.3472 1218 110.089 615.552 510.637
385 1 43.0143 11.2521 484 105.052 615.266 528.601
386 0 44.0835 10.775 475 104.44 612.093 528.227
387 0 45.1984 11.2172 507 104.323 611.156 525.613
388 0 46.2626 9.92163 459 106.725 609.893 523.209
389 0 49.079 10.8804 534 107.116 610.642 521.309
390 0 50.0783 11.6817 585 105.571 610.768 520.674
391 0 51.2483 10.9662 562 107.03 611.198 515.427
392 0 54.2776 11.9939 651 106.805 612.74 513.461
393 0 55.3285 12.6156 698 105.172 614.006 514.198
394 0 60.1066 15.3228 921 97.8882 616.327 512.941
395 0 60.1131 13.0754 786 103.788 618.452 513.457
396 0 63.1212 12.8325 810 104.478 620.6 509.453
397 0 65.2534 12.8116 836 105.169 624.185 509.474
398 0 67.2666 13.7215 923 103.616 626.077 508.645
399 0 69.1194 14.0481 971 103.469 629.627 508.129
400 0 72.2302 13.4985 975 101.871 631.805 509.309
401 0 74.2406 13.7526 1021 100.683 632.173 508.333
402 0 75.2391 13.2112 994 103.718 633.903 508.453
403 0 82.1987 13.4674 1107 101.384 634.208 509.125
404 0 85.1646 15.746 1341 96.4004 634.739 509.224
405 1 44.0193 11.7903 519 103.391 632.499 527.867
406 0 48.0802 10.6489 512 104.203 631.894 527.606
407 0 47.1806 11.7633 555 101.668 630.355 529.339
408 0 49.1965 12.8668 633 100.354 628.188 527.406
409 0 51.1607 13.2915 680 100.729 626.597 525.46
410 0 55.3117 13.7765 762 95.6312 624.344 524.95
411 0 56.209 14.2326 800 98.1088 621.102 524.345
412 0 56.1586 13.5331 760 95.021 622.154 524.651
413 0 59.2263 13.6426 808 99.2265 620.51 521.801
414 0 61.3653 14.0633 863 98.5041 619.765 519.709
415 0 65.316 14.0394 917 98.2116 617.954 518.551
416 0 62.2852 13.9038 866 101.297 617.758 518.602
417 0 67.3302 13.5303 911 100.843 616.428 513.259
418 0 69.2712 15.4032 1067 97.329 615.296 512.406
419 0 70.2261 14.3964 1011 100.141 613.942 509.989
420 0 72.2756 14.002 1012 101.292 613.53 508.463
421 0 77.1989 14.7023 1135 98.422 612.553 506.269
422 0 77.3395 14.1196 1092 101.138 612.647 503.486
423 0 80.2458 14.8668 1193 99.7368 612.887 504.747
424 0 81.1607 13.9476 1132 102.923 612.419 498.503
425 0 87.1987 14.9085 1300 99.9669 613.412 496.182
426 0 88.253 14.8437 1310 101.394 615.166 493.147
427 1 48.0431 11.115 534 101.738 617.386 516.249
428 0 50.0185 10.5161 526 102.918 619.46 516.939
429 0 50.0326 12.0122 601 96.3544 623.14 515.416
430 0 52.0349 11.5307 600 96.965 625.942 515.335
431 0 54.1008 12.0516 652 94.5905 627.791 515.489
432 0 56.1764 11.7843 662 96.7915 629.559 513.551
433 0 58.3756 12.8992 753 95.2776 632.849 511.089
434 0 59.0925 13.0304 770 97.2286 632.742 513.697
435 0 62.1149 13.7165 852 95.2606 634.635 513.924
436 0 65.144 14.9975 977 92.4688 635.04 514.417
437 0 66.1074 13.8714 917 96.1538 636.112 513.62
438 0 69.2113 14.1018 976 96.0215 635.08 513.929
439 0 71.1834 14.3011 1018 95.9047 634.264 514.714
440 0 72.1629 13.4418 970 99.1784 632.244 512.909
441 0 77.1965 14.0421 1084 97.6596 630.373 511.967
442 0 80.1752 14.5182 1164 97.732 628.362 512.072
443 0 81.1427 12.8909 1046 101.941 626.531 511.988
444 0 85.2046 15.3982 1312 97.1822 625.475 511.421
445 0 86.2727 12.7155 1097 102.462 623.027 507.856
446 0 91.2496 15.1234 1380 96.7181 621.865 508.651
447 0 92.1252 14.6323 1348 99.5341 619.275 505.772
448 1 51.0578 11.1442 569 100.714 617.981 527.033
449 0 52.1116 10.9189 569 104.373 616.61 522.163
450 0 57.0787 10.9848 627 103.738 615.581 519.043
451 0 57.1472 11.7241 670 101.925 614.53 519.187
452 0 55.0405 11.3916 627 102.129 614.035 519.085
453 0 59.0799 13.8118 816 96.5429 612.602 516.042
454 0 61.1017 14.2713 872 93.5711 611.273 515.916
455 0 62.1063 14.6523 910 94.644 611.519 513.509
456 0 66.0602 15.8189 1045 90.0067 610.535 507.976
457 0 66.0791 14.6642 969 93.8225 611.627 507.086
458 0 67.1273 13.1541 883 97.3975 612.192 507.941
459 0 71.0601 15.2688 1085 93.9825 613.463 502.958
460 0 71.0601 15.3813 1093 131.023 615.49 502.986
461 0 74.0806 13.3773 991 98.5873 617.263 503.51
462 0 77.2247 13.2212 1021 98.5465 619.819 499.326
463 0 81.0785 13.5794 1101 97.8029 622.236 501.521
464 0 82.1357 12.6133 1036 100.758 625.65 499.383
465 0 86.1976 14.7568 1272 95.1368 628.259 500.498
466 0 89.0785 14.1111 1257 97.9451 631.177 496.608
467 0 91.1068 14.0714 1282 96.7605 633.005 497.208
468 0 94.1031 12.8476 1209 98.3921 634.517 499.282
469 0 98.0954 13.6398 1338 97.1076 635.648 497.877
470 0 100.083 12.8294 1284 98.222 635.072 494.957
471 0 106.085 14.4883 1537 94.6239 635.545 495.316
472 0 111.214 14.7823 1644 93.2555 634.093 494.962
473 1 58.0392 10.4757 608 96.8717 636.664 522.977
474 0 60.0521 11.3901 684 94.2325 634.187 523.225
475 0 59.021 10.6064 626 97.1326 632.235 518.835
476 0 63.0544 13.2425 835 89.3617 630.56 521.002
477 0 65.2025 13.5731 885 86.3073 625.144 517.54
478 0 66.1971 11.8585 785 89.4879 623.874 517.082
479 0 71.0502 11.8648 843 89.6453 624.804 520.133
480 0 72.052 13.3515 962 87.6798 623.08 517.598
481 0 73.1362 12.6887 928 89.6131 620.765 516.929
482 0 74.1398 11.829 877 92.1038 620.039 514.466
483 0 77.1558 13.0774 1009 90.893 619.254 511.09
484 0 80.1258 12.4804 1000 91.84 617.349 509.551
485 0 80.2503 12.2242 981 93.264 616.911 508.053
486 0 86.2495 14.2957 1233 89.6504 615.668 506.777
487 0 89.1674 15.8915 1417 86.4968 614.531 500.21
488 0 91.1869 14.2345 1298 90.0347 614.982 498.3
489 0 94.347 14.1287 1333 90.6452 613.951 496.158
490 0 95.2836 13.696 1305 92.4337 613.915 491.259
491 0 98.1962 12.6176 1239 93.9604 614.207 491.893
492 1 51.0324 9.54295 487 96.2895 616.047 513.598
493 0 54.0375 10.6963 578 93.5606 616.941 514.23
494 0 58.1391 11.9369 694 91.0504 618.666 513.464
495 0 60.0637 12.4534 748 90.9144 620.971 513.755
496 0 61.1803 11.6541 713 92.2174 623.61 513.609
497 0 63.0477 13.1329 828 91.9493 625.232 508.326
498 0 66.3085 14.3421 951 89.0379 626.345 506.948
499 0 67.2602 12.3401 830 94.6843 629.408 507.941
500 0 69.0577 13.8145 954 91.8428 629.253 508.7
501 0 72.0957 13.6347 983 91.9644 631.326 510.827
502 0 73.0804 12.5068 914 94.6368 633.559 513.853
503 0 78.0562 13.0675 1020 93.2029 634.113 512.388
504 0 77.0581 12.2505 944 134.809 634.129 511.26
505 0 82.1298 13.8439 1137 93.0985 633.342 508.806
506 0 83.0976 12.2025 1014 96.7436 631.704 508.489
507 0 88.055 15.0588 1326 91.2187 630.18 507.403
508 0 91.0974 13.4801 1228 94.9389 629.125 505.752
509 1 51.0474 6.93473 354 98.0282 626.876 530.359
510 0 52.0191 11.2651 586 92.0887 627.49 528.126
511 0 51.084 9.92482 507 96.5286 626.927 526.74
512 0 54.0617 11.2834 610 94.323 624.784 527.433
513 0 53.1284 10.1641 540 96.0944 622.567 526.202
514 0 58.3555 12.0126 701 87.6448 618.853 520.094
515 0 56.039 11.6704 654 90.1132 618.393 525.85
516 0 61.0276 13.0924 799 86.5056 617.98 524.079
517 0 60.0455 11.0583 664 90.869 617.568 521.14
518 0 63.0591 12.3059 776 88.1611 615.945 519.304
519 0 64.0583 12.192 781 89.7554 614.74 516.876
520 0 67.1172 11.7705 790 90.1342 613.962 513.182
521 0 70.2349 13.9674 981 86.6718 614.508 513.927
522 0 70.134 12.2765 861 89.5888 613.847 509.16
523 0 75.138 12.8563 966 89.5124 613.576 506.917
524 0 77.188 12.8906 995 91.0352 612.902 503.291
525 0 81.2014 13.5219 1098 90.214 613.289 504.921
526 0 82.2133 12.7108 1045 93.1761 615.861 501.741
527 0 87.1524 13.3444 1163 90.7034 616.541 502.695
528 0 87.1747 12.5266 1092 94.2445 617.965 498.772
529 0 90.1106 12.4181 1119 95.0063 620.833 497.694
530 0 95.1089 13.3636 1271 93.771 624.522 494.807
531 1 54.0411 12.2499 662 93.7523 628.32 517.19
532 0 57.0518 11.7788 672 93.6756 630.75 517.57
533 0 59.0307 13.908 821 91.6833 632.515 514.479
534 0 58.0358 12.096 702 93.1311 633.842 512.886
535 0 61.3394 11.9825 735 92.2803 632.143 508.165
536 0 65.0709 12.1867 793 95.4313 636.076 515.151
537 0 67.1134 14.0955 946 91.6543 636.085 516.162
538 0 67.159 14.1158 948 93.0042 635.227 514.431
539 0 71.0545 15.27 1085 91.2369 634.326 515.208
540 0 71.0219 13.8408 983 93.2228 633.812 517.467
541 0 75.0976 13.8886 1043 92.1083 632.031 516.52
542 0 78.1187 14.8876 1163 90.5649 629.911 517.482
543 0 79.1324 14.8233 1173 92.1901 628.653 514.102
544 0 83.1653 14.1766 1179 93.0144 625.379 512.941
545 0 84.2841 13.4901 1137 99.5172 622.484 510.186
546 0 89.3176 15.2378 1361 94.1631 621.735 511.97
547 0 91.4487 16.7744 1534 92.2829 620.349 510.154
548 0 91.3875 13.5358 1237 99.4155 619.218 509.591
549 0 95.2914 14.7757 1408 97.1413 618.227 505.676
550 0 97.4924 14.3396 1398 97.9671 616.781 503.026
551 1 54.072 9.52434 515 100.854 615.6 525.753
552 0 54.1043 10.9788 594 99.2306 614.902 524.699
553 0 56.0715 11.1821 627 99.5215 612.654 522.517
554 0 56.0757 11.7876 661 97.8003 611.896 520.82
555 0 58.2342 12.2093 711 98.2194 611.017 512.684
556 0 59.1663 14.6536 867 89.2514 611.022 511.945
557 0 61.1322 14.1497 865 89.6844 610.91 513.067
558 0 64.1142 15.0357 964 86.1815 613.243 510.224
559 0 63.1347 12.9247 816 91.8125 614.561 510.685
560 0 66.073 14.378 950 88.8347 615.158 505.106
561 0 68.1169 14.5926 994 88.7133 616.977 506.173
562 0 69.0771 15.736 1087 87.4204 617.047 506.667
563 0 72.1307 15.0283 1084 89.4142 619.518 503.75
564 0 74.1512 14.0119 1039 91.6631 622.881 503.447
565 0 78.0718 15.2296 1189 88.5332 626.139 504.516
566 0 79.1109 15.0169 1188 90.346 628.805 503.052
567 0 84.1299 15.7732 1327 87.5358 629.728 503.393
568 0 85.1846 16.1179 1373 89.0648 633.023 507.86
569 1 43.0767 8.75182 377 101.117 634.114 523.782
570 0 46.125 12.1626 561 95.7398 633.913 526.287
571 0 47.0371 11.4165 537 99.4581 633.678 525.551
572 0 49.0847 11.8367 581 99.1584 634.148 524.73
573 0 50.2117 12.6863 637 96.3046 631.697 526.54
574 0 53.5352 14.2149 761 86.1787 631.849 523.537
575 0 53.0465 13.5918 721 89.4799 631.105 525.459
576 0 54.1863 12.0879 655 92.4107 628.501 527.287
577 0 58.044 14.2133 825 87.8558 626.355 523.16
578 0 61.1331 12.5137 765 90.0614 622.914 527.608
579 0 62.177 14.7965 920 89.9196 621.856 520.792
580 0 63.1047 13.6123 859 92.4645 619.838 521.271
581 0 65.2433 13.9631 911 91.2876 618.09 524.25
582 0 69.1261 14.8858 1029 90.5948 617.141 519.667
583 0 71.1283 14.4106 1025 91.9327 616.878 519.79
584 0 72.1918 14.0598 1015 93.4601 615.646 513.142
585 0 76.1242 14.0691 1071 92.2969 613.976 509.614
586 1 38.1134 13.3549 509 93.6542 613.499 527.947
587 0 41.178 12.6767 522 92.5479 613.628 528.992
588 0 42.0478 10.0838 424 95.5519 612.656 527.406
589 0 43.0887 10.2579 442 94.5792 612.455 529.871
590 0 45.0986 12.8164 578 93.5294 612.493 524.067
591 0 46.0918 13.0609 602 90.5748 612.081 520.515
592 0 46.1399 13.6975 632 84.2801 614.375 515.756
593 0 48.0387 12.7397 612 85.3856 614.137 515.023
594 0 49.0445 14.3135 702 82.7707 616.018 513.434
595 0 50.1014 12.8938 646 83.2523 618.235 514.286
596 0 51.0291 12.2871 627 85.4609 620.494 513.404
597 0 54.0333 15.3609 830 81.2711 623.541 511.612
598 0 55.068 13.674 753 84.8513 625.042 513.069
599 0 56.1888 13.0097 731 85.7606 628.382 516.945
600 0 59.1112 14.1259 835 83.4766 630.664 514.01
601 0 61.1697 14.517 888 83.7151 632.706 515.803
602 0 64.0933 14.8221 950 82.4947 634.14 514.156
603 0 64.1696 12.7007 815 86.7583 634.577 514.452
604 0 67.082 13.2673 890 86.1079 636.117 515.031
605 0 71.226 13.4501 958 84.2422 636.338 516.096
606 0 72.1361 12.4903 901 84.2053 634.956 516.154
607 1 37.101 9.46065 351 85.7122 633.972 533.177
608 0 38.097 12.5207 477 82.4969 632.222 534.849
609 0 39.0432 11.4745 448 82.6585 630.464 532.301
610 0 40.0835 11.975 480 82.2062 628.235 535.485
611 0 42.1402 12.1499 512 81.4082 626.584 535.582
612 0 45.0551 15.2036 685 76.4409 622.673 529.53
613 0 43.1914 11.1133 480 83.5104 620.365 529.027
614 0 43.2233 12.1231 524 84.2614 620.305 529.815
615 0 48.1308 13.1101 631 82.0063 618.277 529.071
616 0 49.1074 15.1708 745 76.6094 616.91 526.098
617 0 50.113 12.4918 626 79.0783 615.828 525.233
618 0 54.3633 12.2693 667 77.6027 613.375 524.532
619 0 56.142 14.2496 800 75.4625 613.768 522.052
620 0 56.2786 13.0778 736 77.428 612.505 519.372
621 0 58.1397 14.0352 816 75.8799 611.821 518.135
622 0 59.2969 13.4577 798 77.0652 612.306 516.242
623 0 63.1202 14.1635 894 75.7774 611.736 513.751
624 0 61.0972 12.9466 791 78.6081 611.96 514.599
625 0 66.0912 13.3755 884 77.5249 612.999 509.82
626 0 67.1382 14.1499 950 78.1716 613.766 510.336
627 0 70.093 14.8089 1038 76.5337 615.642 505.131
628 1 37.0133 12.9683 480 76.3542 616.581 523.829
629 0 37.067 11.3039 419 78.5776 618.527 521.375
630 0 38.049 11.8794 452 78.3805 622.055 520.33
631 0 39.0135 10.176 397 79.6297 625.322 521.264
632 0 39.0165 10.8159 422 132.941 629.377 520.557
633 0 42.1902 12.7281 537 76.3613 629.799 519.248
634 0 42.1902 12.7281 537 113.723 632.799 519.248
635 0 47.399 14.726 698 74.3224 633.927 525.649
636 0 46.2177 13.3931 619 78.1422 635.738 522.756
637 0 47.1929 13.4554 635 78.0535 635.595 522.669
638 0 50.1556 15.1329 759 74.6956 635.211 523.656
639 0 52.1293 14.1955 740 75.5405 635.08 525.762
640 0 53.1869 13.556 721 78.4355 634.72 524.259
641 0 54.209 13.0052 705 79.8894 632.772 524.474
642 0 57.2096 15.015 859 76.6496 631.129 523.185
643 0 57.1915 13.0789 748 80.9492 629.04 522.671
644 0 60.2863 12.4738 752 81.9308 627.374 522.523
645 0 63.2591 12.267 776 82.6044 625.001 521.186
646 0 65.2704 11.8584 774 83.3954 623.124 523.791
647 1 36.0165 11.1338 401 81.7257 624.002 537.658
648 0 35.0123 9.48239 332 81.5 621.696 534.642
649 0 38.0789 11.161 425 79.8047 619.221 535.127
650 0 39.142 12.7229 498 78.4759 618.564 531.739
651 0 38.2095 10.7041 409 81.176 616.389 529.416
652 0 41.2728 12.3326 509 79.8173 614.141 525.187
653 0 42.5799 12.8699 548 80.4964 613.801 520.692
654 0 43.1346 12.5653 542 77.0148 612.578 524.823
655 0 43.0534 11.6367 501 81.0419 611.862 523.359
656 0 47.2042 12.6684 598 77.0903 613.279 519.707
657 0 45.2004 12.4114 561 79.2228 612.385 520.266
658 0 47.2155 13.9361 658 77.0061 613.454 516.237
659 0 47.2155 13.9785 660 128.012 614.459 516.274
660 0 49.195 12.8062 630 79.8476 614.743 514.579
661 0 53.2074 13.9454 742 77.7197 616.38 515.119
662 0 51.1912 12.971 664 136.59 617.361 513.843
663 0 57.2423 14.4823 829 77.836 620.341 513.811
664 0 58.1939 12.9395 753 81.3572 622.214 511.955
665 0 59.1694 12.4727 738 82.935 625.729 511.714
666 0 63.2374 14.1214 893 81.187 629.094 513.129
667 0 64.2701 13.4277 863 83.7057 630.286 511.426
668 0 65.2299 13.8893 906 85.3433 632.312 510.598
669 0 69.2053 14.4353 999 84.8008 633.935 508.993
670 0 72.3116 13.2067 955 87.289 635.279 511.001
671 0 73.1967 12.9241 946 88.8573 636.554 510.724
672 0 79.203 13.9767 1107 85.9422 635.716 512.262
673 0 80.3272 14.2044 1141 86.1648 633.605 510.273
674 1 42.0521 10.5583 444 88.3401 633.572 531.646
675 0 43.1445 10.291 444 88.8694 632.284 530.462
676 0 45.2628 12.5269 567 86.2099 630.884 528.974
677 0 46.2781 12.5977 583 86.1664 627.377 529.808
678 0 48.2098 13.6279 657 84.9224 625.435 528.349
679 0 49.2088 12.7619 628 85.5892 623.032 526.368
680 0 51.1586 12.041 616 87.7338 622.239 529.028
681 0 55.1262 13.9861 771 83.7367 619.673 526.494
682 0 56.079 13.1065 735 86.3184 618.309 524.348
683 0 58.1683 13.0827 761 86.2326 616.646 521.018
684 0 59.1527 14.302 846 84.6548 615.202 521.871
685 0 63.1138 15.3215 967 81.7115 614.826 520.32
686 0 65.1037 16.8193 1095 79.0667 613.572 519.671
687 0 65.1215 13.2061 860 86.764 612.685 515.998
688 0 67.0834 13.8186 927 86.8598 612.301 513.319
689 0 70.1454 14.641 1027 84.406 612.05 510.359
690 0 72.1007 14.2994 1031 84.7701 612.186 511.104
691 0 73.1563 14.2025 1039 86.719 612.451 508.703
692 0 76.1899 14.5295 1107 85.9413 612.254 506.779
693 0 76.1198 13.9123 1059 88.1416 612.851 504.475
694 0 79.1562 14.9325 1182 86.6819 613.354 500.689
695 0 83.1968 15.0126 1249 86.8046 614.592 501.347
696 1 44.0299 10.084 444 92.6734 617.944 520.444
697 0 45.0854 10.9126 492 88.2459 619.002 521.811
698 0 46.0206 11.6252 535 89.4206 621.837 519.551
699 0 49.2058 12.3563 608 88.0674 624.04 519.903
700 0 51.219 13.5497 694 84.8516 626.628 518.899
701 0 53.0501 13.9679 741 88.8718 629.777 517.949
702 0 53.1033 13.4832 716 90.176 631.982 519.067
703 0 57.0335 14.5353 829 87.9904 632.764 518.905
704 0 57.0614 12.5304 715 91.8713 633.787 520.752
705 0 59.0372 13.2459 782 91.5371 633.873 520.454
706 0 63.0409 14.1971 895 88.3397 633.629 521.515
707 0 63.0442 14.5771 919 88.284 632.837 519.705
708 0 65.0372 11.5626 752 93.4215 631.004 520.678
709 0 66.0862 12.5594 830 91.659 630.047 520.754
710 0 70.0473 12.6914 889 90.6445 628.408 519.415
711 0 72.0668 12.8631 927 90.9752 625.237 516.251
712 1 38.0246 10.0461 382 88.0262 623.84 536.851
713 0 41.0844 10.5636 434 88.0945 618.894 537.491
714 0 42.2737 9.9589 421 88.6888 617.323 535.131
715 0 44.1724 12.1796 538 86.145 615.249 532.634
716 0 43.0756 10.5164 453 89.8808 615.024 533.313
717 0 47.0972 12.6971 598 84.9682 612.597 531.634
718 0 47.1568 14.2715 673 80.3418 611.624 529.73
719 0 47.0516 10.7542 506 87.5237 610.783 528.2
720 0 48.3002 13.6231 658 84.2188 610.649 526.658
721 0 52.1358 13.4457 701 83.592 609.598 525.023
722 0 52.116 13.6235 710 84.2676 608.628 522.294
723 0 53.2058 13.0249 693 85.9452 609.022 520.317
724 0 53.1965 13.234 704 86.081 608.803 517.567
725 0 54.1618 12.1857 660 88.1712 609.327 515.917
726 0 57.2516 13.4494 770 84.661 609.309 515.842
727 0 59.1112 14.4643 855 83.5509 609.861 512.789
728 0 60.1134 13.8405 832 84.6526 611.149 512.666
729 0 62.1426 13.9035 864 84.9954 612.446 510.988
730 0 66.1942 14.1704 938 84.0298 614.874 510.577
731 0 68.1109 15.2692 1040 81.8769 616.909 510.288
732 0 68.2387 13.7166 936 85.6752 620.267 513.756
733 0 70.1453 14.0993 989 86.1092 623.022 511.666
734 0 72.327 13.2869 961 87.7409 625.21 510.015
735 1 35.3314 9.00049 318 95.8113 627.421 528.582
736 0 40.1073 11.1451 447 90.8054 629.62 528.029
737 0 40.1182 11.4661 460 92.2022 630.504 526.976
738 0 42.212 10.3999 439 91.9841 631.469 529.531
739 0 43.291 11.2495 487 92.501 632.014 528.864
740 0 44.259 12.5398 555 89.2865 631.577 529.225
741 0 46.3132 12.653 586 90.2764 631.404 526.701
742 0 47.1546 12.1303 572 91.0367 630.904 529.164
743 0 47.1088 12.2695 578 92.237 629.746 528.408
744 0 52.2227 14.0552 734 86.5817 627.763 531.827
745 0 53.1158 13.9883 743 87.4024 625.304 528.32
746 0 52.0735 12.8472 669 90.6173 622.768 527.043
747 0 56.0712 13.7325 770 87.7545 621.353 529.882
748 0 58.2279 13.825 805 87.7081 620.484 527.445
749 0 59.0983 14.0613 831 88.5909 618.135 524.396
750 0 62.225 15.5404 967 84.454 617.385 524.973
751 0 63.1472 12.8905 814 88.9496 615.493 520.672
752 0 66.1118 14.2335 941 86.831 613.99 521.015
753 0 68.1039 15.1533 1032 85.5543 612.712 516.011
754 0 68.0896 13.071 890 90.836 612.186 515.531
755 0 72.1128 14.7547 1064 87.5 611.905 512.082
756 0 74.0977 13.7926 1022 89.5695 610.812 512.277
757 0 75.1158 14.2846 1073 88.1053 611.097 508.903
758 0 79.1995 15.139 1199 86.2152 610.489 508.413
759 0 80.173 13.0593 1047 90.276 611.559 505.892
760 0 83.1875 14.5575 1211 88.8092 610.517 502.265
761 1 44.0716 9.50725 419 95.5847 611.773 522.067
762 0 45.0242 11.3494 511 92.225 612.885 521.202
763 0 45.0608 10.0975 455 94.0703 614.688 520.747
764 0 48.0987 11.4556 551 90.5517 615.523 522.149
765 0 50.0813 11.9406 598 86.087 617.639 518.127
766 0 53.1801 12.6175 671 87.0462 619.86 517.599
767 0 51.1993 12.8517 658 88.0426 623.198 517.246
768 0 56.139 14.1613 795 85.556 626.192 518.743
769 0 57.0892 13.838 790 87.3203 629.044 518.301
770 0 59.239 14.5343 861 87.4088 630.398 515.293
771 0 62.0789 15.5447 965 85.5285 631.559 516.229
772 0 62.2296 14.3983 896 88.385 631.994 516.266
773 0 67.1659 15.5138 1042 85.6948 633.07 518.598
774 0 68.1082 14.8 1008 87.7599 631.992 516.782
775 0 71.2218 14.7006 1047 88.256 631.708 516.674
776 0 72.1112 15.2958 1103 87.7235 629.847 515.899
777 0 72.1112 15.3929 1110 133.972 627.828 515.883
778 0 80.2148 14.9848 1202 86.2887 626.644 517.029
779 1 41.0136 11.0695 454 93.0132 625.802 533.661
780 0 43.0332 11.2704 485 94.7155 622.579 533.247
781 0 44.0213 12.8574 566 94.5283 621.108 531.592
782 0 48.0762 12.605 606 93.302 619.55 531.634
783 0 49.0666 14.3275 703 91.8506 617.819 528.347
784 0 48.0793 13.7273 660 92.55 616.488 527.091
785 0 51.153 14.8378 759 90.9433 615.777 527.717
786 0 52.0545 14.0238 730 92.5466 614.456 524.332
787 0 56.0574 15.6982 880 88.7523 613.164 522.038
788 0 54.0485 13.4139 725 94.9103 612.017 520.686
789 0 56.0553 13.3796 750 92.824 610.953 519.701
790 0 58.1263 14.5201 844 91.2014 611.757 515.461
791 0 61.2388 15.0068 919 90.1817 612.55 512.65
792 0 60.1846 13.5084 813 93.9004 611.555 512.947
793 0 63.1701 12.8384 811 93.3748 612.307 509.301
794 0 66.154 14.6325 968 90.7996 612.682 508.686
795 0 67.1717 13.9196 935 92.2481 612.699 506.362
796 0 67.23 14.1901 954 92.9015 613.906 505.074
797 0 71.1324 12.7228 905 94.5293 615.384 505.641
798 0 74.3486 14.6069 1086 92.1529 616.971 503.365
799 0 78.2091 14.8576 1162 92.3804 619.7 503.199
800 1 37.1408 9.50437 353 97.915 622.989 522.252
801 0 41.1791 11.0736 456 96.7982 625.643 521.05
802 0 43.0769 11.1661 481 95.9314 629.098 521.952
803 0 45.2525 12.5297 567 97.2716 630.33 520.936
804 0 46.0835 11.7396 541 97.0739 630.457 523.617
805 0 48.1418 14.0419 676 93.6894 632.498 521.075
806 0 47.0515 14.0909 663 93.7602 631.906 522.768
807 0 49.1205 13.7824 677 93.9572 631.913 523.609
808 0 52.0417 14.4115 750 93.288 631.729 525.001
809 0 52.0295 13.3578 695 97.623 630.616 525.118
810 0 55.0349 14.409 793 94.8966 628.929 524.627
811 0 57.0743 14.998 856 94.4346 627.542 524.366
812 0 59.0439 14.0573 830 97.6807 625.759 524.641
813 0 62.1287 13.4559 836 100.48 623.85 523.048
814 0 64.0911 16.1645 1036 96.555 621.315 521.714
815 0 66.0923 14.3587 949 100.897 619.995 521.122
816 0 69.1981 15.0438 1041 99.6148 618.132 519.528
817 0 70.0733 14.3421 1005 102.119 616.733 519.175
818 0 73.1235 14.1815 1037 102.623 615.338 518.511
819 0 76.1879 14.5692 1110 101.213 613.74 514.604
820 0 79.1469 14.8458 1175 99.8298 612.468 509.58
821 0 83.0988 15.1988 1263 98.9184 610.841 508.281
822 0 86.2491 14.69 1267 99.251 610.706 507.582
823 0 89.2147 15.4459 1378 99.9303 609.747 500.499
824 0 91.2922 14.4152 1316 101.296 609.761 502.827
825 0 94.2847 14.2335 1342 100.32 608.849 496.177
826 0 97.2893 14.9451 1454 100.039 608.75 491.225
827 1 51.1026 13.2087 675 147.517 607.828 515.601
828 0 53.2949 14.8982 794 100.055 609.817 513.247
829 0 56.0997 14.9555 839 99.7461 611.759 513.57
830 0 57.0612 13.7046 782 104.084 611.57 510.061
831 0 59.0929 14.2826 844 103.021 613.65 511.167
832 0 61.0908 15.5834 952 100.975 615.75 510.646
833 0 63.1418 14.8871 940 102.785 619.244 509.555
834 0 66.1008 15.7789 1043 101.218 620.788 508.336
835 0 68.0649 15.0298 1023 104.965 623.494 506.891
836 0 70.2393 15.5469 1092 105.259 625.693 507.981
837 0 72.1225 15.4875 1117 105.637 628.721 508.097
838 0 76.1454 15.7856 1202 104.529 630.481 506.906
839 0 78.1414 14.8705 1162 108.252 631.552 505.145
840 1 40.4213 12.5429 507 107.637 633.095 529.252
841 0 41.509 12.0215 499 110.002 633.868 531.086
842 0 44.1024 14.8745 656 99.1448 632.024 531.503
843 0 44.2569 14.8451 657 102.58 631.412 526.941
844 0 45.1719 13.504 610 106.723 630.549 526.869
845 0 47.1859 15.2164 718 102.613 628.063 528.274
846 0 49.1612 14.2592 701 104.501 625.897 528.77
847 0 51.1111 14.3022 731 102.231 622.57 529.044
848 0 52.1474 15.111 788 102.93 622.128 529.529
849 0 52.1085 15.1991 792 106.145 620.361 527.207
850 0 53.1314 14.85 789 108.809 619.981 527.532
851 0 58.0866 15.322 890 103.979 616.196 525.844
852 0 57.0693 14.1582 808 107.778 615.306 526.738
853 0 60.0562 15.6354 939 105.398 614.668 525.209
854 0 61.1907 14.1525 866 108.893 612.904 519.883
855 0 63.073 14.5387 917 107.216 612.078 520.764
856 0 65.1813 13.5775 885 110.819 611.279 516.719
857 0 66.1788 14.3097 947 109.753 611.056 514.46
858 0 68.29 13.9552 953 110.895 610.605 513.604
859 1 35.0777 10.8616 381 112.843 609.483 529.842
860 0 35.1342 10.5026 369 111.393 608.401 526.52
861 0 36.1067 12.6016 455 108.081 609.91 523.978
862 0 37.1586 11.3298 421 107.969 610.045 524.542
863 0 37.0868 12.4033 460 103.943 612.411 526.883
864 0 40.0381 13.1125 525 102.11 615.989 527.015
865 0 41.0599 12.6401 519 102.846 616.773 527.908
866 0 41.0757 14.315 588 101.427 620.073 524.791
867 0 39.024 11.8389 462 109.026 623.193 525.812
868 0 40.0295 13.2902 532 106.109 625.618 525.774
869 0 42.1171 13.3437 562 102.016 627.566 525.893
870 0 42.159 13.9709 589 100.684 630.037 527.324
871 0 41.0911 13.8716 570 102.191 631.442 527.105
872 0 43.3201 12.927 560 101.534 633.284 527.182
873 0 42.1197 12.7969 539 103.306 633.811 528.532
874 0 42.1583 13.4493 567 102.303 634.362 529.367
875 0 44.2444 13.6514 604 100.507 633.748 530.599
876 0 44.1465 13.7497 607 100.636 632.474 529.003
877 0 48.1367 13.5655 653 100.277 631.172 531.115
878 0 47.0649 14.5544 685 97.8292 629.959 534.778
879 0 47.0481 14.6233 688 98.7951 627.606 531.711
880 0 49.0488 13.7007 672 99.4896 625.116 533.408
881 0 49.0992 13.8495 680 98.9147 623.071 533.466
