time division length width area intensity CMx CMy
0 0 36.1571 12.4733 451 130.14 206.741 500.667
1 0 38.0492 13.0883 498 126.122 207.631 501.994
2 0 37.0968 13.2626 492 128.016 208.661 502.474
3 0 41.0727 13.3665 549 123.974 209.228 502.718
4 0 41.1394 13.8796 571 124.555 209.019 503.301
5 0 44.1619 13.5184 597 123.157 208.291 504.214
6 0 45.1347 13.1828 595 124.042 207.924 505.975
7 0 45.086 14.4612 652 122.207 207.025 505.942
8 0 45.1264 15.0466 679 122.131 205.976 504.972
9 0 45.1803 13.3908 605 129.2 204.511 506.298
10 0 46.1157 13.3577 616 128.838 202.617 505.721
11 0 47.2541 15.5331 734 122.797 201.489 505.031
12 0 48.3263 13.3468 645 128.536 198.402 506.757
13 0 52.1849 13.7588 718 125.11 197.744 507.39
14 0 50.0966 15.8294 793 121.913 195.314 506.458
15 0 53.0409 15.6483 830 121.757 194.277 505.97
16 0 52.2011 13.8694 724 128.972 191.193 507.061
17 0 53.0821 14.7696 784 127.258 188.62 505.286
18 0 57.0965 16.1656 923 119.257 187.478 503.712
19 0 57.051 14.5834 832 124.349 186.669 503.417
20 0 60.1204 14.8868 895 123.37 182.543 499.733
21 0 63.0936 15.2472 962 119.823 182.404 497.225
22 0 68.0547 15.5904 1061 116.686 182.741 496.943
23 0 67.1503 14.8175 995 117.628 183.577 495.866
24 0 70.1258 15.515 1088 115.8 184.44 493.602
25 0 71.0668 14.9577 1063 117.767 185.709 493.214
26 0 75.1613 14.6751 1103 119.094 187.419 489.046
27 0 77.2047 15.4006 1189 116.27 189.179 489.914
28 0 78.2908 14.8293 1161 119.68 191.319 486.986
29 1 41.1072 13.1364 540 118.265 194.148 506.057
30 0 40.1867 12.5912 506 119.16 196.595 505
31 0 44.1128 12.1053 534 118.566 199.142 505.614
32 0 44.0812 13.1349 579 117.554 199.242 507.029
33 0 48.0096 14.5804 700 111.563 199.724 509.256
34 0 50.1613 14.6129 733 110.753 199.805 505.742
35 0 53.0965 14.6714 779 116.062 200.528 509.074
36 0 52.0886 14.6289 762 118.249 199.839 507.748
37 0 54.1531 14.2374 771 118.606 199.336 508.664
38 0 57.2398 15.7059 899 113.446 197.917 509.008
39 0 58.0848 14.6338 850 118.099 196.167 508.421
40 0 59.1227 13.5312 800 120.3 194.873 507.038
41 0 63.1295 17.5195 1106 108.59 192.389 507.829
42 0 65.241 15.0825 984 114.733 190.617 506.028
43 0 66.2267 14.8883 986 115.132 189.188 506.09
44 0 70.2103 14.9551 1050 114.323 187.314 504.221
45 0 73.1054 15.4571 1130 110.469 184.981 505.252
46 0 76.2624 14.8566 1133 109.675 182.236 505.523
47 0 76.165 14.9806 1141 110.684 181.453 501.743
48 1 40.0634 11.0575 443 111.275 178.445 520.158
49 0 39.0513 9.782 382 110.466 177.785 520.78
50 0 42.0378 12.5126 526 105.785 177.304 519.983
51 0 41.0532 10.8396 445 109.613 176 515.508
52 0 43.0568 11.9145 513 108.864 173.817 514.378
53 0 46.0412 13.3793 616 105.221 174.308 511.883
54 0 47.0412 14.0303 660 103.223 173.6 509.244
55 0 48.0266 14.492 696 104.57 173.17 507.582
56 0 49.0663 12.4321 610 103.87 173.533 507.521
57 0 51.027 13.2087 674 103.218 174.93 505.668
58 0 51.0857 14.1723 724 101.622 176.432 503.928
59 0 55.0671 14.0374 773 100.528 177.521 503.704
60 0 55.0258 13.0666 719 104.046 178.369 502.083
61 0 58.1044 15.1279 879 99.5995 182.499 501.365
62 0 58.0475 13.4373 780 105.501 185.318 500.464
63 0 62.049 13.586 843 104.86 187.336 501.251
64 0 62.0701 13.6136 845 106.063 189.666 501.208
65 0 65.0649 14.6623 954 104.557 191.893 500.768
66 0 68.0589 14.0467 956 106.136 191.743 500.252
67 0 69.1346 13.8281 956 108.923 192.467 500.488
68 0 72.1031 11.8164 852 112.776 193.593 500.263
69 0 75.1315 13.3632 1004 112.482 194.352 501.078
70 1 42.0407 10.8466 456 113.202 193.504 518.428
71 0 41.0478 10.1345 416 113.651 192.243 520.714
72 0 44.0688 10.2794 453 115.371 190.221 518.417
73 0 45.0517 11.2093 505 113.818 188.501 518.776
74 0 47.1795 12.4418 587 112.048 187.055 518.182
75 0 45.1413 11.4086 515 109.485 184.784 515.456
76 0 49.0369 13.6836 671 104.468 182.912 518.882
77 0 50.0601 12.8046 641 105.332 181.577 520.516
78 0 52.1963 12.6637 661 106.085 179.053 518.392
79 0 53.1177 11.3145 601 107.997 176.795 518.807
80 0 55.1301 13.1689 726 104.084 174.752 516.613
81 0 59.182 13.9569 826 100.753 173.883 514.765
82 0 59.18 12.7577 755 103.734 172.032 513.959
83 0 62.2479 12.7233 792 101.833 171.073 514.22
84 0 65.1859 14.0675 917 98.4755 170.082 509.124
85 0 64.1632 11.7357 753 103.086 169.351 506.016
86 0 69.2604 12.0848 837 103.091 169.21 504.901
87 0 69.1554 12.1032 837 102.944 169.184 502.943
88 0 74.3417 13.3034 989 99.6299 168.155 498.387
89 1 42.064 11.0308 464 100.267 168.696 515.772
90 0 39.1895 10.7172 420 101.162 169.395 517.012
91 0 40.1691 9.75875 392 105.27 170.939 515.036
92 0 44.1134 11.1757 493 103.489 172.428 512.448
93 0 44.1134 11.1531 492 145.217 173.382 512.404
94 0 45.1087 12.3701 558 103.281 175.213 511.427
95 0 47.1866 11.9314 563 102.902 177.279 511.535
96 0 47.1243 10.8649 512 103.242 180.812 508.014
97 0 48.145 12.6701 610 99.241 183.003 507.044
98 0 50.0267 12.8132 641 97.5538 185.88 506.632
99 0 51.0223 12.2299 624 95.25 187.774 509.878
100 0 53.106 11.5618 614 96.8616 188.692 509.21
101 0 54.0612 11.2465 608 97.9803 189.023 508.023
102 0 57.0977 11.7518 671 96.2086 189.385 509.991
103 0 57.037 11.7117 668 98.3653 188.222 511.141
104 0 60.1264 11.7087 704 98.4034 187.166 509.503
105 0 63.0849 12.4436 785 94.828 186.045 509.918
106 0 64.1019 12.4801 800 94.7138 184.225 510.524
107 0 64.0564 11.443 733 98.8513 183.042 506.985
108 0 68.0947 12.0274 819 97.2381 181.173 505.203
109 0 70.0738 12.6295 885 97.2271 179.616 507.532
110 0 71.1843 11.8144 841 99.3864 177.788 503.765
111 0 76.0624 12.9762 987 94.9017 176.245 503.338
112 0 79.1188 11.7292 928 98.1239 174.311 504.089
113 0 82.1791 13.0569 1073 95.8677 172.147 500.855
114 0 85.0455 13.4869 1147 93.6617 170.384 502.912
115 1 45.1649 11.7569 531 95.8493 168.898 524.087
116 0 43.1148 10.9707 473 98.2072 166.658 522.165
117 0 44.2168 9.58912 424 103.941 164.078 523.123
118 0 47.2271 11.4129 539 102.761 163.929 521.193
119 0 49.3626 12.4183 613 99.1909 163.739 519.132
120 0 49.3629 11.4053 563 102.432 163.037 515.476
121 0 48.2418 10.0328 484 97.4566 163.31 510.062
122 0 49.1791 11.0413 543 96.0074 162.91 507.637
123 0 52.0596 12.5817 655 96.2656 162.522 505.437
124 0 53.0767 12.4914 663 95.6983 163.415 505.486
125 0 57.1445 12.7396 728 94.6154 163.495 503.913
126 0 59.113 13.618 805 93.0298 164.602 503.205
127 0 59.1331 12.2605 725 97.4593 167.619 500.521
128 0 62.0748 12.4849 775 97.0297 170.044 500.312
129 0 63.044 12.6737 799 98.3792 173.621 501.044
130 0 67.1117 12.427 834 98.3837 176.418 501.628
131 0 69.1176 13.7592 951 96.8822 177.726 500.864
132 0 71.1629 12.7314 906 99.6391 179.982 500.849
133 0 72.1408 13.4598 971 100.597 182.215 497.86
134 0 74.067 12.8397 951 100.938 182.605 500.018
135 0 79.2374 13.9959 1109 95.9693 183.438 503.165
136 0 80.1304 11.8931 953 101.481 183.371 501.635
137 0 84.0977 13.1989 1110 98.3261 184.066 498.852
138 0 86.0803 12.3954 1067 101.227 183.298 498.861
139 0 89.1061 13.2988 1185 100.353 180.892 495.549
140 0 92.1862 11.8022 1088 101.995 179.857 500.816
141 1 49.136 11.4173 561 95.3529 177.797 520.914
142 0 52.0312 12.358 643 93.4961 175.481 518.627
143 0 51.031 12.0319 614 145.213 172.603 518.091
144 0 54.2294 11.8939 645 98.5721 172.898 519.809
145 0 56.1156 13.6326 765 96.5229 170.841 519.119
146 0 58.1098 12.5624 730 98.226 169.507 519.285
147 0 58.0965 12.5653 730 100.5 167.384 521.773
148 0 62.1185 13.0235 809 99.843 165.984 518.571
149 0 63.2543 14.6077 924 96.6602 165.385 517.581
150 0 63.1033 11.2672 711 104.577 163.131 516.702
151 0 67.2082 13.4507 904 99.74 162.683 514.105
152 0 70.0883 12.9551 908 101.059 161.487 510.932
153 0 72.1951 12.4801 901 103.194 161.131 508.044
154 0 77.1841 13.4613 1039 101.255 161.313 505.376
155 1 42.025 10.232 430 103.033 160.121 523.879
156 0 42.0354 11.7282 493 103.641 160.144 519.16
157 0 42.0058 11.1175 467 105.809 160.976 518.201
158 0 43.0258 11.3653 489 104.626 163.599 520.063
159 0 46.0447 12.7485 587 102.603 166.966 516.583
160 0 45.0291 12.3254 555 104.649 169.016 516.009
161 0 47.0316 13.5228 636 101.393 169.524 516.217
162 0 49.1019 13.1359 645 100.505 173.192 515.25
163 0 48.126 12.0725 581 104.22 176.028 514.448
164 0 52.1129 13.3556 696 98.3779 178.362 514.552
165 0 52.1129 13.394 698 147.149 181.338 514.4
166 0 54.1222 13.3402 722 99.5637 181.553 514.01
167 0 56.1216 12.9362 726 99.6887 182.544 516.678
168 0 57.116 14.7069 840 97.7845 182.904 514.215
169 0 59.1757 13.9246 824 99.3811 183.958 515.894
170 0 62.1409 13.4211 834 100.606 184.475 518.006
171 0 63.1997 14.4305 912 98.8509 182.061 516.78
172 0 63.1246 12.9585 818 103.193 181.693 514.789
173 0 67.1139 12.9183 867 102.557 180.172 513.877
174 0 70.1793 14.0212 984 99.2825 178.641 515.216
175 0 71.1558 14.5737 1037 99.7252 176.565 512.849
176 0 73.1896 13.3762 979 102.424 174.712 512.939
177 0 75.2076 14.0544 1057 101.632 173.185 513.676
178 1 38.0208 10.7836 410 104.322 172.237 528.741
179 0 41.0303 10.9188 448 103.196 170.525 528.277
180 0 41.0743 11.0531 454 103.822 167.377 526.753
181 0 43.061 11.9133 513 101.945 166.37 526.308
182 0 46.0945 12.431 573 99.4956 164.504 524.96
183 0 45.1341 11.1003 501 104.473 163.754 522.918
184 0 45.1419 12.361 558 103.099 162.6 519.272
185 0 45.1667 13.2177 597 103.482 160.409 516.534
186 0 48.061 13.0459 627 96.4514 160.64 517.708
187 0 50.0347 12.6512 633 98.2022 158.624 517.412
188 0 49.0434 12.1117 594 101.305 160.667 513.131
189 0 52.1394 12.7159 663 99.1508 161.033 512.778
190 0 52.0771 12.6543 659 100.713 162.152 512.404
191 0 56.1349 13.0935 735 99.1782 163.374 509.891
192 0 57.165 13.05 746 100.808 164.823 510.614
193 0 58.2753 13.2475 772 101.804 166.789 506.816
194 0 58.0868 13.5487 787 102.459 169.055 508.855
195 0 61.069 13.0344 796 105.755 171.727 507.266
196 0 64.1016 13.9778 896 104.349 174.008 509.189
197 0 65.1042 14.3309 933 103.541 176.943 506.427
198 0 68.1215 13.564 924 105.938 179.506 506.182
199 0 73.1717 14.8145 1084 102.903 180.951 506.063
200 1 36.0364 10.3229 372 111.228 183.21 523.632
201 0 38.0541 10.0383 382 111.105 184.39 523.901
202 0 41.0595 11.5442 474 108.171 184.5 524.804
203 0 41.0116 11.2651 462 108.439 185.251 525.327
204 0 41.0993 11.2167 461 110.304 183.907 526.453
205 0 45.0958 11.7971 532 106.763 182.664 525.688
206 0 45.2426 12.7314 576 98.9271 180.901 522.217
207 0 47.123 13.6239 642 98.2726 177.975 526.749
208 0 45.0505 12.941 583 102.813 175.947 527.621
209 0 50.0803 14.0974 706 97.0538 174.098 528.323
210 0 49.0931 12.2217 600 101.558 171.772 526.917
211 0 51.0797 12.9601 662 99.6057 169.535 525.976
212 0 55.0399 13.899 765 97.7386 169.567 518.927
213 0 58.123 13.2134 768 97.5208 164.751 521.656
214 0 58.0626 12.7965 743 98.6851 163.587 521.168
215 0 63.1048 15.0385 949 92.8051 161.31 519.723
216 0 64.1549 13.4206 861 95.7062 162.433 516.762
217 0 64.1625 13.3723 858 96.3345 161.48 513.769
218 0 66.1252 14.4574 956 94.6736 161.517 511.792
219 0 68.2211 12.9579 884 96.7387 160.032 511.3
220 0 69.2713 12.4871 865 98.4555 160.474 506.333
221 0 72.1321 12.6989 916 98.1485 160.777 506.872
222 0 74.256 12.8474 954 98.6059 161.239 502.72
223 0 77.2057 13.3021 1027 98.6056 161.901 502.349
224 0 80.2266 12.6641 1016 99.0138 163.519 499.872
225 0 83.1791 14.0179 1166 97.2367 164.49 495.041
226 0 86.2096 15.0911 1301 96.3759 166.697 494.877
227 1 46.1826 10.0471 464 98.3427 170.823 517.894
228 0 44.0494 10.2839 453 100.79 173.064 518.04
229 0 49.1219 12.0313 591 96.0812 175.711 516.423
230 0 51.1777 11.1963 573 95.8115 177.89 519.201
231 0 52.385 12.7899 670 94.506 179.194 514.607
232 0 54.1014 13.5486 733 92.236 181.191 515.362
233 0 54.1272 12.6184 683 93.6018 181.307 517.575
234 0 57.1427 14.0175 801 90.9039 182.547 515.635
235 0 59.1835 13.5511 802 92.1247 182.843 515.52
236 0 62.1599 13.7388 854 90.8525 182.139 515.413
237 0 65.2342 13.2752 866 91.1894 180.46 515.293
238 0 66.2013 12.4922 827 93.0774 179.249 516.323
239 0 67.17 12.446 836 93.2703 178.262 513.589
240 1 34.0125 11.3194 385 95.5091 178.122 529.73
241 0 35.0308 9.50592 333 94.015 174.426 536.024
242 0 35.1894 9.32099 328 97.7866 172.79 532.851
243 0 38.0312 10.9121 415 93.6892 172.294 534.13
244 0 38.0815 10.3725 395 95.7418 170.443 532.056
245 0 40.0537 11.4846 460 94.5261 168.328 530.893
246 0 40.0216 11.8186 473 94.1057 166.907 530.962
247 0 44.0362 13.6933 603 92.9801 164.836 529.441
248 0 44.0354 13.5573 597 91.0888 159.784 528.251
249 0 46.0159 13.2346 609 91.1544 158.284 525.831
250 0 47.025 13.6098 640 91.6813 157.32 523.425
251 0 47.0057 12.9133 607 95.6705 157.025 522.725
252 0 48.1312 12.1127 583 96.5146 156.115 521.864
253 0 51.1865 13.3629 684 94.9474 155.944 518.839
254 0 53.2532 13.1823 702 93.839 156.365 515.429
255 0 55.2288 13.7247 758 93.5198 155.832 514.328
256 0 55.2288 13.6885 756 124.646 155.854 514.286
257 0 56.1078 12.9394 726 96.2176 156.817 510.238
258 0 59.1676 13.9772 827 94.133 157.689 510.83
259 0 62.2514 13.8149 860 95.143 159.787 507.974
260 0 63.1189 12.6111 796 98.9837 162.422 507.932
261 0 64.0515 12.0684 773 99.8693 164.423 509.175
262 0 68.1737 13.7883 940 96.5649 168.172 506.194
263 0 70.1005 13.4521 943 98.5345 171.191 506.153
264 0 73.2564 14.497 1062 96.6158 173.227 504.923
265 0 74.1042 13.7509 1019 98.7036 176.389 504.513
266 1 39.0265 12.3762 483 100.246 176.6 521.484
267 0 41.0659 11.5668 475 99.4589 178.636 524.286
268 0 44.0768 12.5236 552 97.9185 179.268 525.466
269 0 46.0605 12.9612 597 97.9816 179.327 525.705
270 0 47.0275 14.3533 675 97.4844 179.665 524.397
271 0 47.0308 13.2892 625 102.454 180.11 524.968
272 0 48.0337 13.0325 626 103.775 178.909 524.93
273 0 51.038 14.0484 717 100.909 179.117 524.972
274 0 49.0524 13.3531 655 106.035 176.38 524.562
275 0 53.037 14.0468 745 103.862 174.217 523.642
276 0 55.1154 13.4264 740 105.332 174.007 524.495
277 0 57.0676 14.8245 846 101.826 170.891 522.914
278 0 57.1172 14.5841 833 104.03 169.725 520.616
279 0 58.3126 14.1136 823 105.192 167.153 520.442
280 0 59.181 12.9433 766 108.225 166.869 520.782
281 0 62.2564 13.7335 855 106.338 165.195 519.899
282 0 64.2964 13.811 888 107.319 162.82 515.997
283 0 66.2655 15.0908 1000 104.896 160.387 513.812
284 0 69.1947 16.114 1115 102.103 160.006 513.839
285 0 72.2193 15.0098 1084 106.279 159.864 510.366
286 0 74.2016 15.1749 1126 107.152 158.433 506.954
287 0 75.2256 13.0541 982 114.05 158.455 504.401
288 0 79.2903 15.1973 1205 109.141 158.485 501.71
289 1 40.0725 11.1548 447 109.848 155.834 521.45
290 0 41.0152 12.0199 493 111.939 157.694 518.755
291 0 43.0353 15.0807 649 103.256 158.418 516.256
292 0 43.054 13.6573 588 104.67 161.267 517.835
293 0 46.0237 14.6229 673 99.5245 162.031 518.539
294 0 46.0716 14.3689 662 103.508 164.412 513.609
295 0 46.0716 14.3472 661 155.823 167.419 513.481
296 0 49.1188 14.2308 699 103.203 169.602 516.325
297 0 52.0589 14.6181 761 100.679 172.762 516.996
298 0 54.1344 15.8494 858 97.4837 175.217 515.359
299 0 54.0436 13.7482 743 103.419 176.553 517.276
300 0 56.2618 13.4372 756 103.22 179.225 516.919
301 0 57.1176 14.8641 849 100.216 179.671 517.916
302 0 58.128 13.4875 784 103.88 179.282 519.482
303 0 58.0916 12.2909 714 106.395 180.084 519.637
304 0 62.19 13.1693 819 103.8 180.048 520.722
305 0 63.0915 12.6642 799 106.104 179.049 517.467
306 0 65.1453 14.153 922 103.785 177.535 517.401
307 0 67.2199 13.612 915 101.802 176.038 518.352
308 0 70.2986 16.0316 1127 99.5599 174.236 515.156
309 0 71.3157 13.2089 942 106.808 172.111 515.444
310 1 38.2569 10.0897 386 106.938 171.378 533.79
311 0 41.2922 10.9706 453 104.636 168.587 533.572
312 0 38.1052 10.9959 419 108.757 167.43 530.556
313 0 43.0728 12.8852 555 104.359 165.941 529.787
314 0 42.6164 13.6567 582 103.653 165.352 528.675
315 0 44.1892 13.1706 582 100.624 163.83 529.026
316 0 44.0628 12.1191 534 100.912 160.215 526.837
317 0 45.0281 11.9925 540 104.072 159.441 525.03
318 0 45.1022 12.3276 556 104.236 157.513 524.96
319 0 47.0364 12.8199 603 104.675 157.24 519.474
320 0 49.0408 11.7045 574 103.488 156.913 521.098
321 0 51.146 12.2981 629 103.868 156.005 517.355
322 0 50.0167 12.1959 610 104.911 156.031 514.264
323 0 55.0321 12.8289 706 102.187 156.181 511.865
324 0 57.0505 12.7431 727 102.184 157.343 509.395
325 0 58.065 13.3471 775 99.7871 157.603 510.321
326 0 61.0252 13.3388 814 100.765 159.043 506.241
327 0 61.1233 13.9063 850 100.206 160.422 507.218
328 0 63.0503 13.5289 853 100.369 163.312 504.768
329 0 65.0449 13.6214 886 101.258 166.235 504.858
330 0 68.0634 12.1064 824 104.534 168.898 505.086
331 1 37.0409 11.9867 444 101.313 171.484 519.811
332 0 36.0155 9.88464 356 108.497 173.66 522.07
333 0 38.011 10.9179 415 108.607 175.983 522.048
334 0 41.0218 10.6041 435 107.269 177.943 522.745
335 0 42.0133 12.7341 535 103.191 178.396 522.37
336 0 44.0946 11.9289 526 105.791 179.122 522.817
337 0 44.3383 13.0587 579 105.126 180.085 521.472
338 0 44.1026 12.0401 531 103.228 178.492 519.326
339 0 45.0694 11.2493 507 104.229 177.203 521.043
340 0 48.1506 12.5024 602 102.95 175.829 519.603
341 0 51.224 12.5918 645 95.9054 175.112 522.571
342 0 52.1783 12.189 636 98.4135 173.619 522.884
343 0 52.1391 12.6585 660 104.229 172.108 525.788
344 0 54.0746 12.7971 692 103.679 171.665 522.322
345 0 57.0724 13.4391 767 101.289 169.522 523.065
346 0 58.1049 13.097 761 102.05 168.306 522.51
347 0 60.1548 12.2683 738 104.444 166.347 520.095
348 0 63.2105 14.7128 930 98.8462 165.552 520.522
349 0 63.1187 13.134 829 103.054 164.954 517.743
350 0 67.1388 13.8966 933 100.054 162.565 516.783
351 0 67.079 11.807 792 105.544 161.059 514.034
352 0 71.1686 13.1378 935 100.963 159.585 511.855
353 0 73.1361 12.2785 898 103.865 158.496 508.082
354 0 76.2147 13.1339 1001 101.782 158.839 503.784
355 0 81.1734 14.4875 1176 98.8997 158.304 503.915
356 1 43.0366 11.5018 495 104.281 159.139 520.032
357 0 44.0328 11.2643 496 102.528 159.438 519.996
358 0 47.0637 12.2175 575 100.473 159.402 516.263
359 0 49.0515 12.966 636 100.899 159.895 518.149
360 0 51.0265 13.248 676 98.1228 162.334 516.426
361 0 50.07 13.6209 682 99.5645 165.784 511.06
362 0 52.0717 13.5582 706 98.6133 164.34 511.687
363 0 52.0195 12.6491 658 101.521 168.049 512.719
364 0 53.1305 12.7798 679 101.243 171.445 512.155
365 0 56.0675 13.0022 729 99.3361 173.693 511.306
366 0 60.0192 14.0122 841 96.698 176.496 512.641
367 0 61.1309 13.97 854 98.0269 177.439 513.275
368 0 63.1572 13.6802 864 99.0903 178.597 514.139
369 0 64.0661 15.3591 984 96.685 179.448 514.633
370 0 68.2036 13.6063 928 99.7274 178.884 514.024
371 0 69.0512 13.8448 956 100.685 178.363 512.722
372 0 74.158 14.6444 1086 97.3794 177.991 514.789
373 0 77.0806 15.2827 1178 97.1935 175.784 511.588
374 0 76.1686 13.864 1056 101.114 174.705 513.227
375 1 40.0321 12.415 497 101.39 171.779 530.67
376 0 42.1107 10.4486 440 102.459 169.786 531.709
377 0 44.0869 10.7061 472 102.258 168.625 532.021
378 0 45.2366 10.9204 494 102.854 167.488 531.138
379 0 47.0773 11.9166 561 100.936 166.193 529.684
380 0 49.1309 11.5406 567 102.4 163.529 527.824
381 0 49.1383 13.1466 646 90.3158 163.197 523.765
382 0 51.1332 12.5946 644 93.2888 162.61 520.921
383 0 52.161 11.5028 600 97.975 163.298 524.842
384 0 54.1345 13.6142 737 91.3066 161.042 522.312
385 0 53.3203 12.6969 677 92.8789 159.476 520.697
386 0 55.1936 14.5488 803 92.4147 157.421 517.476
387 0 59.1776 12.8427 760 95.4145 157.509 516.584
388 0 59.1651 13.4708 797 98.207 156.866 513.492
389 0 62.1123 14.506 901 96.3363 156.816 512.751
390 0 63.0929 12.6163 796 101.101 157.577 512.626
391 0 67.1763 14.395 967 96.4219 158.038 508.835
392 0 68.1603 14.7006 1002 97.5629 159.061 506.931
393 0 72.1246 13.8372 998 98.499 160.238 507.895
394 1 37.0533 11.2001 415 102.66 163.205 523.051
395 0 38.0552 9.72273 370 102.122 165.943 524.846
396 0 39.0581 12.3406 482 100.369 167.749 520.303
397 0 41.1638 11.515 474 101.633 171.207 520.717
398 0 42.039 11.7986 496 102.234 172.942 520.266
399 0 44.0927 12.5191 552 100.299 176.616 520.429
400 0 46.0423 13.4442 619 97.2714 178.805 521.99
401 0 47.2258 12.7473 602 94.3422 177.759 519.017
402 0 47.1927 13.3495 630 96.727 179.122 519.787
403 0 50.1429 13.0427 654 96.0459 179.48 522.258
404 0 51.0485 12.9876 663 97.3017 181.285 522.377
405 0 55.0301 14.3558 790 95.2089 180.215 522.797
406 0 55.177 14.3538 792 95.327 179.506 521.653
407 0 57.1081 12.5726 718 97.8844 177.687 524.042
408 0 59.037 13.9912 826 96.1429 175.275 520.864
409 0 60.3329 13.757 830 95.9084 173.331 521.86
410 0 61.3059 13.6691 838 97.1146 170.512 519.393
411 0 65.3459 13.9106 909 96.3718 167.653 518.349
412 0 65.3863 14.0855 921 97.6232 167.052 514.104
413 0 68.4502 16.2892 1115 93.87 165.523 514.164
414 0 70.6188 14.3021 1010 97.7248 164.85 514.021
415 0 70.6188 14.3021 1010 152.354 164.85 514.021
416 1 37.4471 10.9221 409 99.3716 163.983 531.543
417 0 36.2723 10.5866 384 101.482 162.599 526.432
418 0 40.428 11.4525 463 99.8143 160.976 524.572
419 0 37.238 8.35168 311 107.987 159.289 519.884
420 0 42.2569 13.3469 564 97.0851 158.988 522.035
421 0 45.0512 13.296 599 96.212 157.795 519.663
422 0 49.2781 14.4283 711 92.7989 157.941 521.374
423 0 48.1796 14.3007 689 94.6444 158.106 522.774
424 0 48.0956 12.8286 617 100.037 157.425 517.036
425 0 49.2095 12.9243 636 99.9843 158.459 515.937
426 0 51.169 14.0906 721 97.3842 160.197 514.268
427 0 52.1193 13.9488 727 98.6369 160.931 514.62
428 0 53.1357 13.9078 739 100.064 163.313 514.765
429 0 54.1461 13.4266 727 101.867 167.003 514.917
430 0 57.1949 14.2145 813 101.849 169.64 513.76
431 0 60.2187 14.3311 863 101.547 171.651 512.028
432 0 61.1622 14.715 900 101.801 175.239 508.752
433 0 62.3626 13.7743 859 104.522 177.555 509.709
434 0 64.4302 14.4342 930 104.562 179.425 507.895
435 0 66.3869 13.7678 914 104.739 181.418 509.475
436 0 70.6992 14.0879 996 104.292 181.577 508.574
437 0 73.6044 14.2111 1046 103.223 182.477 507.526
438 0 75.668 14.2861 1081 102.822 181.477 510.364
439 0 80.6006 16.3895 1321 98.1166 180.696 509.625
440 0 82.6187 16.0859 1329 99.7675 178.708 507.008
441 1 42.4394 11.2396 477 102.4 177.39 527.201
442 0 44.4112 12.4969 555 99.7946 175.481 528.281
443 0 45.2323 11.4962 520 102.373 173.525 526.692
444 0 46.2429 12.1316 561 101.809 172.082 525.515
445 0 50.3083 13.9341 701 97.6648 169.762 522.22
446 0 51.202 13.6518 699 98.1359 168.189 524.26
447 0 51.0918 12.2329 625 101.816 165.246 524.595
448 0 55.1391 14.8533 819 97.3089 164.869 523.032
449 0 55.0831 14.4146 794 98.0416 163.097 523
450 0 58.1886 14.0405 817 99.1248 162.567 519.018
451 0 60.2782 14.6488 883 97.5968 161.477 517.4
452 0 60.1748 14.8567 894 97.6499 161.008 516.535
453 0 62.1087 15.4568 960 98.8521 159.595 512.467
454 0 63.3717 13.9652 885 102.454 158.179 511.584
455 0 67.3178 15.2411 1026 99.6267 157.731 510.016
456 0 69.4883 14.6356 1017 100.952 157.58 504.369
457 0 72.612 14.8598 1079 100.766 158.548 503.649
458 0 73.6419 14.4211 1062 102.869 159.227 502.499
459 0 75.4339 13.9062 1049 103.785 160.225 500.673
460 0 75.4339 13.9062 1049 149.153 161.228 500.724
461 0 81.4158 14.4812 1179 103.184 164.008 499.15
462 0 82.3158 13.1931 1086 105.161 166.594 497.525
463 1 42.1593 10.5315 444 103.185 169.626 517.919
464 0 46.155 10.8114 499 103.749 172.912 515.629
465 0 49.1135 10.5266 517 101.315 175.632 517.226
466 0 50.0737 10.7841 540 101.372 178.435 517.357
467 0 53.1673 12.6205 671 98.614 179.438 516.712
468 0 56.1161 13.4186 753 97.3758 179.51 516.264
469 0 59.1125 13.229 782 96.0051 182.262 520.569
470 0 58.1953 13.111 763 98.924 181.657 515.135
471 0 60.2207 11.9228 718 101.194 182.074 517.361
472 0 62.0652 12.6802 787 101.258 180.564 516.823
473 0 67.1809 13.0841 879 98.8567 180.144 518.929
474 0 66.1593 13.3163 881 101.598 177.804 516.104
475 0 70.2189 13.8709 974 100.071 175.991 513.163
476 0 70.2189 13.8709 974 133.802 173.992 513.22
477 0 75.1169 14.6971 1104 98.7908 171.613 513.343
478 0 79.1134 14.2074 1124 98.6726 170.29 513.74
479 0 82.1877 13.8707 1140 99.8772 168.604 511.516
480 0 83.1562 14.8035 1231 98.6353 166.949 508.69
481 0 87.2262 13.4478 1173 100.849 164.602 508.542
482 1 46.0731 10.8523 500 96.634 164.228 530.78
483 0 49.0763 11.1051 545 96.8899 163.341 527.917
484 0 52.0656 12.2538 638 95.9263 161.555 525.107
485 0 50.1325 9.95363 499 97.6633 160.886 527.287
486 0 49.0275 11.5445 566 98.0548 159.959 524.459
487 0 53.1028 12.1463 645 96.0961 158.876 519.153
488 0 55.13 12.6428 697 94.1349 158.479 518.512
489 0 59.0352 14.2119 839 90.944 157.257 514.353
490 0 57.3505 12.781 733 95.6753 157.885 512.739
491 0 62.0593 13.9544 866 92.6547 158.121 509.353
492 0 62.1969 13.0875 814 94.5737 158.887 508.8
493 0 65.2445 13.8402 903 93.0565 159.878 508.171
494 0 69.1097 15.2366 1053 90.7768 161.473 507.43
495 0 71.1819 13.5428 964 96.6981 163.941 505.814
496 0 71.1904 11.8836 846 98.1418 166.585 506.879
497 0 74.232 12.8247 952 96.2868 168.617 504.598
498 1 38.0496 9.04083 344 94.686 172.485 525.541
499 0 37.1156 9.72637 361 94.9114 175.427 527.471
500 0 40.1914 8.73322 351 96.4501 175.684 523.732
501 0 40.2773 9.58357 386 97.8886 177.453 523.228
502 0 43.2482 10.4282 451 95.235 179.876 527.255
503 0 45.2196 9.97354 451 95.816 180.182 528.102
504 0 49.1368 11.5799 569 92.9525 180.337 526.095
505 0 46.1123 11.6455 537 93.6164 180.007 526.952
506 0 43.0885 7.33374 316 103.139 179.611 522.978
507 0 53.078 13.3389 708 94.4958 177.778 525.78
508 0 52.1168 11.0329 575 95.1183 174.226 526.513
509 0 56.2623 11.9618 673 92.4413 172.196 525.967
510 0 57.184 10.8247 619 94.126 170.997 525.577
511 0 59.1271 13.1074 775 90.1987 168.361 524.986
512 0 61.1654 13.7496 841 90.2604 166.455 522.99
513 0 62.1593 11.1488 693 94.101 165.101 522.388
514 0 64.1463 12.5027 802 92.7232 163.981 516.148
515 0 67.1777 12.4297 835 92.9461 162.09 520.217
516 0 69.395 11.7011 812 93.5603 160.993 517.369
517 0 72.4083 11.9738 867 93.0519 160.212 514.975
518 1 38.0923 10.8946 415 89.8867 158.658 532.294
519 0 39.1368 10.4761 410 90.2951 157.868 531.654
520 0 38.0187 9.81095 373 90.5925 155.469 527.504
521 0 41.0981 11.5577 475 88.6442 156.417 528.404
522 0 43.0422 10.3155 444 89.2545 155.635 521.966
523 0 44.062 12.8001 564 85.3085 155.181 520.44
524 0 46.0855 12.2598 565 83.0142 157.416 513.685
525 0 47.4823 11.9624 568 87.2165 157.991 518.87
526 0 48.3875 12.1726 589 87.4754 160.345 519.132
527 0 49.1463 13.8159 679 85.0029 160.901 516.181
528 0 50.1717 12.1583 610 87.3557 162.248 517.862
529 0 52.2772 12.9885 679 86.7879 164.923 516.536
530 0 54.2081 12.6549 686 87.9198 168.765 515.948
531 0 56.3236 13.1561 741 87.5223 171.582 515.95
532 0 57.1986 14.371 822 86.5633 173.94 516.477
533 0 60.3505 15.0454 908 85.5914 175.756 515.415
534 0 61.1672 13.0299 797 90.2861 177.61 517.565
535 0 60.0945 13.3623 803 92.213 178.163 515.005
536 0 65.1778 14.0078 913 89.2694 179.296 516.048
537 0 66.1632 12.3331 816 93.4314 179.338 515.949
538 0 67.2364 12.3743 832 94.4627 178.345 512.494
539 0 74.2092 13.974 1037 89.9527 177.743 517.175
540 1 38.0713 10.1126 385 95.0935 178.766 534.268
541 0 42.086 9.5994 404 94.7178 176.978 530.703
542 0 43.0527 10.9169 470 92.8894 175.026 532.37
543 0 45.1525 12.5574 567 89.8236 173.321 530.748
544 0 44.064 11.6195 512 93.1172 170.43 528.969
545 0 48.1197 12.1987 587 90.5162 167.589 529.431
546 0 50.2118 13.8215 694 87.4539 166.464 527.829
547 0 50.1804 12.9333 649 89.2527 165.049 526.345
548 0 52.1467 13.3853 698 86.7579 163.855 527.574
549 0 53.2496 11.6621 621 90.3945 162.878 524.75
550 0 55.0517 13.3148 733 87.1678 161.465 523.141
551 0 55.2844 11.3956 630 90.7841 159.456 519.298
552 0 58.2023 11.4257 665 89.4195 159.223 516.695
553 0 62.2551 13.0431 812 87.383 157.776 516.682
554 0 62.2281 13.6112 847 86.4061 157.551 512.969
555 0 65.1908 11.9189 777 88.4994 157.644 511.408
556 0 67.2851 12.6923 854 86.9262 157.016 509.033
557 1 31.0544 9.37065 291 90.9141 157.986 523.622
558 0 31.0157 8.51181 264 92.3864 158.28 522.856
559 0 35.0906 8.12184 285 92.0281 159.66 524.589
560 0 37.2537 10.8445 404 87.3366 159.834 519.963
561 0 40.0978 11.3722 456 88.6557 162.252 518.702
562 0 39.1057 9.69167 379 93.3879 163.704 521.266
563 0 42.0659 12.5993 530 89.9226 166.026 516.047
564 0 44.2883 11.7412 520 92.4519 169.294 515.619
565 0 45.1101 11.3944 514 93.3327 173.138 517.056
566 0 48.1337 11.5927 558 90.6237 174.464 512.491
567 0 47.0838 13.083 616 91.1153 176.521 512.695
568 0 49.0597 12.5969 618 93.4061 179.327 517.542
569 0 51.1143 11.4645 586 95.029 180.998 511.648
570 0 52.0551 11.9105 620 93.7742 180.563 517.071
571 0 53.058 10.5733 561 99.6845 180.806 516.018
572 0 58.1288 13.0228 757 94.5086 180.929 516.62
573 0 59.084 13.2185 781 94.7542 178.558 517.689
574 0 61.0258 11.2411 686 97.7522 176.577 517.547
575 0 64.0467 12.163 779 97.5725 175.763 514.979
576 0 67.0892 12.9529 869 95.9908 172.926 517.473
577 0 68.0639 13.6049 926 96.6361 170.916 512.152
578 0 71.1359 13.0033 925 97.9049 169.41 515.549
579 0 74.1475 13.9317 1033 96.5005 168.399 512.042
580 0 76.1872 13.9919 1066 98.0788 166.423 510.426
581 1 40.0263 10.3682 415 96.5663 164.323 533.41
582 0 40.0321 9.04274 362 99.942 162.116 534.022
583 0 43.1945 11.1125 480 101.002 161.76 528.2
584 0 41.1053 9.56082 393 101.293 159.649 528.17
585 0 44.2038 10.7231 474 100.186 157.897 523.105
586 0 41.278 9.42391 389 103.01 157.64 523.473
587 0 48.2083 11.6992 564 100.284 158.2 519.683
588 0 47.185 13.161 621 96.5958 157.258 519.741
589 0 50.3321 12.7354 641 97.8799 157.379 519.12
590 0 47.2464 11.8951 562 100.744 157.171 517.514
591 0 52.3434 12.3607 647 99.2674 156.728 512.618
592 0 52.2459 12.0775 631 100.523 157.436 510.388
593 0 56.3441 14.9084 840 95.9107 157.983 507.399
594 0 57.1582 13.4189 767 97.5802 161.016 511.85
595 0 58.1567 14.3921 837 95.6368 163.293 509.287
596 0 63.133 15.2694 964 93.5788 165.552 508.244
597 0 64.1753 14.6786 942 95.4628 168.513 508.408
598 0 65.194 13.7896 899 99.6218 171.402 507.898
599 0 67.2224 14.4892 974 97.3604 173.545 509.456
600 0 72.2203 15.065 1088 95.3833 175.912 506.472
601 0 73.3376 15.1082 1108 97.4531 178.02 510.019
602 0 74.2634 15.0007 1114 97.6993 179.425 506.025
603 0 77.2113 14.0524 1085 100.742 179.713 506.933
604 0 79.1917 14.547 1152 100.917 181.205 506.799
605 0 83.2271 16.5932 1381 96.3997 181.364 506.828
606 0 86.3129 14.8182 1279 99.9891 180.242 508.145
607 0 89.2195 14.2233 1269 101.628 177.987 506.831
608 0 88.2027 13.7297 1211 105.203 176.35 506.041
609 0 90.3126 14.0401 1268 103.934 174.748 503.401
610 0 97.1439 14.6793 1426 101.567 171.309 506.157
611 0 99.099 14.0163 1389 103.465 170.021 506.111
612 0 103.225 15.5388 1604 101.501 167.602 500.653
613 0 104.208 14.2504 1485 104.604 164.985 497.898
614 0 108.26 13.8186 1496 106.15 165.045 494.827
615 0 112.155 13.8023 1548 106.367 162.795 494.397
616 0 114.236 14.0586 1606 106.123 161.559 484.504
617 0 119.19 14.3888 1715 104.081 160.403 483.991
618 0 124.162 14.4488 1794 103.531 157.744 482.069
619 0 128.208 14.1099 1809 105.387 158.245 479.466
620 0 133.289 14.7424 1965 103.248 157.227 475.574
621 0 136.278 14.6245 1993 103.615 157.822 475.423
622 0 140.326 13.4829 1892 105.723 158.232 473.67
623 0 143.291 14.1111 2022 105.869 157.677 468.746
624 0 147.316 14.1329 2082 107.674 157.901 464.237
625 0 154.33 14.4172 2225 106.987 159.029 461.859
626 0 159.337 15.0561 2399 106.429 159.708 462.559
627 0 159.271 14.2838 2275 109.73 161.432 451.198
628 0 169.375 15.0553 2550 107.138 162.945 449.998
629 0 176.285 15.1005 2662 107.257 164.736 442.859
630 0 181.372 14.1698 2570 110.653 164.992 443.53
631 0 187.294 14.6294 2740 109.315 168.511 441.139
632 1 107.118 12.6309 1353 104.433 170.381 487.673
633 0 110.135 12.7299 1402 104.047 172.384 485.096
634 0 113.318 12.5575 1423 105.443 177.297 480.819
635 0 119.276 13.5401 1615 105.628 178.155 479.833
636 0 122.224 12.608 1541 104.809 181.395 480.319
637 0 129.293 15.1052 1953 98.3226 181.242 479.56
638 1 54.1142 8.48206 459 96.7691 182.15 519.882
639 0 59.0723 11.0543 653 94.8499 181.142 516.556
640 0 60.1341 10.2937 619 95.937 181.034 514.079
641 0 64.1253 11.8674 761 93.6715 178.825 515.192
642 0 65.1242 11.7621 766 94.6371 177.879 514.709
643 0 70.0959 13.3817 938 90.8987 174.841 513.009
644 0 71.0661 12.8894 916 91.8253 173.176 513.733
645 0 73.0674 10.7572 786 95.5903 172.05 513.548
646 0 76.0884 12.3015 936 92.4124 169.784 513.309
647 0 77.1594 12.6491 976 93.4314 168.599 511.5
648 0 81.1185 12.2783 996 94.4056 165.572 505.508
649 0 83.3061 12.304 1025 93.2263 163.152 504.942
650 0 87.3539 12.6382 1104 91.0371 162.374 503.347
651 1 45.212 8.9578 405 91.4296 163.309 522.39
652 0 47.0549 10.9234 514 88.3696 159.582 521.529
653 0 49.0566 9.25462 454 90.3943 161.037 520.487
654 0 51.0662 11.4361 584 85.5462 160.01 519.279
655 0 53.0896 10.8307 575 87.8522 159.323 516.24
656 0 53.1261 12.875 684 80.1345 159.31 515.086
657 0 54.094 12.5337 678 80.2979 158.167 515.639
658 0 55.1362 10.7915 595 83.3866 159.546 513.175
659 0 55.172 13.1226 724 79.9448 159.564 511.715
660 0 54.1152 11.2168 607 85.514 160.646 511.237
661 0 58.0669 12.6578 735 83.5782 162.031 509.095
662 0 61.0692 11.4788 701 85.3338 163.678 508.999
663 0 64.114 12.587 807 84.0149 165.978 509.998
664 0 64.1964 11.7141 752 84.988 167.741 511.968
665 0 67.3016 13.5509 912 83.7325 171.193 505.95
666 0 70.1042 12.4672 874 85.841 174.549 511.177
667 0 70.24 13.0268 915 85.4109 175.691 508.014
668 0 72.2022 13.0328 941 86.0829 177.69 506.758
669 0 73.0668 11.8248 864 88.1887 179.35 506.817
670 0 77.2909 12.3042 951 87.5152 180.703 508.826
671 0 79.1064 12.4263 983 87.8067 181.896 509.034
672 0 79.1466 12.3315 976 88.123 180.958 508.3
673 0 80.13 11.8433 949 88.6428 178.947 507.057
674 0 86.2691 12.6928 1095 88.3279 177.539 507.87
675 0 90.2792 12.6607 1143 88.8653 175.885 505.137
676 1 49.2144 10.2206 503 91.1252 174.644 523.006
677 0 47.2168 8.74689 413 92.3462 170.782 525.93
678 0 54.35 10.9476 595 88.3244 168.761 522.629
679 0 56.4785 10.4464 590 89.4322 166.602 522.249
680 0 58.1468 11.7977 686 86.551 165.844 524.362
681 0 57.303 11.5352 661 88.4569 162.123 518.352
682 0 60.2315 12.4686 751 88.4447 160.762 519.136
683 0 64.0343 13.5084 865 88.2382 158.254 516.297
684 0 66.0529 13.9888 924 88.1439 156.745 518.518
685 0 68.1042 13.9933 953 88.6621 156.482 513.401
686 0 69.1079 14.6293 1011 88.3363 155.365 511.697
687 0 71.0799 13.9843 994 89.6891 154.593 507.331
688 0 74.1221 14.8539 1101 88.5268 154.028 507.528
689 0 76.1051 14.6902 1118 88.6127 154.004 506.408
690 0 78.0481 15.6826 1224 87.9077 154.082 503.893
691 0 81.125 16.1109 1307 86.9786 154.634 502.085
692 0 82.0753 14.2308 1168 91.0796 154.464 501.535
693 0 85.0789 15.3152 1303 89.3538 154.971 499.002
694 0 86.0836 15.4036 1326 89.4774 155.549 498.572
695 0 90.2701 15.8303 1429 89.2239 156.829 495.014
696 0 94.0891 16.5375 1556 87.7821 159.311 492.504
697 0 96.1288 15.5833 1498 89.5881 160.403 490.152
698 1 54.0391 12.1949 659 91.1275 163.144 513.325
699 0 52.025 10.7256 558 93.2616 166.186 515.722
700 0 53.1726 10.3437 550 95.0073 172.147 513.331
701 0 56.1781 10.6447 598 94.9231 174.712 512.431
702 0 58.265 11.9111 694 92.9107 176.765 510.661
703 0 59.3048 10.0498 596 86.5352 175.971 509.268
704 0 61.1382 11.3677 695 82.9468 177.078 513.073
705 0 65.1221 10.9333 712 84.2303 176.697 511.368
706 0 65.1479 11.6044 756 83.1614 176.366 510.046
707 0 66.1262 11.2966 747 83.5007 175.747 510.932
708 0 71.054 11.7516 835 82.9952 173.891 509.863
709 0 72.0539 12.7543 919 81.6007 173.519 510.471
710 0 75.144 11.9371 897 82.1293 171.239 510.219
711 0 76.1341 11.6242 885 83.4373 167.945 507.515
712 1 36.1227 8.94175 323 80.7895 167.759 527.981
713 0 38.1688 7.57162 289 79.4567 166.408 532.118
714 0 43.0831 8.21669 354 78.0452 164.811 530.384
715 0 44.2459 8.20414 363 81.4959 161.096 523.689
716 0 44.1383 9.40227 415 80.4072 161.778 524.053
717 0 47.1348 11.7747 555 81.9171 160.438 525.524
718 0 49.631 12.1094 601 83.0183 157.993 521.285
719 0 54.1732 12.1093 656 85.1677 154.884 522.255
720 0 53.0984 10.6595 566 88.5053 154.601 521.29
721 0 54.1238 10.6053 574 88.6777 153.333 520.084
722 0 57.0871 12.0868 690 85.6725 152.672 515.338
723 0 59.0733 12.95 765 84.3359 153.329 514.063
724 0 59.144 11.5819 685 86.6555 152.946 512.699
725 0 61.0836 12.4911 763 85.8257 153.187 508.948
726 0 62.2103 13.0043 809 83.9258 153.216 509.528
727 0 65.1211 13.8818 904 82.104 153.472 505.781
728 0 68.1139 12.024 819 84.1526 155.05 507.248
729 0 70.0965 12.8822 903 83.6379 156.394 504.766
730 0 71.2285 14.1095 1005 82.6995 158.809 503.013
731 0 73.0798 12.3974 906 85.7792 160.655 504.236
732 0 78.1031 12.2274 955 86.3257 164.055 506.558
733 1 39.0654 10.1112 395 84.8684 167.114 525.982
734 0 39.0528 8.50132 332 87.241 169.678 525.768
735 0 42.0933 9.97783 420 86.8405 172.333 525.474
736 0 44.2402 10.556 467 85.7559 174.636 523.039
737 0 44.6675 10.7013 478 85.5795 177.027 519.964
738 0 47.5567 11.6703 555 82.6973 177.953 522.351
739 0 44.0633 10.3034 454 88.0264 178.515 523.795
740 0 48.1535 12.2317 589 86.7385 178.17 524.148
741 0 51.239 12.4319 637 86.752 177.116 525.496
742 0 53.1881 12.8036 681 88.3113 175.746 525.329
743 0 56.1324 12.8446 721 88.0915 174.753 526.979
744 0 55.1054 12.9933 716 88.8729 172.771 528.161
745 0 57.2323 13.122 751 89.3808 170.225 524.957
746 0 60.108 13.9416 838 87.9403 167.745 525.721
747 0 63.1967 15.3331 969 86.3261 165.97 524.334
748 0 62.1379 14.5161 902 89.7295 165.174 522.459
749 0 63.1548 13.1581 831 93.4284 163.034 521.025
750 0 67.1146 13.8569 930 91.0419 162.177 520.994
751 0 67.1949 12.4563 837 93.4002 160.26 518.339
752 0 72.1271 14.0446 1013 90.3139 158.497 516.925
753 1 37.0135 8.29426 307 98.3518 158.619 531.055
754 0 42.0679 10.7445 452 95.2876 157.945 528.998
755 0 40.0416 10.0645 403 98.6228 157.777 526.918
756 0 42.0435 11.0838 466 96.1588 156.667 526.429
757 0 42.0732 11.8127 497 95.8893 156.634 521.978
758 0 44.064 11.3017 498 95.4639 156.305 524.651
759 0 47.1326 12.6452 596 92.8691 157.332 522.539
760 0 47.0526 12.4966 588 93.6395 156.939 519.197
761 0 48.0648 12.067 580 95.55 157.334 519.797
762 0 50.0707 13.421 672 92.561 158.016 518.073
763 0 49.0979 15.6218 767 90.9974 159.742 514.095
764 0 50.0379 14.4291 722 94.7715 161.15 515.359
765 0 53.0405 16.1575 857 91.7165 163.348 516.289
766 0 51.0364 15.0285 767 137.498 165.28 514.956
767 0 55.0274 15.7376 866 92.9619 168.417 515.154
768 0 57.0778 15.7154 897 92.9476 171.817 515.389
769 0 58.0275 15.4927 899 93.0667 174.236 515.043
770 0 60.1452 15.2464 917 93.9597 175.668 515.921
771 0 61.1169 14.5623 890 95.4258 176.77 516.311
772 0 64.0495 15.4724 991 93.9243 177.187 513.785
773 0 66.0535 15.7448 1040 93.2337 178.224 516.315
774 0 69.0642 15.4928 1070 92.3374 177.276 517.064
775 0 68.1465 14.0286 956 96.8923 176.974 514.957
776 0 72.0628 14.418 1039 94.8922 175.052 514.87
777 0 73.1616 15.1446 1108 94.5117 173.377 513.518
778 0 77.2972 17.0899 1321 90.324 171.364 511.715
779 0 79.2821 16.0187 1270 91.9748 169.824 513.283
780 0 83.1974 15.7938 1314 92.5654 166.509 512.579
781 0 85.1753 14.7578 1257 95.4256 165.059 510.825
782 0 87.216 15.4559 1348 94.595 163.526 508.792
783 0 90.1899 16.9531 1529 91.7142 161.765 506.658
784 0 92.2444 14.9386 1378 97.4637 160.117 502.833
785 0 94.2364 12.9992 1225 100.291 160.033 504.216
786 1 48.119 11.3261 545 96.2624 159.695 525.809
787 0 50.0273 9.73469 487 98.9179 158.025 523.897
788 0 50.0654 11.445 573 97.1257 158.468 519.436
789 0 51.1865 9.72913 498 90.2129 155.735 515.574
790 0 54.2203 12.9656 703 96.1437 154.814 512.622
791 0 55.1962 12.8632 710 95.9648 155.525 511.004
792 0 58.0324 13.5269 785 92.6573 153.717 509.14
793 0 60.0328 14.6753 881 90.0897 154.457 508.548
794 0 62.1287 14.47 899 90.9677 155.016 506.308
795 0 60.064 12.9528 778 95.7121 155.046 504.505
796 0 64.1196 13.5216 867 93.5202 156.502 505.678
797 0 65.0784 14.2597 928 93.2338 157.808 502.504
798 0 68.0669 13.9275 948 94.1561 159.488 500.589
799 0 69.0905 15.0961 1043 92.6155 162.008 500.36
800 0 72.0909 13.1362 947 97.1468 164.334 501.006
801 0 75.0625 16.1066 1209 91.9562 167.259 499.646
802 0 75.0945 14.7015 1104 95.6522 171.019 499.041
803 0 78.1207 13.5176 1056 99.1733 172.59 498.681
804 0 81.1251 15.8397 1285 93.9704 174.487 498.021
805 0 84.0931 15.5423 1307 95.544 175.805 497.725
806 0 84.0925 13.9251 1171 100.149 176.406 498.054
807 0 90.2216 14.0321 1266 99.707 176.927 500.925
808 0 92.1116 14.1567 1304 99.237 176.685 496.178
809 1 48.161 8.30547 400 102.325 175.245 520.493
810 0 52.1129 11.8589 618 97.5955 173.681 517.683
811 0 55.1473 12.4575 687 93.7933 172.885 517.587
812 0 56.1295 11.6694 655 96.0641 171.035 519.194
813 0 57.1645 12.8051 732 95.7008 169.277 517.034
814 0 59.0623 11.9366 705 93.9617 166.56 516.711
815 0 59.1761 11.339 671 95.3502 165.395 513.77
816 0 64.316 11.6923 752 93.0944 163.924 513.815
817 0 68.2522 14.0069 956 88.0094 162.527 514.866
818 0 71.267 13.1898 940 89.7468 161.263 515.17
819 0 74.5169 13.044 972 89.3241 159.678 509.243
820 1 39.1784 10.1842 399 86.3935 159.87 525.649
821 0 41.0265 9.84729 404 89.401 158.332 530.631
822 0 43.0095 11.2766 485 87.1072 158.305 527.202
823 0 42.0841 7.24739 305 92.6492 157.203 527.279
824 0 46.0739 11.8071 544 86.8254 157.053 523.149
825 0 46.0468 10.3373 476 89.3235 156.105 520.632
826 0 50.0364 12.6908 635 85.8661 155.887 520.565
827 0 49.0289 14.0325 688 84.9782 156.747 516.193
828 0 51.1321 12.6731 648 86.1975 154.41 513.011
829 0 54.2472 13.6966 743 83.253 155.782 511.494
830 0 55.2089 13.9832 772 82.4132 156.326 511.633
831 0 55.1183 12.8451 708 85.5636 158.371 508.805
832 0 56.2739 11.8705 668 86.762 160.153 513.65
833 0 56.2701 13.062 735 86.6776 164.316 510.461
834 0 60.2761 12.6584 763 86.0524 165.754 509.168
835 0 61.166 13.21 808 85.2389 168.235 510.917
836 0 64.26 13.6321 876 85.1039 170.465 509.256
837 0 65.2505 14.36 937 84.6948 173.314 508.306
838 0 67.21 13.7182 922 84.5922 176.898 510.731
839 0 69.0746 12.957 895 85.8056 177.491 512.331
840 0 72.1848 12.5373 905 87.674 177.558 510.923
841 0 76.1317 14.4486 1100 85.0427 178.459 511.554
842 0 78.128 12.6843 991 87.6963 176.878 512.203
843 1 43.0281 10.7372 462 87.6407 175.937 528.9
844 0 46.0113 9.45419 435 87.931 174.653 530.651
845 0 45.043 11.3891 513 86.46 172.626 529.801
846 0 47.0466 8.88481 418 90.39 170.612 527.529
847 0 49.0824 10.737 527 84.8956 166.926 529.34
848 0 52.0872 13.5542 706 80.568 165.81 528.171
849 0 54.0472 12.6371 683 83.5857 165.054 526.018
850 0 55.0748 11.7477 647 85.9923 164.355 524.964
851 0 58.0492 12.9373 751 82.5033 161.692 524.638
852 0 58.1751 13.1843 767 82.9348 160.928 522.953
853 0 61.07 13.9348 851 83.0223 160.3 520.432
854 0 59.0402 11.6023 685 87.1766 156.334 518.387
855 0 64.1111 12.6343 810 84.2148 155.793 517.343
856 0 65.2078 12.6059 822 85.6788 155.007 512.622
857 0 66.2512 10.9734 727 88.0509 154.847 512.491
858 0 68.0835 12.7344 867 87.7093 155.069 511.716
859 0 71.1275 13.4125 954 86.37 154.599 511.151
860 0 72.194 13.6438 985 86.7838 154.628 506.618
861 1 37.0288 11.0995 411 87.1046 156.494 525.827
862 0 38.0678 10.9279 416 87.1154 154.738 522.899
863 0 39.1437 10.7552 421 86.6532 156.487 522.96
864 0 40.0338 9.96658 399 89.0777 159.95 523.544
865 0 41.0115 11.4602 470 84.5766 162.719 526.698
866 0 40.0337 10.9408 438 90.4247 165.361 522.637
867 0 41.0747 12.1242 498 86.6807 168.098 523.369
868 0 42.0479 11.9388 502 88.4323 170.416 522.175
869 0 45.0239 12.1047 545 87.5174 172.288 521.873
870 0 47.1172 13.8591 653 85.8545 175.07 520.807
871 0 48.091 14.7221 708 85.8743 176.216 523.941
872 0 48.0449 15.0901 725 86.0014 177.608 521.887
873 0 50.1675 13.7938 692 88.3714 178.899 523.481
874 0 52.0659 13.0796 681 89.3744 179.413 523.696
875 0 53.1037 14.6129 776 87.183 178.599 523.363
876 0 54.0481 13.5805 734 90.064 177.576 521.128
877 0 57.0329 15.4472 881 87.5607 176.237 520.824
878 0 61.1035 14.8437 907 88.0816 174.879 524.208
879 0 62.0538 14.987 930 89.0075 172.595 521.447
880 0 64.0557 16.5169 1058 86.7902 170.182 524.364
881 0 67.1386 13.9115 934 91.6863 168.147 522.433
882 0 67.0651 13.8224 927 94.0108 165.074 517.934
883 0 70.0963 13.51 947 94.9768 163.832 516.893
884 0 73.0833 14.6682 1072 92.1409 162.771 517.478
885 0 76.0735 15.5376 1182 91.346 160.478 512.984
886 0 78.146 16.0853 1257 90.3142 159.408 512.798
887 0 79.1537 14.5034 1148 93.6864 158.044 510.191
888 0 81.1813 16.2845 1322 92.1513 156.68 505.834
889 0 83.1092 14.4148 1198 95.6377 156.181 505.628
890 0 85.1524 13.8223 1177 98.4444 155.598 503.579
891 1 47.0326 10.9073 513 95.7018 155.53 523.979
892 0 47.0436 10.4796 493 96.3935 156.15 524.353
893 0 51.0209 12.5635 641 95.6303 155.147 518.63
894 0 49.1099 12.1564 597 97.7755 156.045 516.523
895 0 51.0368 11.7954 602 98.3953 155.96 517.203
896 0 53.1362 12.4397 661 94.0257 156.024 511.059
897 0 55.117 13.2083 728 88.2582 157.093 507.519
898 0 56.0808 12.5712 705 91.2723 159.216 507.316
899 0 56.0954 11.9439 670 92.8627 161.257 506.319
900 0 59.1424 13.3238 788 90.3401 163.451 503.945
901 0 62.0813 13.8528 860 89.6791 167.114 507.379
902 0 63.0343 13.0246 821 91.916 169.871 505.625
903 0 65.1111 11.9642 779 94.1682 172.126 503.273
904 0 69.0894 13.5477 936 91.0962 174.36 507.469
905 0 70.1396 13.5302 949 92.6238 175.244 505.054
906 0 74.1811 12.4695 925 94.7416 175.776 502.808
907 1 42.1922 10.9973 464 86.7586 176.054 525.394
908 0 43.0593 9.47532 408 90.5368 176.699 526.615
909 0 43.0843 10.9785 473 87.8964 176.336 527.975
910 0 46.1055 12.7534 588 89.5136 175.631 526.935
911 0 48.0496 14.2145 683 93.5593 174.735 527.174
912 0 50.0672 13.6816 685 96.2204 173.431 527.518
913 0 50.0424 12.949 648 97.7901 171.346 527.378
914 0 54.0209 14.3278 774 94.7532 168.599 527.227
915 0 56.0966 14.3502 805 95.1602 166.548 523.236
916 0 59.0545 15.274 902 92.8725 163.766 524.501
917 0 60.1014 15.6236 939 93.1768 163.368 523.653
918 0 63.0857 15.5344 980 92.5429 161.518 522.027
919 0 66.0937 15.236 1007 92.2781 160.004 520.333
920 0 68.0638 16.5433 1126 90.7744 158.283 516.932
921 0 68.1309 14.795 1008 96.1081 158.546 517.36
922 0 71.0848 16.1497 1148 94.0096 155.791 513.829
923 0 74.0799 14.3764 1065 98.4535 155.205 511.836
924 0 78.0737 15.0627 1176 97.477 155.327 509.371
925 0 78.0763 14.9341 1166 99.4305 154.804 506.381
926 1 41.0492 10.7676 442 98.0928 155.314 526.921
927 0 41.0167 10.8005 443 102.183 155.989 524.847
928 0 45.05 11.8091 532 101.414 156.25 523.367
929 0 45.1399 10.8773 491 103.978 156.963 521.159
930 0 46.3866 13.0641 606 101.833 156.246 516.761
931 0 46.2982 12.5707 582 104.799 157.192 513.541
932 0 50.0883 14.5543 729 95.9287 161.706 519.444
933 0 51.0737 13.5099 690 101.171 165.22 517.139
934 0 51.0388 12.7942 653 104.228 165.842 517.917
935 0 53.1201 14.0813 748 100.345 169.253 519.12
936 0 55.0517 14.2593 785 100.504 171.233 516.633
937 0 58.0907 14.7356 856 99.3949 173.798 516.879
938 0 57.1008 13.52 772 104.944 175.413 515.668
939 0 60.1123 14.6226 879 101.486 176.983 516.157
940 0 63.1207 14.7812 933 101.13 177.434 516.159
941 0 63.1163 14.1643 894 103.763 178.122 518.426
942 0 66.176 14.9903 992 102.559 177.186 518.522
943 0 70.2505 14.9465 1050 101.872 175.161 516.123
944 0 74.3548 15.6412 1163 99.6681 175.043 516.75
945 0 75.212 14.0935 1060 103.774 173.148 518.121
946 0 77.343 13.8086 1068 104.72 171.422 516.931
947 0 80.2488 15.8258 1270 102.134 169.298 513.894
948 0 79.2437 15.0422 1192 164.711 167.257 512.814
949 0 85.3735 14.747 1259 103.817 164.821 512.577
950 0 88.2957 15.3688 1357 103.952 163.304 509.089
951 0 90.1781 14.804 1335 107.321 161.243 507.025
952 0 94.2748 15.6245 1473 102.847 160.197 504.706
953 0 97.2476 16.3603 1591 99.5607 158.792 502.208
954 1 51.0427 9.8349 502 108.183 158.253 523.576
955 0 55.0902 11.7081 645 104.169 157.307 521.257
956 0 55.3147 11.1905 619 105.191 155.69 521.052
957 0 55.234 12.8182 708 103.733 155.345 515.859
958 0 60.2698 14.7338 888 98.0293 154.958 513.295
959 0 60.3652 14.2466 860 100.692 154.578 510.13
960 0 62.3044 13.6266 849 101.364 154.744 509.165
961 0 65.3245 14.7724 965 96.8021 155.364 507.056
962 0 66.1159 13.8242 914 93.7976 156.651 507.884
963 0 69.1128 14.8453 1026 91.8363 157.284 504.319
964 0 71.1351 14.9012 1060 91.3057 159.483 505.368
965 0 75.1929 13.8045 1038 92.501 161.273 501.595
966 0 77.1513 14.6595 1131 91.1839 163.641 503.133
967 0 76.1207 12.6641 964 96.3143 165.981 502.888
968 0 82.269 12.6171 1038 95.7794 169.108 503.732
969 1 41.0596 8.35371 343 94.6618 172.376 526.676
970 0 42.1632 10.6254 448 95.8393 172.826 519.906
971 0 46.3297 10.9865 509 94.1356 174.862 519.479
972 0 47.2277 11.7727 556 94.4964 176.094 517.277
973 0 51.2419 14.9487 766 86.9569 176.577 518.112
974 0 51.1188 12.3438 631 90.1997 178.604 522.223
975 0 52.1048 12.3981 646 91.1409 177.404 525.429
976 0 54.2792 12.4541 676 91.3521 176.078 525.76
977 0 54.2798 12.2698 666 91.9024 175.171 524.944
978 0 56.2192 12.0244 676 91.5962 173.173 523.945
979 0 58.297 11.5958 676 91.6716 170.314 520.747
980 0 61.2065 11.9759 733 91.6098 168.052 520.558
981 0 62.2061 12.4907 777 90.7362 166.134 519.385
982 0 63.2026 12.3887 783 91.1877 164.602 517.198
983 0 67.2723 13.3487 898 88.7339 163.239 516.66
984 0 71.2021 14.0586 1001 86.6274 161.7 515.22
985 0 72.2983 12.2548 886 88.7833 160.245 513.423
986 1 35.079 9.72092 341 91.566 159.918 531.018
987 0 37.1141 11.7745 437 88.7002 159.144 526.714
988 0 40.0496 11.5607 463 88.9352 157.488 524.959
989 0 40.0457 12.5607 503 89.2783 156.563 523.437
990 0 41.0595 12.1531 499 91.984 156.555 520.986
991 0 41.2868 12.8612 531 86.9134 155.78 521.959
992 0 43.0833 12.9284 557 84.5619 155.867 518.208
993 0 44.1582 13.3158 588 82.415 156.335 517.364
994 0 46.2797 13.3752 619 82.189 156.354 514.872
995 0 47.104 13.0562 615 84.6325 157.27 514.411
996 0 48.2558 12.5581 606 85.5561 158.802 510.936
997 0 49.1119 14.2124 698 83.404 160.232 512.828
998 0 50.2341 13.2579 666 85.4895 163.414 513.38
999 0 52.1965 13.2767 693 86.1501 165.755 511.801
1000 0 54.1644 13.3482 723 85.8893 168.246 513.176
1001 0 55.0738 14.1447 779 85.3299 170.148 511.565
1002 0 58.1797 14.0255 816 85.5221 173.58 512.357
1003 0 59.2067 13.5626 803 86.797 174.842 512.874
1004 0 61.1403 13.9515 853 86.9601 176.868 512.028
1005 0 65.1658 14.4554 942 86.2229 178.425 512.666
1006 0 67.1929 16.5047 1109 83.6465 179.287 511.735
1007 0 67.1292 12.7068 853 91.8101 179.09 512.123
1008 0 72.1569 14.8149 1069 87.9139 178.391 512.613
1009 0 74.1909 15.7836 1171 85.5167 176.395 512.409
1010 0 77.1074 14.9791 1155 87.5281 175.411 509.771
1011 0 78.1663 14.661 1146 89.0017 173.872 509.494
1012 0 81.2291 14.6499 1190 91.4462 171.8 509.833
1013 0 85.2541 15.5535 1326 89.7979 169.094 509.19
1014 0 88.242 14.8909 1314 92.0434 167.364 506.269
1015 1 49.1798 11.0208 542 98.5701 166.138 527.657
1016 0 50.1356 12.6058 632 96.6187 165.233 524.954
1017 0 52.087 13.1511 685 93.6803 162.92 524.308
1018 0 54.2509 11.9261 647 95.9799 162.507 523.371
1019 0 56.1549 13.5696 762 89.5315 159.302 517.539
1020 0 57.1336 13.2322 756 91.2672 158.37 517.899
1021 0 60.1446 13.135 790 91.6633 156.561 513.935
1022 0 61.1169 12.9751 793 92.7667 155.427 510.221
1023 0 62.0842 13.1112 814 93.2113 155.638 508.7
1024 0 65.1981 13.482 879 92.9113 155.111 505.44
1025 0 69.0546 13.7428 949 93.1739 155.565 502.472
1026 0 70.0635 13.4735 944 94.7765 155.323 500.418
1027 0 76.1262 14.765 1124 91.3479 155.364 499.527
1028 0 76.0915 13.3523 1016 95.7766 156.753 499.25
1029 0 81.0934 15.8583 1286 90.6283 157.403 497.506
1030 0 82.0572 13.9415 1144 96.417 159.878 493.764
1031 0 87.0511 14.5317 1265 95.0988 161.32 493.855
1032 1 45.2171 11.102 502 94.3685 164.249 515.378
1033 0 43.1336 10.4559 451 99.6519 167.9 514.583
1034 0 45.2068 11.2594 509 99.3988 169.925 514.159
1035 0 48.1325 12.5695 605 99.4711 170.95 515.233
1036 0 49.0848 12.6719 622 103.629 174.22 514.092
1037 0 52.1384 15.5356 810 90.7383 175.141 516.275
1038 0 51.1818 13.3641 684 98.231 176.846 515.076
1039 0 56.243 14.4729 814 95.1769 177.372 517.291
1040 0 57.2073 13.0927 749 98.223 176.941 517.66
1041 0 58.2049 13.882 808 96.4059 175.563 517.179
1042 0 61.1336 14.0839 861 96.2567 175.013 516.29
1043 0 65.1693 15.2833 996 93.0713 172.738 517.47
1044 0 67.2293 14.8299 997 95.2387 171.315 515.676
1045 0 70.234 14.1812 996 96.8082 168.207 515.904
1046 0 71.1926 13.7093 976 98.0184 165.877 517.175
1047 0 72.2427 13.0948 946 102.463 164.34 512.897
1048 0 78.1862 13.9794 1093 98.064 162.501 513.445
1049 1 40.1372 10.0655 404 97.0866 162.233 530.245
1050 0 41.1231 8.77852 361 98.8421 160.612 531.352
1051 0 42.1544 9.56009 403 97.0844 159.623 530.995
1052 0 45.1615 11.5585 522 98.318 158.228 525.954
1053 0 46.3169 11.7452 544 100.419 157.377 525.018
1054 0 49.2094 12.7618 628 99.4108 156.156 523.623
1055 0 47.1195 10.1656 479 107.088 155.265 519.885
1056 0 51.1301 12.9474 662 97.0604 153.994 517.893
1057 0 52.2427 13.5521 708 94.1596 153.24 514.182
1058 0 52.1735 12.5734 656 95.8704 153.404 513.096
1059 0 55.1834 12.9387 714 95.486 153.517 511.125
1060 0 55.1033 11.2153 618 99.2848 154.023 509.984
1061 0 59.1199 14.479 856 92.903 155.461 506.718
1062 0 61.2313 13.9635 855 93.5333 156.08 506.409
1063 0 63.1478 13.2546 837 96.4648 157.476 502.988
1064 0 64.1453 14.623 938 93.855 159.5 500.987
1065 0 67.1316 13.9577 937 96.0491 161.687 503.152
1066 0 69.167 13.5325 936 95.9829 164.238 501.063
1067 0 70.1329 14.5296 1019 95.0608 167.187 500.09
1068 0 71.1344 12.371 880 101.374 169.036 498.607
1069 0 76.1992 13.1104 999 99.8699 171.309 497.263
1070 0 79.2761 13.8756 1100 98.8064 173.644 498.04
1071 1 44.0963 9.52461 420 99.0524 174.96 519.207
1072 0 44.085 8.86923 391 98.7698 175.422 521.67
1073 0 48.0491 11.5507 555 97.7694 174.926 519.456
1074 0 49.0908 11.163 548 96.8084 175.013 520.212
1075 0 51.126 12.0682 617 95.658 173.507 521.209
1076 0 52.0724 12.8091 667 101.498 171.553 518.372
1077 0 52.0946 12.938 674 99.1973 171.122 518.447
1078 0 53.1019 11.4873 610 101.913 169.6 517.472
1079 0 56.1102 12.2972 690 98.3449 166.738 518.939
1080 0 59.031 13.5014 797 95.9134 165.203 515.502
1081 0 59.129 12.1091 716 99.5112 163.774 514.299
1082 0 63.1242 12.7685 806 97.5422 162.942 513.969
1083 0 67.0676 13.2105 886 95.3973 161.929 514.827
1084 0 72.0813 9.75288 703 100.771 160.11 512.367
1085 0 71.1208 12.7389 906 97.9139 158.492 508.043
1086 0 74.1185 13.9506 1034 96.1248 157.909 506.282
1087 0 75.2487 12.9039 971 98.5942 157.296 502.024
1088 0 78.2752 13.0309 1020 93.7275 155.791 498.102
1089 0 80.3096 12.5639 1009 94.8593 155.635 497.03
1090 0 84.1493 14.4505 1216 91.4005 155.28 495.027
1091 0 88.1263 14.2523 1256 91.3495 154.386 493.047
1092 0 90.2503 13.9833 1262 92.9525 154.864 488.845
1093 0 91.3255 12.658 1156 97.3244 155.845 485.978
1094 0 94.1603 13.6363 1284 98.5467 157.608 489.167
1095 0 98.254 16.0095 1573 92.4984 158.656 485.442
1096 0 102.179 13.6232 1392 96.495 160.207 481.518
1097 0 105.21 14.7039 1547 94.7363 162.881 480.606
1098 0 107.071 14.1401 1514 96.8336 165.129 477.416
1099 0 111.194 15.3695 1709 94.8432 166.673 479.463
1100 0 115.158 16.2646 1873 93.4079 170.008 475.63
1101 0 116.26 14.3127 1664 98.747 171.282 474.927
1102 0 122.27 14.7051 1798 97.9939 173.853 473.655
1103 0 126.283 15.2039 1920 98.5333 175.043 472.572
1104 0 131.294 14.5398 1909 102.003 175.015 469.08
1105 0 136.515 15.9396 2176 99.5299 175.954 469.68
1106 0 143.422 15.8274 2270 99.8458 175.632 468.319
1107 0 149.312 17.1587 2562 96.808 175.001 467.589
1108 0 154.406 15.0577 2325 102.11 173.371 466.557
1109 0 163.413 15.4884 2531 101.374 172.335 459.936
1110 0 166.288 16.1828 2691 100.993 169.763 460.355
1111 0 174.405 15.1715 2646 102.881 168.277 457.903
1112 0 181.394 15.6731 2843 103.026 165.196 453.382
1113 0 188.316 15.4846 2916 103.335 162.564 450.43
1114 0 194.573 15.1819 2954 104.655 161.194 443.574
1115 0 203.492 16.266 3310 101.769 159.896 440.555
1116 1 147.271 9.98842 1471 110.438 158.685 474.608
1117 0 157.365 11.3304 1783 106.123 157.093 472.756
1118 0 166.425 13.0028 2164 105.21 155.164 461.097
1119 0 168.283 12.8177 2157 106.523 154.911 454.475
1120 0 175.384 14.7106 2580 100.632 153.429 449.106
1121 0 182.436 15.4575 2820 99.7372 153.348 444.332
1122 0 189.592 14.8107 2808 101.323 152.908 439.603
1123 0 193.471 14.3381 2774 102.902 152.758 435.519
1124 0 202.479 14.7028 2977 102.159 153.35 430.799
1125 0 206.692 14.1031 2915 103.151 154.668 429.098
1126 0 217.515 15.5162 3375 99.9384 155.778 423.526
1127 0 225.539 15.4785 3491 99.169 157.316 422.175
1128 0 232.411 16.1481 3753 98.3765 158.959 419.323
1129 0 241.429 14.3314 3460 102.541 161.494 413.382
1130 0 249.513 15.2497 3805 101.496 163.836 411.793
1131 1 59.0925 9.01975 533 94.1632 168.902 508.463
1132 0 63.0515 12.0695 761 89.8922 171.719 508.583
1133 0 65.0294 10.9797 714 92.1737 172.78 510.37
1134 0 66.1103 13.7951 912 89.1283 174.098 506.769
1135 0 70.0577 15.2731 1070 85.7252 175.002 507.624
1136 0 71.0733 13.5635 964 89.1992 175.53 509.672
1137 0 72.0517 12.5882 907 91.8203 175.664 507.198
1138 0 77.0788 14.6344 1128 87.4911 176.151 509.149
1139 0 80.1147 14.4293 1156 87.5398 175.507 507.51
1140 0 78.1405 12.2728 959 90.3358 175.244 507.913
1141 1 44.0481 11.2604 496 88.5665 175.51 525.675
1142 0 44.025 11.0619 487 89.8131 174.144 526.078
1143 0 45.0844 11.911 537 85.8454 168.993 528.242
1144 0 48.0252 13.1598 632 83.462 167.522 528.674
1145 0 47.0714 11.387 536 88.0821 163.558 528.631
1146 0 47.1172 11.1 523 89.6692 161.862 527.755
1147 0 51.0483 11.8123 603 88.2852 159.232 525.559
1148 1 63.1474 14.6008 922 77.359 157.649 518.48
1149 0 57.0794 14.8215 846 81.9019 155.822 517.443
1150 0 56.1095 10.8538 609 91.8506 155.634 520.741
1151 1 199.671 16.0514 3205 73.258 155.528 418.404
1152 1 286.499 6.4468 1847 101.977 152.873 438.665
1153 0 286.437 7.47458 2141 100.645 152.642 432.225
1154 0 282.439 6.66339 1882 105.083 151.665 429.232
1155 0 284.587 8.67923 2470 102.472 151.127 410.994
1156 0 278.561 9.43778 2629 101.087 151.104 413.322
1157 0 274.59 10.2735 2821 100.998 152.314 402.275
1158 1 188.503 15.6761 2955 89.7746 153.188 434.404
1159 1 95.0534 14.8233 1409 76.9851 153.954 494.157
1160 0 87.995 19.8648 1748 72.361 154.916 490.864
1161 1 42.0187 9.37677 394 92.1117 155.896 520.873
1162 0 45.0471 12.276 553 87.4159 159.479 518.269
1163 0 46.0255 11.1025 511 89.6751 163.26 520.751
1164 0 46.1235 13.2254 610 84.1311 168.748 520.126
1165 0 48.0964 12.3918 596 84.9144 171.601 518.339
1166 0 49.1036 12.2598 602 86.0166 170.075 518.537
1167 0 51.0774 12.7454 651 85.2104 172.833 521.869
1168 0 50.1962 11.5945 582 87.7388 172.569 522.093
1169 0 53.2564 12.5055 666 85.6787 173.465 521.913
1170 0 53.0953 10.7919 573 88.9756 173.075 523.766
1171 0 56.2104 11.7772 662 86.6813 172.204 522.817
1172 0 56.1174 10.478 588 89.1922 170.478 523.002
1173 0 58.0637 11.0052 639 88.4695 169.053 523.989
1174 0 60.0916 12.5309 753 86.8154 167.539 526.639
1175 0 64.0992 12.6835 813 87.5252 165.758 522.702
1176 0 65.0561 11.2365 731 88.9357 162.674 520.84
1177 0 70.0171 12.2684 859 87.4866 160.671 519.944
1178 0 72.0319 12.7305 917 88.0284 158.58 517.419
1179 1 36.046 7.90655 285 94.5754 156.986 535.267
1180 0 39.0715 11.287 441 89.4127 156.438 534.853
1181 0 40.096 9.22785 370 90.3703 153.646 534.405
1182 0 40.1101 10.9698 440 89.2545 153.664 532.82
1183 0 45.0727 10.6938 482 89.6598 152.046 528.106
1184 0 47.4202 11.1556 529 90.7297 154.187 525.945
1185 0 47.1667 12.212 576 89.6007 153.135 526.153
1186 0 49.2458 12.5696 619 92.6494 151.654 522.853
1187 0 52.0992 13.8006 719 89.886 152.202 521.969
1188 0 52.1896 13.1444 686 92.9796 151.319 518.933
1189 0 55.145 14.1445 780 89.9782 152.973 516.585
1190 0 55.1517 13.4719 743 91.7766 153.509 514.978
1191 0 57.2478 12.9263 740 93.1149 154.13 515.118
1192 0 60.2744 13.9694 842 91.6544 155.251 512.439
1193 0 62.2823 15.205 947 89.3897 156.707 514.177
1194 0 61.2245 13.475 825 94.0133 159.8 511.958
1195 0 65.2516 14.605 953 91.638 162.314 512.496
1196 0 66.29 13.6672 906 94.7914 163.743 511.265
1197 0 68.4637 15.8916 1088 91.8327 166.622 510.232
1198 0 69.2255 14.0844 975 98.9559 169.775 508.565
1199 0 76.1998 15.3937 1173 95.4706 171.845 508.736
1200 0 75.4033 14.6015 1101 100.272 173.112 506.787
1201 0 80.2751 14.4129 1157 100.077 174.426 508.677
1202 0 83.1898 16.829 1400 96.0021 175.016 505.923
1203 1 43.2137 11.2002 484 104.785 175.091 528.475
1204 0 44.272 10.6388 471 107.943 173.304 527.042
1205 0 45.3815 11.0618 502 108.504 172.444 526.739
1206 0 46.3528 11.6282 539 110.367 171.367 525.325
1207 0 45.1725 10.3824 469 108.746 168.593 527.409
1208 0 51.3441 12.6402 649 105.122 165.775 526.126
1209 0 54.356 14.681 798 101.16 163.797 522.684
1210 0 56.1849 15.8406 890 98.9326 161.971 525.247
1211 0 57.2438 13.9578 799 105.32 160.781 520.942
1212 0 60.2958 15.341 925 102.255 159.878 520.061
1213 0 61.3055 14.1749 869 106.371 157.344 519.198
1214 0 64.2182 15.2138 977 104.265 156.11 518.636
1215 0 66.2633 14.0953 934 107.271 154.887 515.012
1216 0 69.1106 14.4261 997 108.019 153.1 512.825
1217 0 70.1831 14.4764 1016 108.931 152.885 510.932
1218 0 75.0741 16.4371 1234 102.631 152.771 507.36
1219 0 76.1727 15.1761 1156 107.179 152.902 506.219
1220 0 78.2351 15.1083 1182 108.516 153.047 502.806
1221 0 81.2273 14.9211 1212 109.238 152.523 501.3
1222 0 84.0894 14.4132 1212 110.498 152.81 498.258
1223 0 88.1364 15.2264 1342 107.677 154.458 496.226
1224 1 45.1467 10.632 480 112.052 153.688 518.431
1225 0 45.1794 9.96028 450 113.838 156.3 518.787
1226 0 44.1214 11.1964 494 112.37 157.747 516.917
1227 0 47.1594 12.0019 566 110.449 161.166 516.91
1228 0 50.087 11.9592 599 111.391 163.442 517.135
1229 0 52.0706 13.5009 703 108.871 166.794 516.542
1230 0 53.1501 12.888 685 110.771 170.409 518.025
1231 0 54.0723 14.4251 780 108.481 170.794 514.379
1232 0 56.0686 14.0185 786 109.028 173.061 516.653
1233 0 58.0296 13.5448 786 110.139 174.003 515.328
1234 0 60.1439 13.7171 825 109.204 175.176 514.68
1235 0 62.0951 12.9318 803 110.268 175.9 515.695
1236 0 63.3333 13.9421 883 108.242 176.899 513.794
1237 0 66.3897 15.2735 1014 104.196 176.024 515.585
1238 0 68.2057 13.43 916 108.602 174.408 515.045
1239 0 69.2472 13.719 950 108.573 172.942 515.007
1240 0 72.229 14.2325 1028 107.46 171.632 515.465
1241 0 76.3313 14.9087 1138 105.388 168.902 514.538
1242 0 77.2138 14.0001 1081 108.211 166.439 512.388
1243 0 81.2661 14.8401 1206 104.802 164.327 511.384
1244 1 44.0745 9.80159 432 109.123 163.914 529.488
1245 0 44.0637 10.5756 466 105.946 162.676 529.015
1246 0 46.0698 9.91974 457 107.691 161.022 527.442
1247 0 49.0721 10.6985 525 105.027 159.928 528.272
1248 0 49.1013 11.4865 564 103.023 158.459 527.163
1249 0 48.0249 10.3696 498 107.783 157.329 522.998
1250 0 53.0383 13.4431 713 97.7167 156.659 519.215
1251 0 54.0961 13.6424 738 95.8035 155.805 517.733
1252 0 56.1594 14.2095 798 95.0276 155.835 512.878
1253 0 58.1349 14.8276 862 93.5638 155.217 510.311
1254 0 59.0771 13.2708 784 97.7258 156.325 510.381
1255 0 62.0998 14.5089 901 95.8235 156.996 506.805
1256 0 63.0696 13.6833 863 97.54 157.053 506.499
1257 0 64.1211 13.3809 858 98.1888 157.84 506.795
1258 0 67.2251 13.9234 936 97.6496 159.92 504.815
1259 0 69.1138 13.5284 935 98.1465 162.127 503.461
1260 0 72.1937 14.3364 1035 94.3246 165.28 501.892
1261 0 74.0724 14.3913 1066 90.0938 167.837 500.809
1262 0 76.0767 13.631 1037 90.7859 170.881 503.638
1263 0 79.1175 13.7517 1088 90.4329 173.324 502.067
1264 0 80.0884 14.3841 1152 89.8967 174.824 499.469
1265 0 84.1363 13.6683 1150 92.1817 176.696 498.864
1266 0 86.1313 13.8509 1193 92.8533 176.848 498.736
1267 1 43.0561 10.405 448 95.1853 178.359 522.685
1268 0 46.0493 10.315 475 95.6905 178.672 521.996
1269 0 47.0435 10.5859 498 94.8775 177.701 521.538
1270 0 50.0677 11.6243 582 92.3488 177.095 521.694
1271 0 53.0459 12.2724 651 89.2396 175.018 522.986
1272 0 53.13 12.5541 667 89.027 174.075 520.967
1273 0 56.1261 13.7369 771 87.1673 171.805 521.601
1274 0 58.0963 13.3743 777 88.8764 169.484 520.073
1275 0 61.2031 12.4013 759 90.8617 166.912 520.49
1276 0 63.1806 13.1053 828 89.9457 165.643 519.743
1277 0 65.095 14.5633 948 87.7215 165.084 517.815
1278 0 67.1337 13.555 910 89.5308 163.307 518.029
1279 0 71.0539 14.7494 1048 87.6135 160.996 514.761
1280 0 73.1286 14.0848 1030 89.6583 159.877 511.863
1281 0 72.0637 13.5713 978 92.5276 158.975 509.375
1282 0 77.1557 14.9956 1157 89.3483 157.401 507.59
1283 0 78.2033 14.3856 1125 90.5502 156.334 505.627
1284 0 81.2472 14.9051 1211 90.1908 155.311 501.441
1285 0 83.1472 14.4082 1198 90.2154 154.771 498.177
1286 0 84.1538 14.0576 1183 91.7937 154.464 497.708
1287 1 45.2323 7.60518 344 96.1483 155.456 520.398
1288 0 46.2554 9.6205 445 96.7056 155.962 516.139
1289 0 49.1898 9.31088 458 98.2467 158.122 514.557
1290 0 50.2583 11.5205 579 94.4456 158.615 513.192
1291 0 50.4394 10.2697 518 98.3263 160.963 511.004
1292 0 53.5046 13.3633 715 93.0517 162.515 508.09
1293 0 54.439 12.6564 689 96.3338 165.3 506.393
1294 0 57.0697 12.7563 728 94.9615 169.713 511.413
1295 0 57.2702 11.8037 676 93.2426 171.876 510.367
1296 0 57.157 12.0895 691 93.9233 174.676 510.164
1297 0 59.2535 12.6068 747 92.8996 176.612 509.667
1298 0 59.1066 11.5385 682 95.4824 177.081 511.282
1299 0 63.1629 13.5364 855 92.4094 178.416 509.913
1300 0 66.1259 13.187 872 93.3796 178.219 514.193
1301 0 68.1916 13.4034 914 94.0109 178.059 511.899
1302 0 76.2058 12.9387 986 98.1298 174.52 510.43
1303 0 78.3152 13.867 1086 97.2017 172.403 507.535
1304 0 81.3455 13.2644 1079 98.2623 171.068 508.386
1305 0 83.1559 13.601 1131 97.2644 169.206 507.639
1306 0 84.2267 12.3239 1038 101.657 167.207 504.206
1307 0 89.2522 13.4899 1204 99.3223 165.152 501.716
1308 0 94.2121 14.8601 1400 96.3479 164.061 502.147
1309 1 49.0318 12.033 590 100.534 160.836 523.68
1310 0 49.1143 11.3205 556 101.088 158.867 524.272
1311 0 50.3347 13.152 662 96.5574 159.308 519.816
1312 0 51.0209 12.2499 625 100.387 159.371 519.07
1313 0 57.0397 14.0253 800 97.4862 156.251 514.892
1314 0 60.0298 12.9602 778 99.2044 155.618 512.054
1315 0 62.0572 14.4866 899 96.7664 155.085 509.18
1316 0 64.0544 16.283 1043 92.6232 155.209 509.928
1317 0 66.0699 14.5755 963 96.2471 154.969 507.339
1318 0 66.1765 13.4942 893 99.0157 156.3 505.055
1319 0 70.1232 13.0627 916 98.8166 158.034 505.17
1320 0 74.1635 14.2253 1055 95.5327 157.897 502.994
1321 0 75.1144 13.7657 1034 97.7118 160.398 503.907
1322 0 77.1309 14.43 1113 96.2848 163.323 501.279
1323 0 79.1967 14.0662 1114 97.7289 164.167 501.662
1324 1 42.1437 10.0371 423 99.5816 166.962 522.118
1325 0 43.0339 9.08586 391 101.199 170.379 523.299
1326 0 41.0507 9.98764 410 102.563 172.522 520.305
1327 0 46.0613 10.2038 470 98.9362 173.494 520.357
1328 0 49.1453 12.3308 606 92.5429 173.98 524.145
1329 0 49.0744 13.0007 638 91.6097 174.185 526.382
1330 0 51.2316 13.5463 694 93.8818 173.558 522.566
1331 0 53.2631 14.4565 770 92.5519 172.295 524.209
1332 0 54.2041 14.5377 788 92.6447 170.728 525.834
1333 0 55.2591 12.4504 688 97.0581 168.632 524.975
1334 0 59.3021 12.5628 745 94.7074 167.705 525.58
1335 0 62.2372 15.8587 987 88.9706 164.047 523.598
1336 0 64.1392 14.4685 928 92.2565 161.976 524.533
1337 0 65.2321 14.5021 946 93.2421 160.34 524.712
1338 0 68.2643 14.6196 998 92.2916 157.977 522.125
1339 0 69.2757 14.0453 973 93.1028 157.03 521.788
1340 0 72.1984 13.1859 952 95.0567 155.316 520.423
1341 0 73.2944 12.7568 935 95.8791 153.311 516.093
1342 0 75.1875 13.1538 989 95.5137 152.766 516.41
1343 0 80.1492 14.5603 1167 91.8458 150.814 515.045
1344 0 84.258 13.874 1169 92.408 149.467 512.455
1345 1 42.085 9.2432 389 93.8432 148.686 533.584
1346 0 44.1633 10.2574 453 93.1766 148.128 530.029
1347 0 47.2571 10.7074 506 92.9585 146.619 529.196
1348 0 47.1185 11.9061 561 89.861 147.422 527.676
1349 0 49.2129 12.3342 607 89.631 146.577 523.206
1350 0 51.0383 13.4997 689 90.016 147.225 523.017
1351 0 53.1635 12.2641 652 92.4018 146.569 522.637
1352 0 53.031 13.2941 705 91.7262 148.075 520.96
1353 0 56.0612 13.7172 769 90.342 150.819 518.502
1354 0 59.0582 13.2412 782 90.5588 152.414 517.991
1355 0 59.0512 12.7516 753 91.7185 155.266 520.069
1356 0 63.0233 12.6937 800 91.845 157.24 515.702
1357 0 65.0895 14.4109 938 89.6109 161.358 516.995
1358 0 68.0751 14.5868 993 89.4904 163.191 515.148
1359 0 70.0395 15.1343 1060 88.1925 164.722 517.908
1360 0 71.0874 14.2079 1010 91.8109 166.235 515.925
1361 0 75.1957 15.187 1142 91.0184 167.081 515.032
1362 0 78.1502 14.4209 1127 93.0568 167.09 516.742
1363 1 37.0234 8.29206 307 99.5831 165.632 537.27
1364 0 41.0817 10.613 436 98.594 165.567 535.624
1365 0 44.136 10.7849 476 98.2857 165.193 535.664
1366 0 47.1242 11.4591 540 97.1204 164.848 536.767
1367 0 48.329 11.9183 576 97.2951 163.523 536.488
1368 0 47.5361 11.2756 536 101.858 159.5 532.679
1369 0 51.4035 12.5283 644 99.0963 157.25 531.043
1370 0 52.0512 13.1217 683 97.4129 156.299 533.745
1371 0 54.0189 12.8844 696 98.5862 154.932 531.733
1372 0 56.042 14.5427 815 95.0049 153.488 530.92
1373 0 57.0625 13.7744 786 97.4873 152.135 528.001
1374 0 60.0943 13.7451 826 96.4818 149.788 526.743
1375 0 62.0648 14.1143 876 95.1804 148.087 525.09
1376 0 63.104 13.2638 837 99.2318 147.772 522.849
1377 0 66.0515 13.55 895 98.5397 147.397 521.228
1378 0 70.1649 13.6535 958 97.1952 147.263 517.856
1379 0 69.1198 13.3247 921 99.3246 148.336 512.933
1380 0 74.0815 14.808 1097 95.4376 148.931 514.404
1381 0 76.1391 14.7362 1122 95.9866 148.925 513.651
1382 0 79.2417 13.5408 1073 98.7931 150.59 509.817
1383 1 41.015 10.1182 415 98.4988 152.422 530.207
1384 0 46.0722 11.0262 508 97.2598 154.266 528.766
1385 0 47.0473 11.2015 527 97.3188 156.565 528.154
1386 0 48.0634 12.5875 605 93.919 159.537 526.385
1387 0 50.0402 13.2893 665 93.0797 161.483 526.084
1388 0 52.3747 12.9643 679 94.4359 161.052 521.797
1389 0 52.3948 15.2114 797 91.7089 163.656 521.169
1390 0 56.2929 14.5667 820 91.6134 166.23 522.326
1391 0 55.0355 13.5549 746 95.1287 170.323 524.875
1392 0 57.0455 12.902 736 97.6685 171.442 524.405
1393 0 59.0258 13.4856 796 98.4535 172.036 524.678
1394 0 61.0421 12.9255 789 98.6895 171.895 527.207
1395 0 64.0532 14.9251 956 94.8421 171.892 525.948
1396 0 66.0468 14.1869 937 97.5923 169.777 525.064
1397 0 69.0529 14.3224 989 96.997 168.586 525.365
1398 0 69.0555 13.4385 928 102.017 166.3 523.75
1399 0 72.1406 13.8341 998 101.396 162.63 522.094
1400 0 75.1052 13.6608 1026 102.811 158.62 520.569
1401 0 77.1244 14.0293 1082 102.707 156.888 518.713
1402 0 83.1332 14.4106 1198 99.621 154.898 518.519
1403 1 46.0309 9.99328 460 103.133 153.987 538.007
1404 0 47.0244 11.4409 538 103.359 152.249 534.998
1405 0 49.0149 9.01766 442 106.215 151.05 534.491
1406 0 51.0377 11.1878 571 104.592 149.033 532.191
1407 0 53.0977 11.8084 627 104.147 148.295 529.033
1408 0 55.1097 12.7745 704 101.734 147.185 528.722
1409 0 55.0151 12.2875 676 101.129 147.512 527.683
1410 0 56.0403 13.5617 760 101.72 147.026 524.678
1411 0 59.0344 13.3651 789 101.919 146.529 522.529
1412 0 59.08 14.455 854 99.1265 148.9 522.948
1413 0 63.0535 13.9088 877 99.4846 149.759 520.445
1414 0 61.0571 13.168 804 102.586 150.379 519.52
1415 0 66.0958 14.7059 972 97.8251 151.925 519.179
1416 0 67.044 14.4681 970 98.3402 153.811 518.185
1417 0 70.0966 15.336 1075 96.0167 156.452 517.81
1418 0 70.0575 13.6174 954 100.958 158.702 519.034
1419 0 74.0827 13.5659 1005 99.5373 161.987 518.182
1420 0 75.1542 14.4769 1088 98.5349 164.474 516.093
1421 0 77.0967 13.7619 1061 101.144 166.336 515.893
1422 0 81.1212 15.3721 1247 96.4563 166.504 517.14
1423 0 82.0979 13.0941 1075 103.247 165.446 517.453
1424 0 88.1358 14.4777 1276 98.7092 165.967 517.131
1425 0 90.0923 13.5195 1218 103.002 164.266 518.173
1426 1 48.0827 11.917 573 103.04 161.892 540.206
1427 0 49.0542 9.98894 490 105.743 162.061 542.565
1428 0 50.0775 11.9415 598 103.741 159.263 540.04
1429 0 52.1088 13.2415 690 102.493 158.145 538.886
1430 0 51.1591 11.3372 580 94.2517 156.95 531.833
1431 0 52.0946 10.6153 553 95.4973 154.546 531.505
1432 0 56.0476 10.5268 590 95.7186 151.832 531.003
1433 0 58.0494 11.6453 676 94.8846 149.902 530.688
1434 0 61.1205 11.3383 693 95.5094 148.612 527.02
1435 0 65.11 11.5343 751 94.012 147.541 527.969
1436 0 64.0897 11.796 756 94.3399 146.759 523.315
1437 0 68.0863 12.1317 826 91.3523 145.117 524.554
1438 0 71.1389 12.1312 863 92.3024 144.028 521.057
1439 0 72.1565 13.6509 985 88.7452 144.151 513.534
1440 0 75.2873 12.9637 976 89.5338 144.163 514.475
1441 0 80.0996 13.5956 1089 87.9807 143.602 512.109
1442 0 82.2427 13.5574 1115 89.3229 144.912 510.604
1443 0 86.2738 13.3412 1151 89.6203 145.263 507.481
1444 0 88.2756 13.4578 1188 91.0741 146.907 504.123
1445 0 91.3046 13.0333 1190 92.6874 149.195 500.523
1446 0 93.3174 12.8165 1196 94.3804 150.176 497.551
1447 0 96.3281 14.461 1393 92.2103 152.082 496.565
1448 0 99.2446 13.4415 1334 96.5337 154.176 493.207
1449 0 100.195 13.4538 1348 105.389 157.267 495.004
1450 0 104.363 13.3476 1393 104.2 160.085 493.831
1451 0 107.358 13.5994 1460 103.901 161.731 492.358
1452 0 113.451 13.9179 1579 103.643 164.671 489.359
1453 0 117.355 14.4689 1698 104.137 166.276 487.451
1454 1 62.1603 9.07331 564 105.397 166.463 518.61
1455 0 67.3069 11.8264 796 100.418 166.843 517.918
1456 0 68.3253 11.855 810 102.764 167.346 517.414
1457 0 74.2766 13.2343 983 93.4842 165.742 518.349
1458 0 75.1466 10.9785 825 99.2558 163.59 516.201
1459 0 78.1666 12.6525 989 96.2103 162.323 514.761
1460 0 80.3481 12.0476 968 98.6291 160.945 513.494
1461 0 83.4735 13.1898 1101 96.5613 158.151 516.286
1462 0 88.0877 13.8952 1224 96.0891 155.947 519.207
1463 1 37.1614 9.66057 359 91.9972 157.964 542.499
1464 0 38.1745 10.5568 403 94.6079 155.692 539.015
1465 0 40.1333 10.7392 431 91.9211 155.341 541.218
1466 0 42.0882 10.8344 456 91.625 153.377 541.27
1467 0 44.2885 11.3122 501 90.4591 152.142 537.838
1468 0 44.2657 11.318 501 91.8762 150.768 534.894
1469 0 48.0452 13.3832 643 91.7589 150.462 534.045
1470 0 48.0305 12.3671 594 93.9983 149.621 533.338
1471 0 49.1111 12.8688 632 93.5934 149.551 532.432
1472 0 51.0569 13.2597 677 93.1521 149.137 528.1
1473 0 50.0365 12.6108 631 96.1395 149.572 526.575
1474 0 55.1358 13.5484 747 93.2316 150.141 525.779
1475 0 55.1588 12.8538 709 97.0606 152.076 524.216
1476 0 55.0579 12.4415 685 98.3971 152.715 524.273
1477 0 57.0296 13.4492 767 97.5424 153.545 523.349
1478 0 61.067 12.9366 790 98.6671 156.206 522.285
1479 0 61.0735 13.7539 840 98.0464 158.711 520.299
1480 0 60.1046 12.6114 758 102.842 161.534 521.373
1481 0 65.054 12.7125 827 101.166 164.167 520.99
1482 0 67.0275 14.2479 955 98.8105 166.996 522.279
1483 0 69.0748 14.5639 1006 97.7575 168.194 524.724
1484 0 70.0496 13.6475 956 101.575 170.209 524.516
1485 0 76.1353 15.2886 1164 96.7784 169.863 524.017
1486 0 77.1112 15.6268 1205 97.7685 169.73 521.129
1487 1 45.0402 9.14739 412 103.231 169.667 542.857
1488 0 42.1094 10.9477 461 102.848 167.777 542.206
1489 0 45.0248 8.79516 396 107.225 163.535 545.005
1490 0 49.0358 11.1143 545 102.985 162.806 544.998
1491 0 48.0306 11.9507 574 102.404 160.713 545.364
1492 0 48.0939 11.4568 551 94.559 154.626 542.201
1493 0 48.2507 10.4662 505 98.2455 154.497 538.776
1494 0 53.1049 13.0685 694 94.2839 154.385 540.046
1495 0 56.1384 12.487 701 96.0342 151.765 540.847
1496 0 55.1295 12.1713 671 98.7675 149.367 538.917
1497 0 57.1321 13.7051 783 96.1022 147.11 536.425
1498 0 59.1519 13.6429 807 95.3147 146.494 534.591
1499 0 59.1064 13.095 774 96.9884 144.987 532.283
1500 0 64.1715 13.9938 898 93.2316 143.98 533.037
1501 0 66.2071 13.3067 881 93.9058 143.953 529.158
1502 0 67.1202 12.634 848 94.829 144.163 526.104
1503 0 69.1712 13.1847 912 94.4879 142.586 521.001
1504 0 73.2399 12.3157 902 95.7539 143.322 520.81
1505 0 73.3678 13.1393 964 94.6857 145.609 519.901
1506 1 39.1512 9.22067 361 98.3019 146.878 536.665
1507 0 41.2251 9.65431 398 97.9397 148.724 533.256
1508 0 44.1103 10.0203 442 98.862 150.701 531.378
1509 0 45.05 11.6093 523 96.1491 152.126 532.688
1510 0 47.0737 12.4911 588 94.4235 153.498 532.048
1511 0 48.1108 11.7022 563 94.405 154.579 531.615
1512 0 51.0843 12.9394 661 94.4115 157.12 530.979
1513 0 52.0597 13.2156 688 93.6541 159.496 530.507
1514 0 53.1412 14.4897 770 92.6649 159.912 530.105
1515 0 55.0584 13.6219 750 95.244 163.739 533.835
1516 0 56.1144 13.8467 777 97.4273 164.414 531.921
1517 0 59.1597 14.0298 830 95.5386 164.151 530.28
1518 0 61.1188 13.6292 833 96.3745 163.553 530.531
1519 0 61.0409 14.2691 871 96.5166 162.938 529.338
1520 0 63.0811 13.2845 838 99.0883 161.267 527.668
1521 0 66.1606 15.0089 993 96.8751 161.052 528.799
1522 0 67.0496 14.0344 941 98.0616 159.385 532.102
1523 0 69.0901 13.7357 949 99.1623 156.352 527.94
1524 0 67.2789 10.8652 731 107.592 154.766 521.937
1525 0 76.1519 15.3378 1168 95.2526 152.798 525.314
1526 1 38.0187 10.0477 382 101.461 150.631 541.838
1527 0 42.0137 11.5438 485 97.5464 149.489 542.142
1528 0 40.0709 10.6811 428 100.986 147.014 539.797
1529 0 45.0463 12.6758 571 95.4168 146.217 538.172
1530 0 45.0221 12.9936 585 95.4222 144.537 535.509
1531 0 45.0203 12.7276 573 95.829 144.962 537.309
1532 0 48.0696 12.9604 623 94.5457 143.592 532.518
1533 0 48.0583 13.0258 626 96.4329 142.345 530.131
1534 0 51.0621 14.8055 756 91.0728 142.388 529.786
1535 0 53.1008 13.1637 699 94.1831 142.172 526.951
1536 0 53.1127 14.0456 746 94.4397 143.609 526.377
1537 0 55.0488 15.1684 835 91.9629 144.247 524.056
1538 0 57.111 14.253 814 93.1585 146.8 525.553
1539 0 57.0575 14.2838 815 94.4969 147.955 527.26
1540 0 59.0646 14.154 836 95.6459 151.114 524.004
1541 0 61.1199 14.7088 899 95.3103 153.651 525.694
1542 0 61.0581 13.8229 844 100.81 157.29 525.868
1543 0 62.0309 14.8797 923 98.9285 160.33 524.505
1544 0 67.1366 14.612 981 99.0571 162.565 525.146
1545 0 70.1975 15.0718 1058 98.4518 163.796 525.194
1546 0 71.1263 14.6359 1041 101.768 165.356 524.377
1547 0 74.076 13.9181 1031 103.456 165.43 526.054
1548 0 75.2412 15.7361 1184 100.589 165.299 524.584
1549 0 81.1452 15.6756 1272 99.4772 164.322 526.3
1550 0 83.0933 15.1998 1263 100.979 162.944 524.61
1551 0 88.2114 15.1228 1334 100.796 160.672 523.124
1552 0 90.0986 14.8726 1340 103.48 158.937 523.358
1553 1 49.0937 10.5716 519 105.541 156.25 545.216
1554 0 49.0469 11.6419 571 105.243 153.676 546.298
1555 0 52.0209 11.7837 613 105.825 151.865 543.364
1556 0 52.1775 11.94 623 104.891 149.453 542.419
1557 0 56.0784 13.5168 758 98.653 149.107 541.009
1558 0 55.0752 12.6554 697 95.9555 148.044 537.166
1559 0 58.0725 13.0871 760 93.4842 146.682 534.492
1560 0 58.0615 12.0217 698 96.967 145.371 528.974
1561 0 63.0881 13.6951 864 93.5995 145.005 527.949
1562 0 65.1705 13.2115 861 95.0743 144.496 525.913
1563 0 67.042 13.3797 897 95.5641 142.97 525.683
1564 0 67.119 12.0085 806 100.653 142.535 521.027
1565 0 71.1105 12.4876 888 100.779 143.113 517.202
1566 0 74.1616 14.0099 1039 97.154 143.819 515.237
1567 0 78.2201 13.3725 1046 99.304 144.373 512.322
1568 0 81.2974 13.3338 1084 107.892 145.101 513.553
1569 0 84.143 12.9898 1093 108.392 146.141 506.784
1570 1 43.155 8.94451 386 106.503 148.839 525.855
1571 0 45.0755 8.16409 368 103.223 150.731 529.043
1572 0 46.0806 11.9573 551 97.4682 155.004 525.394
1573 0 48.033 11.2423 540 108.341 157.856 523.596
1574 0 52.0823 12.7107 662 102.591 158.941 524.006
1575 0 51.0498 12.8894 658 106.728 162.217 525.483
1576 0 52.083 12.3265 642 107.396 164.629 523.863
1577 0 58.0531 13.1948 766 102.646 166.222 525.044
1578 0 58.0386 13.4566 781 104.337 166.778 525.462
1579 0 59.074 12.916 763 105.358 166.427 525.03
1580 0 63.0549 13.6548 861 103.485 167.231 524.502
1581 0 65.0859 13.4591 876 104.914 165.632 525.051
1582 0 67.1425 13.1362 882 106.074 163.499 521.974
1583 0 73.0984 14.5284 1062 100.788 162.376 521.862
1584 0 75.1161 13.9917 1051 99.7821 160.144 525.617
1585 0 78.3332 13.9915 1096 101.161 157.544 526.391
1586 0 81.2819 14.0253 1140 101.807 154.821 523.334
1587 0 85.3285 15.0594 1285 98.2163 153.714 520.953
1588 1 44.1638 11.6838 516 102.899 152.864 541.614
1589 0 47.1263 11.5222 543 104.838 151.287 537.698
1590 0 46.1751 10.5468 487 108.269 150.598 538.027
1591 0 49.4717 12.2494 606 105.15 148.15 532.822
1592 0 52.1152 12.7026 662 96.9245 146.36 534.027
1593 0 53.0779 13.2258 702 97.067 149.531 531.346
1594 0 55.1619 12.8531 709 97.2807 149.659 529.371
1595 0 54.1887 12.3642 670 100.99 148.816 526.193
1596 0 58.1397 13.0032 756 97.8677 149.639 523.522
1597 0 59.1919 13.5829 804 97.7985 150.915 522.45
1598 0 62.1488 13.7734 856 96.4801 150.551 523.338
1599 0 66.2196 13.9083 921 95.3084 152.809 519.326
1600 0 66.1053 13.2516 876 99.1336 154.534 520.064
1601 0 67.1876 13.2465 890 99.8393 156.71 518.463
1602 0 70.1775 14.0073 983 97.8627 158.365 516.953
1603 0 73.2169 13.0981 959 100.464 161.254 516.967
1604 0 74.2633 13.3713 993 100.679 165.121 516.872
1605 1 42.0099 11.1402 468 102.763 167.585 533.323
1606 0 43.0412 9.64192 415 105.576 170.424 534.405
1607 0 46.0222 11.4727 528 101.496 171.727 536.492
1608 0 44.0306 10.5608 465 106.746 171.718 536.622
1609 0 47.0912 12.0192 566 104.728 171.68 537.611
1610 0 47.0739 13.6381 642 99.9034 169.421 538.617
1611 0 49.0671 12.8803 632 101.453 164.802 537.915
1612 0 50.0215 12.9944 650 102.522 163.522 539.472
1613 0 53.0357 12.7461 676 103.574 162.951 539.549
1614 0 55.0493 14.1691 780 99.809 159.637 538.937
1615 0 57.0824 13.0864 747 103.688 158.582 539.71
1616 0 60.0611 14.1523 850 100.582 156.247 536.752
1617 0 60.1363 13.669 822 102.564 154.541 535.589
1618 0 61.079 13.7527 840 103.36 152.364 532.95
1619 0 65.0527 15.4336 1004 98.7161 151.236 533.159
1620 0 67.086 14.4441 969 101.001 149.715 530.376
1621 0 67.1027 13.755 923 104.102 148.555 527.451
1622 0 68.0841 13.689 932 104.65 147.261 526.798
1623 0 72.1496 13.9571 1007 102.871 146.303 523.617
1624 1 41.1279 11.0874 456 107.002 145.471 539.171
1625 0 42.0274 10.7787 453 108.543 145.55 538.607
1626 0 42.0768 12.1445 511 107.624 145.724 532.348
1627 0 42.1144 9.9016 417 111.357 145.638 532.132
1628 0 44.0674 12.5943 555 109.061 147.27 528.4
1629 0 46.0216 13.146 605 107.699 147.891 531.203
1630 0 47.0459 12.4559 586 109.862 149.305 528.334
1631 0 49.192 12.868 633 109.962 152.404 530.202
1632 0 50.3071 12.1851 613 110.576 154.788 529.341
1633 0 50.1312 12.8662 645 110.972 156.163 528.416
1634 0 53.2554 13.7075 730 110.714 159.81 528.573
1635 0 54.2012 13.6897 742 111.044 161.846 527.248
1636 0 55.3314 13.627 754 112.037 164.76 527.889
1637 0 57.316 13.2947 762 112.121 166.45 527.802
1638 0 58.295 13.9806 815 110.72 166.488 529.27
1639 0 61.3077 15.0552 923 107.456 168.355 528.779
1640 0 61.0646 14.2636 871 110.225 167.435 531.445
1641 0 65.0937 14.917 971 109.216 164.858 527.753
1642 0 69.0186 15.3727 1061 107.9 162.63 528.43
1643 0 72.0274 14.7444 1062 108.368 162.368 530.585
1644 0 75.0828 15.0101 1127 108.663 160.195 526.934
1645 0 75.249 13.5683 1021 113.828 157.569 526.836
1646 0 79.0402 14.8405 1173 110.522 156.423 525.256
1647 1 41.0099 10.5584 433 114.164 154.411 546.162
1648 0 43.0459 11.6155 500 113.012 152.056 542.756
1649 0 46.0364 12.4249 572 110.259 149.544 541.024
1650 0 46.0692 11.3742 524 114.246 147.573 538.647
1651 0 47.0529 12.4328 585 109.326 146.699 539.699
1652 0 48.2139 11.9468 576 115.196 145.651 532.533
1653 0 51.1344 12.7703 653 105.092 144.026 531.828
1654 0 53.0555 12.4398 660 111.674 142.886 533.095
1655 0 55.1462 14.5613 803 106.864 142.605 529.072
1656 0 56.0424 14.5604 816 107.176 142.252 528.787
1657 0 58.0949 15.2165 884 105.882 142.622 524.682
1658 0 58.0909 14.7872 859 107.384 143.922 520.49
1659 0 60.1103 14.0242 843 108.619 143.966 521.344
1660 0 63.1036 14.3256 904 108.138 146.587 517.306
1661 0 65.1497 14.152 922 107.782 149.036 517.638
1662 0 69.2191 14.5625 1008 104.505 151.598 514.544
1663 0 71.1813 14.5965 1039 103.999 154.278 513.203
1664 0 72.1598 14.7589 1065 102.233 156.399 515.801
1665 0 74.1439 14.3235 1062 103.085 158.39 514.321
1666 0 76.0975 14.7837 1125 101.895 160.444 514.469
1667 0 79.1443 14.8337 1174 101.929 162.917 514.446
1668 0 84.0962 15.8033 1329 98.9368 165.446 512.554
1669 0 85.2314 13.9268 1187 103.393 166.88 512.308
1670 0 90.1201 14.8801 1341 101.544 167.028 512.347
1671 1 48.0452 9.69919 466 107.414 166.133 533.953
1672 0 51.0723 11.6893 597 106.432 164.772 532.494
1673 0 56.1312 12.6846 712 100.428 164.018 533.421
1674 0 56.0588 12.808 718 95.2674 162.882 529.733
1675 0 59.0766 14.0665 831 100.478 160.306 531.755
1676 0 61.0554 13.414 819 100.212 157.239 531.245
1677 0 65.104 12.841 836 101.086 155.516 531.354
1678 0 67.075 13.7756 924 98.7327 153.259 529.372
1679 0 71.066 15.76 1120 94.8518 152.901 526.242
1680 0 72.0761 13.2915 958 100.38 151.266 525.905
1681 1 36.0198 9.85569 355 99.5521 149.532 544.541
1682 0 36.0111 8.08085 291 102.148 149.007 543.192
1683 0 37.0602 9.79487 363 100.837 147.168 539.581
1684 0 40.0307 11.0415 442 98.4615 146.394 537.477
1685 0 42.0142 11.6389 489 97.3108 146.479 536.284
1686 0 42.0216 11.8986 500 95.828 145.916 531.352
1687 0 44.0928 13.0634 576 87.7309 146.443 528.844
1688 0 45.105 11.9499 539 87.5696 147.978 528.202
1689 0 45.1283 11.6778 527 89.3302 148.786 527.321
1690 0 46.051 12.7467 587 88.6593 150.194 525.254
1691 0 48.1217 12.1359 584 90.8818 150.788 524.08
1692 0 47.0162 11.5705 544 92.2298 152.588 524.217
1693 0 52.0485 10.8168 563 92.7265 155.472 523.261
1694 0 51.1273 11.9701 612 93.7467 157 522.902
1695 0 54.06 11.8572 641 93.8799 158.931 524.012
1696 0 54.1243 12.3604 669 94.719 162.454 522.561
1697 0 56.058 13.9498 782 91.6944 165.395 522.134
1698 0 60.1266 12.2408 736 95.4783 167.341 523.817
1699 0 61.1324 13.1518 804 94.5075 169.241 522.711
1700 0 63.1609 14.2652 901 92.5627 170.495 522.766
1701 0 64.0714 11.8618 760 98.3474 170.274 524.545
1702 0 68.1443 12.8404 875 97.5017 169.274 525.094
1703 0 70.329 12.5979 886 99.9007 168.301 524.339
1704 0 72.205 12.6584 914 100.533 167.049 525.447
1705 0 76.0875 13.4319 1022 99.6243 164.678 524.628
1706 1 42.1898 9.40986 397 100.824 163.547 542.058
1707 0 41.0553 9.64552 396 100.561 160.174 543.684
1708 0 43.0884 12.045 519 100.233 158.829 540.2
1709 0 44.1069 12.2203 539 98.9258 156.443 539.215
1710 0 47.1771 13.2479 625 104.459 154.155 538.606
1711 0 49.0826 13.4875 662 97.9773 152.678 536.743
1712 0 51.1223 12.7146 650 99.8385 150.66 534.034
1713 0 53.1398 14.0573 747 97.3521 150.486 534.353
1714 0 54.0605 14.0583 760 97.6895 149.208 532.034
1715 0 56.0448 14.4884 812 98.7475 148.046 530.58
1716 0 58.0763 14.0849 818 99.28 147.989 526.855
1717 0 60.0767 14.5148 872 99.5229 147.424 525.718
1718 0 63.159 13.5848 858 101.69 148 522.045
1719 0 64.0937 15.5085 994 97.9276 148.839 520.588
1720 0 67.1528 13.5363 909 102.089 149.134 519.804
1721 0 67.16 13.8029 927 102.333 150.544 515.148
1722 0 72.1357 14.6113 1054 100.057 151.242 514.854
1723 0 73.1468 14.0266 1026 103.392 152.722 512.646
1724 0 74.1341 14.9864 1111 103.396 156.034 512.513
1725 0 78.1634 14.5081 1134 104.032 158.333 512.286
1726 0 82.2136 15.0827 1240 104.893 160.906 511.04
1727 0 83.2217 14.8639 1237 107.146 163.601 511.201
1728 0 88.1856 15.4107 1359 106.761 166.266 509.188
1729 0 90.1687 16.0588 1448 105.768 168.343 508.396
1730 0 93.3613 16.1523 1508 105.799 169.552 509.993
1731 0 98.2452 24.8969 2446 69.6365 169.62 508.664
1732 0 99.245 14.9529 1484 110.846 169.515 509.57
1733 0 105.295 16.5535 1743 108.966 169.213 507.722
1734 0 109.283 15.2905 1671 112.693 167.395 504.633
1735 0 114.262 15.3506 1754 111.836 166.08 504.767
1736 0 119.239 16.4712 1964 114.145 163.915 503.555
1737 0 124.369 16.4431 2045 115.504 161.676 496.533
1738 1 59.359 9.78791 581 119.418 159.336 530.086
1739 0 62.5881 11.9512 748 113.779 158.234 529.757
1740 0 66.2516 12.7091 842 114.923 155.53 530.121
1741 0 68.1994 13.8858 947 112.375 154.526 528.857
1742 0 70.2371 13.4117 942 114.272 152.121 527.247
1743 0 73.3289 14.2918 1048 111.205 151.598 522.959
1744 0 74.3458 12.4957 929 115.107 149.831 518.354
1745 0 77.4065 13.0997 1014 113.459 148.956 517.601
1746 0 80.2302 15.3184 1229 108.087 148.336 514.974
1747 0 83.2046 14.9871 1247 106.796 148.479 514.481
1748 0 84.3221 13.2468 1117 112.5 147.521 511.436
1749 0 86.4123 13.9332 1204 110.311 147.713 503.87
1750 0 92.288 15.6033 1440 106.693 148.74 501.321
1751 1 48.2404 11.5049 555 110.061 150.196 522.328
1752 0 50.3343 9.51638 479 109.117 150.948 525.862
1753 0 54.2991 10.9762 596 107.971 152.861 525.988
1754 0 56.2221 12.0771 679 105.415 155.199 524.022
1755 0 58.2051 12.078 703 104.56 157.482 522.696
1756 0 60.1167 12.8084 770 102.804 159.418 519.257
1757 0 60.1748 13.4774 811 105.074 159.605 523.912
1758 0 64.1232 14.1914 910 103.914 162.36 522.402
1759 0 66.2179 13.365 885 105.337 165.167 523.364
1760 0 67.171 13.2498 890 107.047 166.43 522.018
1761 0 72.1295 14.0996 1017 103.604 166.907 519.582
1762 0 75.0994 14.5407 1092 102.265 167.404 520.182
1763 0 78.1479 14.8436 1160 103.009 167.807 521.551
1764 0 80.1238 13.7412 1101 106.544 166.182 520.609
1765 0 82.1741 14.4693 1189 106.5 164.765 518.764
1766 1 48.05 10.0312 482 110.261 162.782 540.535
1767 0 48.069 9.36155 450 112.631 160.202 538.189
1768 0 49.0917 9.63503 473 111.945 157.753 539.336
1769 0 53.048 10.6319 564 107.69 155.778 539.09
1770 0 53.046 11.933 633 109.49 153.817 535.818
1771 0 56.0808 12.0719 677 108.674 151.832 534.957
1772 0 57.1543 12.405 709 107.753 150.694 532.575
1773 0 60.0695 13.1015 787 106.695 149.708 528.962
1774 0 62.1271 14.8245 921 100.208 147.955 527.775
1775 0 63.0317 13.8184 871 103.73 146.985 529.341
1776 0 65.0661 14.4468 940 104.441 146.769 527.529
1777 0 67.0632 14.5833 978 105.381 146.335 523.445
1778 0 72.0403 15.3664 1107 102.215 145.569 521.798
1779 0 72.1181 14.8091 1068 105.778 145.746 517.112
1780 0 74.1134 14.2889 1059 106.725 145.796 517.966
1781 0 78.1081 16.2211 1267 102.757 146.702 513.807
1782 0 78.1875 13.7106 1072 109.827 147.558 511.111
1783 0 81.1132 14.7325 1195 108.498 149.367 508.928
1784 0 82.1366 14.7437 1211 109.722 151.628 507.154
1785 0 85.1187 14.5679 1240 110.122 152.774 508.226
1786 0 88.2174 13.9655 1232 112.898 155.317 508.602
1787 0 90.2107 14.9539 1349 111.692 158.356 506.48
1788 0 95.2851 15.4799 1475 110.272 160.907 506.296
1789 0 98.4217 15.6774 1543 110.559 163.642 504.585
1790 1 53.2392 9.78603 521 116.896 166.261 529.345
1791 0 56.274 10.6799 601 116.488 167.115 528.686
1792 0 57.339 10.8303 621 114.96 168.597 527.578
1793 0 60.3969 12.5172 756 111.558 168.829 528.803
1794 0 62.1923 11.9629 744 107.47 169.931 529.887
1795 0 64.138 13.2994 853 102.27 169.589 527.049
1796 0 67.1698 13.4882 906 102.992 167.594 525.702
1797 0 67.1566 12.3592 830 106.388 165.802 527.201
1798 0 69.2305 12.1623 842 108.305 163.695 526.771
1799 0 73.2411 13.1074 960 106.726 160.725 525.216
1800 0 76.1746 12.6683 965 107.47 158.023 523.904
1801 0 78.2262 12.809 1002 107.332 157.141 523.935
1802 0 82.2821 12.8217 1055 107.316 156.148 521.686
1803 0 82.1121 13.2136 1085 108.604 153.893 519.074
1804 0 86.2005 12.1925 1051 110.313 152.493 518.96
1805 1 50.1031 11.0373 553 105.315 153.268 537.899
1806 0 51.033 9.01378 460 109.867 151.28 535.6
1807 0 51.0184 10.4472 533 108.989 150.445 531.927
1808 0 52.064 8.41273 438 111.685 150.148 533.765
1809 0 53.0682 10.3263 548 109.042 150.513 531.113
1810 0 54.1788 11.7574 637 107.992 149.454 527.852
1811 0 55.0653 11.7678 648 110.321 150.511 526.691
1812 0 56.0737 11.7346 658 110.684 150.929 522.418
1813 0 60.3096 13.4141 809 107.224 150.963 520.08
1814 0 62.1521 14.0784 875 101.55 152.498 519.727
1815 0 64.1202 13.7398 881 102.24 153.619 517.879
1816 0 66.1619 13.5274 895 103.598 155.905 518.002
1817 0 68.1874 13.4336 916 103.638 158.157 516.405
1818 0 68.2546 13.5082 922 105.499 160.09 514.838
1819 0 73.238 14.446 1058 103.039 163.162 513.926
1820 0 76.1729 14.7953 1127 103.192 164.524 514.584
1821 0 78.1881 14.2349 1113 105.412 166.801 516.092
1822 0 80.2876 14.0121 1125 107.384 167.907 513.138
1823 0 81.2037 13.9279 1131 108.333 169.128 514.662
1824 0 86.1981 15.4528 1332 104.914 169.079 513.983
1825 0 86.1685 13.4504 1159 110.689 168.391 513.243
1826 0 92.2487 13.3986 1236 109.822 167.612 514.365
1827 1 47.0986 10.0215 472 113.038 167.309 538.585
1828 0 53.0372 11.162 592 111.059 164.976 535.28
1829 0 53.0357 10.7286 569 112.663 163.279 535.371
1830 0 56.1132 12.0293 675 109.25 161.302 536.148
1831 0 56.0609 11.8621 665 109.811 159.03 535.009
1832 0 60.1904 12.4771 751 107.823 154.3 532.306
1833 0 61.17 13.9284 852 106.195 152.6 528.948
1834 0 64.1164 14.1461 907 106.819 149.712 526.757
1835 0 67.0787 13.3724 897 108.069 149.417 525.134
1836 0 67.0519 13.333 894 107.207 147.886 521.308
1837 0 70.0264 12.8095 897 109.108 147.045 520.419
1838 0 74.0661 14.5816 1080 102.049 146.391 515.611
1839 0 74.0971 14.3056 1060 104.398 144.895 513.325
1840 0 77.1264 13.8733 1070 105.814 144.885 510.248
1841 0 79.029 14.1341 1117 107.175 145.509 507.031
1842 0 79.0331 13.9562 1103 108.479 146.312 502.665
1843 0 84.0371 14.327 1204 106.604 146.287 503.39
1844 0 87.1261 13.4518 1172 109.886 147.958 500.3
1845 0 90.1596 14.186 1279 105.749 149.821 499.449
1846 1 49.1177 10.5868 520 103.592 151.567 521.921
1847 0 50.1444 11.1478 559 106.841 154.349 519.914
1848 0 51.103 10.0581 514 111.539 156.381 519.047
1849 0 53.2393 10.2368 545 112.941 159.927 518.07
1850 0 55.1227 10.268 566 112.309 162.191 518.548
1851 0 59.1389 12.2255 723 105.675 164.593 517.432
1852 0 60.1622 12.433 748 101.388 167.194 516.655
1853 0 61.1426 13.0351 797 100.986 167.838 519.321
1854 0 64.2017 13.8937 892 98.4865 168.049 520.272
1855 0 69.1766 13.1981 913 99.4513 168.396 519.314
1856 0 72.1589 14.3018 1032 97.8605 167.656 519.887
1857 0 74.2219 13.7022 1017 98.8958 165.235 519.048
1858 0 75.1887 14.2575 1072 99.0233 164.28 517.98
1859 0 80.36 14.1115 1134 97.7443 162.948 517.178
1860 0 81.1726 13.4775 1094 100.77 160.192 513.579
1861 0 85.2053 14.2127 1211 97.9257 158.478 514.442
1862 0 87.2156 13.2201 1153 100.683 156.36 512.249
1863 0 90.4133 13.7812 1246 99.2632 155.282 511.08
1864 1 49.2466 9.40166 463 95.9849 154.633 534.503
1865 0 47.0562 10.3918 489 95.8691 152.808 532.041
1866 0 50.077 10.7634 539 93.4323 151.746 530.445
1867 0 51.0468 10.8528 554 92.5794 150.112 528.48
1868 0 54.0682 11.43 618 92.4709 149.421 528.701
1869 0 56.1225 13.0251 731 96.0588 149.282 529.16
1870 0 59.105 13.3322 788 94.1675 149.23 528.171
1871 0 60.2288 13.4155 808 94.203 148.749 522.953
1872 0 60.147 12.7188 765 97.0235 149.007 522.207
1873 0 63.0876 14.8207 935 92.6278 149.305 518.921
1874 0 65.1924 12.256 799 97.035 149.17 516.937
1875 0 69.1556 14.0697 973 93.074 151.62 518.293
1876 0 69.2189 13.3634 925 95.0011 152.48 514.039
1877 0 73.1299 14.5221 1062 92.2307 154.061 514.99
1878 0 75.1972 14.1894 1067 93.0356 157.194 513.602
1879 0 76.183 13.2576 1010 96.6356 158.445 512.599
1880 0 81.1464 14.443 1172 94.2927 161.142 510.247
1881 0 82.2239 13.9619 1148 96.1071 163.293 511.604
1882 0 85.1417 13.7418 1170 97.594 165.74 509.365
1883 0 89.2582 14.7661 1318 96.1108 167.998 508.619
1884 0 90.1927 13.7483 1240 99.3137 168.264 507.81
1885 1 48.0422 8.40928 404 105.621 171.213 532.903
1886 0 54.0313 10.4754 566 100.099 171.504 534.445
1887 0 56.2183 12.4159 698 98.0143 169.915 531.576
1888 0 56.3706 12.5775 709 99.4584 168.226 529.962
1889 0 60.4071 14.2533 861 96.0372 167.145 532.848
1890 0 62.2833 13.4065 835 97.8539 165.198 531.115
1891 0 63.5541 13.044 829 99.5271 163.42 530.957
1892 0 67.3584 12.5745 847 100.492 161.087 531.53
1893 0 70.5334 16.0775 1134 93.2743 158.859 528.213
1894 0 70.2857 13.2033 928 101.739 157.081 526.526
1895 0 74.3095 14.157 1052 97.2376 154.845 524.429
1896 0 75.2433 13.968 1051 99.5214 153.21 524.72
1897 0 78.3003 12.8607 1007 103.578 152.404 523.018
1898 0 81.338 13.7943 1122 101.9 150.716 519.673
1899 0 83.3686 13.1944 1100 105.418 150.275 516.531
1900 0 87.2811 13.2789 1159 105.56 148.943 515.182
1901 0 90.246 13.2305 1194 106.525 148.374 511.687
1902 0 92.3835 14.8511 1372 102.684 148.664 510.62
1903 1 53.348 10.7595 574 105.934 148.239 528.089
1904 0 55.279 11.1797 618 103.837 148.076 527.683
1905 0 55.2575 10.1525 561 105.264 149.112 524.918
1906 0 56.1465 11.3275 636 104.108 149.715 520.711
1907 0 60.5766 12.0178 728 102.054 150.551 518.423
1908 0 61.086 12.818 783 99.4049 152.496 521
1909 0 65.0319 13.6856 890 97.0539 155.506 517.335
1910 0 66.0525 13.565 896 97.654 157.432 518.104
1911 0 68.1012 12.9807 884 98.5713 159.949 518.311
1912 0 71.0784 14.0971 1002 96.3523 162.161 519.438
1913 0 72.0581 12.9618 934 99.9047 165.21 515.034
1914 0 77.1412 13.0151 1004 100.498 167.589 515.883
1915 0 79.1796 14.5239 1150 98.387 168.623 516.415
1916 0 82.1845 12.8856 1059 101.005 169.867 516.074
1917 0 85.1729 13.1028 1116 101.517 169.54 515.419
1918 0 89.2326 15.129 1350 92.7696 169.582 514.15
1919 1 48.3135 11.6944 565 95.0301 168.933 536.727
1920 0 50.2729 10.3435 520 95.3808 167.617 538.512
1921 0 53.2632 11.584 617 96.222 166.075 536.483
1922 0 55.2836 12.9152 714 93.486 164.681 536.643
1923 0 55.3724 11.9735 663 99.2564 161.748 532.621
1924 0 58.3998 12.5 730 98.4562 159.649 532.914
1925 0 59.2706 13.5143 801 96.8552 157.9 531.82
1926 0 62.0488 14.9882 930 96.9742 156.942 533.091
1927 0 62.1706 13.8812 863 99.9896 155.083 530.462
1928 0 65.0649 13.817 899 99.7864 153.65 529.393
1929 0 68.0689 16.1454 1099 93.6697 152.076 527.758
1930 0 69.2037 14.8258 1026 96.8743 150.648 525.285
1931 0 73.2451 15.4686 1133 95.7485 149.954 522.786
1932 0 73.1287 13.7976 1009 100.771 149.297 520.787
1933 0 76.1192 14.5693 1109 98.917 148.079 516.103
1934 0 79.3042 15.0686 1195 97.7021 148.441 514.614
1935 0 80.2579 13.5688 1089 101.191 148.691 512.011
1936 0 84.3463 14.3575 1211 98.7349 149.871 512.164
1937 1 45.0543 11.5194 519 102.224 151.328 528.181
1938 0 47.1004 12.5264 590 99.778 153.131 527.578
1939 0 48.0462 10.2818 494 102.545 154.318 528.043
1940 0 48.0088 10.1648 488 102.268 156.066 526.066
1941 0 48.0255 11.827 568 101.567 158.204 524.563
1942 0 50.0374 10.8719 544 102.456 160.68 523.726
1943 0 52.0607 11.8708 618 93.5841 163.173 523.828
1944 0 54.2683 12.1065 657 93.583 165.008 520.073
1945 0 57.1292 11.7453 671 88.5917 166.557 520.654
1946 0 56.1405 11.5247 647 92.6553 168.442 521.583
1947 0 58.1071 12.4425 723 91.8423 169.192 523.05
1948 0 63.196 13.5135 854 88.9801 169.149 522.827
1949 0 63.0929 12.9492 817 92.0967 169.131 523.909
1950 0 67.0531 12.7362 854 91.2014 167.83 523.036
1951 0 67.0614 13.0179 873 92.5178 167.481 522.94
1952 0 69.1756 12.5333 867 94.737 164.689 522.319
1953 0 73.188 12.7343 932 92.8594 162.917 520.459
1954 0 77.1652 13.9312 1075 90.2633 161.167 520.23
1955 0 77.1158 13.7974 1064 90.3449 159.667 519.987
1956 0 79.0936 13.1743 1042 94.0298 156.598 517.937
1957 0 83.1795 13.6332 1134 91.9665 155.68 517.199
1958 0 84.1628 13.2838 1118 94.1351 154.05 516.24
1959 0 87.2005 13.3485 1164 94.9983 152.283 511.981
1960 1 43.1108 10.0207 432 97.8356 152.167 535.097
1961 0 46.1287 10.0155 462 95.9242 150.931 533.472
1962 0 50.0464 10.8899 545 96.2 149.974 529.099
1963 0 51.2459 12.4303 637 94.3093 149.728 528.237
1964 0 51.0816 12.2745 627 96.5582 148.424 524.695
1965 0 54.0451 13.9883 756 93.4444 148.472 523.524
1966 0 54.0218 13.8648 749 96.1696 147.541 520.517
1967 0 56.0309 13.6532 765 96.1987 149.271 520.958
1968 0 59.1487 14.9454 884 94.733 150.117 518.883
1969 0 60.2185 14.8293 893 95.458 151.507 514.61
1970 0 62.2223 13.0982 815 99.5215 153.238 514.585
1971 0 65.3368 15.0757 985 95.9766 154.364 511.963
1972 0 66.2987 14.1179 936 97.64 156.821 514.02
1973 0 69.4215 14.9233 1036 96.9151 159.364 511.212
1974 0 71.3203 13.6427 973 101.079 163.284 512.232
1975 0 73.2507 14.4845 1061 103.303 163.926 510.09
1976 0 77.3593 14.995 1160 101.872 166.777 510.903
1977 0 78.2329 14.0478 1099 105.414 168.223 510.328
1978 0 82.2673 14.0518 1156 106.361 170.314 510.705
1979 0 84.204 14.7855 1245 104.837 170.528 511.337
1980 0 89.4551 16.3769 1465 100.281 169.891 509.596
1981 1 47.2486 10.3283 488 106.943 169.885 533.182
1982 0 48.2523 11.9787 578 104.791 168.512 532.6
1983 0 49.2314 12.3295 607 106.211 166.552 530.815
1984 0 53.3185 14.0101 747 101.396 164.801 530.411
1985 0 53.2428 12.5275 667 104.397 162.531 529.813
1986 0 56.3039 11.4912 647 105.72 161.029 529.206
1987 0 59.3343 14.7301 874 98.2574 158.569 528.613
1988 0 59.2167 12.716 753 103.633 156.668 530.371
1989 0 64.2184 14.6843 943 99.1082 154.905 526.315
1990 0 66.1622 13.6785 905 102.494 152.785 523.116
1991 0 69.189 16.1008 1114 97.4417 151.929 522.258
1992 0 70.1109 13.8352 970 101.352 150.968 520.554
1993 0 72.1585 14.1494 1021 99.0686 149.912 519.291
1994 0 74.2007 14.2586 1058 100.181 148.797 516.267
1995 0 76.5505 14.4741 1108 100.002 148.762 513.6
1996 0 78.1567 13.4601 1052 102.207 148.959 513.823
1997 0 83.2848 15.369 1280 96.4008 147.605 511.939
1998 0 85.1713 14.7233 1254 98.7432 148.796 509.382
1999 0 88.2917 15.143 1337 97.6268 149.444 507.586
2000 0 91.144 16.1064 1468 95.72 150.311 505.42
2001 0 93.275 13.8622 1293 100.829 151.791 503.879
2002 0 96.145 14.1037 1356 100.325 153.942 504.578
2003 1 52.1265 12.2395 638 100.779 155.839 524.099
2004 0 54.1133 10.7367 581 99.5232 157.726 523.766
2005 0 57.0827 11.9125 680 98.4912 160.096 524.81
2006 0 57.1438 13.9123 795 95.9447 163.138 522.53
2007 0 60.0504 15.3371 921 95.0185 164.917 520.955
2008 0 65.0641 15.5693 1013 91.002 166.835 522.28
2009 0 63.0831 14.0925 889 97.8943 168.022 521.43
2010 0 68.1615 14.9498 1019 94.5643 169.116 520.843
2011 0 69.1203 14.6411 1012 94.7194 169.372 522.735
2012 0 73.0741 13.7532 1005 96.0159 168.356 522.684
2013 0 77.0661 15.052 1160 93.8207 167.202 520.296
2014 0 78.1254 14.5791 1139 95.4697 165.73 519.287
2015 0 82.1045 13.9822 1148 94.9146 164.326 518.806
2016 1 44.0099 10.1795 448 96.9933 161.94 540.114
2017 0 43.0244 10.3197 444 98.7545 159.459 539.655
2018 0 46.025 10.5595 486 100.574 157.146 537.924
2019 0 46.077 11.2855 520 100.992 155.373 536.208
2020 0 48.1909 12.7202 613 98.9543 154.938 533.002
2021 0 51.2855 12.3817 635 100.076 154.586 527.814
2022 0 49.0769 12.0219 590 92.5492 152.303 525.405
2023 0 51.1998 11.8751 608 93.2697 151.293 522.594
2024 0 54.0243 12.6425 683 95.6413 150.754 528.769
2025 0 57.0246 11.5389 658 98.3283 150.327 525.047
2026 0 59.2462 13.0641 774 93.3682 150.384 526.261
2027 0 61.1538 13.0654 799 95.8411 149.806 521.013
2028 0 64.1916 13.8959 892 95.7511 150.507 522.776
2029 0 65.1069 13.593 885 98.0441 150.896 518.654
2030 0 66.1428 12.1102 801 97.7978 150.577 515.34
2031 0 70.1902 13.8338 971 99.206 152.151 517.492
2032 0 72.1176 13.3393 962 101.617 153.642 515.476
2033 0 75.1644 14.1423 1063 101.216 155.088 512.848
2034 0 76.1024 13.5344 1030 102.825 156.528 513.27
2035 1 42.0268 10.4219 438 105.927 160.183 527.135
2036 0 43.0199 11.1111 478 101.249 161.741 530.546
2037 0 45.025 11.3937 513 102.392 165.339 530.162
2038 0 45.0481 12.1204 546 102.381 167.399 528.2
2039 0 46.1182 11.6657 538 100.907 167.671 529.188
2040 0 50.2565 13.4311 675 94.6163 167.88 528.641
2041 0 51.0757 13.2353 676 97.4586 168.692 529.223
2042 0 52.2132 11.6063 606 96.9422 169.274 527.678
2043 0 54.0422 12.4532 673 96.3343 168.49 528.804
2044 0 57.1185 12.2377 699 96.7926 167.834 527.748
2045 0 60.1911 13.0916 788 96.4886 166.128 530.437
2046 0 59.0977 12.4878 738 99.9322 164.374 531.537
2047 0 63.1015 13.0583 824 97.7184 162.652 529.546
2048 0 64.1152 12.961 831 101.31 159.801 531.042
2049 0 67.2309 14.1155 949 95.8883 158.165 527.431
2050 1 38.0777 9.9796 380 96.8026 155.603 542.5
2051 0 37.0765 7.41709 275 103.124 153.465 544.982
2052 0 41.088 9.10241 374 102.243 152.412 543.719
2053 0 40.0176 8.6212 345 101.846 151.997 543.455
2054 0 41.0776 8.64218 355 104.408 150.586 539.639
2055 0 45.0796 11.269 508 100.098 148.659 535.589
2056 0 47.0306 11.1842 526 99.7186 146.576 536.264
2057 0 47.1088 12.694 598 100.48 148.433 535.054
2058 0 48.0588 11.9853 576 98.1181 147.66 531.227
2059 0 48.1414 12.3387 594 101.148 146.253 531.859
2060 0 49.0163 12.9753 636 98.4355 146.659 529.675
2061 0 51.3482 11.5681 594 101.776 145.438 522.525
2062 0 52.0801 12.0199 626 101.045 147.719 526.663
2063 0 53.1211 12.368 657 101.639 148.212 525.236
2064 0 54.1244 12.0463 652 100.765 150.189 526.405
2065 0 54.0446 11.6015 627 103.211 151.657 524.376
2066 0 56.0745 12.7331 714 102.195 154.16 523.041
2067 0 56.1103 11.7447 659 105.106 155.98 522.715
2068 0 60.2567 13.7246 827 100.692 158.17 522.029
2069 0 63.1688 14.0101 885 98.5729 160.718 521.123
2070 0 63.1512 12.1138 765 103.294 164.461 521.118
2071 0 65.0504 12.7747 831 102.585 165.734 521.001
2072 0 71.2008 14.0026 997 98.5236 167.454 520.969
2073 0 74.2201 14.2818 1060 97.8264 168.842 520.113
2074 0 73.2112 13.1264 961 100.946 167.635 518.029
2075 0 78.4037 12.8948 1011 101.231 167.74 518.431
2076 1 43.3252 11.4714 497 96.7847 167.934 536.161
2077 0 45.4958 10.6823 486 98.2901 166.537 537.278
2078 0 44.3841 10.8823 483 99.6356 163.791 535.648
2079 0 46.3644 10.6332 493 101.434 162.542 537.931
2080 0 51.4218 11.5126 592 96.9459 159.061 534.194
2081 0 49.3193 9.81361 484 97.6694 157.176 534.599
2082 0 52.1803 12.0544 629 93.4801 155.723 532.404
2083 0 54.1386 11.0272 597 97.0302 153.861 531.253
2084 0 55.1664 11.6919 645 92.9504 152.724 532.78
2085 0 57.1188 11.0822 633 93.91 151.182 529.365
2086 0 60.1841 13.1098 789 91.8809 149.558 524.478
2087 0 60.1018 12.1294 729 95.6626 149.158 522.975
2088 0 61.3051 12.1197 743 96.7416 148.236 522.074
2089 0 64.2222 13.282 853 95.7011 147.156 518.681
2090 0 65.0987 12.0893 787 97.8501 146.658 516.945
2091 0 67.1788 12.9654 871 97.6051 146.638 514.082
2092 0 71.1515 13.3799 952 97.8508 147.415 512.127
2093 0 74.1327 13.7321 1018 95.6454 147.497 511.266
2094 0 74.2116 12.5991 935 99.9433 148.674 507.032
2095 0 77.1905 14.4577 1116 95.7124 148.956 504.926
2096 0 79.311 13.2138 1048 97.0153 150.442 503.069
2097 0 82.239 12.7433 1048 98.4084 152.158 502.901
2098 0 84.2946 13.0851 1103 99.0508 154.672 501.076
2099 0 85.2111 13.0734 1114 100.391 157.964 502.287
2100 0 83.2662 13.4148 1117 104.274 160.003 496.356
2101 0 88.2107 13.7058 1209 103.22 162.355 499.337
2102 0 91.1978 13.1911 1203 105.854 164.899 497.46
2103 0 96.3419 14.1579 1364 104.276 166.331 497.747
2104 0 99.2302 13.4233 1332 108.142 167.809 495.946
2105 0 105.17 13.0741 1375 106.551 168.71 498.04
2106 0 107.273 13.8805 1489 105.52 168.7 493.938
2107 0 111.33 12.9165 1438 107.882 168.856 493.905
2108 0 115.322 14.3858 1659 105.114 168.135 492.694
2109 1 71.1595 8.51608 606 107.947 165.642 520.426
2110 0 73.1477 8.44866 618 109.474 164.316 519.12
2111 0 75.1141 9.4656 711 110.579 161.617 518.28
2112 0 81.2291 13.0126 1057 106.699 160.459 514.896
2113 0 86.286 13.3741 1154 104.358 159.565 518.658
2114 0 86.0931 12.7653 1099 109.007 154.928 518.093
2115 0 89.103 12.9962 1158 108.149 154.129 515.756
2116 0 94.2017 14.9254 1406 105.491 154.475 509.748
2117 0 93.2255 14.0627 1311 109.6 152.872 506.9
2118 0 98.1913 13.6366 1339 109.176 151.665 505.751
2119 0 102.246 13.9859 1430 107.42 150.988 501.94
2120 0 104.295 14.459 1508 107.309 150.578 499.168
2121 0 108.159 14.8392 1605 106.857 148.717 497.252
2122 0 111.155 13.5127 1502 110.04 149.079 495.24
2123 0 113.205 14.063 1592 109.211 148.689 490.585
2124 0 118.234 14.5897 1725 108.03 147.711 489.833
2125 0 121.206 14.4547 1752 108.028 148.921 485.4
2126 0 127.197 14.4894 1843 114.636 149.902 488.41
2127 1 68.127 10.4511 712 110.493 150.838 516.692
2128 0 71.1313 11.1203 791 108.037 151.995 515.908
2129 0 72.2145 12.2275 883 108.177 153.708 513.617
2130 0 74.1721 11.0823 822 112.648 155.828 512.676
2131 0 77.1865 14.2901 1103 101.937 159.794 508.751
2132 0 78.128 13.5931 1062 104.714 162.895 508.319
2133 0 83.1073 15.0889 1254 100.585 165.064 507.998
2134 0 83.1648 13.4191 1116 107.34 168.004 508.928
2135 0 88.1611 14.0198 1236 105.896 169.292 509.118
2136 0 91.2501 13.5013 1232 106.617 169.989 508.606
2137 1 51.0608 8.98928 459 110.34 170.987 529
2138 0 52.0306 10.513 547 108.207 170.622 529.612
2139 0 53.0788 9.77792 519 109.904 169.118 529.877
2140 0 53.1253 10.0705 535 111.643 167.907 527.905
2141 0 60.054 11.14 669 108.223 166.271 529.712
2142 0 60.1743 11.5996 698 106.407 162.883 525.01
2143 0 64.4225 13.4115 864 101.252 159.812 525.171
2144 0 65.0375 12.8541 836 102.956 160.429 527.575
2145 0 65.2557 12.1062 790 105.733 157.971 523.6
2146 0 69.1824 11.7515 813 105.007 156.94 519.739
2147 0 70.0836 11.5291 808 106.042 154.214 522.084
2148 0 76.1381 11.8075 899 105.108 152.752 519.764
2149 0 78.1846 13.0716 1022 102.176 152.133 518.127
2150 0 80.2109 13.7014 1099 100.506 150.488 514.676
2151 0 81.2891 12.0926 983 105.525 149.66 510.605
2152 0 86.2827 13.3746 1154 101.841 148.952 511.093
2153 0 89.2587 14.8669 1327 99.7242 148.648 508.562
2154 0 91.2284 14.0636 1283 101.999 148.48 505.936
2155 0 92.2608 12.9307 1193 104.707 149.365 503.954
2156 0 93.4306 13.5823 1269 105.309 148.603 499.107
2157 0 97.4434 13.7105 1336 105.239 150.001 499.561
2158 0 97.1658 13.5644 1318 108.303 148.829 498.149
2159 0 102.2 13.6888 1399 108.193 150.645 495.749
2160 0 107.227 14.3061 1534 103.541 152.295 496.802
2161 1 58.0923 10.3112 599 104.715 154.326 519.464
2162 0 61.0477 12.5312 765 99.583 155.944 520.697
2163 0 61.1258 10.8301 662 103.693 158.352 518.902
2164 0 64.0384 11.5868 742 101.059 161.434 519.07
2165 0 65.0415 13.0071 846 97.9243 164.178 517.157
2166 0 69.0367 10.9362 755 100.217 165.038 515.677
2167 0 71.1907 13.4147 955 101.45 166.48 520.225
2168 0 73.194 12.4054 908 103.446 166.9 521.069
2169 0 74.0887 12.782 947 103.969 166.013 520.423
2170 0 80.1931 13.8541 1111 100.608 165.644 522.028
2171 0 82.0569 13.905 1141 101.542 163.488 519.463
2172 0 86.1084 13.9243 1199 99.1226 161.681 518.646
2173 0 86.0999 13.554 1167 102.148 160.609 515.681
2174 0 90.1164 14.5811 1314 100.606 158.024 515.043
2175 0 93.0625 14.5494 1354 100.501 156.335 513.287
2176 1 49.0733 10.2296 502 100.882 153.486 537.902
2177 0 52.1336 9.78255 510 103.045 152.433 535.553
2178 0 53.0274 9.74969 517 102.667 150.625 533.739
2179 0 55.0743 10.622 585 99.1966 153.275 532.356
2180 0 56.1082 11.763 660 99.7409 151.995 529.447
2181 0 59.1609 12.6604 749 94.9559 149.84 526.035
2182 0 62.1863 13.7168 853 95.4795 148.544 524.979
2183 0 63.097 14.6283 923 92.7172 147.868 521.519
2184 0 66.0896 12.5285 828 96.9155 148.248 520.941
2185 0 68.1463 14.3515 978 94.0266 149.167 519.837
2186 0 70.0943 13.7957 967 96.001 148.093 517.392
2187 0 71.1504 14.125 1005 96.0697 149.267 513.691
2188 0 73.1406 14.8481 1086 95.6133 149.564 514.137
2189 0 75.186 14.9895 1127 98.0284 151.752 511.368
2190 0 76.1099 14.3477 1092 101.093 152.648 510.212
2191 0 81.2094 15.2815 1241 98.22 154.695 507.19
2192 0 82.1283 14.0147 1151 102.459 158.049 507.363
2193 0 85.2841 14.7155 1255 101.088 159.965 505.83
2194 0 87.335 14.347 1253 101.141 162.381 505.856
2195 1 48.2254 11.8195 570 103.056 164.696 529.596
2196 0 49.1615 10.3536 509 107.248 167.167 529.014
2197 0 51.1011 11.2718 576 106.83 168.408 528.151
2198 0 53.1711 11.2467 598 107.356 169.58 529.219
2199 0 55.288 12.3354 682 105.367 169.915 530.482
2200 0 54.1049 11.3114 612 109.995 170.525 529.426
2201 0 60.1131 12.2103 734 104.06 166.184 528.696
2202 0 61.1822 13.2882 813 99.952 165.946 525.493
2203 0 62.2388 12.7734 795 101.667 164.243 525.561
2204 0 66.4036 12.424 825 101.41 162.492 526.114
2205 0 69.1692 12.2309 846 102.089 159.481 524.527
2206 0 72.2061 13.1706 951 99.897 157.44 524.913
2207 0 74.2294 13.2427 983 99.1913 155.803 520.765
2208 0 77.1454 12.094 933 101.46 154.72 518.839
2209 0 80.3799 13.1998 1061 100.121 153.576 519.235
2210 0 81.3199 13.5514 1102 100.907 152.322 516.986
2211 0 85.1849 13.7231 1169 100.559 150.506 513.971
2212 0 84.1833 12.9479 1090 103.506 148.581 510.161
2213 0 90.2812 13.3029 1201 103.022 147.697 506.358
2214 0 93.1973 13.1442 1225 102.76 146.989 507.873
2215 1 52.175 11.0398 576 98.3698 147.493 524.856
2216 0 53.1812 10.436 555 101.272 147.431 523.955
2217 0 54.2198 10.1808 552 105.379 146.404 518.953
2218 0 54.1067 9.62913 521 105.875 147.868 516.096
2219 0 61.336 12.5049 767 103.913 149.095 519.43
2220 0 61.3106 13.8638 850 105.406 149.614 516.469
2221 0 64.3247 14.5667 937 102.486 151.163 515.743
2222 0 66.5068 14.4046 958 102.717 153.468 514.578
2223 0 67.4722 13.3981 904 105.093 154.579 515.31
2224 0 71.4661 13.349 954 104.656 157.783 513.411
2225 0 73.4121 14.4663 1062 102.426 158.809 512.85
2226 0 76.557 13.6369 1044 104.085 160.98 510.985
2227 0 77.6557 14.3325 1113 102.761 164.289 507.251
2228 0 82.4431 13.476 1111 102.636 166.516 507.092
2229 0 84.3492 13.6457 1151 101.753 167.077 507.123
2230 0 87.4502 14.4882 1267 101.855 168.347 505.455
2231 0 89.4571 14.6103 1307 102.347 168.761 506.258
2232 0 93.5904 13.8796 1299 103.825 167.791 505.885
2233 0 98.5218 13.936 1373 104.986 167.648 503.554
2234 1 53.3418 10.1609 542 107.389 166.028 525.458
2235 0 55.3372 9.79449 542 108.266 164.902 525.445
2236 0 60.4829 11.3255 685 105.121 161.774 528.258
2237 0 61.4209 12.8783 791 106.382 160.459 524.925
2238 0 64.4836 12.3442 796 106.825 158.161 523.97
2239 0 67.2362 13.6534 918 105.402 156.334 523.656
2240 0 70.394 13.1687 927 106.694 154.904 521.206
2241 0 71.6036 12.3457 884 110.111 152.123 517.408
2242 0 75.3724 13.1348 990 108.196 151.119 516.119
2243 0 78.4737 13.1891 1035 107.584 150.032 514.771
2244 0 81.5836 13.9121 1135 106.952 148.338 511.537
2245 1 45.2647 9.76478 442 111.138 146.887 528.43
2246 0 45.1499 10.144 458 111.103 145.991 526.753
2247 0 47.1829 11.0421 521 108.493 146.685 525.547
2248 0 49.1339 10.6444 523 109.937 145.91 524.222
2249 0 52.1527 11.8882 620 106.495 147.018 522.115
2250 0 52.1163 11.8773 619 109.181 148.465 519.874
2251 0 52.1356 11.8537 618 109.029 149.549 517.207
2252 0 54.0471 13.5252 731 104.107 150.462 515.947
2253 0 52.0517 12.4684 649 104.753 152.928 513.675
2254 0 53.0503 11.1781 593 109.567 155.153 510.718
2255 0 59.0503 13.8865 820 100.438 157.211 514.371
2256 0 61.0527 12.956 791 101.549 160.435 515.368
2257 0 61.0434 12.4174 758 104.633 163.594 513.831
2258 0 61.0726 12.084 738 105.211 166.042 514.794
2259 0 62.101 11.7228 728 106.852 167.239 514.262
2260 0 67.0839 13.8782 931 101.615 168.547 515.758
2261 0 68.101 13.5534 923 104.822 169.348 515.112
2262 0 70.1545 12.558 881 106.902 170.16 516.951
2263 0 75.1186 13.8181 1038 104.256 169.761 514.123
2264 0 75.1291 13.0575 981 107.679 168.788 515.129
2265 0 79.1129 13.348 1056 106.663 167.972 516.783
2266 0 81.0753 13.0496 1058 108.002 166.209 520.343
2267 0 86.1328 13.0844 1127 108.242 164.634 521.922
2268 0 88.1993 13.2201 1166 107.262 162.182 522.186
2269 0 92.2504 13.3333 1230 106.602 159.617 520.263
2270 0 95.0889 13.3139 1266 107.416 157.482 518.671
2271 1 51.0653 9.86971 504 109.647 156.411 539.728
2272 0 53.1292 11.312 601 108.945 154.669 535.443
2273 0 55.074 11.5844 638 106.741 152.445 536.459
2274 0 57.0663 12.5118 714 105.123 150.908 534.668
2275 0 58.0949 12.8583 747 104.509 149.764 531.351
2276 0 57.2394 12.4215 711 107.041 148.176 529.201
2277 0 61.215 14.1305 865 106.36 146.897 524.39
2278 0 66.2013 14.5919 966 104.136 146.732 521.808
2279 0 67.2038 15.8027 1062 102.267 145.941 518.824
2280 0 69.167 15.412 1066 103.234 145.671 519.012
2281 0 71.1744 15.3285 1091 103.61 146.651 514.129
2282 0 73.2821 14.6966 1077 105.891 147.368 512.989
2283 0 77.0694 16.2321 1251 100.964 148.249 512.994
2284 0 79.1098 14.8654 1176 103.446 149.258 511.531
2285 0 81.2466 15.5083 1260 101.873 150.363 509.948
2286 0 84.1554 15.1268 1273 102.818 150.441 508.32
2287 0 85.193 14.3087 1219 101.007 153.062 505.244
2288 0 88.2083 14.4204 1272 101.05 154.663 503.421
2289 1 44.2295 8.11675 359 101.451 157.526 526.546
2290 0 46.1943 9.13533 422 100.363 160 527.761
2291 0 47.2336 10.8609 513 99.7096 161.977 528.197
2292 0 48.3889 10.0436 486 101.36 163.099 524.016
