time division length width area intensity CMx CMy
0 0 49.0316 16.9687 832 102.93 282.668 491.78
1 0 49.1258 16.2644 799 111.101 283.219 495.126
2 0 50.0443 16.8251 842 111.628 284.42 493.094
3 0 51.0478 16.1613 825 111.166 285.222 494.984
4 0 52.0237 14.9163 776 115.615 285.103 495.097
5 0 55.0448 17.0407 938 98.8177 283.613 495.393
6 0 54.0369 15.8966 859 105.626 282.937 497.492
7 0 57.038 17.4796 997 100.829 282.225 496.789
8 0 58.1119 16.6059 965 102.526 281.294 496.606
9 0 57.0578 16.5797 946 109.468 279.915 497.995
10 0 58.0305 15.2506 885 111.381 278.359 497.916
11 0 64.1391 18.4443 1183 100.973 277.8 496.648
12 0 64.0978 15.8508 1016 107.878 274.347 498.57
13 0 65.0971 16.8978 1100 110.62 273.822 497.15
14 0 66.0915 16.8252 1112 111.307 271.324 498.061
15 0 66.1301 15.409 1019 116.764 270.29 496.963
16 0 69.1525 15.7623 1090 115.481 266.993 495.642
17 0 73.0884 16.87 1233 110.939 264.385 494.235
18 0 74.1811 15.1521 1124 114.66 262.849 492.81
19 1 37.0431 10.4473 387 125.574 261.987 511.483
20 0 42.0363 12.6081 530 120.145 258.653 508.019
21 0 42.0304 13.9423 586 117.294 258.014 507.497
22 0 43.1376 12.8194 553 120.011 258.682 506.75
23 0 46.1303 13.5052 623 113.706 259.156 504.23
24 0 48.1189 14.7967 712 109.192 259.687 500.656
25 0 49.2939 13.4297 662 109.119 261.325 499.31
26 0 50.2421 13.6738 687 110.613 262.93 496.456
27 0 51.1214 15.5512 795 111.922 264.102 499.114
28 0 55.1218 15.5655 858 109.571 266.486 499.653
29 0 56.0748 16.0322 899 110.085 268.934 498.753
30 0 57.0864 15.3101 874 110.64 271.245 498.608
31 0 62.1074 17.3892 1080 103.522 273.744 498.906
32 0 61.0649 17.3095 1057 105.346 274.128 499.096
33 0 63.029 16.9763 1070 105.357 275.322 499.769
34 0 65.1301 15.9834 1041 106.332 276.102 498.287
35 0 69.1468 16.3999 1134 105.36 276.347 499.582
36 0 70.13 15.3002 1073 109.326 275.223 498.786
37 0 74.1018 17.233 1277 104.251 274.735 498.709
38 0 74.1497 16.0756 1192 108.377 273.462 497.769
39 0 78.1122 16.1434 1261 107.489 271.859 496.438
40 0 80.0797 16.546 1325 106.482 270.516 495.171
41 1 42.0249 11.8263 497 109.702 268.706 517.105
42 0 44.0346 12.0133 529 107.686 267.694 518.208
43 0 45.0478 13.5856 612 109.462 266.219 514.606
44 0 46.0808 12.3045 567 109.667 264.383 515.676
45 0 46.0815 11.7835 543 175.661 262.359 516.18
46 0 50.0547 15.2233 762 99.395 259.186 515.72
47 0 52.0407 16.1604 841 95.5434 257.683 517.213
48 0 53.0743 14.7529 783 99.8493 255.04 513.949
49 0 53.1687 15.5919 829 98.3028 253.419 512.832
50 0 56.2574 16.1756 910 96.2385 252.359 513.675
51 0 58.0492 14.3154 831 100.566 250.94 507.237
52 0 59.1123 14.667 867 100.877 249.675 506.454
53 0 60.0665 14.8669 893 101.722 249.227 503.081
54 0 65.1499 15.4413 1006 98.3489 248.015 500.002
55 0 67.133 16.9663 1139 96.2072 247.77 496.91
56 0 69.1127 15.4386 1067 99.5445 248.461 497.254
57 0 69.0538 15.582 1076 100.94 249.375 494.59
58 0 75.1008 16.7908 1261 100.441 251.081 492.302
59 0 77.0927 16.2921 1256 101.861 253.264 490.687
60 0 79.126 15.33 1213 105.261 254.831 487.84
61 1 40.0368 11.2397 450 106.156 257.571 509.062
62 0 46.0522 12.703 585 100.436 259.556 508.357
63 0 45.0442 12.0326 542 103.148 261.483 509.205
64 0 45.0714 12.4025 559 104.61 264.386 506.733
65 0 50.0723 13.6403 683 99.0571 266.354 508.577
66 0 50.0374 13.37 669 102.547 267.862 508.819
67 0 52.082 13.594 708 98.6709 268.877 510.295
68 0 52.075 14.3831 749 99.8398 269.802 509.441
69 0 53.1198 13.0083 691 103.485 270.093 511.13
70 0 56.1165 15.1649 851 98.6569 268.521 510.45
71 0 58.0743 13.8616 805 101.422 267.276 509.171
72 0 60.1696 13.8276 832 102.156 265.242 509.571
73 0 63.1804 13.7543 869 102.491 263.406 509.005
74 0 64.1257 13.8634 889 103.872 262.314 507.133
75 0 65.1366 13.203 860 106.128 260.352 508.731
76 0 69.2355 13.5624 939 103.461 258.167 508.408
77 0 71.1832 13.8516 986 103.096 255.915 507.127
78 0 78.1563 15.3283 1198 97.0025 252.947 504.752
79 0 78.2289 15.314 1198 98.0668 250.803 503.607
80 0 79.225 13.6068 1078 102.047 248.737 502.023
81 1 45.1282 10.1489 458 102.812 247.445 520.33
82 0 47.0646 11.5373 543 102.363 246.365 518.009
83 0 48.129 10.555 508 101.872 245.325 520.402
84 0 49.1101 12.1563 597 100.017 243.851 514.993
85 0 51.0257 12.2683 626 98.8562 243.182 511.35
86 0 53.1235 14.2686 758 95.1557 243.542 511.811
87 0 55.1407 14.6353 807 92.7807 244.244 509.8
88 0 56.1127 14.3818 807 96.0793 242.929 507.854
89 0 58.0581 14.6577 851 95.705 243.189 504.063
90 0 59.0967 13.9094 822 97.7311 243.925 505.118
91 0 60.0842 12.5491 754 101.529 245.19 502.849
92 0 61.1324 12.6938 776 101.683 246.776 503.455
93 0 63.1334 12.5765 794 137.888 247.753 503.933
94 0 67.0882 12.3867 831 103.999 250.036 500.274
95 0 68.0773 12.1333 826 105.168 252.914 497.932
96 0 72.0915 12.0819 871 105.785 255.807 497.422
97 0 75.116 12.7004 954 103.563 258.956 497.339
98 0 77.0921 12.1932 940 104.766 261.177 495.289
99 0 80.0819 13.1241 1051 102.226 263.164 495.763
100 0 84.0905 13.7471 1156 102.753 263.277 495.731
101 0 85.175 13.349 1137 104.868 263.852 495.62
102 0 89.1512 13.4154 1196 104.487 264.526 497.101
103 0 91.1915 13.5429 1235 106.708 263.253 495.206
104 0 94.1475 13.755 1295 107.137 261.986 495.775
105 0 98.2334 13.6308 1339 105.258 260.79 493.715
106 0 100.177 12.1186 1214 106.216 257.616 491.779
107 1 54.0284 8.55105 462 105.524 256.039 516.407
108 0 54.0562 9.37912 507 104.3 254.359 517.779
109 0 58.0504 11.8518 688 102.791 254.682 515.103
110 0 60.0749 11.6022 697 102.99 251.925 514.968
111 0 62.0646 11.6492 723 101.769 250.285 512.788
112 0 63.1134 11.7566 742 102.388 247.953 512.891
113 0 66.162 12.817 848 100.65 245.789 511.062
114 0 66.0424 12.174 804 103.425 243.675 510.32
115 0 68.3113 11.916 814 105.842 244.131 508.881
116 0 71.2939 12.9043 920 108.428 242.799 508.396
117 0 74.1992 11.5769 859 112.066 241.827 507.659
118 0 77.273 11.6341 899 113.854 241.279 504.492
119 0 79.3905 12.7849 1015 112.74 240.386 500.497
120 1 43.1244 9.36825 404 115.418 240.022 516.661
121 0 46.1584 10.3773 479 112.192 239.862 516.052
122 0 47.2273 9.67661 457 115.538 239.989 512.265
123 0 50.3248 12.3001 619 109.304 240.024 510.136
124 0 50.0252 11.854 593 102.003 240.799 508.644
125 0 53.1288 12.6485 672 102.18 239.978 508.35
126 0 53.1917 12.6148 671 102.768 241.17 508.031
127 0 54.0378 11.4179 617 105.178 243.865 505.797
128 0 57.0474 12.0602 688 101.99 245.632 506.455
129 0 59.132 11.4997 680 103.063 248.966 506.204
130 0 59.0575 11.0401 652 105.333 252.224 507.813
131 0 62.0591 12.2625 761 103.064 253.218 507.388
132 0 63.0693 11.638 734 104.289 255.328 507.271
133 0 63.1888 11.1887 707 107.68 257.225 505.777
134 0 67.1091 13.1279 881 103.337 258.385 508.184
135 0 69.1017 11.5916 801 105.896 258.796 507.15
136 0 69.172 11.3052 782 106.953 258.564 506.847
137 0 73.1555 12.1659 890 103.583 258.471 507.616
138 0 74.1042 11.9022 882 104.439 257.984 506.499
139 0 76.1318 11.8216 900 104.021 255.477 503.977
140 0 82.1868 12.3134 1012 102.312 254.587 505.053
141 1 46.1233 9.79982 452 97.8208 252.781 526.345
142 0 46.0537 8.70722 401 103.112 250.12 523.721
143 0 46.0564 8.68501 400 143.272 247.132 523.728
144 0 50.0377 11.3714 569 101.304 252.123 521.402
145 0 51.1396 12.241 626 95.6086 249.692 519.601
146 0 53.0471 13.2712 704 90.8494 248.217 521.703
147 0 53.1044 12.1836 647 92.9428 243.134 522.96
148 0 53.1184 11.5967 616 95.9367 241.45 519.706
149 0 55.1357 11.3901 628 95.3981 240.613 521.49
150 0 57.1151 11.7482 671 94.7228 238.759 518.973
151 0 57.1154 12.1683 695 95.3813 238.053 516.442
152 0 60.0631 11.9208 716 94.6774 236.775 515.564
153 0 60.1159 10.8124 650 99.3246 236.374 512.508
154 0 64.0964 11.7479 753 97.1554 236.583 511.065
155 0 64.0749 12.0016 769 98.13 236.498 507.71
156 0 66.1054 11.2548 744 99.1425 236.449 504.743
157 0 71.2431 12.1134 863 96.438 237.794 504.032
158 0 72.1209 12.1047 873 97.1718 239.336 505.349
159 0 74.1136 12.5618 931 97.0408 240.445 502.15
160 0 76.2383 12.0412 918 98.5588 243.016 500.963
161 0 77.2035 12.2404 945 99.9058 244.567 497.688
162 0 80.1343 11.0065 882 101.58 246.368 499.23
163 0 84.1996 13.0286 1097 98.4038 249.081 496.095
164 0 89.1105 14.7682 1316 93.6087 251.127 498.364
165 0 89.128 14.8438 1323 131.282 253.113 498.285
166 1 47.1183 10.6965 504 100.395 254.274 517.564
167 0 50.0877 10.7012 536 101.08 255.362 518.026
168 0 50.0796 10.8827 545 102.394 255.688 518.697
169 0 49.0373 10.7061 525 104.566 256.804 518.415
170 0 53.0745 12.6238 670 98.8612 257.421 519.194
171 0 52.0757 11.9057 620 133.977 257.432 518.269
172 0 52.2015 10.8234 565 101.271 257.336 518.381
173 0 55.1918 11.9764 661 98.239 255.971 517.693
174 0 54.1445 9.65934 523 103.784 254.47 516.99
175 0 58.226 11.1977 652 99.385 252.196 516.704
176 0 61.1698 12.1629 744 101.477 250.774 515.724
177 0 64.3646 13.4235 864 98.456 249.225 514.46
178 0 66.2895 12.4605 826 99.1404 247.414 514.151
179 0 69.1747 12.519 866 97.47 245.998 514.07
180 0 72.2011 12.5344 905 97.5901 243.196 511.249
181 0 75.3094 13.1325 989 95.906 242.294 510.658
182 0 78.1286 14.2841 1116 93.9489 240.575 507.016
183 0 81.1977 14.6063 1186 93.656 239.598 504.782
184 1 46.0985 11.4537 528 97.9508 239.735 519.538
185 0 44.0287 11.8332 521 98.5259 237.584 518.372
186 0 49.0719 11.9213 585 95.0068 236.585 518.226
187 0 48.0265 12.1183 582 95.7955 235.842 513.959
188 0 49.3 11.6633 575 95.7983 236.762 513.064
189 0 51.2252 12.8843 660 88.3121 237.417 513.736
190 0 50.3365 12.3966 624 91.8798 238.428 511.431
191 0 53.1569 13.1874 701 88.8017 239.623 510.27
192 0 51.2024 12.8119 656 92.314 240.878 509.216
193 0 54.2069 12.1202 657 93.0107 242.959 506.662
194 0 56.1565 11.9487 671 92.532 245.496 509.301
195 0 59.2051 12.7016 752 90.7965 247.874 506.692
196 0 60.1941 12.8584 774 93.4212 250.049 508.127
197 0 61.2367 12.9661 794 94.4421 253.003 505.008
198 0 64.1613 11.7205 752 95.5758 255.505 507.773
199 0 66.2141 12.4445 824 95.2937 257.079 506.326
200 0 67.3238 11.0362 743 97.9785 258.464 507.764
201 0 70.1169 12.5933 883 96.8618 259.447 504.844
202 0 74.1798 13.2651 984 95.2744 259.827 506.656
203 1 42.0284 11.1591 469 94.9104 261.676 523.275
204 0 45.0729 11.7809 531 92.6008 260.689 524.377
205 0 44.0679 9.9619 439 96.1481 259.549 525.446
206 0 45.0881 10.4019 469 98.9275 258.23 524.147
207 0 47.2034 11.3339 535 95.3794 256.636 524.673
208 0 48.0247 12.4936 600 94.1917 254.505 526.378
209 0 49.1196 12.8869 633 94.0126 252.229 524.013
210 0 50.0844 11.3209 567 93.8148 249.229 524.354
211 0 51.1862 13.363 684 89.9912 244.488 525.937
212 0 56.1082 13.2957 746 91.7815 244.613 518.752
213 0 57.1612 14.1005 806 90.8697 239.971 519.47
214 0 58.2895 13.0212 759 93.4098 238.889 519.727
215 0 60.2235 13.6492 822 92.9538 236.359 517.622
216 0 61.2615 14.4789 887 91.513 236.016 516.356
217 0 64.1664 14.0728 903 92.4241 235.264 511.935
218 0 66.2731 13.6103 902 91.765 235.188 513.82
219 0 69.2864 14.0143 971 90.1833 233.876 508.695
220 0 68.2631 13.3308 910 92.2099 234.284 506.199
221 0 70.124 12.7203 892 93.9585 234.71 504.103
222 0 75.1783 12.6233 949 92.039 235.362 504.601
223 0 76.1645 14.4555 1101 90.3524 236.095 501.807
224 0 79.1352 13.18 1043 92.0988 237.878 500.252
225 1 42.0167 10.3054 433 94.7945 238.125 516.328
226 0 44.0098 11.7928 519 93.131 240.356 517.671
227 0 45.0369 11.9458 538 91.8959 243.009 517.665
228 0 46.1071 11.7552 542 94.1255 245.129 517.303
229 0 47.028 10.9509 515 98.8718 247.709 516.819
230 0 49.0656 12.2693 602 98.1096 250.244 514.688
231 0 50.0122 12.6369 632 98.174 255.96 513.949
232 0 51.5446 13.8133 712 91.5829 256.673 516.784
233 0 52.3135 13.0941 685 93.2423 256.87 516.193
234 0 54.3061 12.6505 687 93.0408 258.664 519.196
235 0 57.3488 13.7056 786 90.8804 258.682 517.468
236 0 56.1941 11.8874 668 96.3024 258.103 516.942
237 0 59.2468 11.2411 666 97.2598 256.58 518.563
238 0 61.3324 13.1252 805 93.6422 255.482 518.957
239 0 61.3324 13.1741 808 143.266 254.498 518.953
240 0 65.2734 12.9762 847 94.4061 253.182 516.182
241 0 68.1921 12.7581 870 93.5736 249.348 519.698
242 0 69.3193 12.9546 898 95.4866 247.331 515.883
243 0 71.2167 13.8872 989 95.0091 246.951 513.367
244 1 40.0798 9.23159 370 97.6568 246.324 533.192
245 0 38.1026 9.97307 380 98.4553 244.129 532.687
246 0 40.0915 10.2266 410 98.5341 242.72 532.588
247 0 39.1869 8.65085 339 103.204 240.726 531.224
248 0 40.1326 11.0633 444 99.4707 238.615 528.613
249 0 46.0442 13.6174 627 91.5486 237.163 527.506
250 0 45.1682 13.1508 594 96.638 235.961 524.451
251 0 46.0758 13.174 607 90.7891 234.959 523.642
252 0 44.3867 12.301 546 93.7619 234.855 521.242
253 0 48.1889 13.2811 640 92.1016 234.217 519.98
254 0 48.214 13.0667 630 94.827 234.492 517.09
255 0 49.2996 13.7932 680 93.7618 233.881 515.963
256 0 50.2091 15.0172 754 91.8064 233.832 513.572
257 0 50.2484 13.3537 671 95.0402 234.939 512.188
258 0 51.2508 12.6632 649 96.3559 235.867 513.128
259 0 53.1236 12.3109 654 96.792 238.031 514.213
260 0 53.1126 12.9913 690 98.2681 240.372 511.794
261 0 56.1518 13.3923 752 95.7646 242.481 511.892
262 0 58.1494 12.915 751 97.3009 245.826 510.075
263 0 59.2161 13.2227 783 97.6322 248.84 510.199
264 0 62.1874 12.2372 761 99.5808 250.806 508.548
265 0 64.1823 13.7577 883 97.4383 253.932 508.777
266 0 65.1553 13.8899 905 98.484 254.433 507.449
267 0 67.1452 12.54 842 100.056 256.628 510.392
268 0 70.1462 14.4128 1011 96.9802 256.699 508.192
269 0 73.2022 13.6062 996 100.277 257.056 509.408
270 0 75.1279 13.883 1043 100.045 257.31 508.911
271 0 78.0849 12.7425 995 103.33 254.869 508.874
272 0 80.2069 14.1634 1136 101.139 254.018 505.804
273 1 43.1247 9.83196 424 102.623 255.163 527.177
274 0 45.1752 11.8428 535 100.06 252.316 527.092
275 0 43.1471 10.4758 452 103.082 250.726 527.385
276 0 46.2137 12.3556 571 100.968 250.105 526.047
277 0 47.1062 11.6757 550 100.7 246.873 527.264
278 0 50.1048 12.1944 611 98.4141 245.592 525.736
279 0 51.0475 13.1446 671 98.8495 243.484 521.572
280 0 54.194 14.116 765 95.8588 242.159 524.241
281 0 55.2187 14.1256 780 97.4654 240.856 520.435
282 0 57.2253 13.9274 797 98.0527 238.512 519.991
283 0 57.1226 12.622 721 101.727 236.297 517.044
284 0 59.1132 13.8209 817 99.6034 236.004 516
285 0 61.1677 13.4221 821 100.258 235.581 514.132
286 0 63.0813 14.0771 888 100.117 234.222 509.845
287 0 65.2201 13.9068 907 101.605 233.879 509.354
288 0 66.1161 13.8695 917 102.255 233.997 506.489
289 0 68.2184 13.618 929 107.8 232.69 503.716
290 0 69.2038 13.3374 923 105.277 234.969 502.865
291 0 74.0944 14.5625 1079 101.642 235.683 500.832
292 0 76.0897 13.2081 1005 104.311 237.159 499.576
293 1 39.0536 9.83263 384 103.867 239.167 517.815
294 0 46.0871 10.6754 492 98.7378 240.652 516.467
295 0 46.0871 10.6104 489 137.211 242.673 516.323
296 0 45.0829 10.5583 476 101.38 246.38 516.941
297 0 48.1182 11.2224 540 99.6907 249.683 516.92
298 0 48.4159 13.1362 636 100.002 251.995 510.085
299 0 51.1745 13.4637 689 99.6618 254.62 515.115
300 0 52.1273 13.6589 712 94.4986 255.5 515.47
301 0 53.1254 13.3834 711 95.8439 255.854 517.395
302 0 54.1566 13.0917 709 96.4936 255.793 518.395
303 0 57.1638 12.5779 719 95.8414 256.651 518.548
304 0 59.1809 12.673 750 95.5773 256.501 518.955
305 0 61.2579 13.3371 817 95.3488 255.635 515.452
306 0 62.1937 13.6509 849 95.4064 254.092 514.905
307 0 65.1545 14.151 922 94.3124 252.067 515.588
308 0 67.1999 13.3929 900 95.0044 250.477 515.197
309 0 70.0789 14.2982 1002 92.9731 248.46 515.477
310 0 72.0794 14.1372 1019 93.4347 246.956 516.679
311 0 75.1888 15.2283 1145 93.9703 245.127 511.866
312 0 76.2361 12.9073 984 98.749 244.749 511.023
313 0 77.2404 13.2962 1027 98.2541 243.164 509.834
314 1 40.0369 9.8659 395 96.2962 242.42 531.866
315 0 41.1041 10.4613 430 96.1581 241.602 528.551
316 0 45.1772 11.2225 507 91.3886 239.264 524.637
317 0 45.2874 10.7094 485 96.0948 238.074 521.637
318 0 48.5808 10.9508 532 94.9662 235.835 522.289
319 0 50.7854 12.7793 649 93.8998 235.24 518
320 0 49.7168 12.9131 642 96.2087 234.031 514.226
321 0 53.2866 13.9247 742 98.1671 232.683 515.333
322 0 54.459 13.0557 711 100.239 232.752 510.481
323 0 56.447 12.2593 692 102.058 232.873 509.506
324 0 55.1595 12.5454 692 103.552 234.334 507.986
325 0 57.305 13.8731 795 100.64 234.358 505.467
326 0 59.3179 13.8913 824 100.34 235.868 503.482
327 0 62.2802 13.8246 861 100.823 237.237 504.672
328 0 63.2075 12.9731 820 102.118 239.863 504.846
329 0 64.4678 13.976 901 101.941 243.036 502.236
330 0 65.4272 13.0527 854 104.635 245.544 503.608
331 0 72.398 15.0142 1087 98.2098 248.837 503.823
332 0 69.4378 13.3933 930 105.085 250.83 503.76
333 0 74.3968 14.92 1110 102.337 253.338 502.003
334 0 76.5209 14.3098 1095 103.458 255.242 503.49
335 0 78.5278 14.7209 1156 103.616 255.978 499.942
336 1 40.2439 9.98908 402 100.448 258.055 524.346
337 0 43.0264 10.4355 449 99.0445 256.664 526.63
338 0 42.0499 12.4614 524 97.9714 256.868 525.292
339 0 43.0932 11.2083 483 100.068 255.652 527.532
340 0 43.1567 11.6089 501 101.391 253.958 524.03
341 0 47.1095 11.6962 551 97.7877 252.387 527.953
342 0 49.1014 13.2786 652 100.146 250.601 525.135
343 0 51.1558 13.5664 694 101.007 247.3 524.555
344 0 51.0984 13.6208 696 96.977 245.326 523.217
345 0 54.1115 13.7864 746 95.3499 243.823 522.668
346 0 53.1967 13.7227 730 101.134 242.058 522.914
347 0 57.2356 14.152 810 99.0482 240.127 522.172
348 0 58.18 12.7363 741 102.51 239.553 523.009
349 0 59.1828 13.2978 787 102.316 239.107 519.821
350 0 60.3959 14.0904 851 100.65 236.906 518.692
351 0 61.245 14.5971 894 100.509 235.342 515.337
352 0 64.4511 13.7934 889 99.8931 234.116 514.364
353 0 65.6266 13.394 879 101.59 233.155 509.596
354 0 70.5216 13.9106 981 99.0377 233.85 507.061
355 0 72.4024 13.9222 1008 102.965 233.352 503.656
356 0 75.6433 14.5816 1103 101.782 234.098 503
357 1 40.1549 12.2526 492 95.628 235.431 517.925
358 0 41.1676 10.8338 446 98.5202 235.511 518.031
359 0 40.1747 10.4294 419 102.033 236.516 519.518
360 0 45.3704 12.4751 566 97.9717 239.231 516.53
361 0 44.3456 13.7556 610 97.8902 240.787 513.43
362 0 46.2414 13.2781 614 98.7818 243.225 512.594
363 0 49.3632 14.3224 707 95.4017 245.902 512.035
364 0 50.1952 13.826 694 97.3991 250.362 513.981
365 0 50.1716 14.3308 719 97.9346 252.647 512.49
366 0 51.2126 14.7229 754 98.5981 255.346 512.317
367 0 54.2115 14.4619 784 99.1161 256.247 513.978
368 0 54.2115 14.5725 790 137.29 256.258 513.966
369 0 56.2387 14.7763 831 102.389 257.966 515.621
370 0 58.1994 14.8283 863 103.291 257.468 515.698
371 0 60.3181 14.2412 859 104.221 257.072 516.211
372 0 62.3863 14.6346 913 104.412 256.518 515.028
373 0 64.3358 15.0927 971 103.713 254.384 514.526
374 0 69.5245 15.5916 1084 100.797 253.345 518.26
375 0 69.4988 13.9571 970 106.786 250.475 515.899
376 0 73.3931 14.797 1086 104.134 248.573 515.607
377 0 74.3522 15.0769 1121 105.51 247.357 515.713
378 0 76.3638 15.4262 1178 106.577 245.923 512.995
379 0 78.7045 16.0728 1265 105.68 244.421 509.945
380 0 79.4516 14.4742 1150 110.22 241.911 508.85
381 0 87.6005 15.7305 1378 105.596 241.083 508.414
382 0 85.3703 14.7007 1255 110.446 239.2 506.374
383 1 45.212 12.2755 555 106.629 239.44 525.562
384 0 44.1482 10.5327 465 110.989 237.983 526.178
385 0 48.1707 11.0441 532 108.288 236.487 523.897
386 0 49.2528 12.243 603 108.602 234.347 520.522
387 0 52.1832 13.0693 682 107.063 234.151 518.321
388 0 54.1051 12.5866 681 110.257 233.113 513.323
389 0 57.1414 13.1953 754 105.875 232.817 512.515
390 0 58.0992 12.2893 714 107.459 233.367 509.798
391 0 62.172 13.5109 840 106.842 234.246 508.681
392 0 64.1736 14.0245 900 107.042 235.541 507.084
393 0 65.203 13.573 885 108.821 236.733 508.427
394 0 65.2595 13.6532 891 111.043 238.627 505.62
395 0 69.3123 14.1101 978 110.056 241.32 504.126
396 0 72.1784 15.4201 1113 107.734 243.389 500.756
397 0 77.236 15.6533 1209 106.084 246.671 502.722
398 0 77.2358 15.1096 1167 110.355 248.517 500.571
399 0 81.3773 14.0703 1145 111.774 252.118 502.26
400 0 82.4702 14.4173 1189 111.448 254.224 499.888
401 1 47.2567 8.71833 412 109.437 255.82 522.032
402 0 49.2881 10.327 509 107.088 257.589 523.022
403 0 49.2899 10.6919 527 108.362 257.71 522.653
404 0 51.1908 12.2092 625 107.118 258.037 522.243
405 0 52.1543 12.5972 657 106.699 256.202 521.676
406 0 54.2098 11.9904 650 107.149 255.569 522.4
407 0 54.0941 11.0178 596 111.158 253.664 518.705
408 0 58.2342 12.6215 735 106.346 251.627 519.937
409 0 61.2409 13.4387 823 106.087 249.622 515.836
410 0 64.1052 13.2439 849 106.946 247.157 516.82
411 0 65.4834 13.2706 869 107.879 243.715 517.399
412 0 69.5412 14.38 1000 104.439 243.041 514.41
413 0 68.438 12.7999 876 109.465 241.511 514.006
414 0 72.3036 13.3188 963 107.976 240.746 511.082
415 0 75.2924 14.9285 1124 104.819 238.859 509.736
416 0 76.2941 14.3392 1094 107.31 238.797 510.606
417 0 80.3376 13.381 1075 108.61 237.309 505.154
418 0 82.3842 14.3838 1185 107.068 236.165 504.018
419 0 83.2795 13.8329 1152 109.661 234.604 497.582
420 0 87.3386 13.648 1192 108.449 234.194 498.903
421 0 90.2222 13.7217 1238 105.826 233.179 494.678
422 0 92.2634 12.9629 1196 106.686 233.456 491.239
423 0 98.2368 12.7956 1257 105.024 233.651 494.6
424 0 99.2759 13.5783 1348 105.914 232.999 484.082
425 1 53.1342 9.35367 497 99.9034 235.656 512.845
426 0 54.2552 9.25258 502 100.149 237.633 509.743
427 0 56.1788 10.5378 592 98.5895 238.301 508.117
428 0 58.0651 11.9177 692 97.7211 240.98 509.292
429 0 62.1276 13.5045 839 99.1263 243.555 507.387
430 0 62.1689 13.1416 817 93.8641 246.559 507.268
431 0 63.4208 11.5419 732 98.1503 248.627 507.452
432 0 64.1807 10.7821 692 100.201 251.688 506.665
433 0 67.2443 11.5995 780 98.05 253.95 507.831
434 0 70.1311 12.5194 878 96.6241 253.64 508.161
435 0 72.166 11.8477 855 97.4866 255.318 508.143
436 0 74.0895 13.0518 967 96.4447 255.619 506.654
437 0 77.299 13.4542 1040 95.3529 256.73 506.359
438 0 80.1776 12.385 993 97.7271 255.711 505.736
439 0 83.2262 12.6883 1056 96.0189 254.95 506.965
440 0 84.1876 12.389 1043 98.3432 253.28 503.049
441 0 87.2651 11.8833 1037 97.8949 251.913 506.482
442 0 90.2608 11.0236 995 102.194 249.132 503.007
443 1 51.0549 10.8315 553 92.859 250.872 526.154
444 0 53.0996 10.3202 548 94.9507 249.219 524.425
445 0 55.2393 10.4274 576 93.7899 246.705 520.812
446 0 55.1912 12.5201 691 90.3401 245.473 520.931
447 0 59.1995 10.1859 603 94.3599 243.05 519.778
448 0 58.2664 12.0824 704 91.8963 242.162 518.651
449 0 58.3354 12.3253 719 92.4924 240.184 516.046
450 0 63.2789 13.2114 836 89.6663 239.49 516.958
451 0 62.2568 11.2437 700 95.4086 238.157 513.173
452 0 65.1864 11.6896 762 93.5958 237.757 513.867
453 0 67.3828 11.6499 785 93.7885 236.187 512.139
454 0 68.2783 11.2041 765 94.0654 234.685 512.068
455 0 70.2065 11.0389 775 96.7484 233.937 509.12
456 0 73.2502 11.8498 868 94.8571 233.766 503.424
457 0 75.2929 12.5776 947 94.9176 234.362 500.774
458 0 80.2278 12.2277 981 95.371 235.116 501.059
459 0 79.3242 11.6358 923 96.5525 236.377 500.805
460 0 79.3242 11.6358 923 143 237.369 500.868
461 1 46.0585 10.1393 467 101.585 238.111 515.859
462 0 47.0123 10.6993 503 96.1392 239.736 516.209
463 0 49.0223 11.8722 582 95.3385 241.943 516.674
464 0 49.0411 12.0919 593 94.8803 247.872 514.737
465 0 51.1337 12.6531 647 97.0665 248.226 513.663
466 0 50.2889 11.0362 555 101.252 251.721 512.701
467 0 56.1293 13.3264 748 88.5481 253.286 517.019
468 0 56.1209 13.1145 736 89.1603 254.864 517.688
469 0 56.3293 11.8943 670 91.709 255.81 518.996
470 0 60.1634 12.4328 748 89.2674 255.652 517.348
471 0 59.19 12.9752 768 88.9622 256.025 516.958
472 0 60.2221 13.5166 814 88.0405 254.778 517.694
473 0 65.1653 13.5655 884 84.8812 254.486 518.863
474 0 65.1669 12 782 87.656 252.331 517.552
475 0 66.1908 12.4035 821 86.0999 250.678 516.576
476 1 33.0485 9.25913 306 85.5327 248.748 534.948
477 0 36.0998 9.72305 351 84.4786 246.812 534.661
478 0 38.2107 10.3374 395 84.0911 248.266 529.734
479 0 37.043 10.2853 381 84.2493 246.606 532.084
480 0 38.0554 8.8555 337 85.5401 245.279 532.027
481 0 41.1528 11.0807 456 82.2083 242.553 529.325
482 0 40.1126 11.1436 447 84.2662 241.358 528.546
483 0 43.0786 11.8621 511 83.2172 240.808 526.605
484 0 44.1896 13.6231 602 79.7807 238.636 525.839
485 0 46.1266 11.6202 536 82.681 238.257 524.873
486 0 46.1308 11.3807 525 83.9029 237.101 524.623
487 0 48.0865 12.4983 601 81.8918 236.102 519.529
488 0 50.104 12.3543 619 81.0388 236.376 519.724
489 0 51.2345 12.2769 629 81.6296 235.221 514.787
490 0 54.092 11.8132 639 82.5743 235.387 516.019
491 0 54.099 13.2535 717 82.2008 235.566 510.987
492 0 54.128 12.4335 673 84.4175 236.487 510.019
493 0 54.0503 12.0998 654 84.6132 237.453 510.113
494 0 57.0694 12.4059 708 85.339 239.177 508.764
495 0 58.1276 11.4059 663 87.3891 241.655 509.065
496 0 61.1485 13.1974 807 83.057 244.249 508.092
497 0 64.0408 14.2565 913 82.2585 246.225 506.51
498 0 65.1288 12.8515 837 83.6858 249.852 508.775
499 0 67.0584 13.5404 908 84.2643 252.763 508.585
500 0 70.1499 13.8703 973 83.1655 253.466 507.535
501 0 70.1073 12.2954 862 87.2854 255.414 508.204
502 0 77.0505 15.8208 1219 80.3749 257.354 511.847
503 0 76.1324 13.2532 1009 86.332 257.739 509.677
504 0 79.1976 13.0181 1031 88.1018 257.757 510.873
505 0 80.1184 14.3038 1146 87.0061 256.999 508.029
506 0 83.103 11.8167 982 91.0703 255.631 511.326
507 0 87.191 14.1987 1238 88.7246 253.454 510.294
508 1 50.086 11.8995 596 91.5201 253.544 525.976
509 0 49.1965 12.0944 595 92.7849 251.501 526.943
510 0 50.0889 11.3598 569 93.0035 250.04 527.07
511 0 53.306 12.9816 692 90.7934 244.328 524.96
512 0 53.1552 10.8362 576 88.9896 243.694 520.877
513 0 53.0212 11.2785 598 85.0318 243.077 522.184
514 0 55.0882 11.1639 615 83.9252 240.525 518.203
515 0 53.141 8.14814 433 90.2864 238.328 522.162
516 0 57.1979 12.2382 700 84.9557 237.543 518.001
517 0 59.0843 10.5781 625 86.7344 237.24 515.946
518 0 61.084 12.0981 739 84.2882 235.313 515.112
519 0 62.1298 12.2003 758 85.467 234.39 512.884
520 0 65.0561 12.1741 792 86.1338 232.561 509.726
521 0 66.1098 13.5381 895 85.0905 233.24 508.409
522 0 67.093 11.2232 753 87.0452 232.404 506.056
523 0 70.1152 12.4224 871 86.5166 232.287 505.938
524 0 74.0554 13.0308 965 87.2093 231.805 499.526
525 0 76.1602 12.3424 940 90.0319 231.945 498.55
526 0 77.1836 12.412 958 90.8706 234.474 499.197
527 0 78.1357 11.8128 923 92.3424 235.072 496.342
528 1 44.0247 10.7667 474 88.3165 236.694 514.555
529 0 45.1404 9.19353 415 88.4482 240.619 517.711
530 0 45.0733 12.2245 551 87.7423 243.735 513.944
531 0 49.2568 8.83128 435 91.8345 246.752 514.646
532 0 50.1685 10.8634 545 91.0569 248.239 513.563
533 0 53.0824 11.6799 620 88.7468 250.377 514.515
534 0 53.12 11.5964 616 91.2045 252.75 515.14
535 0 55.2252 13.3092 735 88.6803 253.494 512.512
536 0 56.2877 12.8803 725 89.4124 254.582 512.055
537 0 58.2511 13.0985 763 89.2189 254.961 513.798
538 0 61.0363 14.2047 867 86.8731 254.057 513.606
539 0 65.1996 14.494 945 86.09 253.608 517.88
540 0 63.071 11.4791 724 93.1202 252.744 514.965
541 0 67.1167 13.1264 881 89.6652 252.093 514.708
542 0 72.0219 13.8847 1000 98.628 250.39 517.974
543 0 72.1809 13.8679 1001 99.2987 248.061 517.635
544 0 75.057 14.6955 1103 99.087 245.226 512.089
545 0 77.1362 14.3512 1107 99.0406 243.305 512.438
546 0 80.0754 14.2116 1138 98.5571 242.967 510.556
547 1 41.0379 10.3807 426 98.1995 242.362 530.049
548 0 42.0343 10.8007 454 97.0705 241.315 529.714
549 0 46.1534 11.7651 543 94.7109 240.355 527.12
550 0 46.1471 10.8783 502 95.8446 238.57 525.735
551 0 46.0933 11.2381 518 98.3745 235.998 521.645
552 0 47.0758 12.4693 587 94.9319 236.746 519.951
553 0 51.2165 13.3355 683 92.7555 234.906 518.571
554 0 49.0777 11.0845 544 92.4688 234.792 520.252
555 0 52.0931 12.9384 674 88.2715 234.82 516.561
556 0 52.1479 12.5796 656 89.003 234.09 514.377
557 0 55.1495 13.6357 752 85.6795 233.981 514.745
558 0 55.1785 13.6466 753 86.4555 234.073 510.072
559 0 57.0931 12.2607 700 87.8386 235.811 512.339
560 0 59.2825 13.1911 782 86.3581 236.336 505.237
561 0 62.1148 13.1048 814 86.0491 238.45 508.618
562 0 62.3511 11.4994 717 91.2064 239.517 506.854
563 0 66.1689 14.0247 928 87.7198 242.023 505.361
564 0 68.3524 13.2695 907 95.0728 245.187 504.602
565 0 75.1568 12.5737 945 94.6233 248.325 505.322
566 0 71.2377 13.0128 927 96.3225 251.539 501.888
567 0 76.3738 13.5518 1035 93.6309 252.242 503.299
568 0 74.1631 12.9175 958 96.9958 255.589 507.996
569 0 78.2401 13.3052 1041 95.6686 256.72 501.976
570 0 81.1729 14.1427 1148 94.7195 256.324 503.599
571 0 84.3154 14.0544 1185 95.7021 256.264 505.074
572 0 90.2982 14.884 1344 93.5216 256.539 506.248
573 1 47.0968 11.2747 531 94.6139 254.736 526.352
574 0 48.1382 9.88821 476 97.6366 252.718 525.355
575 0 49.0891 12.8746 632 94.1915 252.117 523.016
576 0 51.2128 12.7117 651 92.9094 249.263 527.097
577 0 52.0566 14.5034 755 90.1894 247.927 520.528
578 0 54.135 13.1708 713 92.9523 246.621 524.344
579 0 57.2905 14.0337 804 89.541 245.092 522.947
580 0 57.1012 15.8316 904 88.7799 243.139 521.561
581 0 58.2017 14.5357 846 90.7577 241.234 523.089
582 0 59.4042 13.4502 799 95.2703 240.232 520.412
583 0 62.2608 14.0056 872 94.508 239.702 518.775
584 0 64.253 14.0227 901 95.1543 238.443 514.046
585 0 64.288 14.6217 940 94.4138 236.603 513.24
586 0 68.3923 13.7735 942 95.2176 236.265 513.619
587 0 70.1986 15.1855 1066 92.712 236.316 514.265
588 0 69.3258 14.1362 980 96.7878 235.436 509.282
589 0 72.339 14.7085 1064 95.2538 235.244 511.33
590 0 75.2663 14.8805 1120 94.9196 235.112 508.381
591 0 76.0758 13.802 1050 97.7276 235.389 501.371
592 0 77.1333 13.3794 1032 99.5271 235.926 497.295
593 0 82.1457 14.5108 1192 96.6829 235.925 497.074
594 0 82.2685 13.8814 1142 97.7951 236.632 497.38
595 0 87.2086 14.8036 1291 94.9117 239.054 494.501
596 0 88.2086 13.9896 1234 97.9384 241.005 490.55
597 0 89.2153 13.7308 1225 96.9437 243.942 491.244
598 1 50.0431 11.3902 570 92.9649 247.711 511.76
599 0 50.1676 9.9666 500 96.694 248.544 509.366
600 0 49.1158 9.3249 458 98.0022 250.804 507.507
601 0 53.055 11.7425 623 93.1637 251.554 514.477
602 0 57.0691 15.5075 885 89.1107 253.924 512.176
603 0 59.1604 14.3001 846 93.4586 253.558 514.949
604 0 62.0833 13.7235 852 93.5927 255.109 514.66
605 0 61.3424 14.3294 879 94.1991 255.548 515
606 0 65.1988 14.3714 937 93.6275 254.332 515.952
607 0 66.1769 13.7359 909 94.6986 252.054 515.697
608 0 70.2376 13.1269 922 96.3351 250.705 517.588
609 0 72.2903 14.0268 1014 94.8097 249.145 513.158
610 0 74.2714 13.3564 992 96.3478 246.741 515.886
611 0 75.2489 14.6447 1102 95.0626 245.613 516.719
612 0 78.2356 13.9195 1089 96.4444 243.831 512.955
613 0 79.2706 14.3181 1135 94.5304 241.063 512.796
614 1 45.5883 11.2529 513 95.5302 242.365 527.421
615 0 46.388 10.8433 503 96.9284 239.918 528.575
616 0 47.7 10.2935 491 97.3401 239.018 523.234
617 0 49.5118 11.3912 564 94.0833 237.573 523.259
618 0 50.2936 12.8843 648 87.7701 235.464 520.398
619 0 51.0689 12.258 626 88.4345 236.97 519.743
620 0 52.2228 13.0977 684 87.5029 235.596 516.942
621 0 52.1181 11.4164 595 91.9109 234.674 517.134
622 0 53.1325 10.615 564 91.516 235.275 517.75
623 0 54.1208 12.4167 672 90.4598 234.644 512.588
624 0 56.044 10.2241 573 93.1623 231.637 514.653
625 0 58.0602 11.3158 657 91.0913 232.726 510.018
626 0 60.071 11.9026 715 90.0266 233.179 512.948
627 0 61.1314 10.8128 661 90.7822 235.091 508.906
628 0 63.0699 11.7806 743 89.782 236.664 505.21
629 0 65.0606 12.5114 814 88.0897 238.984 503.542
630 0 71.1266 13.2018 939 86.9989 240.506 501.618
631 0 70.3218 10.7932 759 90.1028 243.993 503.111
632 1 40.0617 10.0595 403 88.0645 246.184 519.928
633 0 40.0205 7.69605 308 89.263 248.13 521.299
634 0 42.0344 12.5611 528 83.4602 251.009 520.195
635 0 44.0787 12.5911 555 82.5622 252.29 522.164
636 0 46.0625 12.5699 579 83.2245 254.661 521.482
637 0 45.0941 10.7331 484 84.7851 255.052 522.056
638 0 47.1102 11.3563 535 82.028 254.37 522.202
639 0 48.1027 10.7894 519 82.4566 254.137 523.156
640 0 50.081 12.0605 604 80.856 253.813 522.738
641 0 50.0565 12.2661 614 81.4805 251.893 524.09
642 0 50.0393 9.75234 488 85.1455 250.252 523.125
643 0 53.0176 12.0715 640 81.2031 248.097 520.814
644 0 55.0851 12.0541 664 79.9217 246.553 521.622
645 0 57.0908 12.6991 725 78.6883 244.462 524.212
646 0 59.0216 12.47 736 80.716 242.554 523.06
647 0 60.0382 12.5254 752 81.016 242.359 520.93
648 0 63.0556 12.9093 814 79.5921 239.461 516.81
649 0 65.0737 12.7087 827 80.5345 237.623 516.745
650 0 66.0255 11.2532 743 82.5357 237.731 515.926
651 0 70.1783 12.511 878 81.2039 235.335 510.737
652 0 71.1739 14.3452 1021 79.572 233.66 507.75
653 0 73.1299 12.3205 901 83.0522 233.132 506.036
654 0 75.2204 12.8821 969 80.6357 232.147 506.954
655 0 78.2224 12.7841 1000 82.148 231.685 501.365
656 0 80.1937 12.8564 1031 82.2211 231.636 499.685
657 0 82.1235 13.5649 1114 81.6975 230.726 499.158
658 0 86.1198 13.4348 1157 81.6456 232.207 493.955
659 1 48.074 9.71419 467 81.7666 234.647 517.045
660 0 47.1635 10.8983 514 76.3074 235.809 514.895
661 0 49.0608 11.5571 567 75.351 236.607 512.681
662 0 52.0564 12.4288 647 76.4034 237.153 510.648
663 0 53.1711 13.9549 742 81.2129 239.181 510.671
664 0 53.0529 12.5535 666 75.6742 242.114 509.2
665 0 55.0957 12.4148 684 76.8611 245.82 507.561
666 0 56.1061 12.2625 688 77.9084 249.25 511.759
667 0 59.2098 13.1566 779 77.4698 250.421 507.243
668 0 57.0867 12.2621 700 81.2114 252.731 509.064
669 0 62.1211 12.3307 766 80.2363 254.398 508.894
670 0 63.1368 11.7047 739 82.2666 255.838 509.065
671 0 67.08 13.864 930 79.8215 257.097 511.383
672 0 69.2605 13.2688 919 81.1436 256.192 511.341
673 0 70.1832 10.9 765 85.1124 254.263 509.868
674 0 75.2213 12.2705 923 85.117 252.593 508.949
675 0 79.1482 14.3781 1138 81.7232 250.746 507.007
676 0 82.1736 14.6276 1202 80.3012 249.81 508.358
677 0 86.2865 14.1389 1220 82.1303 246.484 504.155
678 1 44.0739 10.5051 463 84.7149 244.006 525.736
679 0 47.0761 12.0231 566 80.0618 241.737 526.428
680 0 47.0568 11.7518 553 86.0506 240.561 524.638
681 0 49.1248 12.0102 590 87.3203 240.153 521.436
682 0 50.055 13.2854 665 86.2361 238.624 520.635
683 0 53.1366 12.1762 647 84.3138 236.134 521.816
684 0 53.1086 12.8228 681 85.1674 234.74 520.908
685 0 55.0526 13.8595 763 88.8742 234.273 521.891
686 0 57.1248 13.1291 750 89.508 233.863 519.285
687 0 57.192 13.0962 749 90.7477 233.399 516.646
688 0 61.1563 13.7844 843 89.3049 232.83 514.446
689 0 61.1122 12.8943 788 89.4683 232.878 513.692
690 0 65.3161 14.2844 933 87.5327 232.646 512.454
691 0 66.1539 13.5442 896 89.8025 233.346 510.262
692 0 67.1923 13.2009 887 90.239 233.336 508.911
693 0 71.1282 13.9466 992 88.7843 233.699 505.916
694 0 72.1879 13.1878 952 90.7836 234.43 506.183
695 0 75.1669 13.6097 1023 90.9668 235.394 503.5
696 0 79.1173 13.6253 1078 91.0445 237.679 501.334
697 0 81.2033 13.1891 1071 93 238.993 498.909
698 0 83.199 13.029 1084 92.6236 241.957 497.974
699 0 90.2506 14.0719 1270 91.4346 244.698 498.039
700 1 46.0583 11.5506 532 97.8139 247.445 518.699
701 0 46.0255 12.7103 585 91.4137 249.844 513.185
702 0 49.0597 12.1485 596 89.9396 252.433 514.943
703 0 51.0901 12.018 614 87.5635 252.547 515.857
704 0 52.0181 12.0151 625 88.688 253.083 516.219
705 0 54.0683 11.7074 633 89.8562 252.659 517.427
706 0 57.0481 12.3054 702 87.5413 253.459 519.771
707 0 57.1378 10.4309 596 92.3893 252.765 516.134
708 0 61.0698 10.2997 629 91.4674 250.698 518.415
709 0 64.1143 11.6199 745 89.6524 250.268 516.966
710 0 68.1468 12.5318 854 87.5023 248.471 517.573
711 0 71.1443 12.6925 903 88.5072 245.24 513.622
712 0 72.0957 11.7067 844 88.3306 243.592 517.778
713 0 74.0762 12.6221 935 87.8267 241.96 514.486
714 0 80.1198 14.0165 1123 83.1852 240.28 512.923
715 1 40.0343 8.06809 323 89.3096 237.675 525.954
716 0 45.0964 9.31339 420 85.581 238.076 529.288
717 0 51.232 11.6724 598 81.2258 235.686 527.453
718 0 49.1263 11.0124 541 83.4676 234.059 526.714
719 0 51.2778 10.2189 524 83.2805 233.815 525.513
720 0 55.2068 12.2992 679 82.6937 232.963 522.024
721 0 55.1431 13.6735 754 85.4231 231.184 517.951
722 0 57.0596 12.671 723 81.7953 231.108 518.393
723 0 58.1598 12.2077 710 81.9423 231.411 518.097
724 0 60.096 12.7296 765 88.7477 228.897 517.549
725 0 59.1209 12.263 725 91.4552 229.599 513.404
726 0 62.1178 13.1846 819 88.6801 229.928 514.112
727 0 61.1503 12.1177 741 90.3468 229.8 512.324
728 0 65.0721 13.4774 877 87.5108 231.282 509.193
729 0 69.0665 14.6091 1009 83.9752 232.447 508.219
730 0 71.1016 13.7268 976 85.916 234.925 507.252
731 0 73.1265 13.1416 961 87.5546 236.839 506.343
732 0 76.2603 14.4898 1105 85.5937 240.783 509.891
733 1 41.0314 10.2117 419 90.1098 242.563 527.384
734 0 40.0108 9.64741 386 93.2202 244.256 521.477
735 0 42.0321 10.2065 429 91.5105 246.767 523.569
736 0 45.0587 12.0066 541 87.6488 248.922 523.338
737 0 46.026 10.342 476 90.521 249.63 523.13
738 0 48.12 12.552 604 86.6407 250.669 522.974
739 0 47.2763 11.7818 557 89.4955 252.738 519.271
740 0 50.1817 13.212 663 87.8326 253.406 518.843
741 0 52.3318 12.5354 656 86.8384 251.947 519.622
742 0 54.2214 12.4859 677 82.3486 249.319 521.326
743 0 54.1017 12.0144 650 84.1292 248.611 519.738
744 0 56.1126 13.0096 730 81.9 246.8 522.304
745 0 55.0797 10.0763 555 87.245 244.843 523.708
746 0 58.2233 11.7307 683 85.5886 242.564 522.647
747 0 60.2496 14.0416 846 87.6596 241.297 525.391
748 0 63.3363 13.9888 886 86.491 240.555 525.779
749 0 67.2358 13.817 929 86.9892 238.006 521.506
750 0 68.3445 13.0662 893 87.3639 237.24 523.594
751 0 70.1637 14.2381 999 85.6737 235.236 518.219
752 0 71.2801 13.8047 984 86.8811 233.618 518.1
753 0 74.1474 14.0531 1042 86.8666 232.76 511.651
754 0 77.1626 14.9036 1150 86.3435 232.257 510.23
755 0 79.355 13.824 1097 88.0501 231.997 510.085
756 0 79.1918 13.0317 1032 91.6008 230.848 508.023
757 0 82.2614 13.4692 1108 88.7554 230.816 507.384
758 0 83.142 14.0242 1166 90.3533 230.388 504.19
759 0 85.191 14.4616 1232 90.0016 231.53 504.002
760 0 85.3042 14.9934 1279 89.907 231.181 499.303
761 0 86.2171 14.0343 1210 92.5256 231.574 498.113
762 0 87.1655 14.7076 1282 91.2348 232.654 495.942
763 0 87.2227 14.9044 1300 92.31 234.282 495.882
764 1 49.1612 12.3878 609 93.5419 235.374 516.993
765 0 49.1799 10.9394 538 98.0316 237.52 516.777
766 0 49.1474 10.2956 506 100.026 239.587 515.599
767 0 48.1245 9.76633 470 99.8511 242.885 518.968
768 0 51.2738 12.755 654 93.8914 246.127 517.948
769 0 50.2149 11.3711 571 97.2102 248.557 518.531
770 0 51.1368 12.9652 663 94.2338 250.164 519.588
771 0 50.1383 11.4683 575 98.7374 251.393 520.346
772 0 52.1854 13.0879 683 94.7291 251.927 520.422
773 0 51.1085 13.2463 677 95.1905 252.758 523.752
774 0 52.0991 14.2613 743 93.6918 251.79 522.285
775 0 55.1407 14.9436 824 92.1153 251.579 522.205
776 0 53.1159 13.8377 735 93.4912 250.72 521.838
777 0 54.1012 14.6023 790 91.5684 249.572 522.21
778 0 53.1511 13.3205 708 94.1624 246.951 522.671
779 0 54.0652 13.6132 736 93.2745 245.378 521.819
780 0 54.3309 13.3994 728 94.8434 242.668 518.935
781 0 54.1513 13.0191 705 95.7248 241.353 520.759
782 0 54.1142 14.5433 787 92.9822 239.92 521.18
783 0 55.3162 13.3234 737 93.9403 238.16 520.886
784 0 55.1087 14.1176 778 93.9987 236.573 520.109
785 0 56.1964 14.823 833 93.491 235.753 521.58
786 0 55.1741 12.669 699 89.01 233.94 522.239
787 0 55.0902 14.4309 795 87.8843 232.448 518.328
788 0 52.0852 13.0747 681 93.141 232.771 517.117
789 0 54.0281 14.3074 773 87.1488 231.529 517.984
790 0 52.2689 12.2635 641 91.9033 231.101 515.874
791 0 52.2202 13.175 688 89.5843 231.891 515.59
792 0 52.1071 13.1844 687 90.0932 230.707 514.447
793 0 54.1268 12.9141 699 88.8441 231.664 512.827
794 0 53.115 12.5388 666 90.2478 232.173 512.814
795 0 53.1861 14.1014 750 87.4693 232.235 510.813
796 0 54.2141 13.0593 708 88.5876 233.634 512.035
797 0 54.2201 12.523 679 88.9219 234.9 511.982
798 0 53.1659 13.4485 715 88.2378 236.576 510.484
799 0 55.0883 13.9594 769 88.0663 238.931 513.564
800 0 54.0553 13.6527 738 89.8157 242.35 513.894
801 0 54.1795 13.8983 753 89.0996 245.211 513.604
802 0 54.1766 12.6808 687 89.984 248.821 513.771
803 0 55.0956 13.7761 759 88.3333 250.635 517.899
804 0 55.1422 12.4224 685 91.1985 252.461 518.105
805 0 57.0712 13.597 776 88.3312 253.658 519.313
806 0 55.1675 14.3925 794 89.3627 254.329 518.644
