time division length width area intensity CMx CMy
0 0 43.0368 13.8486 596 128.279 1115.99 514.111
1 0 45.0988 15.7211 709 120.505 1117.55 516.882
2 0 45.0988 15.6545 706 159.11 1119.56 516.994
3 0 45.1394 14.6214 660 129.367 1119.03 515.874
4 0 48.1354 15.3318 738 125.729 1120.06 515.538
5 0 49.1274 16.3656 804 122.606 1118.72 516.391
6 0 50.1869 16.1397 810 123.742 1118.95 517.751
7 0 51.189 15.1009 773 127.536 1117.35 517.225
8 0 52.2241 15.4335 806 124.026 1116.71 518.275
9 0 52.3766 15.1022 791 128.365 1114.64 519.681
10 0 53.2912 14.8805 793 129.999 1113.18 517.433
11 0 55.2008 15.2534 842 126.791 1112.04 517.862
12 0 57.2123 15.3289 877 125.64 1109.22 518.986
13 0 59.1046 15.3118 905 127.21 1107.16 518.306
14 0 61.1237 15.7059 960 125.031 1105.59 518.424
15 0 63.214 16.3097 1031 120.432 1104.44 516.317
16 0 64.2692 15.6062 1003 123.257 1101.82 517.214
17 0 69.1961 17.3854 1203 116.506 1100.12 516.704
18 0 70.2023 16.4097 1152 119.098 1098.26 514.183
19 1 36.0805 12.1395 438 123.126 1097.2 530.046
20 0 36.0343 13.2096 476 126.204 1093.23 527.155
21 0 39.0726 13.3342 521 123.417 1093.3 526.591
22 0 40.0298 11.9911 480 126.927 1093.7 525.192
23 0 42.0222 12.66 532 120.827 1094.74 524.893
24 0 42.0233 13.8257 581 119.384 1094.21 522.515
25 0 42.0453 14.5319 611 119.07 1096.01 521.92
26 0 45.131 13.8486 625 118.234 1098.02 521.088
27 0 46.0648 15.2828 704 112.507 1099.94 520.125
28 0 46.0202 14.4502 665 117.379 1102.64 520.373
29 0 49.1144 14.2117 698 114.499 1104.82 521.47
30 0 50.0546 15.8427 793 110.579 1106.99 519.634
31 0 52.0896 14.5902 760 116.02 1109.05 519.549
32 0 53.0632 15.9056 844 110.534 1110.06 519.804
33 0 55.0705 15.0353 828 111.048 1111.99 521.178
34 0 56.067 16.5516 928 108.373 1112.02 520.666
35 0 58.0994 14.458 840 112.826 1112.71 522.77
36 0 60.06 15.3014 919 110.65 1111.62 522.687
37 0 59.0814 15.4194 911 112.448 1110.95 523.022
38 0 63.062 15.2073 959 111.051 1109.88 524.312
39 0 65.1009 15.8216 1030 109.748 1109.2 520.308
40 0 68.0396 14.9472 1017 111.494 1106.74 520.162
41 0 70.1948 15.1293 1062 111.352 1104.26 520.096
42 0 73.1256 16.9161 1237 105.34 1102.88 520.18
43 1 40.0354 11.6397 466 113.931 1101.81 536.931
44 0 39.0389 12.1418 474 112.84 1098.7 536.62
45 0 41.1231 11.575 476 112.231 1096.54 537.494
46 0 43.0516 12.7986 551 109.33 1095.45 535.929
47 0 44.1481 13.3641 590 106.524 1093.02 535.915
48 0 44.483 13.5782 604 106.927 1091.51 534.058
49 0 46.3783 14.3171 664 103.87 1089.62 530.989
50 0 47.0387 13.2232 622 106.875 1086.54 531.949
51 0 48.0473 14.236 684 104.472 1086.19 526.449
52 0 50.0302 14.991 750 103.621 1084.61 524.729
53 0 52.0525 15.7341 819 101.437 1083.52 523.708
54 0 53.0567 14.117 749 104.804 1083.6 519.939
55 0 56.0997 14.5455 816 102.972 1083.77 520.097
56 0 55.1645 13.922 768 104.423 1085.14 518.939
57 0 60.0997 14.6257 879 101.166 1085.73 517.62
58 0 61.0486 15.1519 925 101.602 1087.38 515.676
59 0 62.0993 13.7039 851 104.229 1088.69 513.934
60 0 66.1037 15.6724 1036 98.7819 1091.52 513.551
61 0 67.0906 13.6085 913 103.625 1093.53 513.991
62 0 69.1711 13.4305 929 104.715 1096.15 513.54
63 0 72.1343 14.6948 1060 103.207 1099.15 512.746
64 0 74.1554 14.3752 1066 103.827 1100.25 512.701
65 0 75.0801 13.5322 1016 106.729 1101.92 512.589
66 0 75.0801 13.5322 1016 140.36 1103.91 512.64
67 0 80.3107 13.4229 1078 105.9 1103.71 513.238
68 0 86.165 14.9945 1292 102.456 1105.6 511.365
69 1 43.0558 10.3587 446 107.036 1104.01 534.094
70 0 43.0631 10.2872 443 138.135 1101.99 534.242
71 0 50.0564 11.1075 556 105.777 1101.58 534.523
72 0 49.0452 12.2132 599 104.451 1099.69 532.883
73 0 52.1853 13.4329 701 100.933 1098.89 532.991
74 0 55.0903 13.8681 764 99.0563 1096.14 532.105
75 0 55.1579 12.9084 712 101.892 1092.98 532.715
76 0 56.012 13.4614 754 100.318 1092.83 532.349
77 0 58.0257 14.1661 822 98.337 1091.02 530.7
78 0 59.2477 13.1482 779 99.3684 1088.54 530.736
79 0 63.0695 12.1612 767 100.726 1086.27 526.675
80 0 66.1091 14.2341 941 96.577 1086.38 527.577
81 0 68.1821 14.0799 960 96.2771 1083.82 526.281
82 0 72.2459 14.2569 1030 94.9777 1082.7 525.863
83 0 72.1973 14.0448 1014 95.3097 1080.39 524.648
84 0 77.1713 15.5757 1202 90.6198 1079.87 522.047
85 0 78.1975 14.3867 1125 94.1102 1079.93 514.803
86 0 82.211 14.3533 1180 93.0254 1078.72 515.42
87 0 83.2382 14.2002 1182 95.3993 1077.61 510.631
88 0 83.2382 14.2242 1184 144.792 1076.61 510.701
89 0 83.2382 14.2363 1185 144.282 1075.63 510.72
90 0 83.2399 14.236 1185 143.973 1074.63 510.72
91 1 53.0409 12.2547 650 91.7108 1082.23 528.689
92 0 55.1737 12.1435 670 92.9746 1082.97 525.681
93 0 56.0786 12.9105 724 95.174 1085.26 522.326
94 0 57.1717 13.4682 770 92.4247 1087.36 523.435
95 0 58.2715 11.8411 690 94.7449 1090.1 522.965
96 0 60.5234 12.7719 773 92.9521 1093.02 522.296
97 0 62.1705 12.6266 785 94.172 1096.01 522.651
98 0 65.1182 13.4371 875 92.1314 1096.22 520.648
99 0 67.2373 12.85 864 92.794 1098.22 521.392
100 0 67.2198 12.7492 857 130.557 1100.21 521.364
101 0 74.2461 13.3879 994 91.1398 1099.11 521.852
102 0 75.257 12.3045 926 92.3553 1099.44 522.583
103 0 77.1806 12.257 946 94.24 1098.67 521.456
104 1 39.0286 10.2233 399 91.3158 1098.55 541.667
105 0 42.019 10.4952 441 89.5465 1096.24 541.782
106 0 43.1622 10.7733 465 89.6581 1096.55 542.357
107 0 45.2836 13.1836 597 84.9313 1093.62 537.93
108 0 48.092 13.994 673 83.1025 1091.82 538.694
109 0 47.1193 12.9034 608 86.0905 1090.13 538.502
110 0 50.2326 13.5768 682 84.5601 1088.63 536.414
111 0 51.2288 11.4194 585 95.3863 1086.21 536.02
112 0 54.3192 12.4265 675 92.2267 1083.58 536.158
113 0 56.2042 12.7571 717 92.477 1082.15 535.773
114 0 56.2234 11.7567 661 95.7822 1079.96 533.586
115 0 56.2322 11.6481 655 142.966 1075.98 533.609
116 0 60.2189 12.4213 748 92.8636 1077.09 533.397
117 0 60.2189 12.3715 745 141.459 1078.06 533.427
118 0 62.297 12.6973 791 94.7042 1075.36 529.308
119 0 66.2712 14.2143 942 90.344 1074.65 526.558
120 0 66.2712 14.154 938 137.549 1074.63 526.551
121 0 69.302 13.939 966 91.766 1074.52 517.84
122 0 71.2939 13.5215 964 88.6753 1074.1 517.21
123 0 74.2842 14.5926 1084 86.345 1074.3 514.868
124 0 76.3389 14.8155 1131 86.8417 1075.15 512.446
125 1 40.1129 10.4455 419 92.9165 1078.56 529.442
126 0 40.1129 10.4455 419 130.494 1080.56 529.442
127 0 43.0393 9.66557 416 93.3798 1083.28 528.334
128 0 45.052 11.8752 535 88.4654 1086.1 528.492
129 0 46.4608 11.881 552 89.1884 1086.79 527.147
130 0 46.2103 11.1231 514 91.5681 1087.63 528.837
131 0 48.0423 13.4048 644 88.8882 1090.83 529.037
132 0 48.101 11.8709 571 92.8021 1094.71 530.811
133 0 52.108 13.4144 699 90.0558 1095.35 530.926
134 0 53.0246 13.6163 722 89.8504 1096.03 533.81
135 0 53.1016 13.5213 718 90.5668 1096.42 532.862
136 0 54.0617 12.4302 672 93.4836 1096.09 533.975
137 0 58.1116 15.6939 912 86.4879 1096.64 532.659
138 0 58.1186 13.6617 794 91.3665 1094.74 532.552
139 0 61.0887 13.5541 828 87.3816 1093.61 533.063
140 0 61.0742 14.2777 872 87.2615 1091.96 534.03
141 0 63.2002 14.0348 887 88.2255 1089.19 532.94
142 0 66.1291 12.9595 857 89.4854 1087.35 532.827
143 0 68.2261 13.6165 929 87.8891 1086.37 532.123
144 0 68.2084 12.3445 842 91.2221 1085.36 529.998
145 0 73.103 15.2798 1117 84.2766 1082.23 530.379
146 0 71.1688 12.8146 912 89.3739 1082.38 530.225
147 0 75.2072 13.7886 1037 87.5236 1079.55 530.246
148 1 39.1191 9.25378 362 90.3591 1078.15 545.702
149 0 44.0461 11.5788 510 88.0784 1077.92 542.563
150 0 45.0883 10.5792 477 89.0063 1076.84 543.237
151 0 43.1266 9.08953 392 92.4643 1075.41 542.176
152 0 47.0296 11.3758 535 88.243 1073.41 540.316
153 0 48.052 10.2181 491 91.6884 1072.93 537.257
154 0 51.0304 13.3058 679 85.7025 1073.13 536.624
155 0 50.1517 13.5589 680 88.1838 1072.55 533.215
156 0 50.1067 12.8925 646 88.0898 1071.37 529.347
157 0 52.0938 12.2279 637 88.7944 1073.22 527.813
158 0 55.0758 13.6176 750 86.2333 1074.16 529.843
159 0 53.0591 12.7594 677 88.8848 1076.35 527.988
160 0 55.0577 13.2588 730 88.7507 1077.08 526.434
161 0 57.2124 14.6472 838 86.8353 1081.53 526.242
162 0 59.235 13.5899 805 88.4 1084.09 528.137
163 0 60.1468 13.0348 784 89.7028 1086.79 526.773
164 0 64.1874 14.0682 903 87.5349 1089.37 529.805
165 0 66.1145 14.8984 985 86.1848 1090.92 528.52
166 0 65.1692 13.4113 874 90.6854 1092.15 523.746
167 0 67.0984 14.5756 978 88.6043 1093.12 527.6
168 0 69.1024 14.2832 987 90.0142 1093.49 529.158
169 0 72.1814 14.6437 1057 89.7323 1093.73 525.485
170 0 73.0876 14.4074 1053 91.2004 1092.75 527.096
171 0 73.0876 14.339 1048 140.496 1090.73 527.056
172 0 79.1364 14.5319 1150 90.8783 1090.51 525.464
173 0 83.1279 14.8205 1232 89.3458 1089.54 524.188
174 0 84.3275 12.6293 1065 95.8122 1088.41 521.973
175 1 42.0924 11.2134 472 94.9555 1085.54 543.002
176 0 45.0631 11.8279 533 92.7824 1084.11 543.265
177 0 48.0363 12.2824 590 91.0712 1082.69 541.822
178 0 48.0248 13.972 671 86.994 1079.6 540.464
179 0 48.0729 14.2076 683 88.1318 1078.31 541.269
180 0 48.0449 12.8005 615 87.4374 1077.33 538.997
181 0 51.0622 12.2008 623 88.0417 1075.36 539.388
182 0 52.0222 12.4562 648 88.7809 1072.67 536.477
183 0 53.0454 12.7815 678 88.0251 1071.65 533.314
184 0 54.17 12.5161 678 88.5605 1069.72 530.873
185 0 58.1272 13.2468 770 86.2 1068.45 530.971
186 0 58.0916 12.6008 732 89.4208 1068.51 527.456
187 0 61.0911 13.2098 807 88.28 1068.58 525.685
188 0 63.1177 13.1976 833 88.9196 1068.3 523.552
189 0 66.0542 12.6411 835 90.3784 1069.36 521.57
190 0 67.081 14.2812 958 88.405 1070.42 522.379
191 0 70.0812 14.9683 1049 88.4204 1070.97 518.05
192 0 72.176 13.5502 978 91.5481 1073.36 517.771
193 0 73.1677 15.362 1124 90.0934 1075.06 514.102
194 0 76.0962 16.4134 1249 88.9632 1077 515.22
195 0 80.1396 15.0737 1208 92.005 1079.35 512.25
196 0 83.0771 14.324 1190 94.5689 1083.4 516.09
197 0 86.1935 16.0801 1386 91.4906 1085.98 514.717
198 0 86.1501 13.4765 1161 99.0491 1088 513.164
199 1 45.0768 10.6485 480 99.4021 1092.9 536.833
200 0 49.0188 9.71056 476 102.242 1095.23 536.103
201 0 48.1374 10.2207 492 103.093 1095.03 535.193
202 0 52.0594 12.3705 644 98.2997 1095.6 537.374
203 0 52.0899 11.9601 623 101.035 1096.57 536.82
204 0 56.0392 13.1694 738 94.2751 1095.73 537.648
205 0 54.0444 12.8413 694 96.2767 1094.22 537.517
206 0 57.0757 13.4908 770 91.6429 1090.75 536.826
207 0 59.13 13.8677 820 91.061 1089.1 535.163
208 0 61.1142 14.9065 911 89.1943 1087.59 535.159
209 0 62.1494 13.371 831 92.4597 1085.76 536.584
210 0 65.0843 14.1509 921 90.6048 1083.39 534.092
211 0 65.0843 14.197 924 143.348 1081.38 534.066
212 0 71.1249 13.8208 983 90.4822 1079.83 527.739
213 0 74.177 14.2362 1056 89.7519 1075.41 530.532
214 0 75.2067 13.3632 1005 91.6776 1075.42 530.456
215 0 78.1886 12.9814 1015 92.6207 1073.63 525.798
216 0 78.1886 12.9303 1011 149.043 1071.63 525.731
217 0 84.16 13.3674 1125 92.6267 1072.02 522.536
218 0 87.1993 12.6492 1103 93.5712 1069.19 519.697
219 1 43.0442 10.3847 447 90.9866 1068.14 539.653
220 0 44.4522 8.25607 367 94.8065 1068.19 537.245
221 0 48.2511 10.6319 513 90.7934 1068.22 535.351
222 0 47.064 12.5149 589 88.0374 1072.2 534.384
223 0 48.027 11.1187 534 90.7996 1069.71 531.71
224 0 52.2311 14.455 755 84.404 1071.87 530.804
225 0 52.0529 13.1405 684 85.5643 1073.93 529.585
226 0 53.0786 12.2648 651 87.5622 1075.76 529.992
227 0 53.0228 12.6738 672 87.4896 1078.86 528.625
228 0 57.0523 12.7076 725 86.2483 1081.74 527.982
229 0 58.1203 12.7838 743 86.9865 1084.33 528.013
230 0 59.1433 13.0361 771 87.275 1087.43 530.014
231 0 62.0477 13.7636 854 84.5831 1089.14 528.349
232 0 64.1574 14.2774 916 83.8865 1089.93 527.856
233 0 66.1232 13.4295 888 85.0935 1091.56 527.305
234 0 68.0836 13.4247 914 84.7932 1092.38 527.685
235 0 73.0781 14.3956 1052 82.8099 1092.74 528.929
236 1 33.0142 7.48164 247 91.332 1089.77 546.919
237 0 38.0385 11.3832 433 85.4988 1089.44 546.182
238 0 37.0122 8.67282 321 89.729 1088.32 547.389
239 0 38.022 10.415 396 87.9167 1085.9 545.576
240 0 40.1111 11.5928 465 89.5355 1087.8 546.269
241 0 43.0365 11.1998 482 90.3838 1086.32 547.994
242 0 44.0508 11.5321 508 90.3957 1083.36 545.002
243 0 44.1153 10.7219 473 86.3763 1082.18 547.808
244 0 43.1189 10.529 454 120.183 1080.17 547.311
245 0 47.122 12.0326 567 86.4956 1079.2 543.945
246 0 47.0889 11.2553 530 86.8283 1076.88 546.234
247 0 50.0995 11.8764 595 86.1748 1076.19 543.945
248 0 51.1427 13.3939 685 83.9679 1072.92 540.997
249 0 51.0852 11.2166 573 87.9232 1073.01 541.218
250 0 51.1462 10.773 551 89.5699 1071.75 538.343
251 0 54.1455 12.411 672 87.9524 1072.4 534.592
252 0 55.1441 12.5852 694 86.7089 1070.81 535.682
253 0 58.0907 13.2379 769 85.5904 1069.39 533.815
254 0 60.1376 13.6021 818 85.1699 1068.15 528.744
255 0 62.167 13.7694 856 85.0724 1068.49 527.308
256 0 63.1353 13.574 857 86.2404 1069.81 526.169
257 0 65.2942 13.3243 870 86.3058 1070.63 524.391
258 0 67.1908 14.5705 979 86.1226 1071.83 522.754
259 0 68.1766 14.2424 971 87.2791 1072.91 520.911
260 0 70.1917 12.9075 906 90.7572 1075.13 522.098
261 0 72.2129 13.6679 987 89.85 1077.78 519.704
262 0 75.1675 14.0885 1059 89.6969 1081.01 519.189
263 0 77.2389 12.9598 1001 92.3976 1083.87 520.651
264 1 42.0742 9.31688 392 96.6454 1085.93 538.538
265 0 44.0915 12.0205 530 95.8849 1088.96 535.966
266 0 48.0325 12.3875 595 94.7008 1091.43 534.659
267 0 45.0932 11.7313 529 98.2306 1092.89 537.631
268 0 48.1346 13.857 667 91.7076 1091.27 536.157
269 0 51.1323 14.218 727 91.0413 1092.31 537.945
270 0 50.217 14.4174 724 91.7942 1088.34 539.39
271 0 54.1039 13.511 731 92.6046 1089.47 541.654
272 0 54.0837 14.3481 776 92.9562 1089.45 536.889
273 0 56.0878 13.5858 762 93.8543 1086.32 539.884
274 0 57.113 13.1494 751 95.8882 1085.34 539.238
275 0 59.1906 14.3097 847 94.3447 1084.07 536.705
276 0 61.031 14.1076 861 93.6307 1081.46 537.446
277 0 61.0459 13.8748 847 94.9138 1079.55 534.248
278 0 64.1182 14.5045 930 92.7333 1078.33 534.899
279 0 66.0702 14.1214 933 93.2111 1077.21 533.315
280 0 67.1646 13.6084 914 94.8074 1075.97 533.206
281 0 71.0884 15.0798 1072 91.6875 1074.23 532.068
282 0 72.0782 15.2335 1098 92.8461 1072.44 528.866
283 0 72.0782 15.1918 1095 145.854 1071.45 528.854
284 0 78.081 13.4348 1049 95.653 1070.54 526.484
285 1 41.0372 12.2084 501 97.4072 1068.24 540.311
286 0 41.0516 10.0849 414 99.2464 1068.62 539.691
287 0 45.0471 10.4335 470 100.051 1068.15 537.408
288 0 44.113 11.9693 528 98.4678 1068.34 534.623
289 0 49.0619 12.1683 597 95.9715 1068.25 534.002
290 0 49.0392 10.9708 538 98.4591 1069.05 534.844
291 0 50.0448 12.2091 611 98.1178 1069.25 532.365
292 0 51.404 11.7112 602 96.8721 1073.89 529.706
293 0 53.2824 12.612 672 95.0833 1075.46 529.625
294 0 54.1544 15.6589 848 90.2689 1076.8 526.142
295 0 58.1987 15.722 915 88.0164 1080.9 530.321
296 0 57.2785 12.6051 722 95.1427 1083.09 530.522
297 0 61.2897 14.9128 914 89.3742 1086 527.897
298 0 62.1972 13.5537 843 92.5575 1088.18 527.509
299 0 65.309 15.1281 988 89.6053 1090.23 527.116
300 0 65.2809 13.9244 909 92.0605 1092.99 527.415
301 0 69.2669 14.1482 980 91.9194 1092.49 529.031
302 0 68.2713 13.5635 926 94.3186 1093.54 530.765
303 0 72.2506 14.422 1042 92.6017 1093.93 528.274
304 0 75.2473 14.4191 1085 92.1115 1094.57 530.103
305 0 78.3484 14.844 1163 91.8117 1091.71 525.705
306 0 81.3309 15.4308 1255 91.0104 1090.94 524.016
307 0 81.2683 14.0522 1142 94.3538 1090.35 524.764
308 0 86.3726 14.3217 1237 92.5028 1087.62 522.144
309 0 88.4699 13.8126 1222 93.5065 1085.31 523.138
310 0 93.3757 15.1753 1417 90.8179 1082.61 523.315
311 0 94.4768 14.2786 1349 93.6071 1080.95 519.42
312 0 96.3467 14.0015 1349 94.3432 1079.94 516.612
313 1 53.0761 12.3031 653 91.9326 1079.78 538.897
314 0 52.3962 11.0313 578 95.3529 1078.72 539.998
315 0 53.3582 10.3827 554 94.843 1076.36 538.776
316 0 54.2312 10.4921 569 94.4692 1075.83 533.626
317 0 58.2264 12.0049 699 90.8612 1073.62 532.914
318 0 62.1668 14.0429 873 87.9267 1072.21 533.244
319 0 60.2556 12.198 735 93.2109 1071.01 527.288
320 0 64.195 13.5992 873 87.0871 1070.99 526.281
321 0 67.2307 12.9405 870 89.2701 1071.35 522.299
322 0 69.2304 13.3034 921 90.2508 1070.43 520.309
323 0 71.2063 13.6645 973 90.2919 1070.01 516.063
324 0 74.3312 14.7583 1097 88.5269 1069.69 515.331
325 0 75.2603 13.1278 988 92.1953 1070.68 512.327
326 0 76.2098 12.7805 974 93.8973 1072.19 511.753
327 0 81.208 15.134 1229 90.821 1074.45 512.12
328 0 84.228 14.5082 1222 92.6907 1077.39 509.692
329 0 87.2942 14.2048 1240 94 1079.38 507.659
330 0 89.1558 15.658 1396 92.7514 1082.73 506.334
331 0 93.1709 13.5665 1264 96.6187 1085.64 507.006
332 1 51.1475 10.9878 562 97.3434 1089.41 531.416
333 0 54.1961 9.52098 516 100.816 1091.01 529.769
334 0 54.1237 10.125 548 99.3595 1092.06 534.474
335 0 56.0766 10.9136 612 99.2304 1091.88 533.389
336 0 58.0231 11.6678 677 98.771 1092.39 532.307
337 0 59.1271 12.211 722 98.3283 1093.35 534.371
338 0 61.1473 12.0856 739 98.7808 1092.34 533.663
339 0 64.2174 12.7691 820 96.2537 1090.82 533.211
340 0 66.1078 13.5082 893 94.8936 1090.18 533.314
341 0 67.0824 13.4909 905 94.0155 1088.4 532.92
342 0 70.1526 14.5967 1024 92.4316 1085.5 533.194
343 0 71.117 12.9646 922 95.4436 1084.08 532.655
344 0 73.0815 12.7939 935 95.6877 1083.07 531.199
345 0 77.1094 13.8764 1070 93.3075 1080.78 528.298
346 0 78.1637 14.6104 1142 93.6235 1078.12 528.316
347 0 80.12 15.4019 1234 93.9336 1077.68 527.583
348 0 83.168 14.116 1174 95.8842 1076.39 525.994
349 0 84.3255 14.9184 1258 94.3482 1074.98 525.134
350 0 88.222 15.9484 1407 92.6859 1073.01 520.102
351 0 89.2147 15.2441 1360 94.2309 1072.14 519.584
352 0 92.184 13.9395 1285 97.214 1070.13 515.292
353 1 51.0669 9.73233 497 99.1207 1069.9 535.75
354 0 52.1374 10.8368 565 97.269 1068.43 533.588
355 0 54.0925 10.556 571 97.2872 1068.67 533.597
356 0 53.1111 10.8264 575 97.9426 1069.59 529.181
357 0 57.0289 11.2224 640 96.4797 1070.32 526.178
358 0 60.0951 13.1126 788 88.5761 1070.99 524.499
359 0 61.1792 13.1254 803 87.0822 1072.45 527.421
360 0 62.2277 13.2256 823 87.3123 1075.11 523.464
361 0 64.205 14.0176 900 85.1967 1076.75 519.811
362 0 66.28 15.8721 1052 82.1074 1078.86 518.695
363 0 67.1805 14.6025 981 85.0581 1082.15 521.56
364 0 70.1767 14.8767 1044 84.66 1085.28 520.608
365 0 71.1892 13.415 955 87.0115 1087.66 522.624
366 0 73.2016 14.4123 1055 86.2938 1090.04 519.044
367 0 75.1724 14.4601 1087 86.7571 1090.98 521.551
368 0 81.1605 14.8225 1203 86.3658 1093.17 521.751
369 0 83.2264 14.8751 1238 86.857 1093.07 522.262
370 0 85.2126 16.6407 1418 85.6996 1092.68 520.313
371 0 89.1827 16.4382 1466 87.618 1091.92 520.432
372 0 91.1332 14.8025 1349 90.1231 1090.28 520.182
373 1 47.0474 9.37353 441 95.3424 1089.6 544.896
374 0 51.0149 11.1144 567 95.7496 1088.28 543.801
375 0 53.0521 10.6499 565 97.0566 1086.01 542.85
376 0 57.0449 11.8854 678 95.3496 1084.42 541.062
377 0 57.1709 11.5093 658 97.4225 1082.18 540.578
378 0 58.0657 12.6236 733 92.6207 1080.59 540.467
379 0 62.0328 14.0087 869 88.9402 1079.61 539.13
380 0 62.0822 14.207 882 87.0363 1076.7 539.222
381 0 65.1995 13.2977 867 89.8754 1073.68 536.551
382 0 67.0684 14.7163 987 87.615 1072.04 532.817
383 0 69.063 15.1601 1047 86.3859 1070.96 531.809
384 0 69.088 13.3019 919 90.8509 1070.11 531.556
385 0 72.1843 14.6569 1058 88.6654 1068.4 530.598
386 0 74.066 14.7571 1093 89.7795 1067.06 528.671
387 0 76.0941 13.1548 1001 92.7812 1067.05 526.165
388 0 78.085 13.972 1091 90.879 1066.11 521.577
389 0 82.1148 14.5163 1192 89.047 1066.14 518.584
390 0 86.0553 15.3622 1322 87.031 1066.77 517.502
391 0 86.2124 12.6316 1089 91.5602 1066.47 515.525
392 1 48.1444 8.70299 419 94.6874 1067.55 535.091
393 0 50.0878 11.6396 583 91.6501 1069.19 532.638
394 0 52.0922 10.0975 526 94.5323 1071.55 532.224
395 0 54.1086 12.1792 659 90.8756 1074.88 531.281
396 0 56.1698 12.9607 728 91.4506 1077.45 528.365
397 0 57.1256 13.7767 787 86.3227 1079.2 525.598
398 0 58.0717 12.8462 746 87.3043 1082.35 529.625
399 0 59.0731 13.3563 789 87.5665 1084.75 527.787
400 0 63.174 12.7584 806 86.9752 1086.9 528.514
401 0 65.0914 14.1954 924 84.3398 1089.07 528.224
402 0 67.2426 15.2136 1023 82.9453 1089.55 529.946
403 0 68.124 14.5617 992 84.5726 1089.94 529.016
404 0 71.0811 13.4494 956 86.4759 1089.3 530.366
405 0 72.0997 13.8419 998 85.9559 1088.61 528.631
406 0 75.1192 13.8713 1042 85.1497 1088.07 527.25
407 0 78.2021 13.6441 1067 85.1949 1085.14 528.701
408 0 79.1433 12.8375 1016 87.3071 1083.66 526.489
409 0 86.1094 14.5048 1249 83.0769 1081.54 526.448
410 0 88.2749 13.9111 1228 84.8037 1079.74 523.723
411 0 89.1389 12.43 1108 88.4305 1078.02 522.653
412 0 93.1455 14.3217 1334 85.6589 1076.98 521.687
413 0 95.1821 13.9837 1331 86.7483 1075.41 520.056
414 1 49.3521 13.2517 654 83.0505 1076.71 538.159
415 0 49.1743 13.381 658 81.5973 1075.34 539.125
416 0 50.0167 12.3559 618 81.9741 1073.96 542.392
417 0 51.0711 12.9623 662 82.6193 1071.96 536.202
418 0 52.0757 11.6561 607 85.0461 1071.24 536.984
419 0 52.1322 12.4491 649 84.1726 1069.89 534.824
420 0 56.2218 14.2471 801 79.8252 1069.47 531.362
421 0 56.1321 12.3815 695 83.7194 1069.22 532.324
422 0 57.2094 13.1447 752 82.7952 1069.61 531.757
423 0 60.1444 14.1659 852 82.0974 1067.94 531.604
424 0 61.142 13.7385 840 82.969 1068.5 527.604
425 0 62.0398 13.2657 823 84.5784 1069.1 525.503
426 0 64.1409 13.4548 863 84.416 1070.78 524.008
427 0 66.1034 13.3881 885 85.8271 1071.82 522.321
428 0 69.0618 15.1314 1045 82.8699 1074.67 523.142
429 0 71.2495 13.6141 970 85.9381 1078.68 521.931
430 0 73.0998 14.7196 1076 85.5781 1080.16 520.704
431 0 73.0998 14.7059 1075 136.745 1082.17 520.734
432 0 79.194 14.1299 1119 87.5862 1087.34 519.621
433 0 81.1954 14.1634 1150 88.8504 1088.96 521.145
434 1 41.122 10.2378 421 95.3967 1091.78 540.634
435 0 46.061 11.8756 547 90.6892 1092.65 541.75
436 0 46.0382 9.7745 450 96.44 1093.24 542.278
437 0 48.0393 11.6779 561 92.7398 1092.46 542.715
438 0 46.1558 10.1612 469 96.8657 1090.66 545.678
439 0 51.3075 14.0915 723 88.5422 1089.02 543.584
440 0 50.15 12.4826 626 86.8355 1085.67 542.163
441 0 53.0443 15.1571 804 83.1244 1084.53 540.835
442 0 53.0894 12.5449 666 88.8348 1082.61 542.605
443 0 55.0486 13.1157 722 87.3269 1081.2 542.979
444 0 56.0736 13.4466 754 87.5557 1079.33 539.931
445 0 56.1878 14.06 790 87.2076 1077.72 537.952
446 0 59.0611 12.9019 762 89.2822 1076.04 541.163
447 0 59.1364 11.8539 701 91.9743 1074.36 538.638
448 0 61.1918 13.1227 803 89.9228 1072.66 537.914
449 0 62.1452 12.5673 781 90.8745 1071.97 536.487
450 0 64.127 12.023 771 93.5396 1070.8 530.047
451 0 68.0824 13.8655 944 89.7013 1069.78 529.323
452 0 68.1642 10.8415 739 94.0014 1068.48 531.449
453 1 39.0311 10.9656 428 92.6355 1065.39 543.474
454 0 38.0362 9.56983 364 95.9093 1065.04 543.786
455 0 39.0714 10.1609 397 95.7683 1065.67 543.179
456 0 40.0553 11.3343 454 95.5154 1065.29 536.645
457 0 42.0544 11.0571 465 95.4667 1065.81 536.57
458 0 45.0526 11.5643 521 92.6084 1067.53 536.566
459 0 45.0402 12.0559 543 93.3462 1067.56 534.875
460 0 47.1589 12.1292 572 97.8444 1068.89 531.712
461 0 50.0312 11.213 561 99.2335 1072.06 532.804
462 0 51.1071 13.9511 713 92.6606 1074.81 532.602
463 0 52.0619 12.7348 663 96.3484 1077.09 534.507
464 0 53.0939 13.5232 718 95.1866 1080.66 533.287
465 0 53.0684 14.2269 755 95.0781 1084.16 530.342
466 0 57.0598 13.3018 759 95.697 1086.74 532.128
467 0 56.1108 12.511 702 98.6382 1087.74 533.621
468 0 58.0859 13.4456 781 97.9795 1089.19 533.141
469 0 58.0817 13.4466 781 152.496 1090.17 533.108
470 0 63.0373 13.7379 866 95.903 1088.76 533.038
471 0 64.1118 14.2563 914 96.2648 1088.43 532.873
472 0 66.0593 15.1985 1004 94.3118 1087.75 531.929
473 0 68.0792 14.2187 968 96.1798 1087.1 533.766
474 0 70.0973 13.8807 973 96.7616 1085.4 532.64
475 0 74.0496 13.3964 992 97.128 1083.02 530.492
476 0 76.075 14.8012 1126 95.754 1080.84 531.709
477 0 79.0769 13.645 1079 97.7563 1079.3 530.669
478 1 41.0341 10.3573 425 98.2541 1077.88 547.544
479 0 43.0318 8.55182 368 100.693 1076.51 547.989
480 0 46.0597 10.6818 492 97.126 1073.79 546.63
481 0 47.0429 11.075 521 97.6641 1072.22 546.315
482 0 47.037 11.289 531 98.2072 1071.37 545.704
483 0 50.077 11.7419 588 97.6514 1069.93 542.002
484 0 54.0379 14.1012 762 90.5906 1068.9 541.9
485 0 53.0491 12.4225 659 96.3278 1068.44 541.519
486 0 53.1086 13.8207 734 88.1962 1068.27 541.406
487 0 56.1369 13.7699 773 87.8008 1068.29 535.862
488 0 55.0952 12.9594 714 89.2927 1065.31 533.584
489 0 57.0396 13.6572 779 87.6303 1065.56 532.18
490 0 59.0706 13.6786 808 87.5 1066 531.531
491 0 59.0776 13.9139 822 88.1168 1066.53 526.983
492 0 61.1141 13.6793 836 89.2931 1066.87 527.297
493 0 62.0839 13.369 830 89.9916 1067.99 525.802
494 0 64.0843 13.7631 882 89.6553 1070.71 526.887
495 0 67.0913 13.3698 897 89.9097 1072.38 525.104
496 0 69.0692 13.9715 965 89.1233 1074.84 524.375
497 0 70.0774 14.2842 1001 90.4036 1077.78 519.826
498 0 74.0778 14.6873 1088 89.1397 1080.03 523.462
499 0 73.0922 12.2585 896 96.125 1082.51 524.633
500 0 78.1243 14.7841 1155 91.8121 1084.43 521.394
501 0 79.1537 13.1769 1043 95.9645 1087.37 522.593
502 0 83.1333 13.7009 1139 94.4636 1088.44 523.018
503 1 42.0599 9.748 410 95.922 1087.99 545.585
504 0 43.0138 9.78756 421 98.791 1088.84 544.028
505 0 47.0323 11.2901 531 96.8475 1087.09 544.493
506 0 48.0722 12.2108 587 97.9029 1086.8 542.852
507 0 50.1764 13.7714 691 94.6426 1085.82 545.247
508 0 52.093 13.3799 697 95.4103 1084.21 542.719
509 0 53.4169 12.3931 662 97.7976 1084.63 543.057
510 0 54.4102 12.8652 700 97.8386 1081.13 543.374
511 0 55.4991 12.829 712 99.1152 1078.88 541.18
512 0 60.517 14.7727 894 94.217 1077.84 539.369
513 0 60.4777 13.443 813 98.6052 1077.03 538.82
514 0 63.4856 13.9559 886 98.035 1073.91 535.804
515 0 66.3384 14.8481 985 95.8741 1073.28 537.73
516 0 66.4815 13.4173 892 99.8644 1072.14 535.238
517 0 67.5738 13.6147 920 100.208 1071.21 534.648
518 0 72.3822 15.2109 1101 95.9855 1070.63 532.405
519 0 71.2944 13.6056 970 101.424 1068.32 530.373
520 0 76.2715 15.1564 1156 97.955 1067.85 526.284
521 0 76.4404 13.8016 1055 102.81 1068.59 524.557
522 0 80.3005 14.9812 1203 99.5877 1067.41 519.471
523 0 82.3552 14.3282 1180 101.569 1066.04 518.886
524 0 84.3796 13.5341 1142 103.51 1066.92 516.299
525 0 87.2925 15.1101 1319 100.465 1068.04 514.736
526 0 89.3201 14.8903 1330 102.082 1067.56 514.909
527 0 95.2799 17.5063 1668 95.2428 1069.66 511.733
528 0 96.4178 14.2608 1375 103.082 1072.03 509.257
529 1 52.0457 11.2017 583 100.614 1076.13 533.118
530 0 50.1898 10.022 503 104.855 1079.67 530.491
531 0 56.1178 12.153 682 98.7317 1082.06 532.169
532 0 55.0728 11.6936 644 99.7764 1085.19 534.528
533 0 60.2664 14.0211 845 94.6675 1085.9 532.95
534 0 61.1323 12.9719 793 93.6204 1085.34 533.313
535 0 64.0844 15.0895 967 95.0424 1085.88 531.598
536 0 66.1197 14.3528 949 96.8746 1087.28 530.244
537 0 66.0953 12.4063 820 102.227 1087.25 531.432
538 0 70.0587 14.8732 1042 96.8992 1087.3 530.038
539 0 71.0817 15.025 1068 98.0861 1086.72 532.346
540 0 74.0724 14.8773 1102 98.5926 1085.34 532.78
541 0 77.0849 15.5283 1197 97.9407 1083.86 529.038
542 0 80.0542 14.4777 1159 98.1588 1081.64 534.84
543 0 83.1584 14.9835 1246 98.8475 1080.5 530.795
544 0 84.1812 15.5973 1313 98.5301 1076.9 528.954
545 0 86.2394 15.2367 1314 100.472 1075.55 525.771
546 0 91.1139 17.6702 1610 94.3366 1073.82 525.934
547 0 93.1182 15.6575 1458 98.1379 1073.49 527.352
548 1 53.075 10.4757 556 100.462 1073.13 548.782
549 0 55.0559 12.8415 707 98.9279 1069.99 544.446
550 0 54.1195 9.75618 528 104.606 1069.07 542.144
551 0 57.1574 12.8942 737 98.6961 1068.09 539.487
552 0 60.2751 12.6254 761 99.5716 1066.86 538.61
553 0 61.079 14.2438 870 99.8195 1065.84 533.897
554 0 64.0983 13.5105 866 98.9411 1064.27 532.135
555 0 64.2314 14.3388 921 98.8035 1065.53 528.498
556 0 65.3679 13.9365 911 99.5774 1065.44 528.254
557 0 66.2113 12.2789 813 102.351 1065.45 525.689
558 0 69.2568 13.9337 965 98.9927 1066.78 522.608
559 0 72.2553 14.1581 1023 97.8485 1068.07 523.877
560 0 74.2162 14.4308 1071 97.7059 1067.88 517.317
561 0 77.1467 14.6215 1128 97.6401 1069.18 518.609
562 0 79.2113 15.3009 1212 97.2145 1070.92 519.341
563 0 83.1688 14.8373 1234 98.7391 1074.84 516.936
564 0 86.2149 13.42 1157 100.94 1077.8 517.099
565 0 86.1974 15.0004 1293 99.6388 1080.42 516.166
566 0 89.1314 14.9891 1336 99.8862 1082.69 513.842
567 0 94.1713 15.6736 1476 97.6694 1084.93 515.253
568 1 51.2209 10.933 560 101.039 1087.99 541.941
569 0 54.0632 11.5975 627 101.407 1087.24 536.392
570 0 55.1493 12.7835 705 96.0965 1088.73 540.601
571 0 56.071 12.5198 702 94.5328 1089.01 539.516
572 0 59.094 13.4701 796 91.0163 1086.57 537.477
573 0 61.184 13.5983 832 93.6611 1088.15 539.587
574 0 64.0986 14.7429 945 89.7217 1087.53 538.635
575 0 64.0879 13.7935 884 92.4649 1085.39 538.723
576 0 66.051 13.7318 907 92.3528 1082.9 537.503
577 0 73.1652 16.6063 1215 86.6716 1080.75 535.021
578 0 71.1367 15.0555 1071 91.7358 1079.7 535.43
579 0 76.19 15.4351 1176 90.5782 1077.5 531.874
580 0 78.2918 16.579 1298 88.131 1076.23 531.975
581 0 80.2274 14.0725 1129 93.4562 1075.1 532.503
582 0 82.2677 14.0517 1156 94.4645 1073.78 529.197
583 0 86.197 15.685 1352 91.6154 1072.77 526.774
584 1 46.0884 10.5233 485 97.5835 1070.82 545.282
585 0 46.1416 11.3347 523 98.2333 1069.53 541.325
586 0 48.0871 10.1691 489 98.454 1069.67 541.712
587 0 52.1504 11.6011 605 96.8529 1069.26 540.05
588 0 51.0404 11.5987 592 97.3784 1069.61 539.193
589 0 53.0893 12.2812 652 96.273 1069.74 538.621
590 0 55.1531 13.7436 758 91.6187 1070.27 533.112
591 0 55.2481 12.6882 701 91.9943 1069.33 531.456
592 0 56.1795 13.3679 751 91.2756 1070.73 529.924
593 0 60.245 13.2459 798 91.2982 1071.02 529.612
594 0 61.1414 13.2643 811 91.3305 1071.22 527.67
595 0 61.1649 13.39 819 91.3761 1073.88 528.009
596 0 62.2384 14.3159 891 91.147 1075.89 526.358
597 0 65.2176 13.5239 882 91.8866 1078.38 525.781
598 0 68.2636 14.5172 991 90.5338 1081.82 522.901
599 0 71.148 16.037 1141 87.9141 1085.51 526.471
600 0 71.2487 13.3195 949 93.6375 1086.24 524.899
601 0 74.241 13.8333 1027 93.5764 1089.05 529.255
602 0 75.2605 14.3767 1082 93.4529 1090.66 521.429
603 0 79.1895 14.1433 1120 93.9009 1091.55 525.927
604 0 83.168 14.5248 1208 93.7881 1092.03 523.135
605 1 45.1818 9.95977 450 96.3222 1092.53 547.427
606 0 41.0996 9.12417 375 162.069 1091.57 545.68
607 0 47.046 11.8607 558 96.4677 1089.8 543.312
608 0 49.0404 12.4183 609 95.046 1087.9 547.025
609 0 50.1955 12.2123 613 93.3263 1085.42 543.679
610 0 52.2593 12.6867 663 90.6652 1082.88 543.555
611 0 54.4738 12.8319 699 90.269 1081.69 542.884
612 0 56.0494 12.4176 696 92.5474 1080.2 542.037
613 0 59.149 13.7111 811 88.6362 1078.46 539.703
614 0 62.15 13.6283 847 87.6753 1076.73 539.828
615 0 62.15 13.7249 853 132.965 1074.75 539.782
616 0 66.2358 14.6295 969 85.4675 1074.05 533.93
617 0 65.2882 12.5137 817 88.9009 1070.45 532.895
618 0 68.365 13.4718 921 86.7894 1070.13 532.47
619 0 71.3507 14.5619 1039 85.3292 1069 527.76
620 0 72.3506 13.5175 978 86.8548 1068.59 526.282
621 0 74.2129 12.9762 963 87.621 1068.53 523.789
622 0 78.2845 14.1152 1105 85.1077 1068.37 523.151
623 0 79.1754 13.9437 1104 86.3696 1068.3 518.904
624 0 83.2909 13.8671 1155 85.9628 1068.39 519.894
625 1 44.0979 9.77371 431 90.6009 1070.64 536.35
626 0 44.0462 9.53544 420 91.1024 1071.91 536.183
627 0 48.0451 11.0937 533 89.8124 1072.37 534.182
628 0 50.0541 11.2278 562 90.1886 1072.73 534.08
629 0 50.0803 12.4201 622 91.4019 1074.97 529.109
630 0 55.0675 13.5107 744 87.3091 1074.78 525.789
631 0 53.0837 11.6985 621 85.5781 1078.67 529.47
632 0 56.0694 13.3584 749 83.4873 1080.6 531.519
633 0 56.0506 12.0605 676 84.6731 1083.92 531.669
634 0 59.1035 12.0636 713 84.0799 1086.16 533.345
635 0 60.1212 12.192 733 85.4461 1087.94 534.926
636 0 61.1592 11.7562 719 85.8804 1087.97 534.477
637 0 64.1366 11.647 747 85.6345 1089.16 533.747
638 0 65.0314 13.2398 861 84.5993 1089.76 532.71
639 0 70.1437 12.3746 868 86.1647 1089.43 531.626
640 0 73.096 13.8311 1011 82.1424 1087.54 531.838
641 0 75.1028 11.8238 888 84.7748 1086.14 534.385
642 1 38.0241 10.02 381 88.1864 1083.77 550.388
643 0 41.0265 11.1879 459 87.3355 1082.19 546.658
644 0 42.0629 11.3164 476 85.5021 1081.19 548.387
645 0 43.0333 13.8265 595 82.1092 1076.61 548.585
646 0 45.0906 12.4194 560 82.7661 1076.08 550.536
647 0 43.1653 11.9077 514 86.8502 1074.43 545.329
648 0 48.0206 14.5771 700 79.7571 1073.3 543.924
649 0 48.0525 13.1315 631 83.2472 1072.89 545.13
650 0 49.0762 13.4892 662 81.1798 1071.08 543.409
651 0 53.0533 13.1566 698 79.2607 1068.67 541.014
652 0 52.0303 12.5119 651 82.1167 1068.67 537.091
653 0 55.0798 13.0356 718 80.5446 1068.2 535.859
654 0 57.0936 13.399 765 79.3268 1067.05 534.88
655 0 57.1477 13.8063 789 79.1115 1066.69 532.504
656 0 59.0892 13.8435 818 79.1174 1065.92 530.677
657 0 62.0651 15.7577 978 75.7188 1066.59 531.771
658 0 62.0672 14.3554 891 77.7565 1066.51 528.954
659 0 63.0844 12.3644 780 81.282 1066.99 529.156
660 0 65.1003 13.4254 874 79.8135 1067.06 526.588
661 0 67.0763 14.6848 985 78.9228 1069.64 523.441
662 0 70.3125 13.9804 983 79.9013 1070.24 523.378
663 0 72.2052 14.0156 1012 79.6917 1073.93 520.867
664 0 73.1356 13.0169 952 79.2826 1075.93 520.396
665 0 79.0987 15.1709 1200 74.9375 1079.85 518.775
666 1 37.1603 6.35087 236 86.6992 1081.93 541.14
667 0 45.0816 10.5365 475 81.84 1083.02 538.095
668 0 43.032 9.06302 390 84.4256 1086.21 541.567
669 0 45.0593 10.586 477 82.9602 1088.34 539.421
670 0 47.095 12.634 595 82.595 1090.27 538.254
671 0 52.3927 12.6353 662 81.4199 1090.09 538.838
672 0 48.1684 9.88199 476 87.3676 1090.35 543.237
673 0 53.2837 12.5554 669 83.0703 1088.77 541.664
674 0 54.1282 12.1194 656 87.7134 1087.15 541.479
675 0 56.3568 13.4323 757 84.317 1085.44 542.411
676 0 59.2268 12.7814 757 84.7728 1083.27 542.707
677 0 60.2707 13.0909 789 85.5919 1081.06 543.03
678 0 60.2308 12.9668 781 86.2561 1078.22 541.562
679 0 64.5531 14.4532 933 83.4952 1076.94 541.364
680 0 64.4497 13.3437 860 86.2919 1075.75 540.357
681 0 68.2189 13.0756 892 85.3318 1073.37 535.785
682 0 71.1603 13.842 985 83.7218 1071.35 535.857
683 0 74.1838 14.181 1052 82.9097 1070.25 532.232
684 1 40.2065 10.2968 414 83.1884 1067.22 547.742
685 0 39.1012 11.4063 446 82.6233 1066.54 546.478
686 0 40.0823 11.8257 474 82.3228 1065.81 543.101
687 0 44.0691 11.4139 503 81.3837 1065.43 542.889
688 0 43.0715 12.3748 533 80.1445 1064.98 540.51
689 0 43.0426 12.6386 544 80.4154 1068.84 541.312
690 0 46.159 12.8469 593 77.8634 1066.1 541.465
691 0 45.2928 10.7964 489 81.1125 1063.42 536.81
692 0 48.2163 12.5476 605 78.2942 1064.98 533.645
693 0 49.1923 11.1603 549 80.9162 1064.99 534.297
694 0 51.2072 13.2403 678 76.736 1065.41 533.146
695 0 53.1099 11.7681 625 80.1552 1066.95 531.256
696 0 56.088 12.2843 689 78.135 1068.66 530.369
697 0 56.1205 11.8851 667 79.1574 1071.24 528.853
698 0 59.2153 13.206 782 77.22 1074.52 530.095
699 0 60.2593 13.5747 818 77.5171 1076.96 529.544
700 0 58.0822 11.7076 680 82.0044 1078.5 528.347
701 0 65.2162 13.9689 911 76.4929 1081.54 529.299
702 0 67.177 14.0524 944 78.0477 1083.69 527.42
703 0 68.1226 14.2831 973 78.4008 1085.28 528.042
704 0 70.2145 13.7436 965 79.6746 1086.72 531.014
705 0 72.259 12.732 920 82.3956 1086.62 530.346
706 0 72.1563 12.764 921 82.6222 1086.55 529.995
707 0 77.1884 11.7893 910 83.9066 1084.91 527.911
708 0 81.1314 13.9157 1129 80.2569 1083.83 528.911
709 0 81.2271 11.0924 901 85.5294 1082.37 529.475
710 1 49.1947 8.86274 436 60.1032 1079.06 551.69
711 0 48.2617 11.2304 542 84.8672 1077.86 547.395
712 0 48.1853 11.8916 573 81.3595 1077.34 549.841
713 0 52.3574 12.8349 672 79.6711 1077.09 546.039
714 0 54.1847 13.1218 711 79.5035 1075.11 545.692
715 0 52.1878 12.3017 642 82.9424 1074.94 542.48
716 0 54.2518 11.3729 617 84.6191 1072.7 543.36
717 0 56.2695 13.542 762 81.8123 1070.13 541.177
718 0 57.1877 12.5377 717 84.1325 1070.39 540.191
719 0 59.0726 11.562 683 87.6676 1067.65 539.091
720 0 62.285 13.5827 846 83.3144 1068.4 536.161
721 0 65.2189 13.9223 908 83.6211 1067.36 532.61
722 0 65.2412 14.4387 942 83.3132 1067.24 528.618
723 0 68.222 14.614 997 81.8997 1066.02 530.672
724 0 69.1917 13.2964 920 84.3902 1066.73 526.483
725 0 72.2189 14.4699 1045 82.1368 1065.73 524.683
726 0 74.2352 14.6561 1088 82.5404 1065.88 524.032
727 0 75.247 12.8377 966 86.3861 1066.59 522.051
728 0 77.1806 13.9154 1074 84.3901 1067.73 519.217
729 1 40.0842 11.5507 463 85.4989 1071.45 538.339
730 0 45.1511 10.2766 464 83.7651 1072.53 536.985
731 0 45.1003 11.3968 514 82.8191 1075.59 537.446
732 0 47.1566 11.7693 555 83.8198 1077.96 538.076
733 0 48.0408 11.3237 544 84.5129 1080.98 538.276
734 0 50.1621 11.5625 580 82.7414 1083.21 535.476
735 0 54.0338 12.8993 697 79.6054 1084.64 537.469
736 0 53.1377 13.2298 703 80.1764 1083.86 534.688
737 0 55.1295 13.6225 751 78.9174 1085.95 537.073
738 0 57.1073 14.464 826 76.9661 1086.09 537.884
739 0 59.0478 13.0572 771 79.5045 1087.54 538.375
740 0 61.1324 14.5586 890 77.7427 1086.54 539.254
741 0 64.2171 13.4544 864 79.0799 1084.93 538.447
742 0 66.1334 14.3498 949 79.4046 1083.49 538.642
743 0 69.1135 12.8195 886 81.0892 1081.97 540.084
744 0 70.1722 12.6688 889 81.6108 1081.21 541.009
745 0 73.1215 13.1152 959 80.926 1078.74 537.653
746 0 76.2781 14.8666 1134 79.3113 1076.55 535.629
747 0 79.0928 14.856 1175 78.5608 1073.93 533.118
748 1 40.087 10.2278 410 84.8756 1072.4 552.851
749 0 45.2504 11.7126 530 81.6019 1071.42 549.742
750 0 45.1651 11.5133 520 85.05 1069.83 549.527
751 0 46.1905 12.6216 583 83.3945 1068.55 547.228
752 0 49.3342 12.1214 598 83.9649 1068.58 546.323
753 0 47.4744 13.1229 623 80.6388 1069.1 541.867
754 0 50.2286 13.9164 699 84.2575 1067.05 541.276
755 0 51.0391 13.617 695 85.5309 1064.79 540.24
756 0 53.1039 14.2927 759 83.8221 1064.19 541.318
757 0 55.0757 14.4165 794 84.6436 1063.98 537.422
758 0 55.0403 14.3531 790 86.1228 1064.6 537.22
759 0 56.0693 14.4999 813 86.2435 1065.38 535.175
760 0 57.2537 14.0952 807 87.2429 1065.02 532.625
761 0 57.146 13.1768 753 90.1301 1065.78 532.149
762 0 60.2694 14.8832 897 86.2419 1066.54 532.346
763 0 62.1796 13.8148 859 88.8789 1067.34 531.589
764 0 64.1756 15.0057 963 87.8183 1069.59 528.047
765 0 66.1602 14.3288 948 87.8101 1073.11 530.377
766 0 66.186 14.3384 949 90.4552 1074.16 526.61
767 0 71.3781 15.4809 1105 87.8081 1077.76 527.681
768 0 73.3949 14.4152 1058 89.8044 1080.49 526.87
769 0 74.1907 14.6245 1085 91.4276 1082.86 526.667
770 0 76.4844 15.1142 1156 90.9732 1085.41 526.109
771 0 78.5101 13.6034 1068 95.9157 1085.49 524.679
772 1 42.3263 10.5372 446 95.8475 1086.91 543.067
773 0 46.5028 9.71984 452 96.2478 1087.34 546.662
774 0 47.4541 11.6534 553 95.3599 1087.87 538.179
775 0 49.489 11.3359 561 95.3012 1087.07 541.619
776 0 49.641 11.7645 584 95.2106 1085.12 541.743
777 0 53.2975 14.7099 784 89.2219 1083.61 544.597
778 0 54.0896 14.1432 765 91.5778 1080.6 544.793
779 0 54.0896 14.2726 772 144.64 1078.58 544.806
780 0 59.2045 14.3739 851 91.7591 1075.53 543.376
781 0 59.2303 13.8274 819 94.9499 1074.61 541.153
782 0 59.2376 14.1296 837 94.9152 1072.75 541.7
783 0 59.2376 14.0789 834 146.604 1070.76 541.752
784 0 65.399 15.1684 992 92.9234 1070.29 538.393
785 0 64.316 13.7135 882 98.4218 1069.16 537.692
786 0 69.2444 14.456 1001 95.3846 1067.53 534.35
787 0 71.5786 14.278 1022 95.4198 1066.96 530.492
788 0 72.298 13.8731 1003 98.2712 1066.01 527.007
789 0 75.4629 15.6236 1179 95 1064.49 526.349
790 0 76.315 14.545 1110 97.7649 1065.37 522.51
791 0 78.2913 14.9442 1170 96.4316 1064.62 522.614
792 1 42.1308 10.3962 438 102.03 1065.42 540.073
793 0 46.1692 10.2449 473 100.285 1066.37 537.205
794 0 45.2145 11.9873 542 98.3173 1066.39 536.087
795 0 46.2395 10.2077 472 98.9725 1066.68 533.9
796 0 48.3613 11.4761 555 95.9766 1068.16 531.751
797 0 47.1848 11.6139 548 95.9234 1069.33 526.502
798 0 50.2052 12.0306 604 98.8212 1071.45 529.114
799 0 53.1192 14.9287 793 92.9508 1074.11 529.962
800 0 55.1482 13.4365 741 90.0175 1074.62 531.885
801 0 57.1446 13.6146 778 92.4075 1078.23 531.389
802 0 58.0809 14.6176 849 91.1696 1080.16 531.382
803 0 60.135 14.1182 849 92.7444 1082.1 531.532
804 0 61.1618 14.4208 882 92.4376 1084.62 530.187
805 0 63.1154 15.0043 947 91.1066 1086.01 531.084
806 0 65.0689 13.5549 882 95.7608 1086.47 531.562
807 0 66.1909 12.3884 820 98.1939 1087.23 535.332
808 0 69.3087 13.2739 920 97.0141 1086.97 533.951
809 1 37.06 10.7663 399 99.1203 1085.16 549.977
810 0 41.151 11.8831 489 97.2434 1084.84 549.223
811 0 39.0627 10.6495 416 101.56 1082.41 549.625
812 0 43.0513 12.7987 551 97.5971 1080.58 548.889
813 0 44.1153 11.0846 489 101.249 1078.34 547.468
814 0 46.1237 12.9868 599 95.7512 1076.37 546.704
815 0 48.0777 13.915 669 96.0822 1075.17 545.942
816 0 49.1536 13.4476 661 98.295 1073.6 545.182
817 0 52.1236 13.986 729 95.2401 1072.69 547.368
818 0 52.1417 14.3072 746 96.3713 1071.01 545.65
819 0 53.0846 13.3749 710 97.3127 1068.68 542.256
820 0 55.2482 13.8104 763 96.3775 1068.59 540.617
821 0 57.1614 15.465 884 92.6369 1066.81 538.791
822 0 57.3028 13.4723 772 97.6852 1066.19 537.067
823 0 61.2819 14.2946 876 94.9806 1064.76 534.428
824 0 60.1629 13.1809 793 97.6936 1065.23 534.053
825 0 65.249 16.1382 1053 90.5518 1064.47 529.947
826 0 66.2335 14.3583 951 95.2555 1064.52 529.286
827 0 67.164 15.3207 1029 93.6317 1064.23 524.737
828 0 69.3356 15.3168 1062 93.0904 1065.75 523.483
829 0 69.3356 15.3024 1061 141.828 1067.78 523.51
830 0 73.2012 15.7784 1155 91.6459 1066.86 521.307
831 0 76.1126 14.7545 1123 93.8041 1069.68 521.016
832 1 39.1515 10.3955 407 98.4865 1072.71 538.661
833 0 43.1924 11.2983 488 95.2357 1074.85 540.299
834 0 42.1335 11.5822 488 97.416 1076.61 537.607
835 0 46.1759 13.4053 619 92.916 1080.35 538.407
836 0 45.3865 12.7791 580 95.4914 1082.78 538.726
837 0 46.0898 12.4106 572 100.08 1084.45 538.636
838 0 48.145 13.1893 635 96.3449 1086.1 539.665
839 0 51.2519 14.6531 751 92.755 1086.85 539.401
840 0 52.3585 13.9805 732 94.4754 1087.36 539.533
841 0 54.1876 15.2064 824 92.2913 1087.69 542.488
842 0 54.188 14.7634 800 94.7025 1086.54 541.558
843 0 58.1765 14.6451 852 93.7242 1083.98 540.774
844 0 56.2047 14.3404 806 97.1328 1083.15 538.54
845 0 58.2374 13.7884 803 99.2142 1081.78 539.121
846 0 63.2586 15.3813 973 94.519 1079.49 538.905
847 0 64.5447 15.4777 999 95.8679 1078.05 535.864
848 0 67.4346 15.1109 1019 92.5123 1076.85 538.791
849 0 68.4232 15.9741 1093 93.0338 1075.35 535.379
850 0 71.3736 15.552 1110 93.8631 1071.76 534.527
851 0 72.7297 15.647 1138 94.0835 1070.98 532.094
852 0 74.315 17.8833 1329 89.012 1070.53 530.656
853 0 74.446 16.0385 1194 93.2739 1068.07 529.343
854 0 77.3781 15.6375 1210 93.2264 1066.77 524.735
855 0 77.3565 14.6982 1137 96.6025 1065.82 525.231
856 0 81.5742 15.5319 1267 94.9818 1065.34 523.283
857 1 41.3044 12.081 499 95.992 1065.66 539.252
858 0 44.3194 11.9812 531 94.5179 1065.02 539.284
859 0 45.1517 11.8932 537 96.9702 1066.3 537.764
860 0 45.159 11.692 528 97.5871 1066.35 535.22
861 0 48.2566 12.3921 598 96.9816 1066.38 535.769
862 0 49.2668 14.8782 733 95.4843 1066.6 536.3
863 0 51.2833 15.3851 789 93.815 1068.37 533.098
864 0 54.075 14.7943 800 93.4425 1070.2 535.599
865 0 55.4072 14.9259 827 93.8525 1071.51 535.173
866 0 54.381 13.5893 739 100.332 1074.62 531.553
867 0 58.4481 15.4667 904 95.0874 1076.9 529.987
868 0 60.3471 14.1846 856 98.7921 1079.04 531.416
869 0 62.3965 13.9431 870 99.323 1081.15 530.541
870 0 63.4265 14.5996 926 98.7462 1084.33 532.963
871 0 65.4675 14.1903 929 101.139 1086.46 531.905
872 0 68.2591 13.8736 947 101.332 1088.29 531.137
873 0 69.1422 14.5642 1007 103.504 1087.61 531.119
874 0 74.2035 15.6462 1161 100.289 1087.9 531.907
875 0 78.3735 15.7706 1236 99.4361 1087.42 532.433
876 0 81.3233 15.8257 1287 100.218 1085.99 527.775
877 0 84.2695 16.3642 1379 100.129 1084.14 528.915
878 0 87.2794 16.5904 1448 98.9565 1082.27 528.855
879 1 41.3527 10.9787 454 100.2 1079.49 551.154
880 0 44.1625 12.5899 556 99.1601 1077.32 548.254
881 0 48.3466 13.1136 634 96.7035 1074.93 548.24
882 0 49.2035 12.9056 635 98.0315 1073.75 546.409
883 0 51.1622 14.5029 742 96.2722 1072.83 545.526
884 0 50.0804 12.6796 635 101.18 1072.06 547.017
885 0 50.0804 12.6996 636 158.033 1071.07 547.168
886 0 55.135 14.2196 784 96.7781 1067.46 541.981
887 0 55.096 12.578 693 100.749 1066.5 540.113
888 0 59.0801 14.6073 863 96.5921 1065.07 538.578
889 0 62.0948 16.2332 1008 92.6865 1064.36 536.562
890 0 62.1066 14.62 908 98.8822 1062.94 535.816
891 0 66.1456 15.0123 993 96.3857 1062.91 533.598
892 0 66.0527 14.6701 969 99.1084 1063.28 531.868
893 0 68.1034 14.757 1005 99.3323 1063.3 528.835
894 0 70.0558 14.7026 1030 98.467 1065.11 527.749
895 0 70.0469 13.7622 964 102.768 1065.49 527.357
896 0 72.1315 14.4736 1044 100.497 1066.1 526.675
897 0 76.1322 14.4091 1097 99.2352 1067.17 524.005
898 0 77.0557 14.0677 1084 100.442 1069.48 522.129
899 0 80.1657 14.944 1198 99.328 1071.88 519.638
900 0 82.2839 14.4743 1191 98.6583 1075.19 518.123
901 1 44.2102 11.5584 511 101.601 1079.25 537.094
902 0 46.0917 12.6921 585 100.397 1081.23 539.02
903 0 47.296 12.2843 581 100.136 1083.46 538.251
904 0 49.3932 12.7345 629 99.256 1084.18 539.593
905 0 52.3151 13.3231 697 98.1578 1086.03 539.548
906 0 54.0815 14.9219 807 95.4622 1084.8 538.685
907 0 55.0763 14.9611 824 95.6311 1084.51 539.472
908 0 58.1955 14.5372 846 95.7033 1085.54 539.722
909 0 62.2064 14.8377 923 95.0802 1084.5 541.419
910 0 63.1143 16.0186 1011 95.2928 1083.27 538.578
911 0 65.0445 15.4663 1006 96.4334 1082.35 539.698
912 0 68.2779 15.7005 1072 95.236 1081.1 538.938
913 0 71.2043 14.5075 1033 97.031 1077.98 537.756
914 0 74.475 15.6965 1169 95.0565 1076.13 536.256
915 0 76.3817 14.5846 1114 97.2038 1074.42 533.219
916 0 76.3817 14.6501 1119 160.039 1071.42 533.235
917 1 40.2592 12.1711 490 98.1776 1073.87 548.206
918 0 41.2653 9.62068 397 100.395 1071.97 551.123
919 0 41.1393 10.8412 446 99.6211 1068.95 548.83
920 0 44.2106 11.2417 497 94.2978 1068.84 549.406
921 0 46.1328 13.1577 607 90.6491 1065.82 545.997
922 0 48.1107 14.4459 695 88.8288 1067.12 543.912
923 0 50.1015 14.3109 717 89.8006 1066.92 542.386
924 0 50.0691 13.5013 676 91.7752 1065.61 542.053
925 0 51.0702 14.5486 743 90.7456 1065.5 538.365
926 0 54.0608 13.8548 749 93.3458 1065.99 537.019
927 0 55.0715 13.6005 749 95.7463 1066.41 535.127
928 0 58.1395 12.7796 743 97.004 1066.52 535.227
929 0 60.0725 15.0318 903 92.3909 1067.68 532.636
930 0 60.0699 14.8827 894 94.8031 1067.76 530.524
931 0 64.0569 15.4862 992 92.8075 1070.8 529.713
932 0 64.0901 13.9647 895 96.5855 1072.35 529.716
933 0 66.1287 14.6079 966 94.7567 1074.6 529.307
934 0 69.1119 13.5867 939 95.983 1076.78 530.298
935 0 71.1391 14.4787 1030 94.8835 1080.31 527.579
936 0 75.0795 16.0363 1204 91.3364 1081.86 526.825
937 0 75.0795 16.023 1203 144.485 1085.85 526.774
938 1 39.0618 11.3666 444 93.2815 1087.72 547.2
939 0 40.0347 12.3393 494 95.2105 1088.87 544.925
940 0 40.0782 13.1992 529 93.2911 1088.62 545.331
941 0 44.0397 13.1018 577 92.8908 1088.71 546.18
942 0 44.2168 14.6098 646 88.4396 1087.85 548.831
943 0 46.2912 13.8255 640 91.1609 1086.35 544.398
944 0 48.2636 13.4884 651 95.9939 1085.13 545.936
945 0 51.3495 15.2679 784 92.4643 1081.59 545.471
946 0 53.3215 14.4219 769 91.7672 1080.22 544.884
947 0 56.2848 15.3683 865 89.0913 1078.8 545.96
948 0 58.2318 14.9575 871 91.0631 1074.94 543.069
949 0 59.2801 14.7773 876 92.1952 1072.97 541.539
950 0 62.2809 13.9208 867 94.6563 1072.64 539.918
951 0 62.1994 14.5982 908 94.6377 1071.14 539.261
952 0 66.1587 16.7778 1110 89.4559 1070.17 536.151
953 0 66.4324 14.4658 961 95.1186 1068.29 533.755
954 0 72.2217 17.1555 1239 88.6199 1066.31 530.438
955 0 74.1762 15.2475 1131 92.1282 1065.39 524.049
956 0 75.4059 15.4762 1167 92.497 1063.69 519.388
957 0 78.1374 16.5478 1293 89.0572 1063.82 517.547
958 1 42.2082 13.5756 573 93.1571 1063.34 537.99
959 0 40.1411 13.9757 561 95.8752 1063.82 534.36
960 0 44.2354 12.2074 540 97.7074 1064.44 532.554
961 0 43.3199 13.5273 586 95.2065 1064.76 530.555
962 0 45.2886 13.0938 593 92.2057 1065.41 527.484
963 0 48.1667 14.4706 697 89.4433 1067.51 526.595
964 0 48.1044 14.1151 679 91.8247 1069.42 522.377
965 0 49.206 13.7585 677 92.5465 1071.73 522.66
966 0 51.1341 14.0806 720 91.3319 1073.39 522.981
967 0 52.1647 14.0708 734 92.5082 1075.39 523.455
968 0 55.1102 14.6071 805 90.7988 1079.97 525.298
969 0 56.1128 14.9699 840 90.5488 1081.94 523.106
970 0 59.2494 15.5782 923 89.2102 1082.65 523.499
971 0 62.2861 16.4242 1023 86.8788 1085.98 524.362
972 0 64.2253 15.2899 982 89.4287 1086.43 525.754
973 0 65.4757 15.731 1030 89.5893 1088.12 527.81
974 0 68.3886 13.4964 923 93.6674 1087.78 528.172
975 0 70.5914 15.6818 1107 90.0506 1085.99 526.655
976 0 74.5274 16.2088 1208 88.0704 1084.83 526.819
977 1 37.2636 11.4857 428 94.9883 1083.1 544.432
978 0 39.2392 13.5324 531 90.3239 1082.37 546.202
979 0 40.2516 11.5275 464 93.4224 1079.25 546.677
980 0 41.2396 13.2397 546 92.0641 1077.49 543.216
981 0 43.2295 13.4399 581 91.6747 1075.73 541.718
982 0 44.1034 14.4433 637 91.325 1073.92 537.152
983 0 44.1034 14.3526 633 141.894 1072.9 537.215
984 0 49.1736 16.5739 815 89.7975 1070.73 531.092
985 0 51.4035 15.9133 818 89.5086 1068 530.278
986 0 51.3305 13.5202 694 94.8847 1066.75 531.762
987 0 55.1736 14.9891 827 91.5852 1065.65 528.405
988 0 57.3303 15.8729 910 89.5868 1065.65 526.184
989 0 59.1501 15.9256 942 89.8726 1064.5 525.091
990 0 60.1431 14.2161 855 93.9427 1064.02 523.201
991 0 63.1836 15.6211 987 90.1611 1063.8 522.296
992 0 65.2999 14.732 962 91.4002 1063.94 519.488
993 0 66.1364 14.8783 984 93.376 1064.27 516.667
994 0 69.131 16.0709 1111 91.2313 1064.39 514.163
995 0 73.452 14.8805 1093 92.5874 1064.58 515.882
996 0 76.4658 15.144 1158 91.5846 1066.6 513.723
997 0 76.4278 15.4263 1179 93.1069 1068.83 513.141
998 0 80.2895 15.2075 1221 93.5446 1070.92 512.324
999 1 42.158 12.9038 544 94.5515 1073.74 530.075
1000 0 42.1782 13.1822 556 94.8004 1076.77 531.586
1001 0 43.4522 12.8877 560 95.8679 1079.44 530.655
1002 0 45.5228 13.7074 624 95.5144 1081.34 531.008
1003 0 47.3267 14.4739 685 94.2102 1084.28 533.11
1004 0 47.6968 14.0261 669 96.29 1085.69 533.558
1005 0 51.5871 15.469 798 93.99 1085.61 533.001
1006 0 51.7823 13.1319 680 100.328 1086.84 533.776
1007 0 54.5806 13.9244 760 98.1145 1087.83 534.688
1008 0 58.6147 15.1668 889 95.1361 1085.91 535.2
1009 0 58.3227 15.4314 900 95.5422 1084.87 533.814
1010 0 62.6383 16.4436 1030 93.1903 1083.91 531.811
1011 0 62.8984 14.4201 907 98.065 1082.45 532.577
1012 0 66.4265 15.4306 1025 96.4507 1079.7 531.605
1013 0 68.5236 14.4476 990 98.2646 1077.72 532.194
1014 0 71.6072 15.5431 1113 96.6343 1075.45 528.306
1015 0 74.6713 15.749 1176 94.892 1074.18 529.397
1016 0 74.5758 14.388 1073 99.809 1073.03 528.05
1017 0 76.426 14.6809 1122 101.023 1070.76 524.095
1018 0 80.8528 14.681 1187 99.7195 1069.91 524.135
1019 0 84.875 15.0457 1277 99.0564 1068.85 521.936
1020 1 42.4669 11.8681 504 100.583 1067.3 538.915
1021 0 45.5237 11.203 510 99.6784 1067.19 538.049
1022 0 46.3754 12.1832 565 97.7522 1065.97 535.38
1023 0 48.4625 11.6998 567 99.8201 1065.46 531.672
1024 0 49.3924 12.9575 640 96.7188 1065.29 531.967
1025 0 52.526 12.8698 676 96.324 1065.31 529.142
1026 0 53.2587 11.9042 634 94.8296 1065.81 530.453
1027 0 55.1978 11.7215 647 93.5796 1066.43 531.422
1028 0 56.1202 12.4554 699 93.2546 1067.31 529.947
1029 0 58.2135 13.2787 773 91.5925 1068.4 526.784
1030 0 61.1202 14.4469 883 89.5459 1069.19 525.793
1031 0 61.1305 13.1849 806 92.3313 1071.55 524.266
1032 0 65.2093 14.0011 913 90.5323 1073.63 522.485
1033 0 66.114 14.1271 934 92.6146 1075.39 520.734
1034 0 67.3761 12.6009 849 96.6832 1077.67 521.192
1035 0 70.3937 13.0552 919 96.062 1081.27 521.091
1036 0 72.195 13.0341 941 97.3337 1083.05 520.286
1037 0 75.3998 12.6128 951 97.9211 1084.52 520.666
1038 0 78.3696 13.0918 1026 97.9201 1085.04 519.163
1039 0 81.3884 14.1298 1150 95.9026 1084.9 519.153
1040 0 83.3246 13.9695 1164 96.2594 1085.89 517.728
1041 0 84.4311 13.4429 1135 97.5903 1084.96 515.728
1042 0 90.3355 13.2617 1198 96.5376 1083.7 515.619
1043 0 93.4815 11.9382 1116 98.5403 1081.93 515.881
1044 0 96.4301 12.382 1194 97.0151 1079.92 514.606
1045 0 100.317 12.1615 1220 96.532 1077.64 516.732
1046 1 56.3704 10.3955 586 90.4556 1077.13 539.024
1047 0 58.144 10.56 614 88.912 1074.85 540.171
1048 0 59.0569 11.0063 650 90.7138 1073.57 539.68
1049 0 62.0766 12.8229 796 89.2789 1070.63 537.67
1050 0 61.1383 11.0078 673 92.3685 1069.31 536.716
1051 0 66.0985 12.6478 836 87.9175 1067.4 534.391
1052 0 67.1719 11.4334 768 88.7695 1067.21 532.807
1053 0 71.0914 12.4769 887 87.3923 1065.56 529.284
1054 0 73.134 12.4292 909 87.0858 1064.81 524.006
1055 0 76.1821 12.3126 938 86.6087 1065.39 523.888
1056 0 80.1934 12.42 996 86.1747 1064.05 522.746
1057 0 81.2375 12.1988 991 87.4894 1063.72 517.646
1058 0 82.1072 11.9478 981 88.4536 1064.32 517.017
1059 0 86.1473 11.9214 1027 88.1529 1063.8 516.044
1060 1 48.1144 9.60212 462 83.5887 1064.84 534.721
1061 0 50.074 9.04661 453 84.4989 1066.83 535.545
1062 0 52.0664 9.77599 509 85.6817 1068.47 530.314
1063 0 53.1472 10.3298 549 85.9253 1069.55 527.63
1064 0 56.0667 9.9881 560 86.1714 1071.02 528.745
1065 0 56.2686 9.75677 549 84.7723 1073.46 527.397
1066 0 57.0435 9.3788 535 84.6523 1075.63 524.331
1067 0 56.1275 9.19335 516 84.8295 1077.14 527.537
1068 0 60.1585 10.3227 621 82.9082 1079.85 529.786
1069 0 62.2189 9.86838 614 83.3892 1082.93 526.083
1070 0 66.143 10.4622 692 82.8208 1083.95 526.363
1071 0 66.1399 10.0998 668 85.4281 1085.3 525.356
1072 0 70.1362 10.7933 757 82.107 1084.75 525.794
1073 0 72.1474 10.1459 732 87.2951 1086 526.438
1074 0 76.1579 10.9378 833 83.545 1084.63 526.573
1075 0 77.0873 10.2611 791 86.9747 1080.7 527.975
1076 0 77.1873 9.04293 698 89.8696 1079.68 526.245
1077 1 43.126 7.95343 343 88.4344 1079.41 546.117
1078 0 44.2137 9.83857 435 87.9494 1076.86 544.779
1079 0 45.2216 7.09838 321 93.7383 1075.1 544.548
1080 0 47.2591 8.99298 425 91.6776 1073.93 542.285
1081 0 49.3383 8.75588 432 92.2639 1072.64 544.007
1082 0 51.2249 10.4637 536 89.8843 1071.2 540.002
1083 0 52.3112 11.9477 625 87.992 1071.28 539.523
1084 0 55.2453 12.3449 682 86.7346 1069.69 538.623
1085 0 56.3203 12.2514 690 87.4913 1066.02 536.297
1086 0 56.3034 12.255 690 118.288 1064.02 536.297
1087 0 58.1663 11.5359 671 90.5306 1064.35 532.928
1088 0 60.1499 13.5162 813 87.2374 1064.45 531.956
1089 0 62.1133 12.4611 774 82.0078 1065.19 530.326
1090 0 62.2121 12.4574 775 91.4555 1062.89 526.387
1091 0 61.0738 11.8218 722 87.133 1062.96 523.058
1092 0 59.0628 9.71847 574 85.0645 1063.71 520.995
