time division length width area intensity CMx CMy
0 0 42.5418 13.5631 577 124.704 1339.03 508.137
1 0 44.472 13.1993 587 123.227 1341.26 509.695
2 0 44.6625 12.4265 555 127.088 1340.78 509.631
3 0 46.7255 13.0978 612 122.253 1341.73 510.325
4 1 21.0049 10.6165 223 126.964 1343.9 521.722
5 0 24.0257 8.6574 208 124.029 1344.15 523.462
6 0 26.0429 9.56114 249 125.687 1342.8 524.217
7 0 26.0549 10.5546 275 125.047 1340.94 524.378
8 0 27.0419 9.98449 270 121.93 1340.16 525.556
9 0 27.0209 10.6584 288 122.559 1339.29 526.524
10 0 27.0893 11.2222 304 119.938 1337.47 526.388
11 0 26.0439 11.3654 296 122.257 1335.68 526.922
12 0 28.0327 12.307 345 117.304 1333.4 527.255
13 0 28.0327 12.2357 343 149.662 1330.44 527.245
14 0 29.3716 12.0184 353 120.552 1327.74 527.955
15 0 31.3384 13.7212 430 113.033 1325.78 528.058
16 0 31.4161 11.7774 370 117.595 1323.19 526.451
17 0 32.4063 12.1273 393 115.896 1321.7 526.394
18 0 32.2697 12.1166 391 114.133 1319.19 526.578
19 0 35.085 13.2535 465 100.538 1319.08 523.325
20 0 33.2486 12.7524 424 105.597 1316.06 524.903
21 0 32.2228 12.5377 404 106.748 1316.39 523.324
22 0 35.4915 14.905 529 98.1002 1316.9 522.456
23 0 37.4544 14.0971 528 97.7595 1317.43 522.517
24 0 37.2939 13.9433 520 100.617 1317.8 519.163
25 0 37.212 13.8934 517 100.735 1319.17 520.25
26 0 40.1541 13.1493 528 100.652 1321.38 517.82
27 0 40.3172 13.369 539 100.716 1323.66 518.139
28 0 39.422 12.9116 509 103.291 1325.28 517.261
29 0 43.1664 13.807 596 99.4413 1327.54 518.169
30 0 43.1465 11.5652 499 103.377 1329.48 519.784
31 0 45.1654 13.2624 599 100.723 1331.33 517.825
32 0 47.2983 15.0323 711 95.8129 1333.73 519.153
33 0 46.4233 12.7091 590 102.073 1334.41 519.427
34 0 46.4233 12.7738 593 140.722 1335.4 519.325
35 0 50.4586 14.2691 720 98.3833 1334.42 520.117
36 0 50.1425 13.342 669 100.495 1334.06 521.562
37 0 52.2513 14.4494 755 98.4702 1333.57 521.501
38 0 54.2048 12.9509 702 100.57 1332.05 521.409
39 0 55.2417 14.1198 780 98.0346 1329.25 521.032
40 0 56.1339 13.1293 737 98.5482 1327.74 521.286
41 0 58.1409 14.3445 834 95.6535 1325.95 521.983
42 0 59.0724 13.3396 788 97.0825 1324.11 520.363
43 0 62.1628 13.0464 811 96.5413 1322.54 520.287
44 0 62.2767 14.6443 912 93.8542 1320.44 520.104
45 0 65.1942 13.3141 868 95.8237 1319.11 518.682
46 0 70.1427 14.9695 1050 92.2876 1316.83 518.432
47 0 71.2371 14.8659 1059 92.763 1314.4 518.894
48 1 36.1059 12.0202 434 97.3779 1312.56 533.016
49 0 37.1072 10.4292 387 97.2687 1311.91 533.08
50 0 38.1052 11.5732 441 96.7732 1310.37 532.848
51 0 40.1202 11.3409 455 96.3231 1308.41 528.646
52 0 41.1651 11.5632 476 95.9832 1308.11 528.069
53 0 42.0375 12.9408 544 94.489 1306.88 525.342
54 0 42.1054 13.1337 553 95.9367 1307.38 523.783
55 0 46.3956 15.648 726 91.9366 1308.13 519.617
56 0 45.0713 14.0001 631 95.1474 1307.28 518.905
57 0 49.0729 15.7317 772 89.3705 1308.82 519.303
58 0 49.1328 13.8197 679 93.6244 1309.6 519.112
59 0 52.1055 15.4686 806 90.2767 1311.7 516.284
60 0 54.1002 14.621 791 90.8369 1314.51 514.7
61 0 55.1386 13.2394 730 92.5219 1315.95 516.2
62 0 56.1642 13.2291 743 94.2517 1318.15 514.54
63 0 58.3042 12.2976 717 95.3529 1320.49 513.787
64 0 60.1219 14.2876 859 93.2817 1322.47 511.327
65 0 60.0806 13.6983 823 94.4909 1323.6 513.633
66 0 66.0835 14.8903 984 90.2652 1326.49 515.609
67 0 68.158 13.6888 933 92.8607 1326.69 515.97
68 0 70.264 14.0186 985 91.7279 1326.52 515.088
69 0 72.1427 13.7921 995 93.0161 1325.72 515.65
70 0 75.1769 14.3528 1079 93.8109 1324.32 512.82
71 0 76.1723 13.4038 1021 95.2576 1323.33 515.548
72 0 74.1688 13.2266 981 156.986 1323.34 516.063
73 0 74.1568 13.2692 984 156.423 1323.33 515.979
74 0 74.1637 13.2275 981 156.156 1322.32 516.055
75 1 44.0817 10.5713 466 92.8519 1316.5 534.959
76 0 45.1077 11.794 532 93.3233 1315.82 530.951
77 0 46.1416 11.4647 529 92.1701 1312.59 533.892
78 0 47.1347 11.0534 521 95.8292 1311.22 532.075
79 0 47.0809 13.2538 624 91.9006 1309.38 531.846
80 0 49.0829 12.3668 607 93.084 1307.78 532.176
81 0 49.269 11.8533 584 93.4315 1306.19 529.341
82 0 47.2543 10.8562 513 146.394 1305.23 530.275
83 0 53.1472 13.9424 741 90.1363 1303.28 527.039
84 0 54.1027 12.735 689 92.0711 1302.76 525.518
85 0 56.1215 12.6868 712 93.7346 1301.78 520.459
86 0 58.0756 12.8798 748 92.4438 1300.11 520.532
87 0 61.2132 13.2161 809 92.9963 1300.45 517.884
88 0 62.0809 12.6448 785 96.079 1301.18 515.289
89 0 66.1002 14.1149 933 92.5488 1302.55 512.852
90 0 65.1308 11.1468 726 98.5248 1302.23 513.444
91 0 71.1896 12.8249 913 96.2475 1303.64 511.596
92 1 36.0333 10.3793 374 97.238 1307.29 529.604
93 0 36.0108 10.6912 385 99.1558 1308.55 527.829
94 0 37.0178 11.0217 408 100.194 1310.34 528.723
95 0 37.0514 10.7958 400 100.008 1313.54 527.892
96 0 41.1731 12.7753 526 94.2833 1314.35 527.686
97 0 42.1557 11.9794 505 95.2792 1317.23 530.01
98 0 40.1651 12.3988 498 96.998 1320.24 529.616
99 0 42.1377 11.2251 473 98.4313 1321.76 530.989
100 0 42.1631 10.744 453 101.51 1322.4 532.139
101 0 44.1986 11.4031 504 99.9266 1322.66 531.06
102 0 47.0688 11.855 558 99.2545 1322.95 532.306
103 0 47.1252 11.5437 544 101.682 1322.44 531.91
104 0 51.2195 13.3738 685 95.962 1320.68 531.298
105 0 52.1306 11.7589 613 99.6525 1319.62 530.051
106 0 54.1239 12.9702 702 96.4316 1318.14 531.235
107 0 56.1479 13.2685 745 96.1651 1316.65 528.777
108 0 58.1966 12.5609 731 97.145 1314.84 529.728
109 0 60.2011 12.2755 739 95.0514 1312.85 531.679
110 0 62.1854 13.6366 848 93.559 1310.82 527.741
111 1 32.0174 10.6504 341 96.4633 1309.91 541.921
112 0 33.0378 9.68588 320 98.3406 1308.24 541.716
113 0 36.0203 9.60569 346 98.8757 1306.02 540.662
114 0 40.0403 10.6643 427 91.9696 1305.36 542.391
115 0 38.0327 11.0957 422 94.3412 1304.25 538.308
116 0 40.0398 10.7393 430 97.2442 1302.72 540.123
117 0 41.0281 11.09 455 100.123 1301.73 536.635
118 0 41.5815 11.4714 477 103.01 1297 533.585
119 0 41.4379 12.1145 502 95.6454 1295.63 533.643
120 0 42.4228 11.5268 489 97.4254 1294.86 531.591
121 0 41.1868 11.3386 467 97.9036 1293.67 529.392
122 0 42.3114 10.4227 441 100.943 1294.6 528.556
123 0 43.142 11.0333 476 98.9517 1294.4 526.7
124 0 47.1941 11.654 550 97.1582 1296.33 525.329
125 0 48.2437 13.3074 642 96.0109 1298.08 523.788
126 0 50.2744 12.6904 638 95.9295 1299.68 523.683
127 0 52.199 12.7397 665 96.3669 1301.73 521.962
128 0 52.2787 12.7777 668 96.1422 1303.52 522.801
129 0 52.1484 13.1931 688 96.9099 1306.36 523.817
130 0 52.1484 13.2315 690 147.146 1308.37 523.77
131 0 56.1947 11.5135 647 101.27 1310.33 523.533
132 0 57.2081 12.9527 741 99.9339 1312.37 523.962
133 0 59.1776 13.7383 813 99.5474 1313.44 523.708
134 0 59.1776 13.8397 819 157.676 1314.48 523.686
135 0 63.192 12.8497 812 102.202 1315.45 524.464
136 0 65.0986 15.4074 1003 96.8006 1316.17 523.523
137 1 34.0307 9.66775 329 104.559 1314.08 540.976
138 0 36.0184 9.91161 357 106.098 1313.89 539.19
139 0 36.0369 9.51803 343 109.07 1312.48 540
140 0 38.0541 11.0369 420 104.264 1313.62 542.262
141 0 37.0968 10.9174 405 108.914 1311.12 540.272
142 0 38.0544 10.4587 398 107.402 1311.96 539.894
143 0 42.0726 12.7399 536 98.0317 1309.97 541.382
144 0 42.4623 13.1882 560 97.9 1306.71 538.111
145 0 43.1909 13.1046 566 97.6749 1305.56 539.474
146 0 44.1443 13.6144 601 97.9518 1303.84 539.363
147 0 44.1443 13.5238 597 139.079 1302.84 539.265
148 0 44.1611 13.5187 597 138.583 1300.84 539.265
149 0 46.1666 11.8484 547 106.079 1299.56 536.654
150 0 46.1239 11.751 542 106.266 1298.81 536.974
151 0 49.1049 13.0537 641 102.814 1297.29 534.75
152 0 49.1178 13.2131 649 103.527 1295.88 531.706
153 0 51.1345 12.8876 659 104.692 1295.71 528.32
154 0 52.0837 13.2479 690 104.871 1294.88 527.077
155 0 52.12 13.0276 679 108.813 1295.01 526.576
156 0 55.1239 13.1341 724 104.791 1295.95 524.515
157 0 57.167 12.6822 725 106.967 1296.61 521.981
158 0 57.329 13.0126 746 107.501 1297.72 521.288
159 0 61.1047 14.1724 866 99.3176 1298.7 518.902
160 0 60.1698 12.8968 776 100.688 1300.49 519.048
161 0 63.1854 13.1834 833 101.581 1302.7 519.591
162 0 66.1854 12.6161 835 102.393 1305.12 519.738
163 0 67.1826 14.081 946 100.577 1308.09 517.924
164 0 69.1412 12.7565 882 105.277 1309.27 516.91
165 1 39.0672 10.034 392 97.9821 1313.58 537.424
166 0 38.0408 9.38467 357 102.294 1314.2 534.902
167 0 39.0449 8.83598 345 102.652 1315.42 537.229
168 0 42.0931 10.8806 458 100.913 1316.41 537.469
169 0 43.0556 11.1948 482 99.6929 1315.8 536.373
170 0 46.1318 11.3804 525 99.9524 1315.39 536.093
171 0 46.1218 11.8599 547 97.1188 1315.53 537.399
172 0 48.1344 12.9637 624 95.125 1314.33 535.508
173 0 48.0786 12.2092 587 98.9847 1313.11 534.564
174 0 49.1347 12.252 602 96.5797 1310.48 534.465
175 0 51.2274 12.4543 638 96.2571 1309.33 533.691
176 0 53.2056 13.8895 739 92.9242 1306.35 533.498
177 0 54.3548 12.7496 693 102.47 1304.48 533.667
178 0 54.3548 12.7128 691 152.326 1302.48 533.726
179 0 58.3457 13.4029 782 99.9373 1301.48 530.639
180 0 62.3026 13.4665 839 98.4768 1299.57 529.3
181 0 64.193 14.2539 915 95.8448 1297.59 527.739
182 0 65.2633 14.204 927 96.3894 1295.27 524.734
183 0 66.1901 14.1109 934 90.7516 1294.74 525.269
184 0 68.1781 13.8754 946 90.8658 1294.58 519.938
185 0 71.1477 15.0813 1073 89.7577 1293.27 518.201
186 0 74.204 15.1205 1122 90.098 1293.49 516.128
187 0 74.0968 13.7928 1022 94.7074 1292.46 513.592
188 0 78.204 14.3727 1124 92.7464 1292.71 514.093
189 0 81.2057 13.7552 1117 93.9141 1293.3 510.228
190 0 84.2873 13.7862 1162 94.5172 1293.67 508.525
191 1 46.1634 10.3329 477 97.3627 1296.31 528.023
192 0 47.1521 10.4555 493 99.0203 1297.77 524.927
193 0 47.2444 10.6256 502 95.496 1300.19 526.359
194 0 50.1707 13.4939 677 86.4372 1301.73 526.084
195 0 50.1202 11.4126 572 90.4178 1304.15 524.274
196 0 53.2678 13.5166 720 85.1069 1307.26 527.286
197 0 54.2134 12.543 680 87.5382 1309.9 524.596
198 0 56.2576 13.3493 751 85.988 1312.59 526.221
199 0 57.189 12.345 706 88.3201 1314.88 525.578
200 0 60.2236 12.8521 774 86.5142 1315.31 525.158
201 0 63.1862 12.8826 814 86.5565 1315.96 524.818
202 0 65.4162 13.1313 859 90.518 1317.6 526.364
203 0 67.2148 12.408 834 92.3801 1316.08 524.137
204 0 69.336 11.3505 787 93.6455 1315.68 523.337
205 0 71.2018 11.8817 846 93.3818 1314.46 523.104
206 0 75.3101 13.3316 1004 90.1345 1312.73 524.847
207 0 78.3098 13.7403 1076 90.1914 1312.08 521.837
208 1 43.0474 10.0819 434 90.083 1311.51 539.924
209 0 42.0669 8.65289 364 91.206 1309.38 542.198
210 0 47.157 9.26693 437 90.4943 1308.23 540.728
211 0 48.311 10.0805 487 89.4825 1307.28 541.61
212 0 50.3505 11.7973 594 88.7273 1300.05 530.313
213 0 54.305 13.7372 746 84.0724 1296.16 533.357
214 0 54.223 12.2642 665 90.1429 1295.41 535.786
215 0 57.1331 13.2498 757 89.1995 1293.12 532.863
216 0 57.1921 11.8023 675 93.3659 1292.39 529.256
217 0 58.0672 13.3122 773 92.4347 1291.57 528.424
218 0 60.2109 12.0576 726 91.6088 1293.49 529.77
219 0 63.1975 12.6112 797 90.5094 1293.62 526.217
220 0 64.0684 13.1578 843 89.4354 1293.31 525.788
221 0 66.161 13.7845 912 88.9024 1293.1 521.55
222 0 68.2485 13.0113 888 89.9628 1293.87 516.774
223 0 72.1546 13.0969 945 89.4741 1294.46 518.014
224 1 38.0688 9.29894 354 92.2429 1296.92 534.26
225 0 40.0271 10.8177 433 91.6236 1299.21 531.286
226 0 40.0398 10.9891 440 92.3227 1301.73 532.286
227 0 43.0862 10.7691 464 92.472 1303.8 533.116
228 0 40.0786 9.83068 394 96.8756 1305.77 532.731
229 0 45.1347 10.7678 486 94.4383 1308.79 532.969
230 0 43.0707 11.632 501 95.6766 1311.17 532.896
231 0 46.0985 12.3214 568 92.5387 1312.74 532.287
232 0 47.3506 12.5236 593 91.715 1311.61 528.278
233 0 49.109 12.849 631 89.6624 1315.52 533.35
234 0 50.0653 12.983 650 89.3723 1316.18 534.246
235 0 52.1686 13.1305 685 86.7343 1315.44 535.663
236 0 53.227 9.91978 528 92.1402 1315.06 537.436
237 0 52.23 11.5259 602 93.5748 1314.79 534.091
238 0 57.1895 13.1143 750 87.6853 1313.01 534.336
239 0 59.2243 12.0052 711 87.6821 1311.35 534.136
240 0 60.1843 11.2156 675 88.7822 1309.57 534.139
241 0 61.1564 11.1681 683 88.0176 1308.45 533.701
242 0 65.0613 11.2202 730 86.037 1306.13 533.892
243 0 65.0737 11.218 730 129.052 1304.13 533.933
244 0 69.222 12.106 838 84.5465 1303.31 529.14
245 0 72.1634 11.8343 854 85.0059 1301.62 528.809
246 1 39.0252 8.96857 350 87.1086 1299.49 543.369
247 0 41.0446 10.8906 447 83.0447 1297.28 544.584
248 0 43.046 11.3367 488 82.9857 1296.9 542.373
249 0 43.046 11.2903 486 128.021 1295.88 542.455
250 0 45.0639 11.2951 509 82.7701 1293.62 537.965
251 0 45.0639 11.2507 507 123.651 1291.62 538.039
252 0 49.1029 12.1785 598 81.7425 1292.31 533.015
253 0 49.0716 11.5749 568 83.2218 1290.83 532.398
254 0 52.0457 13.7571 716 78.2919 1291.46 530.436
255 0 53.1904 12.7655 679 81.4462 1291.71 528.197
256 0 54.162 11.9641 648 82.5494 1292.11 524.858
257 0 56.1075 12.4582 699 81.4506 1292.46 521.788
258 0 58.2044 13.0574 760 80.6671 1294.29 522.271
259 0 58.2044 13.0059 757 124.436 1296.3 522.292
260 0 60.2675 13.2576 799 80.7146 1298.16 519.269
261 0 60.2354 11.6875 704 82.8338 1301.41 521.156
262 0 65.3717 12.6507 827 80.1076 1302.86 520.911
263 0 66.1908 13.446 890 79.8798 1306.29 518.558
264 0 67.2078 12.5581 844 81.4301 1308.64 516.617
265 0 68.2363 12.5446 856 82.2617 1311.53 517.325
266 0 73.3059 15.0602 1104 78.4547 1313.72 517.049
267 0 74.2493 13.6971 1017 81.9459 1314.02 517.523
268 1 39.082 10.0046 391 83.0537 1315.68 537.13
269 0 42.0869 10.7634 453 83.4702 1315.19 536.561
270 0 44.0334 9.9697 439 85.754 1315.72 538.478
271 0 42.025 10.1606 427 88.3396 1314.58 536.515
272 0 44.2036 12.1031 535 86.6766 1311.59 534.325
273 0 47.3325 12.7819 605 79.1653 1307.81 535.088
274 0 49.2744 13.435 662 76.997 1306.71 536.05
275 0 48.1514 12.1699 586 80.5119 1304.8 535.384
276 0 48.2116 10.7028 516 83.3798 1303.22 534.601
277 0 51.2853 10.4903 538 81.8364 1301.55 533.208
278 0 53.168 13.4103 713 77.9425 1300.36 532.87
279 0 55.2826 13.1325 726 78.5179 1299.52 531.216
280 0 57.2418 12.7879 732 79.276 1297.85 531.097
281 0 58.1795 13.3724 778 77.8766 1295.35 533.235
282 0 59.3268 11.6305 690 80.729 1294.33 528.425
283 0 59.135 12.3785 732 80.9795 1294.08 527.743
284 0 62.244 14.0254 873 78.1592 1290.94 525.914
285 0 66.1425 14.7258 974 78.3152 1290.96 522.608
286 0 69.3092 15.1206 1048 82.2338 1290.79 519.303
287 0 69.3314 12.8225 889 87.9179 1290.08 515.147
288 0 70.2938 14.0695 989 87.0688 1290.13 512.785
289 0 74.2691 15.4304 1146 83.4258 1289.71 513.666
290 0 77.2775 13.7944 1066 86.258 1290.97 510.137
291 0 80.3273 14.3787 1155 86.0113 1292.04 509.183
292 0 82.305 13.3406 1098 88.5619 1293.24 508.062
293 1 44.0639 9.91742 437 89.1945 1293.08 526.515
294 0 46.1592 9.96551 460 86.6522 1295.65 526.804
295 0 46.151 11.094 512 88.4844 1298.61 525.768
296 0 49.1124 11.83 581 86.8485 1301.12 526.69
297 0 49.2248 12.8391 632 84.7658 1304.38 526.604
298 0 50.2174 13.0831 657 84.0624 1306.7 526.869
299 0 53.3001 14.6529 781 82.4802 1310.28 527.884
300 0 55.1285 12.8246 707 84.9462 1310.11 528.191
301 0 56.2768 14.4464 813 82.695 1312.18 528.617
302 0 60.0791 14.148 850 83.1188 1312.47 529.713
303 0 60.1624 13.4802 811 84.4377 1312.93 529.81
304 0 64.175 14.2579 915 83.1191 1311.99 529.847
305 0 64.2629 13.1958 848 85.8585 1311.58 528.816
306 0 66.0968 13.4046 886 86.8691 1309.92 527.007
307 0 69.2011 14.4795 1002 85.8273 1308.39 526.122
308 0 69.2292 13.8525 959 87.6225 1306.82 524.705
309 0 72.1421 13.2932 959 88.1554 1304.29 524.727
310 0 75.233 13.7041 1031 87.7216 1302.31 523.694
311 0 77.1632 14.7998 1142 87.5622 1300.83 522.921
312 0 81.5349 13.7487 1121 88.3542 1299.42 519.218
313 1 41.139 11.1087 457 89.6346 1297.52 539.435
314 0 43.1526 10.7757 465 88.4 1295.03 543.08
315 0 44.2119 10.9473 484 90.7066 1294.52 538.574
316 0 47.0964 11.4446 539 84.3358 1292.66 536.109
317 0 48.1222 11.8656 571 85.8634 1290.95 534.168
318 0 50.106 11.8948 596 87.0218 1290.43 534.52
319 0 52.1932 13.45 702 85.5014 1289.54 529.142
320 0 50.2878 13.0051 654 87.3272 1289.07 527.546
321 0 54.3162 13.0348 708 87.3404 1289.05 524.42
322 0 57.268 13.3582 765 86.8196 1288.72 523.644
323 0 56.2172 13.519 760 88.175 1288.53 520.911
324 0 59.2693 14.4932 859 85.6216 1289.68 519.326
325 0 59.2153 13.662 809 87.0161 1291.27 516.729
326 0 63.2014 15.411 974 83.7402 1292.48 515.82
327 0 62.2053 14.2271 885 86.8678 1295.33 515.181
328 0 64.2398 13.434 863 88.2213 1297.08 513.789
329 0 69.2648 13.369 926 86.8423 1299.65 515.276
330 0 69.1834 14.1508 979 87.5904 1302.88 513.143
331 0 73.289 14.9272 1094 86.9698 1305.82 511.599
332 0 73.289 15.0091 1100 131.656 1308.81 511.532
333 1 41.1848 9.78517 403 95.67 1307.54 531.122
334 0 44.175 10.4131 460 93.4022 1310.19 533.665
335 0 44.1783 10.0049 442 95.5996 1310.36 534.534
336 0 46.2425 11.1369 515 92.7728 1310.7 534.992
337 0 44.1737 11.1831 494 97.8806 1310.84 533.885
338 0 48.1594 12.3548 595 96.0302 1309.54 534.267
339 0 48.0878 12.8515 618 99.8819 1308.25 531.181
340 0 49.2254 13.1436 647 96.4807 1310.12 538.27
341 0 51.0875 14.0543 718 89.8259 1309.28 536.153
342 0 53.1609 12.8478 683 92.7291 1308.11 537.044
343 0 55.2483 13.0864 723 91.2033 1306.5 537.268
344 0 57.1313 13.8628 792 88.7727 1303.1 536.047
345 0 57.1313 13.7753 787 140.23 1300.08 535.929
346 0 61.2508 13.306 815 88.6503 1300.25 534.164
347 0 63.1603 14.7403 931 86.2288 1299.61 533.49
348 0 63.1603 14.6611 926 139.402 1299.62 533.451
349 0 66.2394 14.0853 933 88.075 1296.44 530.176
350 0 67.2932 13.8201 930 89.7602 1295.12 525.922
351 0 69.2087 13.9289 964 90.472 1292.86 523.861
352 0 72.1358 13.8211 997 89.9669 1293.59 521.174
353 0 74.1936 14.7587 1095 89.0237 1291.72 519.135
354 0 77.1265 12.6156 973 92.7359 1290.74 517.819
355 1 41.1334 11.6693 480 91.6854 1291.92 534.679
356 0 42.1828 11.0472 466 92.7747 1291.69 533.71
357 0 45.0761 10.9149 492 92.4228 1291.7 531.035
358 0 47.1459 12.3659 583 88.4974 1293.43 530.448
359 0 47.2446 12.4459 588 90.0476 1294.52 528.573
360 0 48.1597 15.1371 729 84.5981 1296.59 525.303
361 0 50.2462 12.2198 614 89.0831 1297.92 525.453
362 0 52.2721 12.9706 678 87.3776 1300.49 524.917
363 0 51.293 13.7641 706 87.9561 1304.01 524.382
364 0 54.2715 12.7323 691 90.5615 1307.24 527.33
365 0 54.1605 12.4999 677 91.8774 1309.6 524.684
366 0 57.1371 12.8113 732 91.7213 1311.61 526.184
367 0 57.2718 13.4796 772 91.6334 1313.25 526.995
368 0 60.3073 13.8126 833 90.4382 1313.61 527.621
369 0 61.151 12.6408 773 94.1087 1314.53 529.273
370 0 62.1946 14.0044 871 91.5155 1313.7 528.146
371 0 66.2576 14.6247 969 90.9587 1314.28 527.842
372 0 66.2229 13.2885 880 94.1602 1311.49 528.039
373 0 70.2836 14.5269 1021 91.141 1310.92 525.808
374 0 74.1867 13.493 1001 92.7992 1309.1 528.753
375 0 74.1617 13.8211 1025 93.6634 1307.23 526.625
376 1 41.1522 10.2789 423 98.8865 1306.96 543.024
377 0 41.1456 9.62436 396 98.3611 1304.61 545.043
378 0 44.0657 9.50853 419 96.8926 1302.45 545.964
379 0 43.1131 10.2289 441 102.179 1301.39 541.81
380 0 46.1269 10.818 499 100.335 1299.56 541.172
381 0 47.0806 13.0415 614 98.1808 1298.73 538.754
382 0 50.0688 13.5014 676 95.8269 1296.73 538.075
383 0 50.2288 12.5028 628 95.0653 1295.45 536.548
384 0 48.1857 11.5179 555 99.2072 1295.31 538.097
385 0 52.2304 13.0958 684 95.3538 1293.55 536.196
386 0 51.1587 12.041 616 99.5 1292.9 533.94
387 0 54.1811 12.4767 676 98.4024 1291.94 532.547
388 0 54.1417 12.7813 692 99.409 1291.36 530.558
389 0 58.0619 13.7784 800 96.955 1289.6 527.612
390 0 59.1346 13.0042 769 98.9298 1289.76 528.144
391 0 61.1976 13.6116 833 97.5366 1290.59 525.589
392 0 60.2137 11.5921 698 104.905 1291.95 523.6
393 0 64.2079 12.1948 783 102.77 1293.84 524.19
394 0 66.1008 12.9045 853 102.863 1294.71 523.121
395 0 69.2347 13.3026 921 102.254 1297.6 521.483
396 0 71.1783 12.56 894 106.074 1299.88 516.304
397 0 74.1803 13.0358 967 102.451 1304.65 518.73
398 0 79.1625 14.6913 1163 98.1599 1306.97 518.139
399 1 43.0803 11.6295 501 102.501 1310.57 536.078
400 0 43.0711 11.0747 477 104.17 1313.05 536.17
401 0 44.0429 11.398 502 104.249 1314.56 535.11
402 0 45.016 11.1516 502 104.651 1314.11 538.044
403 0 48.1742 13.5135 651 99.0108 1314.06 535.387
404 0 49.084 12.6314 620 99.2081 1313.75 538.284
405 0 49.1815 12.5047 615 98.9545 1312.97 539.694
406 0 52.1006 12.3223 642 98.3037 1310.64 539.023
407 0 53.1134 12.5769 668 97.238 1309.2 538.542
408 0 54.1057 12.7159 688 98.8954 1308.32 538.201
409 0 55.1564 12.9631 715 98.1161 1306.21 536.863
410 0 58.2415 11.6927 681 100.366 1303.68 537.019
411 0 59.0878 12.473 737 99.0244 1301.04 537.453
412 0 62.2242 12.9532 806 99.0261 1299.64 534.552
413 0 63.2359 12.6194 798 98.4449 1297.94 533.915
414 0 66.1898 12.8419 850 98.1635 1297.08 529.469
415 0 69.1503 13.796 954 96.2547 1295.28 527.31
416 0 69.2011 12.6588 876 97.9737 1294.16 529.86
417 1 39.1518 10.7019 419 99.0597 1293 538.833
418 0 38.0196 7.99587 304 103.375 1293.36 541.678
419 0 41.0314 11.4303 469 98.5373 1292.17 537.222
420 0 42.0168 11.3526 477 98.0356 1291.8 535.732
421 0 44.0773 11.7521 518 95.1216 1291.85 534.832
422 0 44.087 11.7268 517 94.8607 1290.38 534.876
423 0 46.0984 11.7791 543 94.4144 1291.49 535.04
424 0 48.0786 12.0844 581 100.63 1292.14 527.399
425 0 52.1062 14.1442 737 97.1411 1292.17 523.658
426 0 52.1478 13.8069 720 97.6917 1293.45 525.374
427 0 53.0433 13.1591 698 99.6232 1294.39 524.64
428 0 56.0704 13.6079 763 98.5793 1296.69 524.889
429 0 56.165 13.9589 784 97.6186 1299.61 525.062
430 0 58.1232 11.9746 696 101.779 1303.31 524.579
431 0 58.1373 12.0405 700 101.624 1306.53 522.244
432 0 62.0609 12.1816 756 100.04 1308.56 522.878
433 0 64.1335 13.1756 845 97.6071 1311.39 524.066
434 0 68.1462 14.7184 1003 94.665 1312.84 523.694
435 0 68.1462 14.8651 1013 134.918 1314.84 523.746
436 0 72.2937 12.7535 922 97.0716 1314.54 524.824
437 0 72.2937 12.795 925 145.746 1314.53 524.828
438 1 40.1344 11.0628 444 96.1306 1314.43 542.32
439 0 41.099 11.1195 457 95.5295 1313.59 540.895
440 0 44.0797 12.8404 566 91.106 1311.74 540.783
441 0 44.0261 11.7203 516 94.6318 1309.75 540.138
442 0 43.4239 12.6198 548 96.239 1305.95 540.761
443 0 47.2212 13.7015 647 93.762 1302.74 540.349
444 0 48.3215 12.1064 585 97.2581 1300.54 540.255
445 0 49.4665 11.058 547 99.6124 1298.45 538.709
446 0 52.3942 12.5968 660 96.0242 1297.44 539.624
447 0 51.1906 12.346 632 99.2358 1296.13 535.889
448 0 54.2882 13.3362 724 95.6671 1294.61 534.605
449 0 57.5452 14.3018 823 93.4666 1293.44 532.333
450 0 55.4279 11.7991 654 100.021 1292.8 529.95
451 0 56.428 12.352 697 98.109 1292.08 529.604
452 0 58.3381 12.9932 758 96.2309 1290.87 527.95
453 0 58.2403 13.2726 773 97.2044 1290.43 525.476
454 0 60.3983 13.2454 800 96.6262 1288.04 523.291
455 0 63.4833 12.7908 812 96.8448 1288.96 522.765
456 0 65.2492 13.3335 870 95.477 1289.06 518.497
457 0 69.2424 14.1965 983 91.8342 1289.1 518.327
458 0 73.2867 15.2961 1121 89.8332 1290.31 515.285
459 0 74.2114 13.6098 1010 94.2683 1291.02 513.528
460 0 76.4424 14.2329 1088 91.6719 1293.19 511.288
461 1 38.0898 8.61122 328 95.1646 1292.05 533.561
462 0 40.1184 9.04822 363 94.4821 1294.81 531.893
463 0 43.0198 11.4133 491 91.8391 1298.21 531.941
464 0 43.2224 10.3881 449 87.5702 1306.39 531.884
465 0 41.2169 10.19 420 130.74 1311.43 531.369
466 0 45.0565 11.4523 516 84.3546 1310.25 531.546
467 0 45.1148 11.238 507 85.8757 1311.39 534.391
468 0 45.1486 11.8719 536 85.569 1313.56 536.241
469 0 45.2639 11.2893 511 86.7671 1314.9 534.861
470 0 49.3398 10.4784 517 87.6364 1315.44 535.064
471 0 50.3998 10.9723 553 87.4774 1314.82 536.192
472 0 52.0939 10.5195 548 88.5 1314.44 537.17
473 0 55.2532 11.7097 647 85.8779 1312.2 535.376
474 0 56.2279 11.7557 661 87.0923 1310.65 533.711
475 0 58.3178 10.8029 630 87.2254 1308.19 534.184
476 0 60.1578 10.7384 646 86.7276 1306.97 534.421
477 0 62.2009 12.1863 758 85.2757 1304.02 534.454
478 1 36.1011 9.0579 327 89.3119 1302.85 547.202
479 0 35.101 11.2248 394 87.3629 1301.86 546.617
480 0 38.0715 11.1107 423 85.2364 1300.33 548.655
481 0 38.0918 11.4985 438 87.4612 1298.11 546.582
482 0 41.0502 11.8635 487 86.4764 1296.82 544.671
483 0 41.1914 10.9489 451 89.5233 1295.57 541.938
484 0 44.0461 11.3745 501 87.479 1294.09 542.601
485 0 42.0728 10.4818 441 93.1633 1294.57 539.122
486 0 44.0314 13.1951 581 84.0998 1293.35 540.616
487 0 44.1373 11.8947 525 86.7048 1291.55 537.055
488 0 46.0835 13.9963 645 82.2543 1291.12 534.878
489 0 46.1445 12.1575 561 86.7237 1291.38 534.562
490 0 46.0682 12.7203 586 86.8993 1290.97 532.45
491 0 47.1058 11.039 520 89.4904 1291.67 531.002
492 0 49.0842 12.5091 614 87.2704 1291.32 528.998
493 0 51.1426 12.338 631 87.6387 1293.02 528.049
494 0 52.1385 11.8147 616 89.4692 1295.31 529.982
495 0 52.0624 12.4466 648 89.4429 1297.52 528.432
496 0 53.1811 12.5421 667 89.4618 1300.12 527.873
497 0 56.1574 12.5896 707 87.389 1302.62 525.328
498 0 58.2537 13.4584 784 85.4209 1305.39 530.395
499 0 58.2543 12.4626 726 89.6763 1307.51 528.435
500 0 62.1477 13.7897 857 84.5426 1310.43 529.567
501 0 63.1697 12.6801 801 88.4607 1310.9 527.194
502 0 65.2336 12.4476 812 89.5074 1312.17 531.432
503 0 71.1467 13.17 937 86.5571 1312.89 533.304
504 0 72.1332 14.0157 1011 86.9486 1311.95 529.695
505 0 74.2729 12.4675 926 90.1123 1311.32 531.005
506 1 41.0228 11.0914 455 92.5209 1311.08 545.226
507 0 43.0622 11.4718 494 92.7024 1309.34 546.897
508 0 43.1564 12.1419 524 92.8969 1307.79 545.525
509 0 45.0853 13.9291 628 88.7691 1305.49 547.076
510 0 45.3189 13.2395 600 91.6233 1303.1 546.268
511 0 47.1856 13.7966 651 87.6559 1300.99 544.902
512 0 49.1724 14.8457 730 85.4589 1299.31 544.555
513 0 49.2093 13.9201 685 88.0204 1297.18 543.072
514 0 48.3271 13.3879 647 90.5054 1295.71 540.042
515 0 51.3457 13.302 683 90.448 1295.51 541.35
516 0 53.1734 14.2364 757 88.4227 1293.35 540.198
517 0 56.1819 14.4886 814 87.8022 1292.92 538.921
518 0 58.1997 14.9485 870 86.6 1291.06 535.933
519 0 57.335 13.4822 773 89.9521 1290.57 536.485
520 0 59.374 14.4676 859 87.8719 1289.64 533.09
521 0 59.2659 13.9541 827 90.37 1289.49 532.682
522 0 59.1775 13.2145 782 93.7404 1288.29 526.983
523 0 63.1679 14.9443 944 89.7235 1288.47 525.678
524 0 67.1139 16.8371 1130 84.6991 1289.4 522.988
525 0 66.2189 14.4974 960 90.8646 1289.57 521.122
526 0 69.1792 14.9322 1033 90.1297 1291.06 522.612
527 0 73.2744 15.7627 1155 88.3827 1291.75 519.308
528 0 72.1506 14.3311 1034 92.5077 1294.04 517.588
529 0 77.3455 14.8683 1150 91.2496 1295.67 518.077
530 0 77.2774 13.0957 1012 95.6966 1299.1 515.11
531 0 82.242 14.6276 1203 92.8462 1302.06 516.581
532 1 43.0486 10.6856 460 95.9283 1306.74 536.315
533 0 41.1159 10.3609 426 95.3826 1309.37 539.479
534 0 45.1633 11.4474 517 93.0077 1309.93 538.091
535 0 45.1354 11.9197 538 95.184 1311.03 536.392
536 0 48.1815 11.7888 568 92.625 1311.55 536.829
537 0 49.2226 12.4943 615 91.735 1311.53 537.602
538 0 50.1692 13.4345 674 90.7878 1311.51 534.539
539 0 51.1865 12.4251 636 92.7013 1310.42 537.967
540 0 52.2728 13.9078 727 92.1362 1308.2 540.332
541 0 54.2269 12.7243 690 94.771 1306.66 536.813
542 0 55.3104 12.9451 716 93.5168 1305.19 537.364
543 0 57.2151 12.9511 741 94.6991 1303.27 536.193
544 0 60.2831 13.0551 787 93.4828 1302.05 533.551
545 0 62.2305 13.3214 829 94.0036 1300.1 532.075
546 0 65.1367 13.5408 882 91.3946 1298.49 532.458
547 0 66.1065 13.327 881 91.9364 1297.73 531.703
548 0 68.2404 12.1775 831 95.58 1295.12 531.035
549 1 35.0917 8.77699 308 96.1753 1294.97 545.948
550 0 39.1 12.0204 470 90.1426 1293.31 542.655
551 0 40.0414 9.54012 382 94.6728 1291.74 541.22
552 0 38.1764 11.1325 425 93.64 1291.34 541.351
553 0 41.2753 11.3143 467 94.1585 1290.77 537.803
554 0 41.1732 11.1966 461 96.987 1288.93 535.833
555 0 43.2012 12.2913 531 94.7062 1288.84 533.299
556 0 44.3709 14.221 631 83.3217 1288.56 530.582
557 0 44.2718 10.9325 484 90.6715 1288.39 533.676
558 0 44.2186 11.6693 516 90.2946 1289.42 532.758
559 0 45.2663 11.6201 526 89.8346 1290.01 532.791
560 0 47.2841 11.1877 529 89.8034 1290.9 528.907
561 0 49.2187 11.1949 551 90.0835 1292.83 527.187
562 0 52.1739 13.455 702 85.8063 1295.11 528.64
563 0 51.2076 12.9473 663 89.2247 1297.79 526.526
564 0 54.1027 13.0677 707 87.2475 1300.9 526.62
565 0 54.1027 13.0308 705 130.475 1303.9 526.641
566 0 58.1844 12.9588 754 85.6711 1306.1 525.503
567 0 61.1722 13.7808 843 84.0617 1309.08 522.493
568 0 62.0861 11.774 731 88.301 1310.51 527.659
569 0 64.2111 12.8482 825 86.6145 1312.02 524.286
570 1 36.0698 10.646 384 86.1849 1313.3 542.695
571 0 39.0281 8.50668 332 88.1747 1312.91 543.672
572 0 39.0582 11.3164 442 84.5814 1311.58 542.851
573 0 40.1382 11.3358 455 84.5341 1310.87 542.492
574 0 43.1658 12.2551 529 82.7618 1308.72 541.558
575 0 45.0406 12.0114 541 82.597 1306.28 541.462
576 0 46.0358 12.6206 581 82.3081 1304.53 541.425
577 0 47.0744 11.9598 563 85.5098 1302.48 540.005
578 0 48.2862 12.1774 588 85.0748 1300.66 541.25
579 0 50.1857 12.3143 618 84.2168 1299.36 539.814
580 0 53.1628 13.9948 744 81.6653 1297.74 538.598
581 0 53.2185 13.2473 705 84.3135 1296.54 537.352
582 0 55.1391 13.4206 740 84.3865 1295.53 536.347
583 0 57.1795 13.2215 756 85.3677 1294.15 535.5
584 0 59.173 12.6916 751 85.7776 1292.68 532.887
585 0 59.2029 13.023 771 86.3813 1291.84 530.24
586 0 60.1656 12.4324 748 88.2848 1291.77 527.464
587 0 61.1968 13.4811 825 86.4558 1290.67 526.23
588 0 66.2277 14.3294 949 84.4942 1290.71 526.739
589 0 64.1414 12.3321 791 90.665 1290.18 527.321
590 0 67.0919 13.7572 923 87.8873 1289.83 525.419
591 0 67.1851 11.7139 787 91.8488 1290.52 520.056
592 0 70.119 13.5484 950 88.919 1290.12 517.486
593 0 71.1869 12.4321 885 90.9458 1291.75 516.655
594 1 44.0726 11.3449 500 89.764 1291.96 529.472
595 0 45.1336 10.8567 490 91.3041 1294.16 529.361
596 0 43.0262 10.4588 450 92.1756 1297.91 531.373
597 0 47.0746 11.0463 520 90.4154 1300.24 529.206
598 0 45.4165 12.9689 589 93.5586 1302.6 530.302
599 0 48.3798 13.4974 653 91.2573 1304.77 533.09
600 0 52.288 15.1469 792 87.5013 1307.7 529.65
601 0 52.2703 14.272 746 91.1046 1309.72 535.076
602 0 54.3194 14.3595 780 90.541 1311.33 531.356
603 0 52.3383 13.1644 689 96.9245 1312.09 533.395
604 0 57.3966 14.9835 860 92.3535 1312.27 532.677
605 0 57.3673 13.6489 783 94.9668 1312.18 534.006
606 0 59.246 15.4441 915 91.8601 1311.36 533.586
607 0 60.3198 13.329 804 96.6679 1309.24 533.114
608 0 63.4656 15.3627 975 93.0646 1307.47 534.215
609 0 63.2743 14.0341 888 97.8728 1304.8 530.046
610 0 66.3407 14.3049 949 96.8008 1302.69 532.975
611 0 71.327 13.8797 990 96.905 1301.78 533.731
612 0 73.3103 14.3909 1055 94.7223 1299.14 529.501
613 0 75.3662 15.6702 1181 93.2777 1297.14 528.422
614 0 75.3466 14.9045 1123 97.3936 1295.59 525.687
615 0 75.3466 14.9575 1127 152.554 1294.61 525.704
616 0 82.372 14.8594 1224 96.9853 1292.69 521.626
617 0 84.3454 15.2113 1283 97.4349 1292.74 518.659
618 1 47.0548 11.391 536 96.9272 1293.71 540.175
619 0 48.1142 10.7661 518 100.207 1292.6 536.817
620 0 49.06 11.9038 584 100.265 1292.53 532.298
621 0 51.057 12.6329 645 96.7566 1291.22 531.865
622 0 52.0767 12.1936 635 96.8079 1290.5 532.187
623 0 54.0416 13.3786 723 93.8534 1290.91 529.905
624 0 54.1001 14.0665 761 94.3351 1291.57 528.636
625 0 56.0874 14.21 797 94.005 1290.91 525.558
626 0 57.1214 14.2678 815 95.411 1291.77 526.244
627 0 57.1265 14.6342 836 95.512 1292.67 524.697
628 0 59.1086 14.245 842 97.0713 1294.77 522.747
629 0 60.1257 13.7712 828 98.651 1296.73 522.871
630 0 63.0653 14.3185 903 96.3909 1298.84 520.58
631 0 66.1623 14.7667 977 94.6663 1303.28 520.228
632 0 67.1004 16.453 1104 92.9312 1305.1 519.739
633 0 71.0657 13.579 965 97.4684 1309.62 520.679
634 0 71.1076 15.5539 1106 93.9892 1311.25 523.056
635 0 72.2136 15.3988 1112 97.152 1312.04 522.584
636 0 77.1254 16.1555 1246 94.516 1313.46 522.071
637 0 79.1277 14.8747 1177 98.4308 1314.25 521.371
638 0 83.2261 17.6387 1468 91.438 1313.24 518.59
639 0 85.2278 15.4058 1313 97.6573 1312.12 519.137
640 1 47.1742 11.6377 549 100.712 1311.96 540.991
641 0 48.2301 11.3207 546 103.793 1310.66 540.037
642 0 51.1235 11.7558 601 100.882 1310.18 539.201
643 0 50.144 11.6265 583 101.942 1307.4 538.182
644 0 53.2964 14.804 789 89.3663 1302.85 538.294
645 0 54.1744 13.8257 749 93.6048 1301.6 540.677
646 0 55.1155 14.3154 789 92.3523 1301.09 539.61
647 0 58.0676 13.5015 784 92.787 1299.34 538.657
648 0 58.1955 13.5749 790 92.8722 1298.2 533.785
649 0 59.1459 13.6104 805 93.2969 1296.57 533.306
650 0 62.1777 13.8474 861 91.8328 1293.92 529.739
651 0 64.1501 14.014 899 90.8287 1293.98 526.739
652 0 65.117 13.1149 854 93.2693 1292.79 525.838
653 0 69.1472 14.9247 1032 89.5446 1291.16 524.051
654 0 71.1106 15.2157 1082 89.2911 1290.73 521.757
655 0 73.0895 14.407 1053 89.1586 1289.93 520.755
656 0 76.1149 14.9248 1136 88.3063 1290.02 515.161
657 0 78.1717 13.368 1045 89.5034 1290.42 514.292
658 0 81.1694 14.981 1216 86.4005 1290.15 513.45
659 0 83.1807 13.9095 1157 90.2489 1290.69 511.248
660 1 45.0472 9.61213 433 94.6443 1291.96 531.346
661 0 47.0946 12.1882 574 90.4268 1293.58 529.38
662 0 50.0667 13.3422 668 87.9416 1295.78 527.889
663 0 52.0309 12.8001 666 88.2733 1298.43 526.943
664 0 53.0381 14.0654 746 82.7547 1299.98 528.595
665 0 56.0866 13.6574 766 86.1697 1304.54 526.106
666 0 54.0771 13.0369 705 88.034 1306.16 529.201
667 0 57.0683 13.7554 785 88.4089 1309.04 524.583
668 0 59.0689 12.714 751 91.6565 1312.09 525.538
669 0 60.0742 13.2669 797 92.1468 1313.29 525.338
670 0 65.0894 14.0422 914 89.1105 1314 526.915
671 0 67.0804 13.1931 885 91.5706 1314.23 527.603
672 0 70.1058 13.8362 970 89.9691 1314.19 529.211
673 0 75.1313 15.5594 1169 86.7117 1311.97 526.003
674 0 76.1063 14.6374 1114 90.5108 1311.09 521.832
675 0 80.2227 16.903 1356 85.8791 1308.37 523.603
676 0 82.149 14.8389 1219 91.493 1306.45 523.489
677 0 84.2372 15.2308 1283 91.286 1304.8 523.076
678 0 88.1924 15.9311 1405 88.7473 1302.24 522.33
679 0 90.2774 14.9096 1346 92.6686 1299.85 518.843
680 0 92.2374 13.3351 1230 97.574 1297.96 518.148
681 0 97.2986 15.5603 1514 93.004 1296.41 516.399
682 1 55.0474 10.2639 565 99.1274 1294.98 536.804
683 0 57.1193 9.55894 546 96.3828 1292.8 538.207
684 0 60.1694 11.1851 673 97.1783 1288.84 531.691
685 0 60.0997 11.6307 699 86.2532 1290.32 524.856
686 0 59.0357 10.6715 630 87.8429 1289.82 524.305
687 0 63.2389 12.0654 763 86.3958 1287.18 521.97
688 0 65.1508 13.4764 878 80.5205 1288.13 523.147
689 0 65.2508 12.3677 807 81.5787 1287.54 520.435
690 0 65.2211 12.7873 834 82.8585 1288.01 519.566
691 0 69.1232 12.5862 870 82.0828 1288.31 518.42
692 0 70.1363 12.5185 878 82.2916 1288.31 515.787
693 0 72.0973 11.9699 863 83.0846 1288.24 513.313
694 0 74.1315 12.0731 895 82.019 1288.8 511.536
695 0 78.0738 10.7975 843 85.1768 1290.39 509.945
696 0 82.2233 13.7795 1133 80.8844 1292.43 508.838
697 0 84.1276 11.8867 1000 84.108 1294.19 505.674
698 0 87.072 12.7481 1110 82.9045 1296.24 505.761
699 0 88.1073 11.8151 1041 87.2142 1299.22 501.864
700 1 48.0093 9.49817 456 81.8772 1301.82 526.996
701 0 49.0695 8.60004 422 84.7749 1304.16 523.77
702 0 50.2162 8.28418 416 86.363 1305.65 523.462
703 0 53.2051 12.2545 652 81.7807 1307.25 524.972
704 0 54.2424 11.5592 627 90.3062 1308.16 524.966
705 0 57.0684 11.4599 654 98.6667 1311.76 533.476
706 0 57.1782 12.2424 700 97.3843 1310.7 532.766
707 0 60.0897 12.2816 738 98.4214 1309.72 535.611
708 0 64.0631 13.955 894 95.5671 1308.44 534.525
709 0 66.133 13.6392 902 95.8182 1305.99 534.55
710 0 67.1504 12.7028 853 99.204 1304.82 533.288
711 0 71.1052 14.134 1005 95.1463 1302.24 533.115
712 0 73.1284 15.6984 1148 91.4896 1300.33 532.527
713 0 74.1192 13.964 1035 95.2725 1298.54 533.35
714 0 76.1152 13.2168 1006 97.331 1296.62 526.939
715 0 78.1176 14.4654 1130 96.1593 1294.25 525.534
716 0 82.1108 14.0176 1151 96.3996 1293.19 525.811
717 1 44.0647 11.0973 489 93.953 1293.31 544.102
718 0 47.1444 10.6057 500 94.726 1292.18 541.95
719 0 48.185 9.9201 478 95.8954 1290.81 539.322
720 0 50.1422 8.77505 440 96.8159 1289.77 539.807
721 0 51.1015 10.8607 555 96.8252 1288.93 535.697
722 0 51.0602 10.3016 526 96.3479 1288.03 532.614
723 0 51.0602 10.3016 526 141.914 1288.03 532.521
724 0 55.2138 11.6456 643 91.2348 1287.73 528.977
725 0 56.2752 12.2434 689 85.5472 1287.66 526.287
726 0 57.12 12.395 708 89.4195 1288.38 526.412
727 0 57.2321 11.7766 674 90.5015 1289.61 525.958
728 0 61.4247 13.252 814 87.2125 1289.9 523.612
729 0 62.1842 12.7364 792 87.7146 1291.33 521.679
730 0 65.4161 14.9657 979 82.9489 1292.9 519.611
731 0 66.4361 13.3512 887 86.3664 1295.54 520.892
732 0 68.3432 14.0029 957 84.2497 1298.81 521.442
733 0 69.3806 12.2801 852 87.8028 1301.07 520.539
734 0 73.2947 14.6941 1077 81.8422 1303.86 518.431
735 0 75.3669 12.9898 979 85.1001 1306 518.131
736 0 78.5051 12.8654 1010 85.2426 1307.49 516.51
737 1 42.1911 9.52807 402 88.1418 1309.88 536.455
738 0 43.1864 9.74843 421 85.3587 1310.38 540.701
739 0 45.1398 9.65889 436 86.5206 1311.3 537.892
740 0 47.1336 9.42003 444 88.0135 1310.74 539.131
741 0 49.1386 11.5388 567 84.3686 1309.11 539.104
742 0 51.1619 10.3202 528 84.1856 1307.21 539.595
743 0 52.272 11.995 627 78.8022 1306.03 541.072
744 0 52.2275 13.1923 689 80.6342 1304.66 543.123
745 0 53.1098 11.994 637 84.4254 1302.48 539.193
746 0 57.2258 13.4904 772 80.9482 1300.39 539.246
747 0 59.2309 12.8142 759 82.1897 1298.63 540.466
748 0 61.2767 12.7944 784 82.8878 1297.14 538.926
749 0 63.2187 13.4612 851 81.2374 1295.53 536.77
750 0 65.4122 14.3551 939 85.115 1293.64 534.32
751 0 67.5176 12.1154 818 88.4291 1291.94 532.608
752 0 71.4176 14.1702 1012 84.2154 1290.97 531.035
753 0 72.4398 14.6466 1061 83.5259 1289.78 529.479
754 0 73.4657 12.4412 914 88.1926 1288.26 525.909
755 0 75.3659 12.7378 960 88.5073 1287.67 522.165
756 1 37.0523 8.42054 312 89.141 1289.02 541.827
757 0 39.069 9.49601 371 88.0027 1288.75 538.218
758 0 43.0505 9.94181 428 85.486 1288.66 539.002
759 0 41.0712 9.76352 401 89.621 1288.9 534.768
760 0 43.183 9.7029 419 89.1122 1288.44 531.327
761 0 43.5883 10.7598 469 86.8188 1287.7 531.19
762 0 44.4015 11.5537 513 80.2398 1288.67 527.79
763 0 47.2362 11.1779 528 77.4356 1289.43 529.905
764 0 48.2206 11.9866 578 76.519 1291.37 528.363
765 0 49.4445 12.5191 619 76.5784 1293.6 530.123
766 0 51.4136 12.1563 625 77.4112 1295.83 527.139
767 0 52.6618 10.5959 558 87.6308 1298.48 529.473
768 0 54.507 11.8517 646 87.4443 1301.57 526.249
769 0 57.3904 12.9116 741 83.2699 1304.11 530.155
770 0 58.582 12.6148 739 83.4005 1305.26 529.449
771 0 58.4169 12.5477 733 86.4038 1306.53 529.464
772 0 61.4567 11.1949 688 89.125 1307.78 526.894
773 0 62.3436 13.1529 820 87.1415 1307.91 529.173
774 0 65.3326 14.342 937 84.8378 1308.4 526.224
775 0 66.2882 12.687 841 87.2545 1306.19 527.719
776 0 70.2332 14.0247 985 84.7289 1304.96 528.377
777 0 73.2834 13.4 982 85.6222 1303.44 527.926
778 1 41.0891 12.0957 497 84.002 1299.92 545.143
779 0 40.0991 10.9229 438 86.9361 1299.1 544.559
780 0 41.2519 11.3449 468 87.1774 1298 545.325
781 0 44.1468 12.4131 548 84.6551 1295.85 545.08
782 0 44.4668 13.0209 579 83.9603 1293.79 543.77
783 0 45.1534 11.1398 503 84.5765 1294.91 544.3
784 0 46.0948 12.5394 578 82.9723 1293.72 540.827
785 0 47.1167 13.5621 639 81.5336 1292.05 541.964
786 0 50.1801 11.7975 592 83.3209 1292.15 539.414
787 0 51.0937 13.1914 674 82.2626 1290.17 535.386
788 0 53.137 12.4207 660 83.45 1289.94 533.727
789 0 53.2304 11.253 599 86.7746 1289.61 531.853
790 0 56.1739 11.8382 665 84.5549 1288.99 529.621
791 0 56.1555 12.6079 708 85.2528 1288.8 527.295
792 0 56.1847 12.4767 701 86.0285 1288.91 525.35
793 0 60.1179 13.1907 793 83.4174 1288.42 522.03
794 0 62.1716 13.4306 835 83.624 1289.06 523.01
795 0 64.3225 13.5256 870 83.4517 1289.64 520.477
796 0 64.1117 12.1819 781 85.8848 1289.93 520.232
797 0 66.147 13.8026 913 83.5268 1292.21 515.455
798 0 67.1604 12.3734 831 85.5283 1294.13 516.514
799 0 69.2622 13.023 902 85.3603 1296.09 514.193
800 0 71.1633 11.7336 835 87.4563 1299.03 514.432
801 0 71.1633 11.8179 841 136.82 1302.03 514.468
802 1 38.0411 10.1469 386 85.7513 1304.71 530.679
803 0 41.081 10.029 412 86.8544 1307.78 532.777
804 0 41.2072 10.0953 416 87.5938 1308.99 532.565
805 0 43.166 10.9809 474 86.6435 1309.96 533.568
806 0 44.2289 11.3274 501 86.7725 1311.05 535.14
807 0 45.1861 13.1235 593 80.9798 1310.11 531.794
808 0 46.3125 12.3725 573 80.4607 1308.54 531.813
809 0 49.1646 12.1429 597 78.062 1309.16 533.754
810 0 50.1714 12.0387 604 79.4106 1306.84 534.553
811 0 50.2568 11.5606 581 80.9931 1305.42 535.468
812 0 54.2096 13.3925 726 78.9063 1303.51 536.147
813 0 55.2037 12.1187 669 81.71 1301.54 533.139
814 0 57.1231 12.6219 721 81.5062 1299.6 531.688
815 0 57.1231 12.6044 720 126.083 1297.6 531.624
816 0 59.1863 13.4997 799 81.2053 1296.15 527.981
817 0 62.2167 12.9708 807 79.9046 1294.55 532.558
818 0 63.1598 11.8113 746 83.3324 1293.36 530.422
819 0 66.2953 11.8259 784 82.3227 1291.04 524.733
820 0 65.1257 11.6083 756 82.3386 1290.54 523.22
821 0 71.1406 11.3718 809 81.3041 1289.07 523.105
822 0 72.119 12.5903 908 81.1035 1288.27 518.326
823 0 77.2131 13.5081 1043 79.1812 1287.9 518.366
824 1 38.0174 9.36414 356 81.7107 1288.17 534.286
825 0 39.0239 11.0701 432 78.4838 1287.73 531.877
826 0 39.0288 9.94139 388 79.8041 1287.3 531.719
827 0 39.0987 8.77267 343 82.1429 1288.18 528.752
828 0 41.221 10.092 416 80.8293 1288.19 526.529
829 0 45.4584 14.1228 642 80.31 1289.55 527.928
830 0 46.0781 13.9546 643 80.4168 1291.13 529.642
831 0 48.1298 13.1519 633 81.3081 1292.77 529.564
832 0 50.1782 13.6912 687 81 1294.72 531.175
833 0 49.1519 13.2243 650 83.3877 1297.99 529.637
834 0 51.1323 12.9077 660 83.3273 1300.28 530.948
835 0 55.1105 14.8248 817 80.6573 1303.29 530.709
836 0 58.2999 14.7685 861 81.0941 1305.21 531.38
837 0 57.1419 15.0502 860 82.0779 1307.52 527.769
838 0 58.0396 14.7141 854 83.9965 1308.5 528.436
839 0 59.2222 13.9475 826 84.9939 1309.27 528.412
840 0 62.1772 14.0084 871 85.0941 1309.49 530.982
841 0 65.1462 14.4905 944 84.1197 1308.71 530.161
842 0 68.2474 16.0299 1094 82.2404 1307.92 529.341
843 0 71.2829 14.8563 1059 84.2502 1306.25 529.764
844 0 74.193 15.5675 1155 83.9818 1304.85 529.182
845 1 37.0769 12.11 449 90.5746 1305.4 547.41
846 0 39.1484 11.4436 448 92.5 1302.47 546.21
847 0 41.1478 13.1477 541 89.2514 1299.77 546.203
848 0 41.1019 12.5542 516 90.4205 1297.8 546.704
849 0 44.1164 13.3057 587 92.0494 1296.23 545.283
850 0 45.0397 13.8544 624 91.4696 1295.52 543.332
851 0 46.1777 14.4442 667 90.1664 1293.75 543.855
852 0 48.213 15.1619 731 88.922 1291.9 542.733
853 0 46.1595 14.4499 667 94.2879 1290.01 540.535
854 0 51.3291 15.0987 775 89.5923 1289.35 538.359
855 0 52.2336 15.2009 794 89.1033 1288.09 540.215
856 0 53.2929 14.6924 783 91.9438 1288.31 535.525
857 0 54.24 16.1136 874 89.294 1286.78 533.349
858 0 60.3842 14.8549 897 90.0279 1287.71 532.163
859 0 59.1576 15.1798 898 90.9844 1287.73 529.29
860 0 61.1959 15.9651 977 89.782 1287.68 525.749
861 0 62.3393 16.1856 1009 88.8464 1288.02 525.843
862 0 66.2153 16.4464 1089 88.1212 1288.79 523.69
863 0 67.1861 16.2385 1091 88.9083 1289.47 520.811
864 1 35.1812 11.7677 414 96.2971 1292.21 539.606
865 0 37.0848 11.7029 434 96.7535 1294.82 539.136
866 0 39.1285 12.1139 474 95.424 1296.2 537.394
867 0 36.0394 12.3476 445 96.8292 1298.7 537.02
868 0 41.1556 13.9471 574 90.4094 1301.35 536.483
869 0 41.0607 14.3446 589 97.2156 1304.01 533.739
870 0 44.5682 14.6741 654 93.4816 1305.57 539.777
871 0 41.4108 13.4264 556 101.482 1307.61 538.642
872 0 45.6834 13.9 635 97.515 1308.36 539.044
873 0 45.4609 14.518 660 99.9712 1308.49 538.523
874 0 48.458 14.4661 701 99.5806 1308.77 538.963
875 0 52.177 14.6233 763 96.5675 1308.1 538.187
876 0 52.3277 13.7403 719 100.522 1307.55 536.154
877 0 53.3072 14.332 764 100.204 1305.18 537.52
878 0 54.4328 14.4031 784 100.542 1303.71 539.605
879 0 56.3341 14.4673 815 99.735 1302 536.194
880 0 60.188 15.1359 911 97.955 1299.46 537.276
881 0 60.2349 14.5099 874 99.8627 1298.33 535.947
882 0 65.3577 14.2906 934 98.9036 1296.38 533.954
883 0 66.323 14.8666 986 100.033 1294 532.207
884 1 33.1062 11.3272 375 105.168 1293.92 546.245
885 0 38.0881 10.817 412 103.316 1292.92 545.699
886 0 37.0856 11.0825 411 104.691 1291.38 544.411
887 0 40.1408 12.0077 482 102.349 1289.88 543.272
888 0 39.1373 12.4689 488 102.508 1288.76 541.461
889 0 41.1955 13.5452 558 100.964 1287.39 539.694
890 0 43.2255 13.8113 597 102.796 1286.75 537.821
891 0 44.0448 14.0766 620 96.7661 1284.85 532.574
892 0 43.0957 12.8551 554 98.3827 1286.82 534.02
893 0 44.0551 13.6647 602 99.4585 1287.09 530.028
894 0 49.0385 13.4996 662 98.2976 1286.99 527.545
895 0 49.0196 13.77 675 99.0548 1287.88 528.431
896 0 50.0416 14.388 720 98.0167 1288.28 526.661
897 0 52.0257 13.7432 715 98.2392 1290.16 524.817
898 0 52.0407 15.1036 786 96.5942 1291.75 523.248
899 0 53.0551 14.0609 746 98.3485 1293.75 521.744
900 0 54.1683 15.3595 832 96.3618 1295.41 520.917
901 0 57.1365 14.7016 840 97.3226 1298.09 522.631
902 0 59.0522 13.9876 826 98.2482 1301.47 521.683
903 0 61.1206 13.7597 841 93.9298 1303.28 523.013
904 0 66.0883 14.8589 982 90.2912 1306.42 524.43
905 1 34.1289 11.8082 403 90.2283 1307.96 539.759
906 0 33.1285 11.5309 382 92.4895 1308.9 539.285
907 0 35.1504 10.9814 386 93.6062 1308.07 539.627
908 0 37.0645 10.792 400 93.1875 1308.68 543.04
909 0 39.1733 11.513 451 92.7561 1307.7 541.82
910 0 41.0631 13.1749 541 96.3216 1306.74 543.22
911 0 42.2606 14.032 593 92.9696 1304.76 541.639
912 0 43.0785 13.2317 570 91.3228 1302.03 542.058
913 0 46.1398 14.196 655 88.3863 1300.61 542.028
914 0 45.2767 13.3844 606 92.9653 1298.34 540.488
915 0 47.1976 15.022 709 88.9379 1295.86 538.748
916 0 46.164 12.6722 585 94.5026 1295.16 538.66
917 0 50.2258 13.8773 697 92.9856 1293.1 538.663
918 0 52.1761 15.6202 815 90.4957 1291.21 537.245
919 0 52.1761 15.5435 811 133.845 1290.23 537.243
920 0 54.2175 14.2205 771 93.227 1288.81 533.087
921 0 57.2604 13.622 780 95.0397 1288.58 532.591
922 0 57.2318 14.7645 845 94.0722 1287.77 528.566
923 0 60.1084 14.2409 856 93.111 1285.68 527.095
924 0 63.3422 13.6402 864 94.7986 1285.47 524.877
925 0 65.1734 15.405 1004 93.4044 1285.52 522.255
926 0 66.1537 14.6175 967 95.5698 1285.37 520.214
927 0 69.2122 14.1016 976 99.0072 1285.84 516.357
928 0 71.1823 15.4673 1101 95.4214 1287.03 517.682
929 1 37.1156 11.9087 442 99.7149 1287.13 532.337
930 0 37.1297 12.6583 470 100.051 1289.53 532.162
931 0 39.357 12.6026 496 99.4436 1291.09 531.782
932 0 39.0416 12.4227 485 103.315 1294.11 530.934
933 0 43.172 12.8092 553 102.222 1295.15 528.101
934 0 43.1419 14.0003 604 101.906 1298.01 529.71
935 0 44.2217 14.9926 663 99.1931 1299.62 530.445
936 0 47.1305 13.8551 653 98.7933 1301.66 528.879
937 0 48.261 13.1576 635 101.62 1304.14 527.655
938 0 52.6581 14.2428 750 97.3747 1305.52 527.704
939 0 52.2551 14.9459 781 97.7004 1306.54 526.406
940 0 56.1083 13.9908 785 98.9325 1307.72 529.546
941 0 60.149 15.711 945 94.1048 1307.39 529.85
942 0 61.2247 14.749 903 96.9236 1307.1 530.474
943 0 64.1824 14.7548 947 96.9852 1305.62 527.572
944 0 66.3503 14.755 979 96.9551 1304.51 529.216
945 0 69.2394 14.8326 1027 96.6436 1301.99 527.065
946 0 71.1492 14.8842 1059 98.5231 1300.39 527.755
947 1 38.2592 10.5073 402 97.9378 1297.77 544.562
948 0 40.0995 11.2969 453 100.879 1296.49 543.636
949 0 42.1644 13.7083 578 96.8114 1293.9 542.785
950 0 44.1885 14.1439 625 96.0256 1292.48 540.782
951 0 43.3089 13.3691 579 100.38 1292.03 538.867
952 0 45.1966 13.0762 591 97.423 1289.82 539.35
953 0 48.2168 14.5385 701 94.8716 1289.27 535.35
954 0 48.1463 14.4767 697 91.4806 1287.55 532.438
955 0 50.4695 14.9794 756 90.7844 1287.03 530.126
956 0 51.2238 16.1253 826 92.9334 1287.68 532.611
957 0 53.1372 14.5472 773 95.1462 1287.13 529.585
958 0 55.0936 14.3574 791 93.6764 1287.07 528.762
959 0 56.2018 15.0351 845 92.8308 1286.97 525.701
960 0 58.172 15.0416 875 92.1897 1286.46 524.763
961 0 60.2419 13.5454 816 93.7659 1287.78 521.859
962 0 64.1293 14.8606 953 90.4659 1288.56 520.25
963 0 66.3126 15.2158 1009 87.557 1289.38 517.729
964 1 33.0612 10.9494 362 88.4751 1292.32 535.837
965 0 35.0183 10.6516 373 87.4799 1294.63 536.137
966 0 37.0641 12.0872 448 88.5223 1296.15 534.556
967 0 37.0814 12.1355 450 89.0067 1299.53 535.476
968 0 37.0572 11.7386 435 91.4828 1302.47 536.255
969 0 38.2709 12.7251 487 89.347 1304.35 534.92
970 0 43.1241 14.0525 606 86.4125 1306.54 533.45
971 0 46.267 14.1137 653 84.9234 1309.21 535.219
972 0 44.143 14 618 86.3981 1308.91 533.909
973 0 47.344 13.5392 641 87.1513 1309.64 535.948
974 0 48.2374 13.3921 646 87.7337 1310.04 535.621
975 0 49.1707 13.8294 680 87.6044 1308.44 535.218
976 0 54.2007 14.1511 767 85.485 1307.31 536.489
977 0 55.2166 14.5246 802 85.2955 1306.77 536.782
978 0 56.2341 15.1687 853 85.7444 1304.36 534.662
979 0 58.1849 14.557 847 87.0012 1302.4 535.243
980 0 61.1377 15.5878 953 84.6243 1300.49 531.5
981 0 62.2574 14.3758 895 87.9642 1296.58 521.808
982 0 63.2461 13.6293 862 89.0209 1296.07 524.874
983 0 67.1871 15.6131 1049 85.123 1294.12 523.868
984 0 68.199 15.6307 1066 87.9906 1292.37 519.398
985 1 35.2263 12.9733 457 88.639 1292.19 536.818
986 0 39.1225 11.6557 456 89.5197 1291.46 542.257
987 0 38.4041 12.5247 481 91.9044 1289.7 538.266
988 0 39.1339 12.8788 504 92.1825 1289.12 534.476
989 0 41.1256 13.5196 556 91.3975 1288.55 534.486
990 0 44.3222 14.3495 636 92.8286 1286.62 535.167
991 0 43.104 13.4094 578 96.827 1286.07 532.609
992 0 46.2452 14.7907 684 92.4371 1285.31 529.819
993 0 46.3839 13.9057 645 90.4543 1287.85 529.957
994 0 48.4975 14.6812 712 90.2247 1288.38 525.406
995 0 50.4047 15.3359 773 89.2393 1289.36 526.868
996 0 51.3385 17.219 884 87.026 1291.1 525.592
997 0 52.2318 14.9717 782 91.5742 1293.4 523.996
998 0 54.3278 14.6886 798 91.2945 1295.43 524.541
999 0 58.1565 15.3035 890 89.5652 1297.3 524.052
1000 0 57.1768 14.6038 835 91.9114 1300.33 524.775
1001 0 63.4773 18.0222 1144 83.4292 1302.35 524.81
1002 1 27.2882 12.6062 344 96.2994 1306.13 539.296
1003 0 29.2915 12.0172 352 96.0881 1307.93 540.554
1004 0 29.2915 12.0172 352 163.205 1309.94 540.582
1005 0 34.4487 11.3212 390 96.8692 1309.87 540.736
1006 0 37.4199 11.0369 413 97.2736 1311.22 542.416
1007 0 37.5506 13.049 490 97.9061 1310.16 540.58
1008 0 39.3845 12.5176 493 97.0081 1309.18 543.361
1009 0 42.5235 13.0516 555 96.1207 1307.86 541.099
1010 0 43.3354 14.0763 610 96.4098 1306.25 540.225
1011 0 42.326 13.9158 589 96.2784 1304.52 541.051
1012 0 45.0999 13.2151 596 101.436 1302.44 542.143
1013 0 46.3016 14.9671 693 97.43 1299.78 542.368
1014 0 49.1624 15.3166 753 97.0837 1297.99 539.853
1015 0 50.3128 14.3502 722 99.5 1297.06 538.065
1016 0 53.5057 15.9983 856 95.7418 1295.6 535.667
1017 0 55.7825 15.0226 838 97.4272 1293.57 534.56
1018 0 55.5978 13.8495 770 101.251 1292.18 534.243
1019 0 60.0492 14.0385 843 98.9644 1290.62 532.295
1020 0 60.8354 14.1201 859 99.8265 1289.26 529.026
1021 0 61.9361 14.6441 907 99.086 1289.2 527.187
1022 0 64.9105 15.8988 1032 96.3585 1287.31 524.922
1023 0 67.6779 14.5394 984 98.1037 1287.34 521.973
1024 0 67.7952 16.5646 1123 95.1647 1287.18 518.597
1025 0 69.7758 15.1629 1058 97.9338 1287.07 518.124
1026 0 75.8783 15.3931 1168 95.607 1288.14 517.439
1027 0 74.4851 14.8755 1108 99.028 1288.19 514.723
1028 0 78.943 16.8983 1334 93.2279 1289.71 514.762
1029 0 78.7842 15.1934 1197 99.4394 1290.44 509.41
1030 0 82.6463 16.734 1383 95.2675 1292.79 510.04
1031 0 83.8288 15.9253 1335 98.4786 1294.89 509.152
1032 0 87.6929 16.3867 1437 97.6326 1296.61 506.497
1033 0 88.6199 15.7301 1394 98.2776 1299.67 507.846
1034 0 90.7086 14.7505 1338 101.076 1301.96 505.574
1035 0 94.6478 15.9961 1514 99.0363 1304.34 506.797
1036 0 99.5879 16.7791 1671 96.6499 1305.46 505.422
1037 1 50.4524 11.4167 576 102.111 1307.95 530.312
1038 0 52.4195 14.136 741 97.691 1309.38 529.382
1039 0 54.5194 14.1418 771 99.7263 1309.7 529.352
1040 0 58.4064 15.94 931 95.7626 1309.47 530.018
1041 0 57.7066 15.3709 887 99.1353 1307.77 528.701
1042 0 59.6278 13.534 807 102.841 1307.09 530.105
1043 0 64.6314 15.7044 1015 96.7566 1305.24 531.001
1044 0 67.5212 16.4689 1112 94.7131 1304.08 531.343
1045 0 67.851 14.2518 967 99.9586 1301.65 531.223
1046 0 71.8454 16.3963 1178 95.6087 1298.37 528.396
1047 0 73.5186 16.7577 1232 95.9464 1297.59 525.753
1048 0 74.5522 14.1646 1056 101.227 1295.56 526.973
1049 0 78.5903 14.8492 1167 99.3299 1293.91 523.518
1050 0 79.603 15.4014 1226 99.5636 1292.39 522.949
1051 0 83.603 15.5856 1303 98.1351 1291.13 521.96
1052 0 85.521 15.7154 1344 99.0804 1290.3 517.879
1053 0 89.5243 15.1132 1353 98.7384 1288.95 517.484
1054 0 91.4174 14.5705 1332 101.213 1288.22 512.795
1055 0 94.2802 16.3449 1541 97.2128 1286.23 510.001
1056 0 96.5673 15.4711 1494 99.8005 1286.38 507.498
1057 0 99.4412 15.4463 1536 99.6699 1285.43 503.078
1058 0 104.297 16.7022 1742 95.5396 1285.42 504.069
1059 0 107.297 15.788 1694 97.9994 1285.85 501.243
1060 0 111.321 15.4598 1721 98.4288 1286.22 499.463
1061 0 115.378 16.1815 1867 96.5908 1287.72 495.954
1062 0 119.37 15.8667 1894 96.7318 1289.41 491.772
1063 1 68.2479 12.2641 837 96.8853 1290.84 517.133
1064 0 71.2114 10.7427 765 99.6706 1293.35 517.371
1065 0 72.2922 12.1037 875 98.0971 1295.27 516.086
1066 0 77.3646 11.9176 922 98.4284 1298.03 514.791
1067 0 78.2831 11.8927 931 98.6122 1300.3 516.712
1068 0 79.0901 10.8231 856 98.354 1302.33 501.438
1069 0 83.1913 12.4652 1037 96.0472 1304.35 501.064
1070 0 85.256 13.1017 1117 95.4602 1305.3 499.207
1071 0 87.2526 12.1028 1056 99.1061 1305.96 499.188
1072 0 92.1289 11.6576 1074 98.8175 1306.26 503.025
1073 0 95.1881 12.8482 1223 98.2919 1307.09 497.433
1074 1 54.1278 7.18669 389 90.1208 1306.08 521.1
1075 0 56.1072 6.77275 380 90.9579 1306.37 522.555
1076 0 59.1672 9.41399 557 89.0916 1303.36 520.485
1077 0 61.2062 10.8159 662 91.6163 1301.26 522.645
1078 0 65.1681 13.2273 862 89.7274 1298.87 527.705
1079 0 67.0876 12.4911 838 91.2363 1296.78 528.426
1080 0 68.1157 12.1117 825 92.1455 1294.4 525.794
1081 0 72.0654 12.4886 900 89.9933 1294.1 530.579
1082 0 74.1408 13.8655 1028 87.5321 1294.01 526.991
1083 0 78.3303 14.5538 1140 85.3772 1293.27 526.811
1084 0 80.1374 13.689 1097 87.949 1292.03 525.5
1085 0 81.4105 12.4185 1011 90.4214 1292.45 518.178
1086 1 45.063 9.69753 437 88.5126 1291.62 539.558
1087 0 48.0909 8.81663 424 91.1439 1291.27 535.693
1088 0 49.1276 10.9918 540 89.0667 1289.94 534.428
1089 0 52.1177 12.4718 650 88.4877 1289.26 531.52
1090 0 53.1124 12.144 645 92.0248 1288.16 528.65
1091 0 53.0436 12.5557 666 93.0586 1288.94 525.916
1092 0 55.0571 13.1318 723 91.9723 1288.84 525.199
1093 0 58.1208 13.1794 766 91.2415 1290.14 523.752
1094 0 60.045 14.2393 855 89.2866 1290.69 522.241
1095 0 59.0549 11.955 706 95.1275 1293.08 520.414
1096 0 62.211 11.9111 741 94.7341 1294.7 519.244
1097 0 66.1112 14.1731 937 88.588 1296.34 521.132
1098 0 66.2101 13.5025 894 90.8758 1299.02 517.81
1099 0 69.1105 12.8635 889 91.4308 1301.37 518.358
1100 1 37.0215 7.8603 291 89.5773 1305.06 537.137
1101 0 37.0235 9.07533 336 86.1875 1306.81 538.601
1102 0 39.0731 9.16232 358 84.1899 1309.86 539.701
1103 0 39.0399 9.1445 357 88.5294 1310.54 538.272
1104 0 41.0162 10.2399 420 84.9333 1310.66 538.76
1105 0 43.0517 12.8682 554 82.4422 1311.94 537.328
1106 0 43.4793 12.6957 552 87.0598 1309.76 535.694
1107 0 45.0531 12.8515 579 86.9257 1309.51 537.931
1108 0 45.0281 10.7711 485 91.9278 1308.42 539.32
1109 0 48.0456 13.8202 664 86.616 1306.82 538.033
1110 0 47.1061 11.6545 549 92.0255 1305.54 538.652
1111 0 50.0379 12.7903 640 89.5625 1302.49 538.148
1112 0 51.0927 13.3874 684 89.0497 1299.66 536.241
1113 0 53.1187 14.2511 757 86.823 1297.85 534.363
1114 0 55.1277 13.7318 757 87.8653 1295.46 533.885
1115 0 55.0696 12.8201 706 89.7252 1294.23 533.177
1116 0 57.1271 12.3584 706 90.4703 1292.86 531.351
1117 0 58.0845 14.1862 824 88.3847 1291.68 530.26
1118 0 58.0845 14.1174 820 141.278 1289.69 530.296
1119 0 60.0952 11.9477 718 93.8719 1289.2 525.617
1120 0 62.1931 13.04 811 91.3083 1287.6 520.232
1121 1 33.0675 8.58848 284 89.8662 1288.29 537.092
1122 0 35.0792 9.9204 348 88.6293 1288.95 534.977
1123 0 39.0809 9.82576 384 86.7266 1288.61 534.073
1124 0 40.0292 11.2668 451 85.3149 1289.06 531.503
1125 0 42.027 9.89839 416 88.1034 1290.22 531.911
1126 0 40.0102 10.5473 422 89.1967 1291.52 531.18
1127 0 43.0148 10.8102 465 87.9161 1292.82 527.574
1128 0 43.4006 12.1657 528 87.642 1294.83 524.445
1129 0 44.0367 12.0581 531 91.887 1296.91 527.655
1130 0 47.0767 12.4478 586 90.0836 1299.64 527.676
1131 0 47.0383 12.4792 587 91.6269 1301.85 525.741
1132 0 49.1233 12.3974 609 89.353 1303.9 526.857
1133 0 50.2111 14.0208 704 86.6534 1305.83 525.625
1134 0 51.1273 14.6106 747 87.1606 1308.65 525.957
1135 0 52.0732 13.3466 695 90.0489 1309.82 528.778
1136 0 54.0844 14.2925 773 89.8072 1310.26 527.373
1137 0 58.0634 13.0719 759 93.4414 1311.71 528.087
1138 0 58.0987 13.1672 765 95.2026 1310.89 528.178
1139 0 59.0408 14.1258 834 94.4748 1310.32 527.614
1140 0 62.0555 13.6652 848 94.7712 1308.94 527.329
1141 0 63.049 13.7354 866 94.1732 1305.73 527.106
1142 0 68.1124 13.6979 933 93.5927 1304.1 524.925
1143 0 69.1085 12.9217 893 94.2956 1302.71 524.935
1144 1 37.086 9.81501 364 98.7692 1300.39 542.371
1145 0 37.0755 10.4382 387 98.7674 1297.78 540.351
1146 0 40.0617 11.9815 480 95.1333 1297.32 538.856
1147 0 41.1447 11.8849 489 95.6196 1294.46 540.164
1148 0 42.2348 13.5197 571 93.6585 1291.64 541.068
1149 0 44.2852 12.9163 572 96.1049 1290.53 540.638
1150 0 46.5912 13.7794 642 97.1215 1289.78 535.941
1151 0 48.4961 13.8568 672 96.1756 1288.83 537.265
1152 0 49.4093 13.5197 668 97.1467 1287.1 535.265
1153 0 50.4586 13.5755 685 97.3898 1286.64 534.358
1154 0 51.5933 13.8778 716 97.8827 1286.1 531.056
1155 0 53.3462 14.7527 787 95.9098 1285.64 529.642
1156 0 56.561 13.7374 777 97.4157 1285.82 528.974
1157 0 56.4385 13.9798 789 97.1445 1286.49 527.463
1158 0 58.5015 12.9398 757 99.3316 1288.07 526.044
1159 0 61.4957 14.2937 879 94.818 1289.54 526.811
1160 0 63.572 14.519 923 93.7183 1290.66 523.925
1161 0 64.4222 14.6844 946 94.6903 1292.15 522.405
1162 0 67.4104 13.3807 902 95.8337 1294.88 524.254
1163 1 36.0958 10.5553 381 94.8163 1298.45 540.333
1164 0 39.0103 11.7405 458 92.6026 1301.19 539.242
1165 0 40.2017 12.2134 491 91.2525 1303.33 539.959
1166 0 39.0633 11.9038 465 94.6323 1306.23 537.441
1167 0 41.0955 11.5828 476 96.3929 1307.97 538.414
1168 0 44.0495 12.5314 552 90.0344 1308.15 539.893
1169 0 44.201 13.8458 612 88.3007 1308.41 536.268
1170 0 48.1124 14.5908 702 84.7479 1308.03 539.403
1171 0 48.2901 13.3361 644 87.6444 1307.88 539.736
1172 0 51.3752 13.9172 715 86.2559 1306.31 541.001
1173 0 52.254 13.4918 705 87.7844 1305.13 538.973
1174 0 54.166 13.2186 716 88.4735 1302.6 541.786
1175 0 56.1751 14.5794 819 87.1819 1301.06 541.368
1176 0 58.2603 13.6972 798 88.4398 1297.62 539.985
1177 0 60.2896 13.4849 813 89.5375 1295.58 538.341
1178 0 60.2069 13.5367 815 90.2405 1294.24 537.109
1179 0 64.2957 12.9713 834 90.8249 1290.98 535.463
1180 0 66.2771 12.6891 841 96.6552 1289.31 535.811
1181 0 68.3032 13.5718 927 95.4822 1289.13 529.215
1182 0 71.3494 14.0716 1004 93.8496 1287.89 528.182
1183 0 75.4802 13.1558 993 94.1964 1287.2 526.366
1184 1 37.0239 8.34596 309 96.2848 1287.63 545.201
1185 0 38.0936 9.68668 369 94.916 1286.46 544.463
1186 0 45.1228 11.5906 523 91.9293 1285.39 540.421
1187 0 43.0678 9.10193 392 96.6964 1286.06 539.38
1188 0 45.0489 10.4775 472 94.2225 1286.04 537.144
1189 0 46.152 10.4438 482 94.5685 1285.78 535.519
1190 0 46.1871 11.3235 523 94.9866 1286.33 533.407
1191 0 49.1188 13.4368 660 92.3258 1288.22 532.935
1192 0 48.0476 13.1536 632 94.6804 1290.09 531.464
1193 0 50.1614 13.7556 690 89.9377 1291.78 530.296
1194 0 51.2402 12.6268 647 93.9521 1293.72 530.566
1195 0 53.1495 14.6944 781 90.1242 1296.02 529.061
1196 0 55.1934 13.9509 770 91.7429 1298.46 528.509
1197 0 57.2377 14.9901 858 89.5851 1300.9 528.213
1198 0 58.2246 13.4995 786 95.2188 1303.45 527.819
1199 0 61.19 13.4009 820 95.2244 1305.01 527.689
1200 0 62.2912 12.3613 770 98.1286 1306.26 527.542
1201 0 65.1666 13.1202 855 96.7029 1307.28 528.221
1202 0 68.227 14.2173 970 95.0588 1307.26 526.24
1203 0 70.1471 13.9421 978 97.0808 1307.07 527.702
1204 0 74.1222 13.5857 1007 97.4459 1306.96 529.6
1205 0 75.1285 12.9911 976 99.5072 1306.01 526.898
1206 0 80.2242 13.375 1073 98.343 1304.53 526.883
1207 1 43.0786 12.5584 541 98.3586 1304.29 545.113
1208 0 44.1382 11.6226 513 102.372 1299.76 544.546
1209 0 47.2688 13.0107 615 103.475 1297.14 541.267
1210 0 49.397 14.3531 709 100.829 1296.22 541.319
1211 0 47.2057 11.3757 537 101.661 1293.32 536.618
1212 0 49.1373 12.1496 597 93.5494 1292.51 531.936
1213 0 51.0405 12.206 623 93.0144 1291.62 533.718
1214 0 53.0815 13.1496 698 92.2865 1289.91 531.344
1215 0 56.1136 14.4528 811 89.0074 1288.67 527.838
1216 0 59.0693 12.0875 714 94.1274 1286.78 523.818
1217 0 61.1015 12.8966 788 92.514 1287.78 525.089
1218 0 61.1639 13.6682 836 92.7165 1287.55 522.676
1219 0 63.2402 13.3934 847 92.4911 1287.12 520.041
1220 0 66.1668 13.3602 884 92.8484 1286.47 517.018
1221 0 67.217 12.5266 842 95.5629 1287.54 516.015
1222 0 71.1556 13.9694 994 92.0624 1286.77 514.124
1223 0 75.2958 15.7778 1188 88.9352 1288.44 513.569
1224 0 76.2307 14.4824 1104 91.712 1289.23 509.698
1225 0 78.3772 14.8895 1167 92.9049 1291.29 508.737
1226 0 81.6679 14.3631 1173 94.3768 1293 505.989
1227 0 85.3966 13.572 1159 96.0595 1295.55 508.265
1228 1 43.1673 12.1852 526 94.8422 1299.01 530.333
1229 0 45.1481 12.7802 577 95.9619 1300.51 526.96
1230 0 46.0745 12.0023 553 100.982 1302.58 526.806
1231 0 48.1571 12.2516 590 104.344 1305.09 528.088
1232 0 50.1729 11.8191 593 100.855 1307.35 529.99
1233 0 50.2528 11.9993 603 103.144 1308.13 529.469
1234 0 52.1681 12.4597 650 101.409 1309.05 529.965
1235 0 53.2864 12.6111 672 100.022 1309.45 529.384
1236 0 57.3334 13.779 790 96.0291 1308.54 530.067
1237 0 58.2848 12.5075 729 98.6132 1307.17 528.678
1238 0 62.3063 12.599 785 99.4854 1305.79 529.228
1239 0 61.1566 11.9693 732 101.536 1305.9 529.863
1240 0 67.1447 13.94 936 97.0139 1302.4 527.269
1241 0 67.246 12.0602 811 100.693 1300.91 530.423
1242 0 70.2315 13.128 922 100.454 1298.45 524.986
1243 0 75.2863 12.5654 946 100.437 1297.47 524.944
1244 1 41.2056 11.4062 470 92.7681 1295.97 541.032
1245 0 40.2378 10.9599 441 94.5034 1294.76 539.084
1246 0 42.2423 11.9075 503 92.5447 1293.43 538.541
1247 0 43.1954 13.6126 588 92.3146 1291.72 538.337
1248 0 45.5762 13.45 613 98.0587 1291.53 539.956
1249 0 45.1211 12.7435 575 98.1617 1290.78 537.753
1250 0 48.2534 13.8436 668 95.003 1289.93 534.754
1251 0 46.1279 11.9884 553 101.347 1289.36 532.908
1252 0 50.1701 13.8329 694 97.719 1288.82 531.246
1253 0 51.0942 14.0916 720 99.8125 1289.65 530.286
1254 0 52.1046 14.183 739 101.606 1289.27 525.451
1255 0 54.0854 14.0703 761 101.255 1289.76 523.984
1256 0 56.2018 15.818 889 97.9156 1289.45 523.466
1257 0 57.167 15.0087 858 99.7529 1290.98 521.152
1258 0 58.3165 13.4439 784 103.143 1293.48 523.01
1259 0 62.2638 15.9322 992 94.6532 1295.69 521.655
1260 0 65.2312 15.2381 994 94.672 1297.07 519.879
1261 0 66.1472 14.1351 935 92.9198 1300.46 518.765
1262 0 68.1515 14.5265 990 90.4707 1302.47 520.496
1263 0 72.4267 15.0359 1089 89.2893 1305.44 517.389
1264 0 74.2563 15.3388 1139 88.3907 1307.46 515.285
1265 1 38.145 10.0406 383 96.7494 1309.72 537.112
1266 0 39.0492 11.9593 467 96.5567 1310.58 534.304
1267 0 42.1003 11.7814 496 95.4516 1311.33 536.913
1268 0 41.0571 10.8142 444 96.8986 1310.41 540.401
1269 0 42.3631 12.4401 527 94.7514 1309.5 536.509
1270 0 43.5004 11.8849 517 97.6712 1307.24 540.646
1271 0 44.4124 12.3164 547 96.5338 1305.82 538.885
1272 0 46.0601 13.3521 615 90.9837 1306.14 540.782
1273 0 45.1149 10.9498 494 98.4939 1304.27 540.654
1274 0 48.1109 12.5959 606 96.5314 1302.1 540.135
1275 0 50.0453 13.0082 651 94.828 1299.91 540.872
1276 0 52.1254 12.9879 677 95.5539 1298.17 537.422
1277 0 52.1489 11.7548 613 98.7439 1296.22 536.695
1278 0 55.1748 11.1645 616 99.3815 1294.97 536.325
1279 0 55.1013 12.2139 673 97.5765 1294.48 534.597
1280 0 59.1527 12.7974 757 96.4148 1293.28 531.762
1281 0 59.0958 13.0635 772 96.465 1290.99 529.961
1282 0 62.228 14.3183 891 92.9562 1289.54 528.294
1283 0 65.1867 13.561 884 93.6199 1288.93 524.664
1284 0 68.1229 13.8573 944 93.2733 1288.16 521.514
1285 0 68.1473 13.7496 937 93.4408 1288.2 516.957
1286 0 71.2411 12.7595 909 94.6975 1287.5 516.12
1287 1 39.1681 10.0081 392 98.6862 1288.71 530.786
1288 0 41.0993 11.6547 479 97.7223 1288.55 527.115
1289 0 43.2136 12.4498 538 96.8346 1290.65 525.493
1290 0 42.4947 9.71885 413 98.7797 1290.7 528.201
1291 0 45.4177 12.5942 572 94.9231 1292.84 526.152
1292 0 46.5327 9.97148 464 95.5582 1295.81 522.224
1293 0 43.3544 11.3714 493 93.856 1298.83 518.74
1294 0 46.439 12.6187 586 91.4437 1301.53 519.517
1295 0 49.0236 11.5659 567 94.0317 1305.36 522.228
1296 0 50.0333 10.6729 534 94.1067 1306.75 523.116
1297 0 54.041 13.0827 707 90.5799 1308.69 521.629
1298 0 55.0628 12.7672 703 92.6088 1309.77 523.697
1299 0 56.0514 12.881 722 95.5471 1311.27 523.385
1300 0 58.0582 13.142 763 96.0459 1311.4 524.339
1301 0 61.0835 13.2278 808 93.6572 1310.23 523.652
1302 0 67.0453 13.2895 891 93.9327 1305.6 520.989
1303 0 69.1701 13.474 932 89.779 1304.29 522.38
1304 0 68.2698 11.4692 783 94.7114 1302.49 520.848
1305 0 72.2597 10.8913 787 95.0203 1300.34 520.615
1306 1 40.0985 8.30456 333 94.1802 1299.84 537.781
1307 0 41.0968 9.70879 399 94.6416 1296.91 533.972
1308 0 44.152 11.5283 509 90.7623 1295.74 535.395
1309 0 42.2016 9.95223 420 95.181 1294.34 534.04
1310 0 43.2313 11.0568 478 95.5837 1292.56 532.529
1311 0 45.1572 10.5631 477 95.9748 1291.49 529.47
1312 0 48.1644 13.4124 646 90.6734 1290.8 528.04
1313 0 53.2614 13.3868 713 90.4993 1286.74 525.77
1314 0 54.3472 12.2913 668 92.5823 1286.59 524.144
1315 0 58.4426 13.9111 813 88.9926 1286.28 521.985
1316 0 59.2565 13.7031 812 89.8805 1287.13 520.401
1317 0 62.3631 13.5497 845 89.8864 1287.29 517.993
1318 0 62.2805 12.7167 792 91.9874 1287.07 518.484
1319 0 64.2839 13.2537 852 90.9472 1287.55 515.494
1320 0 69.3168 13.7917 956 81.0345 1290.29 519.584
1321 0 72.3368 13.8795 1004 87.6175 1291.74 515.185
1322 0 74.3258 13.1852 980 90.1837 1293.94 513.627
1323 0 78.3751 13.8692 1087 88.8464 1296.41 513.484
1324 0 80.3256 15.0512 1209 85.9611 1298.8 513.001
1325 1 39.2444 9.09684 357 90.8712 1301.31 533.081
1326 0 41.1345 10.7939 444 89.0293 1302.85 532.581
1327 0 43.162 10.6807 461 89.3406 1304.5 534.434
1328 0 45.1294 13.4059 605 94.4347 1306.33 541.253
1329 0 46.2827 11.9267 552 98.4203 1305.48 538.442
1330 0 49.2229 14.4039 709 91.8195 1305.02 541.574
1331 0 50.1016 13.5724 680 95.7559 1304.91 541.347
1332 0 53.1015 14.1616 752 94.0465 1303.06 543.839
1333 0 53.0906 14.673 779 93.3582 1302.14 542.762
1334 0 56.1046 14.0274 787 95.0928 1300.5 543.666
1335 0 59.1537 15.2991 905 91.9039 1298.25 544.481
1336 0 59.1165 15.1903 898 94.2483 1295.32 542.825
1337 0 62.1195 14.8424 922 95.4946 1292.79 543.44
1338 0 63.1603 14.0436 887 97.3529 1290.7 540.966
1339 0 67.1782 15.3323 1030 94.2437 1289.24 538.729
1340 0 68.2352 14.4207 984 97.247 1288.08 539.904
1341 0 71.165 14.895 1060 97.6858 1285.41 536.276
1342 0 73.221 14.3538 1051 99.7736 1284.83 534.701
1343 0 76.2519 15.2783 1165 98.1004 1283.09 532.951
1344 0 78.1024 15.7486 1230 97.2821 1283 530.868
1345 0 82.1112 15.9783 1312 96.3498 1281.58 529.34
1346 1 42.0647 11.0782 466 107.29 1281.51 545.601
1347 0 45.0775 10.5596 476 109.777 1281.77 544.855
1348 0 48.105 12.3272 593 105.086 1282.29 544.325
1349 0 49.0645 12.2288 600 105.803 1281.79 542.01
1350 0 52.0277 13.1276 683 105.496 1283.08 538.42
1351 0 52.0634 13.4067 698 106.693 1284.43 537.043
1352 0 53.3598 13.6807 730 105.988 1283.63 534.153
1353 0 54.5297 13.919 759 106.406 1285.1 531.055
1354 0 56.3234 13.6 766 106.795 1286.71 532.996
1355 0 58.4365 12.8858 753 106.736 1290.07 533.574
1356 0 59.3525 13.8832 824 103.112 1293.12 534.659
1357 0 60.3818 13.5968 821 104.132 1294.38 533.519
1358 0 65.2534 13.7617 898 101.38 1297.62 532.217
1359 0 65.3414 13.3453 872 103.45 1299.46 532.592
1360 0 69.4031 13.9907 971 100.867 1298.19 533.173
1361 0 72.3832 14.2436 1031 100.97 1299.79 530.936
1362 0 73.2169 14.4366 1057 102.051 1300.88 529.135
1363 0 78.2285 14.1764 1109 99.8756 1300.65 531.197
1364 1 44.0595 10.2135 450 101.096 1300.71 549.811
1365 0 43.065 11.5871 499 101.667 1300.53 547.796
1366 0 45.0645 12.1604 548 102.024 1298.34 547.418
1367 0 47.0444 12.8389 604 99.4917 1297.75 549.308
1368 0 49.0275 11.9525 586 103.222 1293.28 546.766
1369 0 48.0092 11.1645 536 97.7071 1291.49 542.933
1370 0 52.04 12.8939 671 93.149 1290.54 544.261
1371 0 53.1497 12.5683 668 89.3443 1287.73 542.581
1372 0 54.3654 11.0364 600 78.3667 1285.81 544.853
1373 0 54.3135 11.047 600 91.79 1285.21 542.843
1374 0 55.1636 9.89784 546 93.4286 1283.21 538.07
1375 0 60.1801 13.1771 793 86.7264 1282.1 538.464
1376 0 59.3008 12.074 716 90.1439 1279.51 532.705
1377 0 61.2079 12.1226 742 89.7426 1279.02 530.264
1378 0 65.3183 11.819 772 88.6321 1278.52 529.702
1379 0 67.191 12.6059 847 86.6647 1279.2 527.4
1380 0 69.1895 12.4585 862 88.4548 1279.7 524.356
1381 0 70.2114 12.9039 906 87.8863 1280.56 523.756
1382 0 72.4368 10.7266 777 91.3179 1282.3 521.887
1383 0 72.324 11.1581 807 92.7646 1282.69 518.973
1384 1 42.6104 10.7016 456 87.0899 1285.96 536.871
1385 0 40.1395 9.61646 386 95.215 1290.15 541.8
1386 0 44.1599 12.0471 532 90.6748 1291.86 541.043
1387 0 46.2205 11.1422 515 92.0291 1294.37 539.274
1388 0 46.1661 11.0904 512 93.582 1297.01 538.412
1389 0 50.0704 12.8219 642 90.5779 1298.49 539.674
1390 0 52.0788 13.1147 683 89.9122 1301.67 538.758
1391 0 52.2262 12.6756 662 91.7523 1301.71 539.953
1392 0 54.18 13.5659 735 92.0585 1303.56 539.962
1393 0 56.2932 13.3942 754 92.4668 1304.4 540.878
1394 0 59.1875 14.0908 834 92.066 1304.51 540.808
1395 0 61.0733 12.9025 788 93.6497 1303.35 539.528
1396 0 64.1971 13.7857 885 91.5718 1302.78 538.742
1397 0 65.142 13.2326 862 93.3121 1300.41 538.261
1398 0 71.106 14.4432 1027 90.6203 1298.33 538.074
1399 0 73.1976 13.73 1005 92.6846 1296.11 535.447
1400 0 76.1106 14.1767 1079 92.6209 1293.26 534.592
1401 0 77.2208 12.7297 983 96.5036 1291.34 535.309
1402 0 81.0708 14.3701 1165 93.4197 1289.21 529.597
1403 0 84.1339 14.0372 1181 94.5267 1286.64 529.06
1404 1 47.0511 10.988 517 98.1025 1286.05 548.901
1405 0 50.1062 11.1962 561 96.6756 1284.28 546.438
1406 0 50.3072 11.0123 554 96.9838 1283.55 545.968
1407 0 52.3321 13.185 690 94.3464 1281.32 542.68
1408 0 53.5565 11.0351 591 94.8832 1279.85 539.839
1409 0 57.0255 13.9061 793 97.0492 1281.48 540.277
1410 0 57.0344 12.8168 731 100.242 1281.46 538.778
1411 0 58.1204 13.7301 798 98.3008 1281.97 536.915
1412 0 60.1064 13.5926 817 98.0453 1281.63 535.525
1413 0 63.2615 13.547 857 96.9977 1283.58 535.636
1414 0 65.0312 13.532 880 97.5898 1284.63 533.636
1415 0 67.1178 13.6476 916 96.4356 1286.38 532.533
1416 0 70.0382 13.6497 956 95.2437 1288.24 531.593
1417 0 74.1 14.0081 1038 94.6175 1290.33 530.008
1418 0 76.2467 13.5219 1031 96.225 1292.56 528.909
1419 1 46.0449 11.3802 524 94.2653 1295.52 547.382
1420 0 46.1492 9.75098 450 99.3889 1297.34 548.504
1421 0 48.0474 10.2191 491 98.4542 1300.25 551.134
1422 0 49.0964 11.4672 563 99.3961 1301.02 549.488
1423 0 49.2691 11.63 573 100.551 1299.8 549.232
1424 0 51.3884 11.6563 599 100.254 1300.83 550.845
1425 0 54.1474 12.6137 683 89.0732 1300.65 551.288
1426 0 54.2216 12.3383 669 92.8102 1299.08 552.144
1427 0 59.0961 13.7911 815 88.4086 1296.25 550.885
1428 0 59.1592 12.4748 738 92.1396 1294.79 551.214
1429 0 60.1362 12.2555 737 93.3406 1292.11 550.578
1430 0 66.1814 14.702 973 87.5725 1290.12 548.274
1431 0 68.1703 14.9185 1017 87.1337 1287.71 545.275
1432 0 70.0973 14.3657 1007 88.566 1285.07 545.214
1433 0 73.4054 14.7264 1081 87.6374 1283.37 543.415
1434 0 74.2036 13.3147 988 90.8451 1281.63 542.416
1435 0 79.3803 14.2983 1135 88.8925 1280.74 539.808
1436 0 81.2743 14.568 1184 88.19 1279.15 534.138
1437 1 43.0476 12.2655 528 88.9091 1279.25 552.697
1438 0 46.0854 8.11536 374 91.4706 1278.75 554.797
1439 0 47.1618 10.835 511 88.7789 1277.8 548.413
1440 0 48.052 11.1962 538 91.277 1278.48 547.831
1441 0 50.1077 11.8345 593 88.9966 1278.3 547.084
1442 0 51.2117 11.0326 565 91.2319 1278.73 542.777
1443 0 53.095 12.6754 673 87.1828 1278.72 544.9
1444 0 54.2421 12.9789 704 87.8409 1279.58 539.227
1445 0 57.4284 12.8334 737 87.6649 1281.96 539.11
1446 0 56.4006 12.358 697 90.8149 1283.96 535.755
1447 0 58.3227 12.6366 737 91.0163 1285.18 536.033
1448 0 60.2263 12.2704 739 91.9418 1287.56 535.096
1449 0 64.1145 13.6786 877 88.9213 1289.82 534.336
1450 0 66.2415 13.2394 877 89.4253 1291.72 532.838
1451 0 67.2345 14.1892 954 87.5514 1295.03 530.122
1452 0 68.3393 13.0379 891 90.1987 1297.06 530.689
1453 0 69.2749 12.0101 832 92.7632 1298.73 531.149
1454 0 72.3457 11.6662 844 92.8543 1299.84 529.768
1455 0 77.2723 11.7895 911 92.3809 1299.99 528.234
1456 0 79.2517 13.1985 1046 90.7266 1299.87 529.799
1457 0 83.4132 12.552 1047 91.9723 1298.48 527.014
1458 1 46.0317 10.1669 468 92.6538 1298.91 550.75
1459 0 48.2541 10.196 492 98.0854 1296.53 544.998
1460 0 48.2428 10.4057 502 99.739 1294.41 543.167
1461 0 51.283 12.0703 619 95.496 1292.64 545.389
1462 0 51.2067 12.4007 635 96.411 1289.59 542.126
1463 0 54.4082 12.0202 654 97.9174 1287.72 538.067
1464 0 54.2907 10.8306 588 101.505 1287.38 543.694
1465 0 57.3487 12.2409 702 98.7934 1285.83 543.462
1466 0 58.534 12.1297 710 99.5831 1284.45 541.963
1467 0 60.3161 13.1308 792 97.2677 1282.96 539.701
1468 0 62.4254 12.1585 759 98.6403 1281.76 538.875
1469 0 65.3382 12.7491 833 96.1417 1281.8 537.324
1470 0 67.3666 12.6175 850 96.5506 1281.33 536.253
1471 0 68.3688 13.7051 937 95.2711 1280.57 534.21
1472 0 70.4038 12.5703 885 96.4994 1280.84 531.062
1473 0 71.3174 11.4698 818 99.6626 1281.72 527.782
1474 0 74.3038 12.6777 942 96.8949 1281.64 527.316
1475 1 40.0149 10.3461 414 96.2415 1284.05 544.585
1476 0 44.1096 10.3152 455 97.0022 1285.34 543.275
1477 0 43.1276 8.92699 385 97.613 1287.44 543.317
1478 0 44.0461 11.6242 512 94.1719 1288.86 543.666
1479 0 48.1728 11.7909 568 95.2887 1291.93 542.734
1480 0 49.0895 13.2208 649 93.5316 1293.92 545.146
1481 0 49.099 13.1978 648 95.6312 1297.03 546.261
1482 0 49.091 14.0148 688 95.5422 1299.44 543.23
1483 0 51.2556 12.6035 646 98.6904 1300.89 546.943
1484 0 53.0856 12.4139 659 99.6404 1301.79 548.366
1485 0 55.046 13.7521 757 96.7477 1302.12 546.795
1486 0 56.0539 12.595 706 100.574 1301.45 547.03
1487 0 62.2013 14.437 898 93.8185 1300.49 547.912
1488 0 64.1705 13.1057 841 98.6147 1298.85 548.87
1489 0 65.1889 13.5146 881 99.4154 1297.06 548.364
1490 0 66.1066 14.0379 928 99.4418 1294.57 547.036
1491 0 69.1942 13.6572 945 100.44 1292.56 547.04
1492 0 73.2417 15.5239 1137 96.2638 1290.67 547.885
1493 0 73.1736 13.5978 995 104.61 1287.05 542.395
1494 0 76.108 14.7816 1125 101.94 1285.4 544.238
1495 1 46.0597 10.2476 472 104.246 1284.24 560.748
1496 0 46.1334 10.6647 492 107.533 1282.45 557.443
1497 0 47.0702 11.2385 529 106.631 1279.99 557.471
1498 0 49.1948 11.6272 572 106.476 1278.66 554.703
1499 0 49.0502 13.1498 645 106.935 1277.75 551.769
1500 0 52.0856 12.729 663 105.967 1277.3 550.839
1501 0 53.3201 12.8094 683 108.479 1275.53 547.237
1502 0 54.2979 13.4444 730 107.753 1275.54 543.821
1503 0 54.3123 14.0852 765 108.46 1275.61 541.352
1504 0 58.4997 13.7778 806 107.857 1276.45 541.168
1505 0 59.318 13.6215 808 108.996 1277.18 538.406
1506 0 61.4629 14.3338 881 106.018 1278.91 537.883
1507 0 62.312 13.8818 865 107.987 1280.01 536.075
1508 0 64.3973 12.9664 835 110.046 1280.72 534.853
1509 0 65.3319 13.1329 858 109.747 1283.33 532.749
1510 0 69.3094 13.8509 960 106.79 1285.54 530.142
1511 0 71.5025 14.5589 1041 105.358 1288.67 526.916
1512 0 74.3227 15.2174 1131 103.041 1291.41 527.622
1513 0 76.3603 13.4887 1030 108.146 1293.83 528.708
1514 0 79.3583 14.277 1133 107.969 1295.41 526.416
1515 1 43.2281 9.94723 430 109.872 1299.15 544.977
1516 0 47.4133 10.1237 480 108.721 1299.07 546.265
1517 0 44.4787 10.7242 477 110.47 1299.52 545.889
1518 0 47.2264 10.312 487 109.852 1295.9 551.084
1519 0 50.0942 11.3786 570 107.577 1294.06 549.635
1520 0 52.0734 12.7128 662 104.054 1293.78 549.116
1521 0 52.2987 12.5816 658 101.982 1294.84 544.123
1522 0 54.0966 12.8659 696 99.681 1290.45 547.553
1523 0 55.0301 13.3382 734 100.861 1288.01 547.717
1524 0 59.1316 13.5968 804 99.1493 1286.98 547.378
1525 0 60.1343 13.4366 808 99.7463 1285.09 543.958
1526 0 61.3065 13.3265 817 99.224 1283.8 543.761
1527 0 64.2156 13.1121 842 98.9727 1282.66 542.327
1528 0 68.1286 13.68 932 96.1309 1280.33 539.955
1529 0 68.2779 12.2294 835 101.419 1279.26 537.429
1530 0 71.2576 13.4302 957 97.3793 1278.05 535.817
1531 0 72.1056 13.078 943 98.3902 1277.2 533.658
1532 0 75.154 13.173 990 97.6879 1276.73 531.246
1533 0 77.3347 13.3058 1029 97.1992 1276.01 528.534
1534 0 81.146 14.1473 1148 94.8667 1276.49 524.867
1535 0 83.2696 13.9307 1160 95.644 1276.82 522.441
1536 0 85.1537 15.0786 1284 93.479 1277.61 520.16
1537 0 90.1871 13.1061 1182 93.978 1277.95 523.29
1538 1 51.0483 8.65847 442 97.5747 1279.19 542.111
1539 0 54.0653 10.0619 544 95.8272 1281.97 540.879
1540 0 56.1016 10.481 588 96.7398 1284.02 538.602
1541 0 56.0707 9.96956 559 99.3381 1287.31 540.707
1542 0 57.0525 10.9022 622 99.4502 1289.93 539.884
1543 0 61.3869 11.8266 726 103.467 1291.82 537.89
1544 0 61.2275 12.2167 748 99.738 1294.63 539.139
1545 0 62.1327 12.6021 783 100.396 1297.09 540.852
1546 0 64.2057 12.2108 784 102.245 1297.58 538.61
1547 0 69.1672 13.489 933 97.8574 1298.82 542.168
1548 0 69.4378 12.1116 841 103.244 1298.26 541.055
1549 0 75.3546 12.9521 976 100.358 1296.86 540.541
1550 0 76.6905 12.5309 961 101.562 1295.1 540.607
1551 0 81.2927 13.396 1089 102.26 1293.26 538.703
1552 1 43.0792 9.63342 415 99.1157 1288.88 556.877
1553 0 48.1303 10.7209 516 97.9864 1287.38 556.998
1554 0 47.0794 10.7478 506 97.8557 1285.83 558.5
1555 0 48.0859 11.3131 544 99.9302 1283.77 556.899
1556 0 49.0901 12.5484 616 100.5 1282.99 555.654
1557 0 51.0703 12.0031 613 106.788 1280.41 553.834
1558 0 52.0432 12.1438 632 107.646 1278.19 551.791
1559 0 55.1769 13.0671 721 105.639 1277.8 549.788
1560 0 57.0534 12.0764 689 107.964 1275.88 547.017
1561 0 56.0609 12.5578 704 108.582 1275.36 544.376
1562 0 58.0681 11.0215 640 111.378 1274.58 543.202
1563 0 63.0862 13.4261 847 104.033 1274.89 541.49
1564 0 63.1512 12.8422 811 106.313 1274.19 537.94
1565 0 64.2042 12.6316 811 107.248 1273.36 534.123
1566 0 66.3176 13.5711 900 105.537 1274.46 530.91
1567 0 70.1896 11.5972 814 109.479 1276.87 529.871
1568 0 71.1169 13.4286 955 104.599 1277.65 527.461
1569 0 71.1669 12.1826 867 107.1 1277.32 527.076
1570 0 74.2795 13.3954 995 104.836 1280.96 523.791
1571 0 77.3292 12.3757 957 105.449 1283.23 523.689
1572 0 80.3386 13.2315 1063 103.171 1285.22 522.98
1573 0 82.1903 13.5052 1110 103.47 1288.11 520.04
1574 0 87.218 14.309 1248 100.626 1290.69 521.184
1575 1 49.0347 8.97324 440 99.9727 1290.98 543.977
1576 0 47.073 8.94356 421 102.297 1292.36 541.235
1577 0 52.0304 9.49445 494 100.816 1293.62 541.816
1578 0 52.1124 9.36438 488 100.613 1294.99 541.688
1579 0 56.2648 11.6414 655 93.9114 1298.88 543.356
1580 0 56.412 11.7528 663 93.822 1297.73 542.641
1581 0 57.2407 10.9887 629 96.725 1297.27 541.854
1582 0 61.3623 12.8255 787 92.5388 1295.89 539.947
1583 0 63.2811 11.9467 756 93.4894 1293.97 540.545
1584 0 66.3595 12.7487 846 91.4752 1292.37 540.764
1585 0 70.3372 14.6437 1030 87.368 1290.61 542.144
1586 0 71.3667 13.6618 975 90.0718 1288.26 538.408
1587 0 74.2976 12.773 949 92.4731 1286.21 537.696
1588 0 75.242 12.4797 939 94.2694 1285.07 535.157
1589 0 78.1582 12.8713 1006 93.8082 1284.11 531.597
1590 0 81.361 12.3524 1005 95.2129 1283.19 531.165
1591 1 46.0994 10.8895 502 96.2092 1283.1 548.683
1592 0 48.0632 9.65395 464 99.2069 1282.81 547.08
1593 0 49.1467 11.0893 545 98.7505 1282.04 540.949
1594 0 52.1431 11.4109 595 98 1279.54 544.444
1595 0 53.0342 12.3317 654 94.7829 1278.79 539.778
1596 0 56.1793 12.6915 713 90.3282 1279.98 537.785
1597 0 56.0808 12.2502 687 91.9418 1279.47 538.741
1598 0 59.0432 12.8719 760 91.6618 1281.48 537.751
1599 0 60.1439 13.7337 826 90.7821 1282.58 532.14
1600 0 61.1202 12.5654 768 95.0677 1284.83 532.401
1601 0 62.0849 11.9353 741 95.5196 1287.16 531.843
1602 0 66.0969 12.9809 858 90.9685 1289.77 531.598
1603 0 67.2466 13.8446 931 89.0419 1292.12 529.096
1604 0 67.1422 12.6597 850 92.3647 1294.25 532.844
1605 0 71.2437 13.896 990 89.2899 1297.6 532.916
1606 0 73.2234 14.2441 1043 88.2368 1299.92 529.328
1607 0 75.2241 12.6555 952 92.1019 1300.85 531.561
1608 0 80.2148 14.885 1194 88.6139 1301.81 530.694
1609 1 41.0628 10.9832 451 97.6807 1300.24 550.938
1610 0 44.0177 10.4049 458 98.8013 1299.06 549.889
1611 0 45.0918 10.4675 472 100.006 1297.78 549.083
1612 0 47.2953 10.7622 509 99.3399 1295.63 550.438
1613 0 48.1897 12.0358 580 98.8552 1294.2 549.276
1614 0 52.2535 12.4202 649 93.3405 1293.24 550.248
1615 0 54.0809 13.0915 708 94.7627 1290.15 549.839
1616 0 54.1516 13.6653 740 90.9108 1287.64 548.414
1617 0 56.1675 12.5517 705 91.6908 1285.72 546.742
1618 0 59.2034 10.9115 646 95.0016 1285.37 545.602
1619 0 60.1349 12.2724 738 93.0095 1283.64 541.499
1620 0 61.1245 11.0758 677 96.6869 1282.19 541.143
1621 0 61.1733 12.7016 777 95.1519 1281.88 541.142
1622 0 61.2457 12.2294 749 98.721 1282.49 519.924
1623 0 62.2658 12.2057 760 98.8974 1280.92 518.883
1624 0 61.2913 13.4114 822 100.544 1280.42 516.86
1625 0 61.2322 13.359 818 101.49 1279.91 514.355
1626 0 60.578 12.9585 785 101.394 1280.55 514.627
1627 0 60.3006 14.378 867 108.01 1281.72 510.216
1628 0 60.3502 13.2394 799 107.827 1281.22 508.111
1629 0 61.2653 13.6619 837 105.384 1282.72 510.68
1630 0 64.2419 15.8463 1018 97.2328 1283.59 511.817
1631 0 62.2466 14.1373 880 102.647 1285.44 512.501
1632 0 65.2719 14.1562 924 100.269 1288.11 512.315
1633 0 66.254 13.3577 885 101.828 1290.08 513.124
1634 0 67.1957 14.6736 986 98.3316 1292.65 514.638
1635 0 72.218 16.6163 1200 83.2525 1294.87 524.296
1636 0 75.293 18.262 1375 79.1091 1297.07 525.546
1637 0 77.2131 18.8828 1458 78.4424 1300.43 526.807
1638 0 69.2227 15.6596 1084 90.1734 1301.22 529.173
1639 0 76.1584 16.9121 1288 82.5644 1299.7 528.777
1640 0 80.2438 18.6556 1497 77.978 1299.07 526.534
1641 0 78.177 17.4988 1368 81.8816 1299.08 529.813
1642 0 80.0907 16.3315 1308 83.3632 1298.75 528.758
1643 0 81.3188 19.8724 1616 75.1615 1295.8 525.671
1644 0 78.061 16.8842 1318 83.5561 1294.01 523.329
1645 0 82.2921 18.6288 1533 79.2603 1290.73 521.283
1646 0 82.0888 16.6283 1365 83.3678 1289.56 522.13
1647 0 84.2982 17.9482 1513 81.8017 1287.57 525.702
1648 0 85.2677 19.7378 1683 80.6482 1285.47 520.679
1649 0 87.1919 19.8069 1727 81.0741 1283.1 525.733
1650 0 89.1645 20.1538 1797 80.0757 1280.42 521.95
1651 0 89.1645 20.1089 1793 133.636 1276.42 521.917
1652 0 89.1637 18.023 1607 85.939 1279.16 521.616
1653 0 91.1666 20.7313 1890 80.436 1278.11 516.675
1654 0 92.3257 24.3052 2244 76.6114 1276.31 516.213
1655 0 94.2567 23.2132 2188 78.7134 1275.89 513.416
1656 0 94.4084 20.6867 1953 84.2227 1276 514.995
1657 0 94.2055 21.0179 1980 84.9561 1276.31 514.801
1658 0 95.1277 19.0586 1813 89.1197 1277.19 512.372
1659 0 96.2658 22.2717 2144 83.7603 1278.98 506.416
1660 0 98.256 21.5356 2116 86.9702 1279.84 508.649
1661 0 98.1692 21.1064 2072 88.832 1282.15 506
1662 0 100.29 18.8752 1893 95.0475 1284 509.029
1663 0 99.3883 20.5155 2039 93.642 1287.21 505.021
1664 0 102.357 23.4473 2400 88.1754 1289.79 506.668
1665 0 102.1 20.0979 2052 97.1983 1292.76 509.916
1666 0 102.12 19.3302 1974 100.46 1294.3 510.486
1667 0 104.285 19.6768 2052 101.288 1296.73 512.894
1668 0 106.189 21.5183 2285 98.186 1297.56 511.421
1669 0 107.23 19.9012 2134 103.155 1299.49 510.663
1670 0 107.229 18.4839 1982 108.782 1300.13 512.073
1671 1 59.2106 12.8862 763 116.531 1299.74 541.311
1672 0 61.185 12.7809 782 117.156 1297.77 542.547
1673 0 61.0904 13.2099 807 118.128 1296.91 542.202
1674 0 63.0281 13.7716 868 115.902 1295.56 543.297
1675 0 64.0541 14.2536 913 116.604 1293.87 543.185
1676 0 67.1001 14.7541 990 115.501 1291.52 543.869
1677 0 66.0249 13.919 919 118.386 1290.71 544.931
1678 0 70.0465 14.5047 1016 116.158 1288.96 542.706
1679 0 71.1024 14.8378 1055 116.733 1287.34 541.126
1680 0 73.1059 14.1575 1035 117.424 1286.59 541.399
1681 0 72.1019 13.9802 1008 119.606 1285.83 539.459
1682 0 76.2462 13.8105 1053 116.074 1284.48 537.289
1683 0 77.1543 15.3588 1185 113.323 1283.49 533.992
1684 0 78.0721 14.1664 1106 116.987 1281.55 530.53
1685 0 80.0885 13.7723 1103 117.284 1281.04 530.437
1686 0 79.2384 13.3016 1054 118.391 1280.21 526.661
1687 0 85.3256 14.0872 1202 112.481 1279.99 524.876
1688 0 87.1962 13.6589 1191 111.432 1280.04 525.623
1689 0 90.4533 14.0183 1268 109.772 1281.11 523.221
1690 1 41.2595 10.7369 443 104.492 1280.54 544.339
1691 0 45.2179 11.1018 502 105.177 1282.61 540.97
1692 0 44.116 11.5151 508 104.99 1284.4 542.012
1693 0 43.284 10.7892 467 105.867 1287.78 541.315
1694 0 46.2233 9.73535 450 108.147 1289.56 541.878
1695 0 45.332 11.6695 529 106.643 1292.45 541.624
1696 0 41.3672 10.0079 414 109.536 1294.29 543.517
1697 0 50.3302 10.1132 509 107.354 1297.08 543.678
1698 0 47.2419 11.7692 556 110.061 1299.31 544.442
1699 0 49.276 11.7298 578 109.166 1300.22 544.232
1700 0 49.2442 10.4987 517 110.505 1301.56 545.764
1701 0 51.3319 11.7861 605 109.843 1301.14 545.193
1702 0 53.3836 12.7005 678 108.894 1300.65 546.816
1703 0 53.424 11.6801 624 111.726 1298.43 545.79
1704 0 54.3201 14.0095 761 105.754 1297.62 544.005
1705 0 53.6342 12.2497 657 108.303 1297.5 543.804
1706 0 56.426 13.6285 769 104.511 1294.44 544.159
1707 0 54.2728 11.7186 636 108.692 1292.06 545.745
1708 0 55.3321 13.663 756 104.415 1290.25 543.435
