time division length width area intensity CMx CMy
0 0 45.1063 16.8047 758 106.805 1111.36 506.145
1 0 46.0647 15.9558 735 108.305 1113.54 507.663
2 0 46.1155 16.6972 770 106.764 1112.96 507.405
3 0 48.0854 16.4915 793 106.569 1114.01 508.313
4 0 50.1094 17.2622 865 103.831 1113.64 507.649
5 0 50.1612 16.7261 839 105.759 1114.15 509.482
6 0 53.1185 17.4515 927 103.355 1112.97 509.584
7 0 53.0409 17.7787 943 103.89 1111.29 509.3
8 0 55.0228 17.4291 959 103.585 1110.28 509.694
9 0 57.07 17.7501 1013 104.482 1109.44 510.863
10 0 57.0815 16.9932 970 107.445 1107.85 509.646
11 0 60.1207 17.0823 1027 106.235 1106.03 510.488
12 0 60.0416 17.338 1041 106.887 1103.89 510.294
13 0 60.0416 17.3047 1039 162.232 1103.89 510.252
14 0 64.1033 17.4562 1119 105.07 1100.22 508.978
15 1 33.0514 11.9814 396 114.333 1098.04 525.77
16 0 35.0137 12.4237 435 115.172 1095.75 523.715
17 0 37.072 12.3004 456 113.717 1094.16 523.91
18 0 35.0543 12.2382 429 112.797 1091.27 524.601
19 0 39.0611 12.5445 490 112.437 1090.74 522.42
20 0 42.0621 13.8605 583 107.72 1087.46 522.045
21 0 42.0696 13.2875 559 112.283 1087.53 510.408
22 0 45.124 14.7815 667 104.637 1087.67 512.436
23 0 46.0848 14.3431 661 107.427 1088.29 513.225
24 0 50.0853 16.392 821 101.119 1089.48 511.911
25 0 48.0279 16.2822 782 104.939 1090.62 512.17
26 0 53.035 15.8575 841 102.564 1092.94 511.587
27 0 54.0768 16.4581 890 102.053 1094.89 510.508
28 0 53.0374 15.0083 796 107.403 1096.52 509.956
29 0 55.1171 15.8571 874 104.686 1098.88 510.168
30 0 57.2071 15.6099 893 104.027 1100.72 509.588
31 0 57.034 14.693 838 106.621 1102.86 510.465
32 0 60.0825 14.5966 877 105.906 1105.16 511.039
33 0 61.1511 15.7642 964 104.288 1106.09 510.649
34 0 61.1511 15.7806 965 158.688 1106.11 510.525
35 0 66.0548 16.0776 1062 102.01 1106.38 512.653
36 0 65.0564 15.0331 978 106.417 1105.81 511.766
37 0 69.1957 16.7207 1157 103.167 1105.59 510.737
38 0 72.1128 15.7531 1136 104.603 1104.1 509.066
39 0 74.2533 16.2821 1209 103.655 1101.35 509.195
40 0 76.1281 15.6053 1188 105.517 1099.8 507.435
41 0 79.1553 15.4254 1221 106.091 1097.68 506.536
42 0 82.2082 16.3001 1340 102.269 1095.94 507.097
43 1 40.0991 11.1474 447 106.365 1094.38 525.935
44 0 44.135 12.6884 560 99 1092.32 528.338
45 0 45.0488 13.5409 610 99.5459 1090.8 526.534
46 0 48.06 13.3375 641 99.7364 1088.28 526.636
47 0 49.0369 13.3573 655 99.5038 1086.02 526.582
48 0 49.0275 15.3791 754 99.1525 1083.75 526.597
49 0 54.1974 15.3882 834 94.8501 1083.15 524.968
50 0 54.0717 14.9616 809 97.1409 1081.79 524.721
51 0 57.045 15.0057 856 96.3633 1079.87 518.716
52 0 60.166 15.7232 946 92.8943 1079.59 519.864
53 0 62.1415 14.3543 892 96.8789 1078.29 515.479
54 0 66.1799 15.7147 1040 94.2365 1079.24 513.148
55 0 66.1792 15.5034 1026 96.7164 1079.68 508.68
56 0 70.146 14.8262 1040 96.0077 1079.56 508.827
57 0 71.1678 14.1637 1008 98.002 1081.11 504.768
58 0 73.4034 14.8631 1091 96.3666 1081.79 501.857
59 0 74.2913 14.7662 1097 96.7356 1084.01 501.608
60 1 42.144 10.8912 459 96.2636 1087.81 518.12
61 0 42.0055 12.1889 512 94.7617 1089.05 518.674
62 0 44.0052 12.0213 529 94.2042 1090.8 520.452
63 0 44.0972 11.4746 506 94.2688 1093.08 520.862
64 0 46.043 12.358 569 91.0545 1094.57 518.94
65 0 49.0426 12.6828 622 88.7379 1096.14 521.384
66 0 49.0225 12.7492 625 88.6336 1098.22 522.613
67 0 52.0548 13.0632 680 87.9059 1098.58 522.675
68 0 53.0531 11.6299 617 90.5527 1098.15 521.353
69 0 56.0228 13.3874 750 87.2213 1097.38 522.796
70 0 57.0447 12.1659 694 90.3343 1095.93 521.836
71 0 60.046 14.8386 891 85.587 1095.25 521.232
72 0 61.0421 13.0402 796 131.697 1094.22 522.614
73 0 61.0366 13.0413 796 131.136 1093.23 522.677
74 0 69.1553 13.2745 918 89.4401 1088.73 519.47
75 0 71.1408 14.5205 1033 89.0068 1086.05 519.889
76 1 36.021 8.24518 297 94.7306 1086.25 536.774
77 0 38.0166 9.75889 371 94.31 1082.92 534.571
78 0 40.0432 10.7384 430 92.0256 1081.84 535.002
79 0 42.0485 12.6045 530 91.2906 1080.81 533.6
80 0 43.0574 12.2859 529 89.6257 1079.24 534.1
81 0 45.1649 12.5319 566 89.5088 1076.84 532.299
82 0 45.1649 12.5097 565 140.184 1075.85 532.334
83 0 47.0702 11.7909 555 85.7514 1075.27 532.897
84 0 47.0687 12.4711 587 85.787 1074.62 527.523
85 0 50.1023 11.9356 598 86.903 1073.22 524.532
86 0 50.0414 12.6295 632 85.9636 1071.65 525.679
87 0 54.1206 14.0058 758 82.9103 1072.49 523.562
88 0 52.0976 12.1695 634 88.5047 1072.64 519.464
89 0 54.2369 12.0029 651 87.4086 1073.7 518.751
90 0 56.1308 12.9697 728 85.9025 1072.88 517.886
91 0 58.0779 13.3614 776 85.942 1074.65 517.379
92 0 61.0492 13.2844 811 85.5783 1077.19 519.407
93 0 63.0552 14.4159 909 86.0561 1078.73 515.407
94 0 64.1658 11.8443 760 93.5079 1080.3 515.808
95 0 69.1568 13.6068 941 93.6281 1083.48 511.525
96 0 71.1789 15.4962 1103 89.7652 1085.76 512.472
97 1 33.0503 9.86375 326 95.592 1089.1 531.828
98 0 36.0873 10.7517 388 94.1804 1091.51 530.938
99 0 37.0666 9.03778 335 96.5642 1092.94 532.397
100 0 38.0671 11.112 423 96.5603 1094.06 532.785
101 0 43.032 11.4798 494 92.5466 1095.51 532.713
102 0 42.0676 11.743 494 94.5283 1095.61 534.026
103 0 43.0314 10.9687 472 98.036 1094.62 534.896
104 0 46.0101 11.8452 545 94.9596 1092.66 532.327
105 0 45.1135 12.3688 558 95.3082 1090.92 533.025
106 0 49.1819 13.7246 675 88.0652 1087.54 535.188
107 0 49.0418 13.1113 643 89.8118 1086.76 533.033
108 0 50.0707 13.3811 670 89.7075 1085.38 533.098
109 0 51.0857 12.7237 650 90.0231 1083.54 535.177
110 0 53.0707 14.0756 747 88.0857 1081.5 531.153
111 0 53.064 12.9466 687 90.8865 1078.54 531.015
112 0 58.0476 13.6957 795 88.1799 1077.38 530.145
113 0 57.0688 14.281 815 88.7374 1076.01 529.858
114 0 58.0629 12.4865 725 91.8869 1074.28 526.821
115 0 63.1347 14.1444 893 89.206 1072.56 526.762
116 0 67.0656 16.3422 1096 85.0374 1071.32 524.49
117 0 69.0676 16.2739 1124 85.8238 1070.52 524.557
118 0 70.0855 14.1113 989 91.9899 1069.2 520.916
119 0 73.1157 14.5933 1067 91.0262 1068.43 517.261
120 1 38.0351 10.464 398 94.4849 1067.33 534.015
121 0 39.0315 11.0167 430 94.3372 1066.12 531.528
122 0 39.0796 11.6429 455 94.0374 1068.26 530.343
123 0 42.0264 11.7069 492 92.4756 1066.77 529.209
124 0 42.2526 11.2656 476 91.292 1069.95 528.729
125 0 44.2668 12.7635 565 89.2159 1071.65 527.402
126 0 43.0656 12.3765 533 88.0263 1073.74 528.786
127 0 43.3439 11.7894 511 90.456 1075.28 528.041
128 0 44.0478 11.601 511 91.7671 1076.43 527.656
129 0 45.0428 12.3216 555 90.182 1079.47 528.634
130 0 45.0428 12.4104 559 138.075 1082.46 528.542
131 0 47.0148 12.1451 571 91.9247 1083.53 527.9
132 0 52.1442 13.2517 691 88.848 1085.3 529.535
133 0 51.0956 12.9952 664 92.1024 1086.52 527.233
134 0 51.0956 13.0735 668 143.934 1088.51 527.175
135 0 53.0855 13.6384 724 91.6892 1088.56 529.95
136 0 53.3157 12.9043 688 93.3779 1089.24 529.381
137 0 55.11 12.2119 673 93.5988 1087.86 531.545
138 0 58.1151 13.9723 812 90.8091 1088.04 529.081
139 0 59.2057 14.1372 837 91.5233 1086.4 528.495
140 0 62.2009 13.2152 822 92.7068 1084.37 530.338
141 0 63.1905 15.9676 1009 87.9415 1083.2 528.109
142 0 66.0999 14.8714 983 89.7854 1082.45 527.456
143 0 66.3218 13.2083 876 94.4018 1080.9 525.81
144 0 70.2339 13.7113 963 93.4829 1077.6 526.632
145 0 71.2224 14.4056 1026 93.8821 1076.72 523.363
146 0 74.0974 14.5619 1079 92.4995 1074.96 524.774
147 0 76.2113 13.292 1013 95.4057 1074.71 523.541
148 0 76.2114 13.3182 1015 153.317 1074.7 523.439
149 1 42.2056 11.4677 484 90.3988 1071.77 539.409
150 0 41.1148 11.9422 491 92.5784 1071.25 535.978
151 0 42.4081 11.8374 502 93.0976 1069.95 533.016
152 0 43.3623 12.4532 540 91.4 1068.51 531.207
153 0 45.2502 12.6187 571 90.0053 1068.29 525.04
154 0 48.1685 12.6846 611 88.9738 1067.51 523.267
155 0 46.1392 13.2425 611 89.8298 1067.06 528.133
156 0 52.0833 15.2448 794 83.7217 1068.2 525.743
157 0 50.0613 13.863 694 89.3213 1067.2 523.755
158 0 52.1153 14.2377 742 88.5916 1068.62 523.256
159 0 52.1233 13.6216 710 88.6972 1069.29 523.775
160 0 56.0661 14.7326 826 86.4334 1071.63 522.738
161 0 58.1155 13.628 792 90.1376 1073.81 522.006
162 0 59.1351 13.4945 798 91.7406 1076.16 520.986
163 0 62.0989 14.0743 874 90.4359 1079.41 520.969
164 0 62.0489 13.2637 823 93.9854 1082.41 520.597
165 0 66.0786 13.8623 916 93.6943 1085.11 519.32
166 0 67.1141 14.8553 997 93.4814 1086.24 518.796
167 0 72.1066 14.5618 1050 94.019 1087.47 520.271
168 0 72.0846 13.9974 1009 98.5818 1087.78 519.334
169 0 76.0467 14.8461 1129 96.3773 1087.15 519.643
170 0 80.0789 15.4223 1235 95.779 1085.96 520.484
171 0 80.0936 14.0461 1125 100.062 1086.65 518.163
172 0 84.153 14.4736 1218 98.3793 1085.55 516.778
173 1 48.0562 10.4045 500 101.234 1084.44 535.27
174 0 50.0794 11.4019 571 99.4904 1081.93 535.173
175 0 51.0405 11.3048 577 100.513 1080.92 534.586
176 0 53.0676 11.947 634 99.1577 1078.15 534.136
177 0 53.0992 13.8985 738 94.3618 1075.61 535.089
178 0 56.09 15.2077 853 145.426 1072.57 533.359
179 0 55.0331 13.5191 744 93.2097 1074.17 533.551
180 0 59.162 12.8799 762 93.8583 1073.2 529.757
181 0 61.065 14.2144 868 90.6382 1070.66 530.017
182 0 64.0884 13.4814 864 93.2789 1067.71 526.508
183 0 66.0537 12.293 812 93.7069 1067 526.977
184 0 68.1521 12.7069 866 94.6674 1068.11 519.818
185 0 68.0591 13.694 932 94.4045 1066.65 518.75
186 0 72.0474 12.9914 936 95.4444 1066.87 517.228
187 0 75.0967 13.2496 995 98.3286 1065.24 513.354
188 0 78.1482 14.9843 1171 95.0111 1065.2 511.417
189 1 42.0316 10.4921 441 95.034 1064.86 530.188
190 0 44.0249 12.5156 551 93.245 1065.08 527.849
191 0 44.0758 12.2289 539 93.9258 1066.72 528.119
192 0 44.0101 10.8157 476 97.8508 1068.12 528.265
193 0 46.0735 13.0444 601 94.3494 1069.48 524.869
194 0 46.0854 11.4353 527 95.6243 1071.85 527.812
195 0 48.6449 11.7176 570 97.2351 1076.04 521.621
196 0 50.0355 12.3712 619 98.4733 1077.42 525.585
197 0 52.0848 13.382 697 96.8207 1081.91 525.103
198 0 53.0366 13.7641 730 92.7 1083.38 527.706
199 0 54.1196 12.9528 701 94.5892 1085.87 526.297
200 0 55.108 13.9544 769 92.3654 1086.21 528.609
201 0 55.1684 13.0147 718 96.6908 1087.05 526.203
202 0 58.1414 12.0912 703 97.0469 1088.6 528.161
203 0 62.2247 12.9852 808 95.5656 1087.11 527.132
204 0 62.1176 12.4119 771 96.9131 1086.93 528.962
205 0 64.2483 13.0587 839 97.1967 1085.79 527.539
206 0 68.1782 14.3741 980 96.9745 1084.08 526.543
207 0 69.1635 14.2705 987 96.1287 1083.51 525.468
208 0 72.2682 13.1593 951 102.376 1081.23 525.277
209 0 75.2921 13.8262 1041 100.819 1078.98 522.801
210 1 37.15 8.74831 325 99.2862 1077.92 544.545
211 0 40.2342 10.414 419 99.1933 1076.71 542.291
212 0 46.1208 10.9061 503 97.0358 1073.33 536.235
213 0 45.0702 12.181 549 95.6211 1068.9 538.002
214 0 47.0827 13.2745 625 89.8864 1070.07 541.038
215 0 47.0636 12.6637 596 91.9832 1067.63 538.867
216 0 48.0615 12.0679 580 92.4776 1066.64 536.176
217 0 49.0315 12.0331 590 92.961 1065.54 534.751
218 0 50.1121 12.5718 630 92.8048 1065.05 533.389
219 0 52.046 13.1807 686 91.1939 1065.33 531.71
220 0 53.0224 12.8059 679 90.7216 1065.03 531.068
221 0 55.1818 13.4646 743 89.7725 1065.34 527.646
222 0 57.2201 13.5966 778 89.1105 1064.54 525.994
223 0 56.0865 13.1582 738 91.855 1065.85 525.243
224 0 57.1338 13.3196 761 91.5861 1067.63 524.219
225 0 61.0589 13.184 805 91.8919 1068.29 519.939
226 0 61.1494 12.8538 786 93.9809 1071.17 520.249
227 0 64.193 13.2258 849 93.4582 1073.55 519.881
228 0 65.2633 12.779 834 95.1667 1075.34 520.15
229 0 67.1678 13.4737 905 94.0133 1078.62 519.656
230 0 72.1996 13.989 1010 93.0446 1081.12 520.389
231 1 37.073 11.1941 415 94.1518 1081.66 537.359
232 0 38.0146 11.6008 441 94.1565 1083.61 537.943
233 0 38.0344 11.1215 423 97.6359 1084.48 536.473
234 0 39.0324 11.657 455 95.9802 1085.34 538.299
235 0 40.033 11.1158 445 98.2045 1084.78 538.398
236 0 42.1121 10.472 441 95.2857 1084.98 537.49
237 0 40.2754 9.90679 399 97.4035 1084.74 533.261
238 0 46.1417 13.9787 645 91.5473 1083.21 539.856
239 0 45.0576 11.674 526 98.3745 1080.77 537.795
240 0 47.0956 13.5257 637 93.2936 1079.56 539.948
241 0 50.0306 12.6522 633 94.4218 1078.35 539.761
242 0 50.0583 13.3045 666 93.7973 1076.03 539.36
243 0 49.0583 12.8419 630 96.1016 1074.06 538.652
244 0 52.0411 13.1627 685 94.7854 1073.21 538.536
245 0 54.074 12.9637 701 95.2054 1071.63 536.827
246 0 56.0284 12.6364 708 96.6384 1068.61 536.008
247 0 57.0366 13.7982 787 94.3786 1066.67 535.731
248 0 58.0661 13.3296 774 96.3863 1066.15 533.898
249 0 58.0661 13.3985 778 157.625 1065.15 533.847
250 0 60.0603 13.1867 792 98.8333 1063.18 527.884
251 0 60.0603 13.1867 792 160.391 1061.16 527.766
252 0 66.1258 15.2134 1006 94.8459 1061.8 524.941
253 0 67.0911 14.5921 979 93.8856 1060.71 522.657
254 0 67.0918 14.4727 971 95.0906 1061.15 521.841
255 0 69.2434 13.0843 906 100.602 1061.73 519.045
256 1 38.0466 11.0391 420 100.95 1061.46 533.471
257 0 36.0268 10.2979 371 106.652 1062.08 531.666
258 0 40.0432 10.8882 436 104.546 1063.87 531.222
259 0 39.0418 9.60509 375 156.496 1065.71 530.552
260 0 43.0613 11.2166 483 106.749 1071.89 529.385
261 0 44.0297 12.0373 530 104.723 1074.74 530.166
262 0 46.266 12.9469 599 102.947 1074.37 529.613
263 0 46.2079 13.2661 613 97.4861 1076.14 529.982
264 0 46.036 12.0558 555 101.079 1078.77 530.87
265 0 46.1264 11.7286 541 102.399 1081.51 530.773
266 0 47.0307 11.8433 557 102.91 1084.12 531.738
267 0 50.0574 13.4246 672 99.7679 1084.73 532.24
268 0 53.0498 13.5533 719 97.4186 1084.44 530.985
269 0 52.1266 13.4864 703 100.45 1084.07 532.075
270 0 54.1062 12.6788 686 101.698 1084.57 533.101
271 0 58.1014 13.5797 789 97.9873 1083.47 532.662
272 0 56.0641 12.2182 685 104.528 1081.68 529.893
273 0 59.0747 13.0005 768 100.186 1080.13 532.501
274 0 62.128 13.0054 808 101.812 1079.08 531.467
275 0 63.1137 12.9132 815 104.589 1076.98 527.854
276 0 66.0405 14.37 949 102.001 1075.59 527.151
277 0 71.1102 16.2283 1154 96.7114 1073.79 526.62
278 1 38.0527 8.98754 342 105.058 1072.09 543.71
279 0 39.0128 10.4068 406 102.204 1071.2 542.111
280 0 39.3718 10.9977 433 101.979 1069.82 541.69
281 0 44.0309 10.5381 464 99.8922 1067.41 541.875
282 0 45.0473 10.7665 485 100.054 1066.22 538.186
283 0 45.0598 11.5846 522 98.9157 1066.6 537.46
284 0 46.0277 11.8841 547 98.5996 1063.05 534.442
285 0 48.0545 12.4026 596 97.7785 1062.66 531.418
286 0 47.1344 12.4962 589 97.1494 1062.23 529.652
287 0 50.1475 12.1841 611 96.5368 1061.67 529.015
288 0 50.0525 12.407 621 97.3382 1061.56 526.928
289 0 53.1588 13.2998 707 94.3282 1061.49 525.663
290 0 53.061 13.2677 704 94.8963 1062.58 523.324
291 0 55.0816 12.8173 706 95.6756 1063.78 523.133
292 0 58.0588 14.5542 845 91.3467 1065.07 520.753
293 0 58.1194 12.7152 739 96.0771 1066.37 519.825
294 0 60.1305 12.5727 756 95.4286 1069.52 519.45
295 0 64.2716 13.6608 878 93.5444 1072.64 518.882
296 0 66.1424 14.363 950 92.9874 1076.03 518.987
297 0 68.2864 14.3513 980 92.9092 1078.17 517.616
298 1 36.0136 8.33018 300 99.3833 1078.82 535.4
299 0 35.0181 10.1662 356 99.5197 1082.15 535.006
300 0 37.0213 10.1293 375 97.9493 1082.5 535.333
301 0 37.0118 9.2673 343 99.1254 1084.57 538.63
302 0 42.037 11.6564 490 93.5694 1084.78 538.263
303 0 42.051 12.3184 518 93.471 1084.96 537.911
304 0 42.0173 10.2101 429 97.4848 1083.85 538.051
305 0 44.0567 11.5533 509 94.222 1084.67 538.813
306 0 47.2045 11.2913 533 94.3302 1084.67 535.792
307 0 46.2551 12.5608 581 93.3614 1082.82 536.019
308 0 49.3413 13.66 674 91.1246 1080.58 534.036
309 0 49.0475 12.233 600 93.98 1076.47 536.563
310 0 52.0838 13.4591 701 91.6348 1074.66 535
311 0 55.1272 13.9314 768 90.3698 1072.94 535.603
312 0 55.0976 13.0677 720 91.7931 1071.78 534.562
313 0 57.0306 13.5892 775 90.4852 1070.98 532.601
314 0 59.1479 13.7452 813 90.7183 1068.74 533.459
315 0 59.0688 12.6463 747 93.8434 1068.01 529.811
316 0 61.0349 14.4508 882 86.517 1066.02 528.366
317 0 63.0695 14.0797 888 87.1137 1063.99 526.448
318 0 67.046 15.0941 1012 85.4486 1063.28 527.608
319 0 68.1094 15.108 1029 87.5442 1062.31 521.066
320 0 68.1536 13.3962 913 91.2442 1061.49 519.471
321 0 70.1551 15.6795 1100 87.6227 1062.38 519.054
322 0 73.2251 14.8037 1084 90.417 1062.05 514.239
323 0 76.1836 16.5127 1258 87.6168 1061.79 513.238
324 0 76.1595 13.8919 1058 93.9915 1062.96 510.96
325 0 79.159 14.7804 1170 90.3675 1064.43 511.296
326 0 83.1024 16.1487 1342 89.0402 1065.58 506.575
327 1 46.0425 11.5763 533 92.0901 1067.35 525.46
328 0 47.025 9.76077 459 94.7429 1069.2 527.002
329 0 47.0292 10.9081 513 92.7739 1072.11 527.372
330 0 51.0417 11.7159 598 92.6923 1075.2 526.629
331 0 50.045 10.8902 545 96.189 1078.31 526.092
332 0 50.2063 10.9548 550 98.5964 1081.16 525.62
333 0 52.2019 11.9727 625 92.1248 1082.15 521.157
334 0 54.2362 12.0952 656 92.6372 1084.73 523.337
335 0 55.1268 13.3148 734 94.0232 1086.35 530.662
336 0 57.0436 13.6913 781 94.3726 1086.89 527.529
337 0 59.0778 12.9998 768 95.3685 1086.88 530.616
338 0 63.0533 14.1785 894 94.7785 1084.91 530.12
339 0 62.0475 13.264 823 97.6403 1083.75 528.266
340 0 66.1579 13.2411 876 97.6575 1083.17 527.968
341 0 71.1534 14.1244 1005 94.8418 1081.1 524.113
342 0 72.1899 13.9216 1005 96.9592 1079.81 525.452
343 1 38.0541 8.80326 335 101.185 1078.68 544.203
344 0 43.0115 9.0441 389 96.856 1075.5 542.558
345 0 43.0115 9.06735 390 147.131 1071.52 542.541
346 0 44.1145 12.8982 569 90 1072.1 541.55
347 0 45.3183 11.4744 520 93.8096 1069 537.517
348 0 46.0539 12.2465 564 92.5656 1068.99 540.105
349 0 46.015 12.4959 575 92.8 1068.88 538.028
350 0 48.0781 13.3741 643 90.5552 1067.14 534.081
351 0 50.0955 14.0532 704 88.9915 1063.17 530.438
352 0 49.1063 13.1755 647 92.0696 1065.14 529.012
353 0 54.14 14.5918 790 86.9215 1063.09 528.914
354 0 53.1245 14.1742 753 86.1793 1060.91 528.89
355 0 53.0364 13.1608 698 89.7464 1061.43 524.837
356 0 56.0416 14.0253 786 88.0191 1061.11 524.425
357 0 58.0606 14.3987 836 87.067 1061.57 522.132
358 0 58.1007 12.7881 743 90.3607 1063.2 521.176
359 0 62.1037 13.6868 850 89.8165 1064.27 521.071
360 0 63.1564 14.4087 910 89.6956 1066.12 516.212
361 0 66.056 13.6854 904 91.0199 1067.78 516.832
362 0 67.0893 13.0274 874 93.3913 1070.98 515.99
363 0 72.1052 14.9365 1077 88.5144 1074.88 517.206
364 0 73.1851 14.4428 1057 92.2148 1078.68 514.08
365 0 75.1234 14.0702 1057 92.5572 1080.98 514.247
366 1 41.0434 10.0381 412 93.3519 1084.55 533.182
367 0 42.0982 11.877 500 91.544 1086.34 532.996
368 0 43.1614 10.4028 449 95.3898 1086.67 533.127
369 0 47.131 12.4546 587 90.4617 1087.65 536.221
370 0 48.0325 12.8871 619 89.6963 1087 535.672
371 0 49.0732 13.0825 642 90.3801 1086.77 536.636
372 0 48.024 12.2647 589 93.4924 1083.17 536.469
373 0 51.1258 13.2223 676 91.8402 1081.24 534.698
374 0 53.0753 13.3019 706 91.1246 1079.57 536.259
375 0 55.1113 12.9919 716 91.7626 1077.97 538.508
376 0 56.1177 12.9906 729 91.9067 1077.18 537.14
377 0 58.0532 13.8149 802 90.1085 1074.71 535.3
378 0 62.0742 14.676 911 87.8485 1072.6 533.359
379 0 62.0918 13.5445 841 91.7075 1071.12 530.946
380 0 64.1351 13.0194 835 92.3677 1069.35 531.436
381 0 65.1957 13.8813 905 92.2088 1068.57 527.725
382 0 67.0702 14.2836 958 91.1649 1067.39 528.695
383 0 70.1253 14.5169 1018 90.9715 1066.21 525.192
384 0 70.0836 14.1403 991 92.6731 1065.71 523.622
385 0 74.1719 13.8867 1030 92.5534 1063.95 522.197
386 0 78.2978 15.2112 1191 90.6893 1063.16 518.174
387 0 77.1485 13.5323 1044 95.2385 1062.23 515.912
388 1 43.11 11.2271 484 92.9525 1060.84 534
389 0 44.0575 9.66919 426 97.3146 1059.39 531.373
390 0 43.0518 10.7545 463 97.149 1059.71 530.436
391 0 44.0598 12.0291 530 95.6189 1061.44 528.289
392 0 47.0437 13.0304 613 94.9168 1063.16 526.932
393 0 49.0693 13.3077 653 94.196 1063.98 526.383
394 0 50.1143 12.1722 610 97.0672 1067.99 526.48
395 0 50.0577 13.1448 658 94.6793 1070.12 527.099
396 0 51.0584 12.946 661 95.7352 1072.57 525.352
397 0 54.0318 12.6037 681 95.5081 1077.28 525.856
398 0 55.0623 13.403 738 95.103 1079.29 526.596
399 0 56.0889 13.6212 764 94.9241 1081.52 528.614
400 0 59.0703 13.831 817 94.3733 1084.31 528.506
401 0 60.0811 14.6635 881 93.5074 1085.77 527.303
402 0 61.0553 13.7908 842 97.1722 1085.61 526.945
403 0 64.0266 14.2441 912 94.4868 1085.58 528.328
404 0 67.2862 14.2377 958 97.3142 1085.4 528.967
405 0 68.2098 15.1738 1035 96.7295 1084.42 528.527
406 0 69.1568 14.7925 1023 98.9873 1082.19 527.14
407 0 74.2007 15.3907 1142 97.993 1080.49 526.799
408 1 41.0116 11.0213 452 102.989 1080.24 542.662
409 0 42.0472 10.2504 431 105.626 1078.37 542.002
410 0 42.0699 10.4826 441 102.796 1075.82 543.308
411 0 45.0465 9.87869 445 104.103 1073.19 543.784
412 0 45.0985 11.4638 517 100.795 1072.1 542.605
413 0 52.0438 10.7602 560 103.064 1068.68 540.564
414 0 50.0375 13.0702 654 102.596 1069.48 537.722
415 0 52.0481 13.5452 705 102.946 1067.84 535.22
416 0 51.0709 14.9792 765 95.4967 1065.23 537.871
417 0 54.1171 14.3762 778 95.6864 1062.49 531.735
418 0 52.1508 13.4418 701 99.9016 1062.49 531.141
419 0 54.1172 14.6349 792 97.3359 1062.26 530.79
420 0 56.0671 13.8049 774 98.9096 1061.93 529.496
421 0 58.0891 13.6859 795 98.9434 1061.79 526.847
422 0 60.1205 13.7557 827 100.27 1059.81 525.693
423 0 60.0843 13.5643 815 103.293 1061.13 523.174
424 0 63.1595 14.5663 920 99.4011 1061.5 519.037
425 0 66.0805 14.1343 934 98.5321 1061.61 518.821
426 0 66.0913 13.3603 883 101.848 1063.7 517.323
427 0 70.1294 14.2736 1001 101.039 1064.05 514.447
428 0 73.1651 15.0208 1099 100.023 1066.1 514.343
429 0 74.2123 14.3372 1064 102.377 1069.22 513.163
430 0 78.1548 14.9191 1166 101.04 1072.86 512.723
431 0 81.1271 14.6683 1190 100.931 1076.24 513.158
432 1 48.0744 11.3782 547 102.563 1077.74 529.282
433 0 48.0337 11.2837 542 104.179 1080.54 530.273
434 0 50.103 10.8377 543 104.849 1082.71 532.226
435 0 52.0327 12.8189 667 100.985 1083.22 529.183
436 0 52.1455 12.1966 636 102.453 1086.43 529.836
437 0 52.1455 12.1008 631 155.174 1087.45 529.835
438 0 56.0726 13.0723 733 96.2674 1083.25 532.838
439 0 58.0384 12.4745 724 97.3923 1081.97 533.543
440 0 60.0865 12.9147 776 96.6366 1081.93 533.6
441 0 61.1316 12.8575 786 97.6718 1080.2 529.444
442 0 65.1129 13.1618 857 96.8611 1079.33 530.016
443 0 68.0772 13.9548 950 98.7821 1077.86 527.753
444 0 72.0478 14.7263 1061 96.3073 1075.63 526.701
445 0 73.1216 13.3476 976 99.6045 1073.19 526.045
446 1 42.024 10.3988 437 95.833 1073 545.137
447 0 39.0674 10.8786 425 99.1882 1071.76 541.456
448 0 41.0248 9.89646 406 98.0493 1069.88 542.877
449 0 42.024 11.3269 476 96.4097 1068.73 540.271
450 0 45.0241 12.2379 551 92.6171 1067.94 537.485
451 0 46.0244 11.7764 542 90.4004 1066.61 537.039
452 0 46.4544 11.5597 537 92.5642 1065.81 532.309
453 0 48.2608 13.655 659 88.4097 1064.9 528.178
454 0 51.1011 11.2914 577 90.9567 1061.85 532.404
455 0 51.0765 12.8435 656 88.6585 1062.63 528.489
456 0 51.0643 12.4549 636 88.4843 1062.84 529.582
457 0 53.1107 11.1654 593 91.5885 1062.74 526.277
458 0 56.1346 12.9332 726 88.2865 1064.8 522.802
459 0 57.1191 12.4652 712 88.7739 1065.23 523.289
460 0 58.0389 12.8879 748 88.2914 1066.93 519.215
461 0 59.1519 12.3073 728 89.533 1067.54 520.353
462 0 64.0768 12.407 795 88.2855 1069.7 519.972
463 0 65.2111 12.4519 812 89.4606 1072.79 519.899
464 0 69.2455 12.6651 877 89.3409 1078.16 517.873
465 0 69.2455 12.6073 873 138.967 1082.14 517.756
466 0 74.0515 12.7074 941 85.8767 1081.85 518.901
467 0 76.1049 13.1529 1001 89.014 1083.77 516.474
468 1 44.0261 11.1979 493 86.0507 1086.18 537.063
469 0 45.1208 10.1505 458 87.3952 1087.36 538.389
470 0 46.0536 9.53237 439 89.7494 1087.26 536.658
471 0 47.0477 10.4787 493 87.7586 1086.62 539.341
472 0 49.0878 10.3284 507 87.5207 1086.06 539.28
473 0 50.314 12.7599 642 82.3598 1083.4 538.287
474 0 52.1805 12.955 676 83.8683 1082.57 535.664
475 0 54.0413 13.0826 707 82.2588 1080.18 536.163
476 0 55.1357 14.3101 789 80.1432 1079.49 535.341
477 0 56.1611 12.9271 726 83.8568 1076.26 535.373
478 0 58.0381 12.6813 736 84.4443 1072.95 535.034
479 0 60.0984 11.398 685 85.4744 1072.28 535.672
480 0 61.0865 14.193 867 81.827 1070.6 534.341
481 0 62.0875 12.2891 763 86.5505 1069.24 532.404
482 0 65.0821 13.2141 860 84.7442 1068.03 530.541
483 0 67.054 13.3325 894 85.1275 1066.73 527.569
484 0 70.0536 12.8188 898 85.3653 1065.27 527.973
485 0 70.0582 12.561 880 87.9216 1066.2 523.197
486 0 72.1287 13.4205 968 89.0382 1065.73 525.075
487 0 78.0805 12.8585 1004 88.4114 1063.6 521.326
488 1 42.0341 10.2774 432 89.6898 1063.41 535.694
489 0 43.0516 9.1518 394 90.9289 1063.67 536.137
490 0 45.0566 11.3413 511 87.5108 1063.18 535.335
491 0 45.0804 10.9582 494 88.8016 1063.12 532.557
492 0 46.1134 12.4476 574 89.0767 1062.88 528.826
493 0 49.0608 12.5151 614 87.4609 1064.31 529.252
494 0 52.5263 12.6603 665 86.3534 1064.98 528.734
495 0 51.3878 12.0067 617 89.2188 1067.02 527.827
496 0 52.1081 12.1094 631 88.5452 1070.15 531.227
497 0 53.0878 12.5076 664 89.6581 1072.07 526.197
498 0 56.1119 12.4572 699 89.3333 1074.54 530.29
499 0 57.0544 13.0928 747 89.8407 1077.99 530.209
500 0 58.0602 13.2965 772 90.0984 1079.87 529.512
501 0 62.1654 13.6893 851 91.9788 1080.58 528.746
502 0 62.1391 13.4054 833 94.3325 1081.72 532.574
503 0 65.1542 14.2278 927 93.4261 1082.42 530.278
504 0 68.0676 13.6923 932 94.2758 1081.74 529.961
505 0 69.0346 13.9785 965 95.0819 1081.18 528.682
506 0 73.1738 14.5271 1063 94.1816 1080.18 528.411
507 0 75.2448 15.2569 1148 92.8014 1079.24 531.02
508 0 76.1201 13.3736 1018 97.5069 1077.45 528.986
509 0 80.1914 14.4155 1156 94.4983 1075.45 527.641
510 0 81.2293 13.7143 1114 95.3357 1073.43 527.571
511 0 84.1294 13.7407 1156 94.5389 1071.43 526.501
512 1 45.0341 10.1479 457 95.8118 1068.84 546.376
513 0 48.0583 11.278 542 94.0277 1067.16 544.072
514 0 51.0421 12.0293 614 91.4821 1066.26 543.261
515 0 50.0467 12.5083 626 94.361 1065.91 542.904
516 0 49.2504 11.9796 590 95.1864 1064.46 540.261
517 0 52.5072 12.9125 678 92.1962 1065.32 538.426
518 0 52.0327 14.4909 754 92.183 1064.1 535.558
519 0 55.2642 13.1188 725 91.8069 1063.56 536.117
520 0 54.1156 12.769 691 95.411 1062.92 533.077
521 0 57.1336 14.2298 813 90.6777 1062.45 533.627
522 0 56.2211 13.1445 739 92.2788 1061.2 527.264
523 0 58.204 14.1743 825 89.6921 1061.36 525.801
524 0 60.3062 15.0399 907 87.742 1062.04 523.994
525 0 63.3046 13.7747 872 89.5986 1062.31 525.529
526 0 63.3063 14.9906 949 89.2076 1063.8 523.578
527 0 66.3123 14.9294 990 88.9929 1064.49 520.031
528 0 68.3264 13.4355 918 94.6699 1066.54 519.778
529 0 69.2738 13.6704 947 94.6536 1068.28 520.201
530 0 71.4782 14.8017 1058 93.1749 1071.74 518.48
531 0 72.2171 14.4564 1044 95.7376 1074.48 515.924
532 0 76.3154 15.2656 1165 92.7854 1078.02 517.182
533 0 79.2709 15.365 1218 92.8777 1080.6 516.976
534 1 43.0884 11.0006 474 92.8165 1082.22 539.287
535 0 41.1486 11.5678 476 94.0378 1082.89 537.006
536 0 45.3452 9.19613 417 95.7506 1082.82 537.671
537 0 46.1164 11.4276 527 93.8824 1083.9 538.074
538 0 49.1771 10.269 505 94.198 1082.93 535.206
539 0 48.2081 10.8695 524 94.0076 1081.39 536.735
540 0 51.4178 12.7193 654 90.7416 1079.44 536.867
541 0 55.2187 13.5461 748 89.1364 1079.16 537.151
542 0 56.1154 13.0089 730 89.8575 1077.4 539.993
543 0 57.1666 13.5219 773 90.8189 1075.65 538.255
544 0 59.206 13.3432 790 90.3127 1074.17 536.248
545 0 61.2202 14.1947 869 89.3314 1072.19 535.091
546 0 61.2424 13.6833 838 89.7482 1070.46 534.779
547 0 66.1802 14.2792 945 86.672 1069.78 536.043
548 0 65.1734 13.5331 882 91.9501 1067.05 534.703
549 0 70.2192 15.0956 1060 88.9066 1065.8 531.85
550 0 69.1739 15.1502 1048 91.7319 1064.07 525.91
551 0 73.4104 15.7198 1154 89.9584 1062.44 525.517
552 0 73.1516 14.5861 1067 93.1668 1062.26 525.507
553 0 75.1982 14.1493 1064 93.7218 1061.73 522.494
554 0 79.2186 15.2868 1211 90.0008 1060.26 521.644
555 1 43.1635 12.8117 553 89.208 1060.72 536.948
556 0 43.2487 12.3934 536 91.3843 1060.68 532.978
557 0 44.3852 11.0848 492 92.0752 1058.95 530.931
558 0 47.6625 10.973 523 90.5946 1060.16 531.417
559 0 45.4357 12.8533 584 90.2346 1060.78 528.892
560 0 49.3656 14.7674 729 86.8121 1061.91 522.173
561 0 50.4219 16.6198 838 83.0656 1063.94 521.45
562 0 50.1491 12.4628 625 81.4192 1065.92 525.122
563 0 52.087 13.7654 717 85.8187 1070.46 528.49
564 0 51.058 12.476 637 88.0345 1073.17 528.171
565 0 51.058 12.4368 635 153.98 1076.16 528.239
566 0 56.0757 16.4777 924 82.8355 1078.64 526.043
567 0 58.1776 13.2869 773 88.8887 1081.51 525.68
568 0 58.0892 12.6013 732 91.1134 1082.69 530.583
569 0 64.1027 16.0056 1026 85.7047 1084.16 526.462
570 0 66.1886 14.3983 953 89.51 1084.28 528.731
571 0 69.1364 14.2761 987 89.613 1083.9 528.493
572 0 72.2058 14.9572 1080 87.8306 1083.02 528.927
573 0 72.231 14.6751 1060 90.8679 1082.08 525.497
574 0 77.1481 16.1767 1248 87.3894 1080.17 524.045
575 1 43.1218 11.6414 502 90.5876 1077.62 542.902
576 0 45.1494 10.2327 462 93.0368 1076.05 544.416
577 0 47.166 12.5726 593 88.7268 1073.67 542.049
578 0 48.2738 13.3613 645 88.7504 1071.89 541.617
579 0 49.1087 13.3378 655 89.0137 1070.69 540.096
580 0 51.157 12.7451 652 89.8267 1069.5 540.025
581 0 54.274 13.3029 722 88.669 1067.18 538.813
582 0 53.1499 13.1327 698 86.5673 1065.01 537.882
583 0 54.1085 14.5818 789 86.9214 1064.63 537.757
584 0 56.1695 14.7589 829 85.8842 1063.46 534.544
585 0 56.1145 12.1181 680 91.7824 1062.51 531.776
586 0 58.1145 13.6627 794 89.0982 1062.34 529.933
587 0 60.0832 13.4147 806 88.3127 1061.89 530.296
588 0 60.1414 13.2521 797 90.4893 1063 527.084
589 0 59.1286 12.6504 748 92.7473 1063.1 526.509
590 0 62.0614 12.2459 760 93.1645 1062.16 524.795
591 0 68.0917 13.7168 934 87.8608 1062.83 520.133
592 0 67.0478 14.169 950 88.0326 1062.28 516.439
593 0 72.1815 13.9509 1007 85.5025 1063.99 519.551
594 0 73.1607 14.1196 1033 86.7038 1064 513.422
595 0 76.232 14.3509 1094 85.8611 1067.29 513.395
596 0 76.0916 12.5901 958 89.8612 1069.13 513.809
597 0 81.1932 14.3362 1164 86.9493 1071.64 510.435
598 1 45.0433 11.3002 509 86.7466 1076.6 531.725
599 0 42.0876 9.64655 406 89.9778 1076.62 534.658
600 0 43.0416 10.1065 435 90.7218 1079.34 530.791
601 0 48.1713 12.3102 593 86.629 1081.27 536.064
602 0 51.073 12.9618 662 84.3489 1083.2 532.81
603 0 50.0691 12.5427 628 84.2261 1085.02 535.438
604 0 53.2214 13.3029 708 82.8559 1085.69 529.311
605 0 53.0718 12.3418 655 85.0275 1083.74 533.956
606 0 53.0702 12.2291 649 85.7149 1082.87 534.276
607 0 57.0659 13.1777 752 85.1529 1081.2 531.585
608 0 58.1196 12.5947 732 86.888 1079.9 534.995
609 0 61.0815 13.6703 835 86.7401 1075.8 530.321
610 0 65.0553 14.2955 930 84.1441 1073.67 535.294
611 0 65.0562 14.0955 917 86.5431 1075.25 535.123
612 0 67.0785 13.9091 933 86.0804 1072.21 531.761
613 0 71.2514 14.8208 1056 84.6278 1068.89 526.261
614 0 72.235 15.0896 1090 85.1936 1067.46 526.484
615 0 72.235 15.1035 1091 136.929 1065.46 526.294
616 0 76.1506 12.7642 972 89.7994 1064.24 521.082
617 0 78.4 13.699 1074 88.8138 1064.13 519.032
618 1 41.2087 9.85229 406 85.931 1061.58 541.544
619 0 44.1326 11.3748 502 85.508 1063.86 540.094
620 0 43.0378 9.61945 414 88.901 1064.14 537.099
621 0 47.0785 12.2561 577 83.2392 1062.77 535.636
622 0 46.0807 11.3497 523 85.9579 1061.8 535.065
623 0 46.2536 11.9774 554 85.8791 1062.08 532.634
624 0 49.2201 12.0479 593 85.6762 1062.77 531.995
625 0 52.3594 14.4005 754 81.2467 1060.83 525.204
626 0 51.0512 14.0252 716 84.4721 1063.56 529.7
627 0 52.0774 13.1727 686 86.1778 1064.1 527.06
628 0 53.0444 12.6686 672 83.2991 1066.24 528.219
629 0 53.0806 13.1498 698 83.01 1068.21 527.966
630 0 56.1185 13.3824 751 83.233 1070.91 523.308
631 0 57.2078 12.6206 722 84.5402 1075.31 524.18
632 0 57.1258 12.4987 714 86.7045 1077.26 524.958
633 0 60.0797 14.2311 855 84.0608 1081.42 522.577
634 0 62.1337 15.0643 936 83.9049 1083.38 526.302
635 0 64.1329 13.9086 892 88.1356 1084.38 528.817
636 0 65.1861 13.0242 849 91.9682 1085.78 526.611
637 0 68.056 15.1199 1029 88.7434 1086.83 527.279
638 0 72.1046 15.3388 1106 87.207 1085.95 526.892
639 0 73.0751 14.7793 1080 89.8917 1084.98 526.122
640 0 74.1432 14.6069 1083 90.7913 1083.93 527.354
641 1 40.0208 10.6445 426 93.4131 1083.17 543.646
642 0 43.0277 10.807 465 93.9742 1082.17 541.469
643 0 45.0269 10.9046 491 92.0733 1079.62 542.371
644 0 44.122 10.267 453 94.2362 1075.99 541.83
645 0 47.1245 13.3264 628 89.8774 1074.37 543.317
646 0 47.1488 13.1074 618 92.1926 1072.33 542.646
647 0 48.1166 13.6751 658 89.5274 1070.67 540.421
648 0 49.0754 13.2245 649 87.943 1068.95 537.405
649 0 51.0634 13.493 689 87.328 1067.37 538.3
650 0 51.0419 12.1273 619 91.4927 1064.66 534.934
651 0 53.0798 13.5268 718 89.266 1064.63 532.538
652 0 55.1825 12.2684 677 91.4195 1062.6 531.134
653 0 58.0778 14.1706 823 88.7145 1061.23 527.99
654 0 60.1251 16.316 981 84.4934 1060.93 527.468
655 0 63.1921 13.1979 834 90.6811 1059.91 527.484
656 0 63.1839 14.434 912 90.3783 1060.12 522.757
657 0 66.1601 14.9335 988 88.998 1060.49 521.614
658 0 66.1708 13.3443 883 92.9796 1060.09 520.42
659 0 69.1569 15.125 1046 90.7629 1060.99 519.598
660 0 72.2019 15.2766 1103 91.5784 1061.46 516.372
661 0 73.1319 14.426 1055 94.7517 1062.99 513.383
662 1 42.0758 10.8614 457 96.0941 1064.4 531.109
663 0 44.0891 13.2913 586 91.715 1067.08 530.485
664 0 46.053 10.9222 503 96.4254 1069.04 530.41
665 0 45.0158 12.329 555 94.0018 1073.34 530.422
666 0 48.0308 11.909 572 94.8059 1075.03 532.694
667 0 48.0598 12.5677 604 93.9172 1078.26 532.402
668 0 51.2536 13.7941 707 91.7794 1082.96 531.672
669 0 52.3458 13.258 694 92.8127 1084.12 531.589
670 0 53.248 14.5921 777 90.888 1084.98 532.461
671 0 55.2348 15.5337 858 89.2856 1085.08 532.754
672 0 56.1624 13.8883 780 92.6205 1084.93 533.842
673 0 61.0386 15.5148 947 87.792 1081.33 532.358
674 0 60.1178 13.5068 812 93.3571 1081.12 533.152
675 0 65.0473 15.2197 990 88.0838 1077.39 530.64
676 0 67.1076 15.0058 1007 89.3486 1075.72 531.063
677 0 68.0631 13.7372 935 91.3797 1074.3 532.185
678 0 71.1487 15.4184 1097 86.8377 1072.78 532.61
679 1 37.0374 9.63889 357 93.7927 1068.85 544.389
680 0 39.0487 10.8838 425 89.36 1069.41 549.207
681 0 39.0584 10.2667 401 92.0449 1069.61 543.539
682 0 40.0284 10.9922 440 91.9 1067.07 542.68
683 0 43.052 13.2398 570 86.2474 1065.92 541.742
684 0 43.1542 12.606 544 87.5055 1064.64 541.778
685 0 47.0192 12.6119 593 85.457 1064.48 538.831
686 0 47.0569 14.1318 665 83.4436 1062.99 537.134
687 0 49.0184 13.5459 664 84.6807 1062.22 534.886
688 0 49.1917 12.8883 634 81.3407 1059.6 536.527
689 0 49.0281 12.0339 590 81.678 1058.25 535.68
690 0 50.1437 12.2847 616 84.0747 1058.23 534.172
691 0 52.0931 13.1687 686 83.2493 1058.5 530.764
692 0 54.0779 12.6484 684 84.1009 1058.69 528.254
693 0 53.0577 12.6089 669 84.9791 1058.6 528.555
694 0 56.0872 13.6751 767 82.5059 1059.27 526.804
695 0 58.0608 13.7098 796 85.1394 1061.08 526.549
696 0 59.1204 14.7834 874 83.5458 1062.99 524.981
697 0 61.1812 14.4489 884 85.3484 1065 523.584
698 0 63.1532 13.491 852 88.5129 1066.84 522.601
699 0 66.1597 14.9336 988 88.2358 1070.07 522.588
700 0 67.1176 15.1376 1016 89.3445 1072.21 522.858
701 0 71.1579 14.4749 1030 89.2165 1074.63 521.888
702 0 72.1164 14.9897 1081 89.2461 1077.3 522.414
703 0 75.1391 15.3981 1157 89.2602 1078.72 521.739
704 0 79.0747 14.7582 1167 89.677 1079.2 522.188
705 0 83.132 15.4934 1288 88.9534 1080.59 523.151
706 1 41.0358 9.2602 380 95.9342 1079.35 541.726
707 0 47.0551 12.6873 597 89.4188 1078.53 542.657
708 0 46.0445 10.8373 499 92.5711 1077.22 544.176
709 0 50.0621 10.9464 548 92 1074.88 544.288
710 0 51.3487 12.2106 627 91.579 1076.51 540.502
711 0 51.0891 14.2105 726 81.8278 1072.44 537.537
712 0 53.1439 12.9836 690 81.8623 1070.56 537.597
713 0 54.1104 13.5094 731 88.9384 1069.26 542.414
714 0 54.1067 13.6397 738 89.4485 1067.54 540.443
715 0 56.0992 13.9574 783 88.9106 1064.36 540.058
716 0 59.1064 15.2099 899 86.4783 1063.44 538.518
717 0 61.0428 14.5636 889 87.811 1062.57 538.441
718 0 61.1675 13.3404 816 91.8909 1061.89 535.882
719 0 63.1315 13.7808 870 91.4287 1061.14 532.822
720 0 65.1316 14.4323 940 90.8926 1059.56 530.827
721 0 70.1503 15.31 1074 88.798 1058.98 526.128
722 0 72.0827 16.3701 1180 86.9034 1058.07 524.304
723 0 73.1863 15.0438 1101 90.0527 1058.22 523.504
724 0 75.1847 13.7129 1031 92.4743 1058.55 520.542
725 0 77.1252 14.6904 1133 90.6823 1059.28 517.742
726 0 80.1542 15.7322 1261 89.8684 1058.88 513.68
727 0 81.2091 14.752 1198 91.1094 1059.97 515.366
728 0 84.1271 13.8719 1167 93.0137 1060.53 512.275
729 0 87.0628 15.954 1389 87.8092 1063.25 513.059
730 1 47.379 11.6507 552 92.9692 1065.07 532.632
731 0 50.0363 12.0712 604 94.3957 1068.37 530.969
732 0 50.0933 12.2571 614 93.9283 1071.36 533.257
733 0 52.2114 12.6218 659 93.613 1073.48 533.03
734 0 57.2118 15.6786 897 86.5017 1075.91 530.458
735 0 58.1166 14.0408 816 89.6017 1077.32 531.097
736 0 57.1309 12.8477 734 92.0232 1080.16 532.08
737 0 59.1092 13.3651 790 90.0861 1082.15 532.04
738 0 60.0574 13.1208 788 92.8744 1082.66 532.121
739 0 63.0931 12.3151 777 95.9305 1083.43 532.508
740 0 67.1126 14.945 1003 92.4377 1082.58 530.219
741 0 69.0864 15.1549 1047 94.0449 1081.5 530.826
742 0 71.1342 14.3813 1023 96.8602 1079.53 530.141
743 0 74.0585 15.2852 1132 95.1254 1078.11 530.292
744 0 77.1189 16.0531 1238 93.5856 1075.96 529.204
745 0 80.1949 15.3875 1234 94.9368 1073.63 528.057
746 0 84.1673 15.5524 1309 96.4897 1072.38 524.111
747 0 87.1118 16.7945 1463 93.8455 1070.51 526.244
748 0 87.2289 14.4906 1264 101.058 1068.94 521.533
749 0 91.1348 14.8242 1351 99.9386 1065.97 521.617
750 0 94.1011 15.1645 1427 99.8732 1065.08 520.931
751 0 96.1454 15.5494 1495 98.8221 1063.3 517.63
752 0 99.2052 16.0576 1593 98.5662 1062.43 513.062
753 0 103.228 15.4803 1598 99.873 1061.08 509.991
754 1 55.0752 10.5492 581 101.287 1059.31 535.842
755 0 57.0556 10.7614 614 97.4023 1059.25 536.054
756 0 58.1674 11.742 683 97.8843 1060.36 529.654
757 0 59.2345 10.5682 626 100.427 1060.53 526.871
758 0 63.1837 13.1047 828 95.1365 1060.63 526.248
759 0 65.2294 13.9508 910 93.3143 1060.62 523.49
760 0 68.112 15.1075 1029 90.8571 1060.7 520.305
761 0 70.0789 14.9688 1049 90.9867 1061.71 520.471
762 0 69.1203 13.614 941 94.4261 1063.42 517.337
763 0 73.1345 14.5349 1063 91.6924 1065.23 516.483
764 0 76.1634 14.5214 1106 90.207 1067.01 516.33
765 0 79.1308 15.0131 1188 90.6305 1068.89 514.015
766 0 81.2495 13.6616 1110 92.9964 1070.71 509.571
767 0 85.2343 15.4163 1314 88.6332 1073.08 510.921
768 0 90.4211 15.2951 1383 85.7332 1075.92 512.296
769 0 91.3691 16.5264 1510 84.8338 1078.27 510.272
770 0 92.2409 14.7657 1362 87.8693 1079.39 508.51
771 0 98.184 16.0719 1578 85.1591 1080.44 511.664
772 1 53.0742 10.9658 582 87.1873 1080.2 532.175
773 0 55.1273 10.2127 563 86.1616 1079.86 538.558
774 0 55.0499 11.0264 607 80.2751 1081.2 532.249
775 0 58.0665 11.6074 674 80.1766 1078.72 531.445
776 0 61.0468 14.3005 873 80.3574 1078.1 534.548
777 0 62.0448 13.6514 847 83.0685 1075.46 534.457
778 0 65.289 13.647 891 83.9113 1073.43 529.516
779 0 67.2596 13.3958 901 84.4828 1072.37 530.739
780 0 69.2726 13.0355 903 85.9081 1069.18 527.827
781 0 72.2871 15.2724 1104 82.2328 1066.79 527.748
782 0 75.2987 14.4226 1086 83.9088 1065.66 526.874
783 0 77.2636 14.7806 1142 84.2443 1064.02 525.838
784 0 80.2132 13.14 1054 86.2913 1062.9 522.389
785 0 82.1533 14.2173 1168 84.7192 1061.39 526.252
786 0 85.3722 14.5363 1241 84.3981 1061.61 520.506
787 0 88.2521 14.2206 1255 86.0231 1059.85 516.555
788 1 47.09 8.81291 415 89.2145 1058.36 533.347
789 0 46.1373 10.2737 474 87.0021 1057.86 534.053
790 0 51.0547 10.2831 525 86.2324 1057.55 531.667
791 0 52.0777 9.54344 497 87.1549 1057.54 531.757
792 0 52.125 9.80335 511 86.0861 1057.7 531.857
793 0 56.035 12.6707 710 81.4324 1057.23 527.699
794 0 56.0412 11.5629 648 83.5617 1059.14 526.395
795 0 59.1528 13.3045 787 79.0419 1061.41 523.653
796 0 59.0374 13.0595 771 77.2698 1060.21 524.278
797 0 59.1472 12.4773 738 78.2154 1061.5 521.825
798 0 61.0361 12.1404 741 79.5277 1063.71 520.81
799 0 65.1542 14.3045 932 77.3015 1065.91 521.42
800 0 65.0999 13.2412 862 83.1148 1068.32 519.002
801 0 68.0936 12.6444 861 84.0859 1070.61 516.008
802 0 70.0779 13.2567 929 83.2099 1073.23 515.608
803 0 74.0376 14.1415 1047 82.4164 1076.18 516.021
804 0 77.1603 15.4872 1195 80.0351 1077.66 517.151
805 1 40.03 8.76842 351 86.1652 1079.28 537.43
806 0 43.0343 10.48 451 83.8448 1081.88 539.153
807 0 45.0835 11.4454 516 81.2326 1083.15 539.731
808 0 45.0722 11.0711 499 83.1303 1083.07 538.1
809 0 48.07 12.1906 586 81.3601 1081.79 539.005
810 0 50.1647 13.1367 659 77.5675 1076.7 536.624
811 0 49.172 11.3886 560 81.3821 1076.78 540.939
812 0 51.0525 13.9072 710 79.0423 1073.31 537.434
813 0 54.1355 12.7089 688 78.9637 1071.35 537.916
814 0 54.1236 11.8802 643 80.2177 1070.28 538.936
815 0 58.1312 12.8503 747 78.1928 1067.76 536.841
816 0 58.1477 12.0039 698 80.1963 1066.59 534.029
817 0 61.2013 13.0879 801 77.8127 1065.47 537.194
818 0 63.1159 15.1943 959 76.4453 1064.67 532.682
819 0 66.1724 12.9057 854 79.2974 1062.21 529.239
820 0 67.2725 12.0852 813 80.5843 1061.78 528.94
821 0 69.239 12.8107 887 79.726 1060.47 527.489
822 1 37.0937 8.84246 328 85.7226 1058.29 540.305
823 0 39.0705 10.6474 416 83.4135 1057.83 539.05
824 0 40.0504 10.8114 433 83.1871 1057.51 539.319
825 0 42.0571 11.6746 491 82.5866 1057.1 534.505
826 0 42.0484 10.7733 453 84.245 1056.64 534.457
827 0 45.0516 12.186 549 81.9818 1057.89 532.523
828 0 44.1006 12.8796 568 83.4842 1058.64 530.218
829 0 50.0883 14.0152 702 80.8447 1060.04 530.1
830 0 47.1057 12.2066 575 81.2626 1061.88 529.63
831 0 49.0366 12.8272 629 80.283 1063.81 530.157
832 0 49.0357 12.6846 622 82.7749 1065.66 531.132
833 0 52.1017 13.6272 710 80.8817 1067.58 529.963
834 0 51.1486 11.0853 567 85.8272 1069.98 530.582
835 0 54.1102 13.8606 750 82.3773 1073.84 529.913
836 0 55.2311 12.6197 697 85.2511 1075.31 531.044
837 0 57.1107 12.9048 737 85.1072 1077.6 528.868
838 0 58.0994 13.4597 782 84.9348 1078.38 528.334
839 0 61.0798 13.4578 822 84.7859 1080.13 528.522
840 0 64.1561 15.3999 988 82.4899 1080.43 529.135
841 0 61.1254 13.366 817 87.508 1080 530.853
842 0 69.2199 16.137 1117 81.4852 1079.27 532.592
843 0 69.0818 14.3743 993 85.8479 1077.48 530.866
844 0 71.2034 14.7886 1053 85.8756 1076.18 530.532
845 0 73.1278 15.972 1168 85.9572 1075.78 528.188
846 0 75.2176 15.2757 1149 87.3725 1072.9 526.735
847 1 40.012 10.4219 417 88.2974 1069.86 547.719
848 0 42.1181 12.0376 507 87.5799 1067.65 544.247
849 0 42.0991 10.7366 452 89.323 1066.49 546.334
850 0 44.1129 11.3799 502 87.4363 1066.27 545.928
851 0 48.1002 13.3056 640 82.3672 1065.16 542.598
852 0 49.2836 14.447 712 80.2767 1063.98 539.367
853 0 49.0163 13.0569 640 85.3047 1060.08 541.014
854 0 51.0834 14.3099 731 82.9453 1059.42 536.699
855 0 54.0889 13.4223 726 83.0399 1058.17 539.065
856 0 53.1072 12.9549 688 85.6279 1058.69 534.594
857 0 56.1731 14.6689 824 81.4114 1057.74 532.245
858 0 59.2068 13.9849 828 82.2319 1058.38 530.58
859 0 59.1879 14.3104 847 80.8831 1058.58 528.398
860 0 60.0728 14.4325 867 80.9158 1058.48 526.723
861 0 64.1768 15.7534 1011 77.3996 1059.05 526.31
862 0 64.2041 14.5941 937 81.4354 1059.81 521.918
863 0 65.1164 14.021 913 82.7448 1060.43 521.016
864 0 68.0924 14.8622 1012 82.4269 1061.8 520.199
865 0 69.2013 14.6529 1014 83.5187 1064.7 520.735
866 0 73.1507 14.9281 1092 83.337 1066.07 519.132
867 0 76.2267 15.8475 1208 82.13 1068.72 516.824
868 0 78.3303 17.0049 1332 81.3468 1071.85 515.108
869 1 44.1551 10.5537 466 85.5 1073.28 536.822
870 0 42.1163 11.8482 499 84.6132 1075.89 538.85
871 0 44.0319 12.718 560 84.3982 1078.37 536.795
872 0 45.2104 11.7009 529 84.2457 1079.12 536.42
873 0 48.3611 12.6548 612 82.9657 1080.2 534.381
874 0 49.0188 14.3618 704 85.733 1079.89 538.487
875 0 52.0443 15.5445 809 83.0779 1079.79 538.785
876 0 52.0413 12.7783 665 89.7474 1078.51 537.872
877 0 53.1496 13.7536 731 89.1902 1076.04 537.438
878 0 56.0762 15.4789 868 86.5392 1075.08 540.321
879 0 58.031 12.8207 744 89.8884 1073.18 539.164
880 0 59.211 14.4061 853 88.0551 1070.71 538.764
881 0 63.0608 15.0648 950 86.1284 1069.55 538.338
882 0 64.159 14.4485 927 87.7443 1067.67 534.142
883 0 66.0516 14.4281 953 88.1375 1065.19 533.377
884 0 69.05 14.7429 1018 87.0766 1063.66 532.817
885 0 71.1312 14.6631 1043 86.6232 1062.84 529.367
886 0 75.0807 14.6509 1100 85.2991 1061.15 528.605
887 0 78.1721 15.3763 1202 83.7978 1060.07 526.626
888 0 81.1716 17.038 1383 81.1576 1059.7 523.427
889 1 44.1283 11.2853 498 85.0743 1057.36 542.63
890 0 45.0336 9.90371 446 87.8139 1056.94 540.442
891 0 47.0431 12.2866 578 84.6817 1057.29 537.972
892 0 46.1008 12.2558 565 85.7558 1058.8 536.998
893 0 51.1723 11.9205 610 84.6984 1058.99 535.712
894 0 51.2219 14.8569 761 82.8738 1057.51 529.238
895 0 51.278 12.6565 649 80.7488 1058.91 528.94
896 0 53.2874 12.8923 687 79.655 1059.36 526.451
897 0 53.1218 13.9491 741 81.8677 1061.07 528.004
898 0 55.0562 12.569 692 83.3974 1062.19 527.851
899 0 55.1814 12.0874 667 84.2729 1064.3 525.786
900 0 57.0789 12.8594 734 82.8774 1066 525.988
901 0 62.0962 15.1861 943 79.6554 1068.88 525.107
902 0 61.2874 12.5148 767 84.0574 1072.58 526.705
903 0 66.156 14.7379 975 81.4031 1074.54 525.137
904 0 69.1408 14.5934 1009 82.2141 1077.76 523.363
905 1 35.1032 9.45782 332 85.1868 1078 543.979
906 0 37.2392 9.66723 360 86.5944 1079.03 542.194
907 0 39.0715 10.7495 420 86.5905 1078.7 542.719
908 0 40.143 12.0071 482 84.1514 1079.09 544.624
909 0 43.0352 12.2458 527 82.7135 1078.2 544.381
910 0 44.093 11.1356 491 85.8411 1076.93 543.312
911 0 46.014 12.9091 594 82.9057 1076.46 544.012
912 0 47.0578 13.834 651 81.5115 1074.6 542.733
913 0 49.2735 14.7747 728 80.261 1073.73 544.43
914 0 50.1641 14.1336 709 84.2412 1071.63 541.598
915 0 51.1295 14.1993 726 83.7893 1069.18 540.826
916 0 52.1635 13.496 704 85.3551 1068.23 539.892
917 0 56.1451 13.7145 770 85.1494 1066.2 539.422
918 0 59.1409 17.4498 1032 80.0833 1064.4 536.395
919 0 59.286 14.9276 885 85.652 1063.77 534.225
920 0 60.1732 14.9236 898 86.8708 1061.89 532.425
921 0 65.289 15.776 1030 86.3427 1061.55 532.061
922 0 66.1921 14.3522 950 90.9053 1060.83 528.739
923 0 66.2822 15.0267 996 90.263 1058.76 527.591
924 0 68.2878 14.4389 986 92.2302 1058.53 525.534
925 0 72.2802 15.5368 1123 90.6785 1058.52 522.302
926 0 74.2657 15.9024 1181 90.2972 1058.28 519.683
927 1 38.1309 10.8311 413 95.0387 1058.85 537.576
928 0 40.1263 10.8906 437 93.9565 1059.85 537.391
929 0 41.1001 10.2676 422 94.6801 1059.92 535.751
930 0 43.3304 11.7931 511 96.0842 1061.64 531.002
931 0 44.2926 11.8982 527 94.7742 1062.94 528.275
932 0 46.344 13.0546 605 91.5289 1065.39 530.582
933 0 46.1394 12.744 588 94.182 1067.36 530.704
934 0 47.1816 13.2255 624 91.8846 1070.35 530.57
935 0 49.1103 14.3555 705 88.4241 1071.11 531.651
936 0 49.0706 13.2666 651 92.1659 1074.01 531.73
937 0 54.0325 13.1217 709 90.8068 1076.6 532.145
938 0 56.1917 13.5963 764 88.9267 1078.07 530.794
939 0 56.2202 14.1408 795 88.2101 1079.15 530
940 0 60.1515 15.1285 910 85.0011 1080.88 529.778
941 0 61.3338 13.4836 827 87.1947 1080.31 531.15
942 0 66.1793 13.8865 919 85.148 1080.04 533.201
943 0 68.2033 14.794 1009 84.7948 1078.45 529.971
944 0 70.0777 15.5827 1092 83.5348 1077.31 529.496
945 0 73.1452 14.2046 1039 85.2146 1074.71 530.523
946 0 74.1347 13.9341 1033 89.2091 1073.14 525.956
947 1 39.0194 11.5071 449 87.4053 1070.12 545.421
948 0 42.0826 11.7388 494 87.3381 1068.56 543.858
949 0 45.055 10.3873 468 87.8205 1066.35 543.865
950 0 46.1156 12.6638 584 84.339 1064.85 541.86
951 0 46.1015 12.082 557 86.3447 1064.4 541.118
952 0 50.0494 14.3259 717 82.3417 1062.34 537.096
953 0 50.0492 12.4078 621 84.8551 1061.48 534.739
954 0 51.0118 13.2126 674 83.7107 1059.15 534.004
955 0 54.0957 13.9752 756 81.7513 1059.25 533.452
956 0 55.0528 14.1501 779 82.1335 1058.64 530.716
957 0 57.0562 13.3202 760 82.0368 1058.22 529.346
958 0 60.1057 13.6759 822 81.1703 1057.91 524.858
959 0 60.0852 12.6986 763 83.7287 1057.92 523.377
960 0 61.079 12.4265 759 84.4361 1057.43 522.35
961 0 66.2495 13.3737 886 81.1659 1060.12 521.195
962 0 66.2188 13.5309 896 81.9788 1060.24 519.239
963 0 69.2519 15.0898 1045 78.7397 1062.06 517.799
964 0 69.2594 14.3374 993 80.282 1064.16 515.18
965 0 73.1553 12.9314 946 80.945 1066.68 516.21
966 0 75.3388 14.4547 1089 78.1745 1068.33 513.915
967 1 39.05 10.0896 394 79.632 1072.51 533.891
968 0 43.0172 11.2978 486 77.5391 1075.02 535.364
969 0 44.0232 9.56314 421 78.6817 1077.62 534.242
970 0 44.0375 11.3313 499 79.7375 1079.75 532.537
971 0 46.0552 12.6587 583 77.4288 1081.64 534.297
972 0 47.0576 11.7091 551 77.5209 1081.56 533.964
973 0 48.055 11.5493 555 77.5784 1081.17 533.065
974 0 50.2445 11.8421 595 80.3899 1083.18 534.429
975 0 52.2568 11.9028 622 80.2926 1081.82 535.003
976 0 55.1008 12.7584 703 78.9787 1078.69 535.895
977 0 54.2356 13.0357 707 79.9434 1078.21 535.498
978 0 58.1688 13.3061 774 78.7984 1076.04 534.678
979 0 58.3638 13.433 784 79.4605 1074.71 534.263
980 0 62.238 15.6657 975 75.56 1072.71 530.094
981 0 61.319 12.9487 794 79.728 1069.93 529.746
982 0 67.3257 14.1699 954 77.2778 1069.1 529.722
983 0 67.2221 13.805 928 78.3761 1066.98 528.176
984 0 71.2756 15.9662 1138 74.4569 1065.36 528.814
985 0 74.2859 15.9788 1187 74.8677 1064.08 525.677
986 0 74.277 14.7825 1098 77.9554 1063.01 525.394
987 0 78.2693 14.7056 1151 78.2207 1061.24 521.384
988 0 80.3077 13.8966 1116 78.6944 1060.74 518.828
989 1 44.1456 11.8245 522 76.2107 1061.03 538.149
990 0 44.0268 11.7656 518 80.0792 1060.62 534.363
991 0 44.0937 9.18498 405 82.6025 1060.33 533.914
992 0 47.252 10.3488 489 81.8568 1059.31 530.339
993 0 46.1845 11.8005 545 81.1578 1060.32 528.765
994 0 50.1101 13.6699 685 80.1562 1061.17 524.177
995 0 51.1996 12.8126 656 81.2149 1062.04 527.383
996 0 52.2252 13.7099 716 79.4148 1063.68 522.45
997 0 56.2453 14.899 838 77.8568 1065.85 524.289
998 0 58.1556 15.2522 887 77.5017 1067.79 525.612
999 0 59.248 15.6292 926 77.3996 1070.13 522.325
1000 0 61.2261 16.5126 1011 76.0396 1073.41 524.328
1001 0 64.1809 14.2722 916 79.1801 1074.79 523.585
1002 0 64.2504 15.0505 967 79.3712 1078.29 524.969
1003 0 67.2639 15.8183 1064 77.6231 1080.33 524.003
1004 0 67.2639 15.8778 1068 140.314 1082.33 523.945
1005 0 71.3071 13.8556 988 82.6893 1081.91 524.359
1006 0 73.216 13.9314 1020 83.6029 1083.47 526.361
1007 0 77.3313 17.1729 1328 79.8547 1082.56 524.193
1008 0 81.6063 15.3297 1251 82.53 1081.18 525.215
1009 1 42.0879 12.07 508 87.4528 1080.18 540.996
1010 0 44.0881 12.7472 562 85.3292 1078.77 542.818
1011 0 46.058 12.1586 560 85.0929 1076.98 543.429
1012 0 48.109 13.6981 659 85.7784 1073.41 541.358
1013 0 51.2663 14.8636 762 83.7717 1071.58 541.35
1014 0 52.1595 15.2801 797 84.7403 1069.52 541.099
1015 0 54.2399 14.9152 809 85.7305 1068.72 540.965
1016 0 55.128 15.1284 834 85.6463 1067.2 538.275
1017 0 57.129 15.4913 885 84.4622 1065.28 537.267
1018 0 60.1185 15.9851 961 83.5369 1064.17 537.741
1019 0 60.1835 15.054 906 86.2859 1062.36 533.56
1020 0 61.1687 16.4463 1006 84.7336 1061.27 531.243
1021 0 66.1776 16.1686 1070 81.7654 1061.24 532.379
1022 0 66.2291 15.3709 1018 84.5403 1059.24 527.66
1023 0 67.18 15.5552 1045 84.267 1059.36 523.787
1024 0 71.0889 15.4595 1099 82.7352 1059.87 522.651
1025 0 71.2358 14.5152 1034 85.8366 1059.58 519.55
1026 0 73.0858 15.4613 1130 83.838 1060.46 518.686
1027 0 77.118 14.1342 1090 85.3 1060.4 516.706
1028 0 80.1313 16.0237 1284 81.317 1061.92 515.931
1029 0 83.1656 17.0142 1415 80.3004 1062.81 511.973
1030 0 85.0997 15.7815 1343 82.6471 1064.8 511.031
1031 0 86.3487 14.2793 1233 85.6959 1067.13 510.337
1032 0 89.1815 14.4761 1291 86.3834 1068.8 505.844
1033 0 94.2675 15.6682 1477 83.8686 1072.03 505.028
1034 0 94.3396 15.158 1430 84.6042 1074.21 505.63
1035 1 51.215 11.11 569 88.2865 1076.8 529.914
1036 0 50.3024 11.2917 568 86.2218 1077.98 533.252
1037 0 52.1894 13.3169 695 85.3655 1079.58 531.391
1038 0 54.3967 15.2031 827 83.2648 1080.76 529.467
1039 0 57.2708 14.283 818 84.8863 1081.31 530.939
1040 0 57.123 15.0377 859 85.2852 1081.11 529.934
1041 0 63.24 15.6388 989 84.9535 1079.71 529.132
1042 0 63.3353 14.889 943 88.2397 1078.82 527.86
1043 0 68.3779 16.8183 1150 83.7696 1077.02 529.742
1044 0 70.3383 15.8093 1112 86.7914 1075.79 528.376
1045 0 72.2235 16.5182 1193 86.1282 1073.44 526.043
1046 0 75.2383 15.3512 1155 88.0935 1070.32 526.115
1047 0 79.3189 17.4612 1385 84.9668 1069.58 523.626
1048 0 82.5231 16.9407 1398 85.3741 1067.68 525.876
1049 0 83.4482 16.4653 1374 87.8239 1066.03 522.218
1050 0 85.4494 17.4489 1491 87.3159 1064.41 518.074
1051 0 89.3004 17.3459 1549 87.6824 1063.17 517.107
1052 0 92.4888 16.5642 1532 89.3251 1062.3 514.792
1053 0 96.46 17.261 1665 87.8042 1060.99 513.339
1054 0 98.2799 19.6073 1927 85.0861 1060.5 509.923
1055 0 99.2418 16.5958 1647 91.589 1058.28 506.407
1056 1 56.1889 13.9173 782 93.4591 1058.9 528.821
1057 0 57.1884 13.9189 796 95.0603 1057.86 525.563
1058 0 58.2587 14.3326 835 94.2383 1058 525.096
1059 0 63.3604 14.7884 937 93.2892 1058.33 523.519
1060 0 64.2384 15.3646 987 93.8004 1058.67 520.457
1061 0 66.2349 15.1582 1004 94.2868 1060.1 518.832
1062 0 68.2914 14.9946 1024 94.9414 1061.78 516.059
1063 0 69.2995 15.1661 1051 95.1465 1062.58 514.597
1064 0 73.1171 14.7982 1082 95.9723 1065.11 513.074
1065 0 75.2036 15.7439 1184 94.674 1067.08 512.565
1066 0 80.3942 16.8544 1355 90.9934 1069.98 512.652
1067 0 79.0937 16.904 1337 93.1907 1072.03 510.058
1068 0 84.1551 17.646 1485 91.3279 1075.37 509.389
1069 0 87.1385 18.132 1580 90.4677 1077.37 510.651
1070 0 89.2776 18.3921 1642 90.676 1078.18 507.724
1071 0 92.2695 17.8607 1648 92.7482 1078.93 510.083
1072 0 96.2258 16.586 1596 95.1792 1079.06 509.304
1073 0 99.1643 17.7887 1764 93.8662 1079.93 508.622
1074 0 103.203 18.7398 1934 91.7642 1078.26 506.943
1075 0 106.163 16.1356 1713 97.4442 1078.56 508.842
1076 0 112.252 17.2114 1932 95 1076.73 507.924
1077 1 57.0765 11.178 638 100.444 1075.66 528.962
1078 0 62.21 12.6828 789 98.4119 1074.27 529.833
1079 0 67.2687 12.1453 817 99.3696 1071.82 531.338
1080 0 67.1181 13.4539 903 99.155 1068.81 529.813
1081 0 70.1687 14.4509 1014 97.5789 1066.7 531.121
1082 0 72.1347 15.4156 1112 97.25 1066.82 526.863
1083 0 74.1875 14.2342 1056 100.153 1065.34 526.949
1084 0 78.1984 15.6525 1224 98.4044 1063.75 524.608
1085 0 81.1659 16.4355 1334 98.2594 1063.8 520.818
1086 0 83.0765 15.7566 1309 100.703 1062.24 519.251
1087 0 86.1031 16.3293 1406 99.239 1061.64 516.382
1088 0 89.181 15.8442 1413 100.318 1061.6 507.568
1089 0 90.1057 15.1045 1361 102.34 1060.73 505.977
1090 0 95.2176 16.289 1551 99.2676 1060.06 503.315
1091 0 98.1919 16.3455 1605 99.4255 1060.56 501.579
1092 0 101.282 15.5013 1570 101.489 1060.36 499.549
1093 0 104.13 14.4627 1506 102.22 1061.33 497.588
1094 1 58.0946 11.8944 691 97.5514 1062.04 523.242
1095 0 60.1368 12.2887 739 95.3207 1064.17 523.327
1096 0 60.0988 10.9154 656 98.4604 1065.87 520.107
1097 0 63.0659 12.2095 770 97.4104 1066.54 518.413
1098 0 67.0835 12.6708 850 97.1176 1069.03 517.842
1099 0 70.1528 14.2403 999 93.996 1071.64 519.466
1100 0 72.1132 14.505 1046 94.2591 1074.58 519.457
1101 0 73.1796 13.7197 1004 96.3596 1076.5 517.777
1102 0 76.1647 14.1404 1077 95.1643 1079.51 518.628
1103 0 78.1961 13.0953 1024 98.0781 1080.32 517.105
1104 0 81.2158 14.5784 1184 95.6976 1080.38 515.092
1105 0 86.2242 14.4159 1243 95.7015 1082 515.976
1106 0 87.3888 15.4482 1350 94.817 1081.12 513.317
1107 0 90.2752 14.4226 1302 96.5522 1080.11 513.16
1108 0 95.3624 15.1003 1440 95.4833 1078.65 513.042
1109 0 97.4582 13.9342 1358 98.6326 1077.17 511.332
1110 0 99.2214 14.1905 1408 99.2479 1075.62 508.569
1111 0 103.323 13.2497 1369 100.641 1072.56 508.24
1112 1 61.2481 8.08188 495 96.7252 1070.63 535.327
1113 0 62.1087 9.00035 559 96.7317 1068.71 530.902
1114 0 64.1193 12.0868 775 93.489 1066.3 528.49
1115 0 67.2743 11.5646 778 94.2571 1064.84 526.617
1116 0 67.1846 12.1159 814 94.8329 1063.14 523.072
1117 0 71.2956 12.5954 898 94.0624 1062.02 523.124
1118 0 71.2956 12.5814 897 140.513 1060.01 523.077
1119 0 76.3582 13.3843 1022 94.093 1059.23 517.181
1120 0 77.4786 13.7845 1068 95.5047 1057.62 510.436
1121 0 82.3568 14.595 1202 92.594 1057.58 509.904
1122 0 84.4218 15.2212 1285 92.5471 1058.4 506.006
1123 0 86.2623 14.5139 1252 94.5903 1058.08 503.053
1124 0 87.4381 13.7354 1201 96.2931 1058.43 499.764
1125 0 93.4363 15.2189 1422 92.8776 1059.77 500.066
1126 0 94.5934 14.8848 1408 94.2536 1061.19 496.541
1127 0 98.4974 15.6857 1545 92.0388 1062.96 495.045
1128 0 101.559 15.4394 1568 92.9949 1065.49 492.327
1129 1 54.4011 12.6468 688 91.8866 1065.97 517.019
1130 0 58.4716 10.8258 633 93.3065 1068.75 517.586
1131 0 57.2979 11.3791 652 93.0261 1070.99 517.914
1132 0 62.252 12.0317 749 89.0547 1073.04 520.509
1133 0 62.217 12.7939 796 90.3505 1075.42 519.155
1134 0 66.0757 13.7872 911 88.2997 1078.1 522.029
1135 0 68.1094 13.9922 953 87.8562 1081.3 520.486
1136 0 69.1604 13.0855 905 91.7315 1079.99 521.922
1137 0 72.0569 13.3922 965 91.256 1081.21 524.662
1138 0 75.0906 14.7022 1104 91.7301 1080.11 521.87
1139 0 76.1462 13.1326 1000 95.815 1079.39 521.568
1140 0 79.0573 13.9772 1105 94.3303 1077.97 523.351
1141 0 83.256 14.5815 1214 93.1623 1077.11 520.319
1142 0 86.2539 16.0456 1384 90.3439 1075.47 517.595
1143 0 87.2947 14.9608 1306 92.8989 1074.11 518.433
1144 0 87.4028 16.6242 1453 89.6738 1071.63 520.637
1145 1 48.1095 11.2452 541 99.3475 1069.97 540.492
1146 0 47.0767 11.4494 539 99.3729 1069.03 537.644
1147 0 51.1023 12.7392 651 95.9355 1065.93 537.902
1148 0 52.0767 12.0975 630 94.5603 1064.99 538.113
1149 0 51.2123 11.9503 612 92.8758 1064.17 533.25
1150 0 52.1195 12.433 648 92.4105 1062.23 533.495
1151 0 54.1359 13.3368 722 94.7812 1059.83 534.431
1152 0 59.2117 15.9259 943 86.4814 1058.6 532.95
1153 0 59.1294 14.5275 859 90.227 1057.68 529.646
1154 0 61.1551 12.4765 763 91.8218 1057.5 528.085
1155 0 62.1208 13.7152 852 89.6197 1056.94 524.907
1156 0 64.1202 12.8509 824 90.1942 1057.33 522.786
1157 0 68.1496 15.2019 1036 84.3726 1059.24 523.152
1158 0 68.1779 12.8927 879 89.9386 1061 519.915
1159 0 72.042 15.6575 1128 85.0718 1062.14 519.317
1160 0 73.0923 13.4077 980 89.6153 1063.38 517.655
1161 0 76.1509 14.747 1123 87.6118 1065.05 514.106
1162 0 77.1098 14.3172 1104 89.6123 1067.6 516.275
1163 0 80.3106 14.5311 1167 89.4824 1068.95 514.812
1164 0 82.0552 14.9533 1227 89.3268 1071.45 515.31
1165 0 83.1903 13.8718 1154 93.4272 1074.02 516.761
1166 0 86.1586 14.6822 1265 91.6047 1076.55 513.029
1167 1 46.1218 11.2528 519 95.9114 1078.81 536.035
1168 0 48.1068 12.2852 591 93.1523 1079.14 536.567
1169 0 48.2158 12.7344 614 93.873 1079.96 535.502
1170 0 50.1119 12.512 627 93.2408 1078.95 537.764
1171 0 48.1179 12.2823 591 94.3198 1079.13 538.311
1172 0 51.3559 14.5261 746 88.7453 1078.2 539.307
1173 0 49.1448 12.4123 610 89.5098 1077.74 541.457
1174 0 45.1267 11.0578 499 94.2806 1075.34 543.232
1175 0 48.1614 12.6657 610 91.1705 1073.66 543.364
1176 0 50.1322 13.4644 675 88.1822 1070.24 541.335
1177 0 50.148 13.3206 668 89.2365 1068.43 541.696
1178 0 51.083 13.5662 693 87.5224 1067.12 540.924
1179 0 48.0966 11.8512 570 91.8772 1063.76 540.625
1180 0 52.0974 12.3806 645 89.462 1062.38 541.319
1181 0 51.1862 12.9918 665 87.8015 1062.3 539.347
1182 0 52.1677 13.3608 697 86.9067 1060.93 538.344
