time division length width area intensity CMx CMy
0 0 30.0151 12.1605 365 120.167 359.362 494.8
1 0 30.016 11.8603 356 121.781 359.621 496.694
2 0 31.07 13.2604 412 120.235 360.019 496.216
3 0 32.0688 13.0345 418 123.194 360.818 498.553
4 0 35.1246 13.3525 469 120.493 361.499 498.787
5 0 35.1571 13.9659 491 121.057 359.845 499.218
6 0 38.0319 14.5667 554 119.025 358.56 500.09
7 0 38.0278 14.7524 561 121.79 357.417 501.214
8 0 41.0892 14.5537 598 119.554 357.012 500.721
9 0 39.0509 15.2365 595 122.538 355.113 500.348
10 0 42.0682 15.5224 653 119.319 353.66 501.42
11 0 42.077 14.7586 621 123.953 351.746 501.419
12 0 44.0486 15.778 695 120.688 350.95 499.845
13 0 44.0846 16.3776 722 120.885 349.463 500.608
14 0 46.0665 15.0435 693 124.75 347.609 501.433
15 0 46.0633 15.0228 692 127.507 345.345 500.001
16 0 47.023 16.6514 783 122.94 343.734 499.475
17 0 49.156 15.1151 743 126.678 341.728 498.888
18 0 50.0884 16.5108 827 122.037 339.233 497.593
19 0 52.0669 13.8091 719 131.83 337.69 496.915
20 0 53.0791 16.2211 861 126.334 335.039 495.521
21 0 55.1199 16.8723 930 121.91 334.904 495.011
22 0 57.1374 16.9241 967 120.211 335.243 494.031
23 0 58.0359 16.2486 943 121.666 336.013 494.175
24 0 60.0277 17.0421 1023 119.42 336.814 491.687
25 0 59.1807 15.9512 944 124.087 338.552 491.846
26 0 63.1037 18.2715 1153 114.416 340.304 491.251
27 0 65.2414 15.8795 1036 120.525 342.867 489.124
28 0 67.4541 17.5379 1183 117.051 345.017 488.078
29 0 67.2648 16.8439 1133 119.981 347.132 486.786
30 0 71.3811 17.3715 1240 115.962 350.073 487.452
31 0 72.29 17.748 1283 115.924 351.56 487.2
32 1 37.1048 12.7477 473 123.655 352.288 507.332
33 0 37.0713 12.5973 467 122.18 353.355 510.304
34 0 39.1262 12.1658 476 121.426 353.59 510.529
35 0 39.157 13.4586 527 122.07 353.704 511.057
36 0 41.2078 12.3035 507 123.036 353.542 513.014
37 0 43.2382 13.5066 584 120.622 352.156 511.954
38 0 42.1713 13.9194 587 123.538 350.608 509.937
39 0 47.1928 16.2525 767 116.395 348.445 510.256
40 0 48.2578 15.4379 745 121.354 346.909 509.397
41 0 51.1786 15.4557 791 119.719 345.791 510.522
42 0 52.0683 14.9995 781 121.694 343.661 509.74
43 0 53.1678 16.5138 878 118.606 342.309 508.452
44 0 54.2101 14.5729 790 123.847 340.647 507.096
45 0 55.0716 15.0531 829 122.251 339.18 507.14
46 0 60.0354 15.9573 958 117.602 336.005 506.613
47 0 60.0501 15.7035 943 119.68 334.761 505.159
48 0 62.1973 15.5151 965 119.092 332.827 504.736
49 0 66.1061 14.87 983 119.045 331.415 502.27
50 0 67.0962 14.9338 1002 118.756 330.276 501.413
51 1 37.0889 11.2432 417 117.456 328.341 514.631
52 0 36.0815 12.2223 441 117.766 326.878 512.902
53 0 39.0759 12.0535 471 117.482 327.042 511.756
54 0 41.2328 11.6655 481 117.538 326.135 509.229
55 0 41.1969 12.6708 522 118.159 326.623 506.987
56 0 42.0616 12.1013 509 117.495 327.051 506.585
57 0 46.0745 13.9991 645 113.05 328.527 505.336
58 0 46.0644 14.4363 665 113.586 330.275 503.389
59 0 48.0401 14.2797 686 112.529 332.252 503.273
60 0 47.0606 14.407 678 113.559 334.019 500.509
61 0 49.0593 14.8392 728 111.435 337.251 500.808
62 0 49.0617 14.7773 725 141.881 340.286 500.818
63 0 55.1257 13.9681 770 111.192 340.945 503.942
64 0 56.2265 14.0681 791 111.757 342.912 500.301
65 0 58.1038 15.1281 879 108.404 344.647 502.241
66 0 60.0638 14.3847 864 109.723 346.039 501.612
67 0 62.057 14.4383 896 109.734 345.992 501.799
68 0 61.2607 13.7119 840 112.393 346.465 502.448
69 0 66.062 15.0767 996 109.497 346.414 502.621
70 0 66.068 14.3186 946 112.786 345.753 503.316
71 0 70.0925 14.8661 1042 111.875 344.174 502.625
72 0 72.0808 14.0398 1012 114.409 341.996 502.725
73 0 74.084 14.3351 1062 115.411 341.139 501.311
74 0 76.1675 13.2603 1010 116.922 339.307 501.929
75 0 80.1686 14.4695 1160 114.557 337.73 500.941
76 1 39.0139 9.43252 368 120.78 335.152 519.174
77 0 45.1107 10.7513 485 115.695 333.167 519.229
78 0 45.129 11.5668 522 114.117 331.218 519.021
79 0 47.0333 14.4153 678 108.879 329.922 516.984
80 0 47.0333 14.3515 675 134.676 327.911 516.902
81 0 49.0692 13.1039 643 112.499 324.832 514.603
82 0 52.1082 13.3376 695 111.555 323.184 513.053
83 0 53.0968 13.5225 718 112.731 322.759 510.467
84 0 57.1412 14.2979 817 109.349 321.556 507.666
85 0 58.0981 14.8542 863 110.137 320.674 505.406
86 0 61.2227 14.1288 865 111.313 320.01 504.198
87 0 62.1109 13.8623 861 113.239 320.843 503.993
88 0 64.1558 13.7634 883 115.442 320.358 499.183
89 0 67.2158 14.5353 977 112.59 321.221 497.984
90 1 35.0181 10.0805 353 110.793 322.037 516.768
91 0 35.0214 10.6221 372 111.723 322.914 515.013
92 0 36.0077 10.9143 393 113.305 326.12 514.036
93 0 37.0782 10.7071 397 115.567 328.224 512.615
94 0 38.1518 11.7426 448 113.46 330.529 513.018
95 0 40.0999 13.0175 522 108.113 332.833 511.918
96 0 40.073 11.529 462 108.848 333.987 512.489
97 0 39.0645 11.2634 440 111.402 336.648 513.432
98 0 42.0643 11.8866 500 110.11 339.614 512.59
99 0 42.0294 11.0637 465 111.32 340.74 514.516
100 0 44.0569 11.8483 522 110.098 340.709 515.531
101 0 45.0223 11.994 540 111.735 341.478 512.935
102 0 46.0192 13.3857 616 109.334 340.903 514.568
103 0 48.0498 12.5079 601 110.732 340.689 518.864
104 0 51.0905 13.1336 671 110.584 338.876 515.815
105 0 52.0547 13.6779 712 108.875 337.865 515.817
106 0 55.0634 12.7126 700 110.089 335.791 516.24
107 0 54.0321 13.2699 717 110.179 335.562 515.298
108 0 56.0654 12.8065 718 111.389 333.65 516.219
109 0 59.0952 13.3852 791 110.539 331.319 514.571
110 0 61.0614 12.1353 741 112.835 328.236 513.1
111 0 64.0303 14.6181 936 107.752 326.91 511.87
112 0 66.0868 12.5138 827 112.723 325.342 512.12
113 1 36.0135 12.1899 439 108.182 323.761 527.733
114 0 37.0388 11.5015 426 112.371 322.533 525.981
115 0 39.0555 11.3172 442 113.735 321.722 523.262
116 0 40.0981 10.6738 428 113.572 319.741 525.643
117 0 41.0233 11.9444 490 113.759 318.506 522.561
118 0 40.0714 12.0535 483 116.967 318.602 521.476
119 0 44.1158 12.9432 571 113.755 317.806 519.079
120 0 46.1021 14.1859 654 110.827 317.815 515.179
121 0 47.2041 13.0921 618 114.257 317.095 514.683
122 0 47.0858 13.6559 643 120.549 317.891 511.118
123 0 50.0897 13.4559 674 119.871 318.534 511.651
124 0 51.1394 14.5485 744 117.817 319.884 510.008
125 0 51.1269 13.8283 707 121.163 320.454 509.293
126 0 52.0739 15.286 796 118.398 321.882 508.062
127 0 53.1372 14.3402 762 121.629 324.033 507.917
128 0 54.1032 14.9529 809 121.339 326.323 507.262
129 0 55.092 14.1763 781 121.927 329.133 508.65
130 0 58.0748 14.4124 837 120.703 331.798 506.808
131 0 59.0655 14.0014 827 123.181 333.157 506.936
132 0 59.0629 13.9851 826 161.487 334.183 507.05
133 0 63.0961 13.9787 882 123.978 336.753 507.367
134 0 67.0347 14.8878 998 121.188 336.786 509.121
135 1 36.0174 10.2728 370 127.968 337.973 524.097
136 0 35.108 11.7067 411 124.985 337.367 525.102
137 0 37.0105 11.9155 441 123.633 336.537 524.821
138 0 38.022 10.7306 408 126.199 335.659 524.88
139 0 40.0209 12.5435 502 122.281 334.05 524.167
140 0 42.1479 12.2663 517 123.054 332.913 524.302
141 0 42.0616 11.7922 496 128.742 332.006 523.603
142 0 44.1036 13.8764 612 125.801 330.529 521.497
143 0 45.0181 13.639 614 121.93 326.63 523.262
144 0 47.1135 12.8413 605 123.666 326.683 522.902
145 0 49.0815 13.3859 657 122.696 325.125 520.945
146 0 51.0545 13.9067 710 119.689 322.921 522.631
147 0 52.0605 15.0594 784 117.761 323.078 519.68
148 0 54.194 14.0053 759 120.423 320.49 518.047
149 0 54.1269 15.4082 834 117.989 319.055 516.712
150 0 57.1069 13.1333 750 122.465 317.571 516.459
151 0 58.0962 14.235 827 120.162 316.935 512.891
152 0 62.1232 14.1332 878 118.434 316.677 509.472
153 0 63.1044 13.6757 863 120.38 316.21 507.906
154 0 66.2199 15.9167 1054 114.097 315.883 505.322
155 0 68.1532 14.2473 971 117.199 316.288 505.1
156 1 37.0491 10.7695 399 119.805 317.977 516.907
157 0 37.022 12.0469 446 114.951 316.37 518.135
158 0 39.0734 12.1054 473 116.074 318.112 515.002
159 0 41.0837 13.0709 537 113.08 319.339 515.877
160 0 42.1315 13.268 559 112.501 319.859 514.369
161 0 42.0718 12.7164 535 109.879 323.29 514.101
162 0 45.0787 13.8425 624 107.439 326.122 514.99
163 0 44.086 12.3849 546 112.747 328.923 514.835
164 0 48.123 14.1512 681 104.012 331.398 515.678
165 0 49.0861 14.1384 694 105.254 333.849 514.241
166 0 50.1171 13.0894 656 107.793 334.384 514.657
167 0 51.0575 13.4946 689 107.45 335.489 515.139
168 0 52.1989 13.0271 680 108.513 336.594 517.735
169 0 55.1623 13.0343 719 106.676 336.898 517.156
170 0 57.1562 13.1744 753 107.401 337.199 517.78
171 0 56.0426 13.4005 751 108.35 335.856 515.514
172 0 61.0617 14.7392 900 104.773 335.026 514.153
173 0 62.2672 13.8917 865 106.462 333.074 513.331
174 0 64.1092 14.2725 915 105.962 330.978 513.129
175 0 67.1728 14.098 947 106.714 329.49 512.041
176 0 66.247 13.1478 871 106.575 327.594 510.766
177 0 70.2049 12.8054 899 106.762 326.44 509.772
178 1 39.0717 11.0566 432 106.495 325.153 526.551
179 0 41.0358 10.6736 438 104.29 322.365 527.441
180 0 39.0335 9.19723 359 110.415 320.476 525.496
181 0 44.0453 12.9639 571 102.517 318.559 522.291
182 0 45.1064 11.75 530 104.926 316.855 520.945
183 0 46.0961 12.7777 589 103.39 316.312 520.022
184 0 47.0744 13.4043 631 103.616 315.995 515.563
185 0 50.0365 14.2096 711 102.232 314.203 513.205
186 0 55.0507 13.8963 765 100.25 313.118 514.433
187 0 54.0971 13.864 750 102.843 312.223 509.693
188 0 56.0378 14.4188 808 106.724 312.173 508.267
189 0 57.0388 13.0963 747 108.763 312.53 505.802
190 0 60.0718 14.799 889 104.615 314.105 503.854
191 0 61.1173 13.9895 855 108.439 314.767 503.207
192 0 64.0396 14.413 923 105.311 317.079 502.964
193 0 66.0345 14.5379 960 104.264 318.146 503.39
194 0 69.0616 14.8853 1028 102.771 321.458 502.334
195 1 36.0367 10.7391 387 105.326 325.333 516.902
196 0 39.044 9.01548 352 109.511 328.577 517.17
197 0 41.0554 10.2301 420 107.138 330.186 515.29
198 0 43.0562 9.9405 428 105.813 333.547 519.061
199 0 45.0645 11.5834 522 105.19 335.021 517.295
200 0 45.031 11.9251 537 104.911 336.371 517.505
201 0 48.0209 13.4316 645 103.07 336.763 517.69
202 0 48.0234 14.2014 682 103.872 337.375 516.962
203 0 51.0543 12.4769 637 105.124 338.116 517.027
204 0 54.0287 13.6964 740 101.65 336.939 517.557
205 0 53.0405 12.4245 659 105.956 336.035 517.376
206 0 55.0507 13.8055 760 103.201 333.976 517.774
207 0 57.0706 13.3168 760 104.003 332.688 516.643
208 0 57.1114 13.1848 753 104.595 330.522 518.157
209 0 61.1306 13.5939 831 102.408 328.7 515.499
210 0 61.111 12.78 781 105.01 327.196 514.895
211 0 64.064 14.1421 906 101.796 325.833 515.152
212 1 38.0168 9.78514 372 102.556 322.546 526.258
213 0 38.0413 10.436 397 103.804 318.285 527.811
214 0 39.0179 9.99541 390 104.536 317.292 528.562
215 0 41.041 12.1586 499 100.653 314.884 525.052
216 0 42.0452 12.106 509 100.986 314.35 522.165
217 0 44.0348 10.9232 481 102.857 313.245 520.921
218 0 45.0602 12.1615 548 100.432 313.086 518.755
219 0 47.0736 12.7672 601 98.8735 313.576 517.882
220 0 48.0838 13.7052 659 97.7269 313.346 516.454
221 0 49.0454 13.7424 674 98.3591 312.524 513.039
222 0 52.0312 14.8949 775 96.711 312.685 512.507
223 0 53.022 13.2209 701 99.5021 314.501 511.889
224 0 52.0467 11.4897 598 104.462 315.905 510.376
225 0 53.0495 12.4035 658 104.166 317.342 509.125
226 0 57.0458 13.3226 760 100.867 319.709 508.014
227 0 59.0597 14.9002 880 97.3489 322.491 507.101
228 0 58.0625 12.5554 729 102.759 324.632 508.387
229 0 62.0398 13.8137 857 100.526 326.953 508.058
230 0 64.0961 12.6529 811 100.905 329.899 506.348
231 0 66.1344 12.7921 846 101.519 332.051 504.622
232 0 68.0604 13.4293 914 100.247 333.487 507.023
233 0 70.0712 13.2008 925 100.139 334.752 507.491
234 0 72.1109 13.8259 997 99.1133 335.91 506.525
235 0 76.0543 12.307 936 101.565 335.916 505.331
236 1 39.0353 10.4265 407 102.939 335.722 523.855
237 0 41.0423 11.1349 457 101.077 333.562 525.046
238 0 41.0546 10.8879 447 100.819 332.004 527.418
239 0 44.0214 10.4722 461 101.857 331.529 525.646
240 0 44.0154 10.7689 474 104.236 328.504 526.264
241 0 47.0897 11.7223 552 102.58 326.855 525.44
242 0 49.0414 12.4385 610 101.116 325.184 524.938
243 0 51.067 13.4333 686 100.146 324.204 523.751
244 0 51.0648 13.1793 673 96.3105 323.856 523.208
245 0 53.0224 14.409 764 94.9476 322.132 522.8
246 0 54.0325 12.7701 690 98.5362 320.368 522.323
247 0 54.0107 12.2383 661 101.017 318.672 521.08
248 0 57.0515 13.4089 765 98.2614 317.431 518.686
249 0 60.0357 13.6919 822 98.0231 315.506 518.3
250 0 61.0697 14.7373 900 96.6022 313.266 514.187
251 0 62.0646 13.5987 844 99.7393 312.857 514.597
252 0 65.0648 14.6931 956 97.2856 311.91 510.198
253 0 66.0425 14.309 945 99.2169 311.414 508.08
254 0 69.038 14.4268 996 98.8474 311.988 506.103
255 0 71.0338 13.8103 981 101.075 312.02 501.487
256 0 75.0392 15.9916 1200 95.2633 311.756 500.761
257 0 76.0742 13.684 1041 100.91 312.478 498.73
258 0 80.0656 14.051 1125 99.112 313.495 497.233
259 0 83.1367 15.0355 1250 97.1032 316.025 496.639
260 1 44.0338 12.286 541 99.4067 317.451 515.941
261 0 44.0191 12.699 559 98.4043 320.365 516.605
262 0 43.0773 10.4928 452 103.007 321.841 516.923
263 0 46.0245 13.1234 604 99.9189 325.267 514.978
264 0 48.0856 13.0809 629 98.2798 329.169 515.782
265 0 48.0848 14.3288 689 95.1713 331.329 514.952
266 0 52.163 14.4164 752 93.6064 332.654 515.572
267 0 52.1336 15.1534 790 94.7924 333.665 515.391
268 0 52.1024 13.7614 717 101.213 333.41 515.509
269 0 56.1437 14.5341 816 98.4179 333.512 515.653
270 0 58.0622 16.4651 956 93.6151 334.362 516.958
271 0 59.1146 15.6814 927 96.0928 332.544 515.614
272 0 58.1575 13.6182 792 101.434 330.886 517.018
273 0 63.1001 14.7226 929 98.3466 330.667 513.948
274 0 62.0739 14.7727 917 99.9258 328.073 513.049
275 0 65.096 15.2083 990 98.4152 326.205 513.277
276 0 67.0924 15.5755 1045 98.0957 324.858 512.477
277 0 69.0868 14.5035 1002 99.8902 323.409 512.157
278 0 70.0765 13.999 981 101.743 321.597 509.835
279 0 75.1289 16.2787 1223 96.5437 320.354 508.576
280 0 77.0539 14.5353 1120 100.046 319.05 507.654
281 0 78.1432 13.8464 1082 102.4 317.666 507.886
282 0 82.2056 14.8895 1224 98.9208 315.91 503.01
283 0 87.1665 14.5239 1266 99.0205 314.406 502.384
284 1 43.1151 9.6486 416 104.704 313.81 520.863
285 0 48.0404 10.3871 499 101.641 314.088 518.812
286 0 47.0855 12.1481 572 98.9808 312.262 513.325
287 0 50.1872 11.5966 582 98.3643 311.997 513.23
288 0 53.0838 13.5634 720 94.4236 311.774 511.224
289 0 52.0733 12.7705 665 96.3383 312.493 510.418
290 0 57.0691 15.7178 897 89.9208 313.913 507.453
291 0 57.0771 14.7169 840 92.0952 315.002 507.386
292 0 57.15 12.7734 730 96.1493 315.897 505.138
293 0 60.1263 13.3885 805 94.4137 318.272 503.822
294 0 61.0835 13.3097 813 93.6777 320.775 504.813
295 0 66.1833 14.5203 961 90.8907 323.161 504.343
296 0 67.1511 14.6684 985 91.7838 325.295 502.16
297 0 69.1211 14.0334 970 91.9722 328.005 503.364
298 0 71.1272 13.4407 956 92.9718 330.439 501.513
299 0 74.137 15.876 1177 89.3161 333.102 500.444
300 0 75.2335 14.0496 1057 92.1485 333.61 501.399
301 0 79.0677 15.1136 1195 87.549 335.636 502.899
302 1 36.0356 9.49062 342 91.4766 335.319 524.389
303 0 43.0268 8.36688 360 90.7972 335.408 525.464
304 0 44.1214 10.2218 451 88.0776 334.528 524.381
305 0 44.0474 9.58058 422 90.4479 334.592 522.012
306 0 46.207 9.24102 427 90.7822 331.614 520.822
307 0 48.3066 12.3379 596 87.2987 329.919 516.727
308 0 49.5187 11.0261 546 89.011 327.919 516.872
309 0 55.4633 13.7929 765 82.9359 325.38 517.013
310 0 56.0844 12.7665 716 86.2807 325.303 520.126
311 0 56.0673 14.2151 797 84.6274 323.492 519.859
312 0 58.0736 13.569 788 85.6218 321.999 516.614
313 0 58.1024 12.0477 700 88.7071 319.856 513.544
314 0 60.0941 13.4456 808 86.7958 317.16 515.949
315 0 64.1561 12.3605 793 87.8499 316.794 514.47
316 0 65.1735 12.858 838 86.1957 315.195 510.257
317 0 69.0767 13.2896 918 85.7429 314.636 510.056
318 0 72.169 13.0943 945 86.7439 313.506 509.347
319 0 74.2522 14.1006 1047 86.0439 312.798 502.85
320 0 78.2557 14.2098 1112 86.4505 310.985 502.153
321 0 80.2388 13.3601 1072 88.6334 311.526 500.314
322 1 43.0316 10.5969 456 88.9342 311.535 516.035
323 0 46.0602 8.79284 405 89.316 312.254 515.914
324 0 46.1418 11.2913 521 86.0633 314.177 515.298
325 0 47.1655 11.6187 548 86.2099 316.139 509.062
326 0 49.1416 10.1543 499 90.1824 317.451 508.23
327 0 51.0659 12.9832 663 84.6591 318.922 509.546
328 0 50.1242 13.5065 677 83.2097 320.802 509.022
329 0 51.1136 11.7777 602 86.0449 323.527 508.394
330 0 52.1907 11.8795 620 85.7097 327.203 509.713
331 0 55.0654 11.6225 640 85.7016 329.981 506.992
332 0 58.0877 12.4811 725 83.7531 331.681 509.301
333 0 61.1701 13.5033 826 82.8874 333.305 508.263
334 0 62.2155 11.0744 689 86.3599 335.547 509.483
335 0 66.1766 13.9324 922 82.1985 336.324 509.829
336 0 68.3404 13.3011 909 83.4818 335.776 508.721
337 0 69.1962 12.6452 875 89.0103 335.565 508.951
338 0 70.1502 13.2002 926 90.013 334.61 508.207
339 0 75.2862 14.0929 1061 88.8652 333.153 506.488
340 0 80.2004 14.9999 1203 86.7215 330.995 507.265
341 0 81.262 13.0688 1062 90.4972 329.728 508.136
342 0 82.2985 13.4632 1108 91.0388 327.922 505.387
343 0 86.218 13.9762 1205 90.3544 325.918 504.107
344 1 46.2057 10.0204 463 90.9914 324.89 525.121
345 0 47.0821 9.62149 453 91.2583 323.534 524.468
346 0 47.1001 11.9108 561 90.861 322.41 521.613
347 0 48.1234 11.1588 537 89.7691 320.268 522.365
348 0 48.1464 10.9873 529 90.811 319.314 522.631
349 0 51.5932 12.5404 647 87.932 316.841 514.481
350 0 54.1446 13.6671 740 83.9432 313.38 514.636
351 0 55.0915 12.5609 692 87.5882 312.413 514.931
352 0 56.2653 13.1342 739 87.9892 311.924 512.53
353 0 58.2307 12.5192 729 88.3457 309.649 509.556
354 0 58.1459 13.3973 779 88.4121 310.385 509.866
355 0 62.1335 13.5676 843 86.242 310.401 508.311
356 0 62.2129 13.8878 864 87.6968 310.175 504.139
357 0 65.3231 13.992 914 87.2418 310.592 505.172
358 0 63.1505 12.1298 766 94.158 311.769 501.446
359 0 68.2331 14.3479 979 89.3003 312.311 501.753
360 0 69.1729 13.5168 935 92.7155 314.147 498.735
361 0 71.204 14.0722 1002 91.0778 316.715 501.283
362 0 74.2555 13.6151 1011 93.8042 319.302 497.365
363 1 39.0264 9.17327 358 98.0838 321.665 517.838
364 0 41.0304 9.84637 404 97.948 325.423 517.856
365 0 42.1005 11.0212 464 94.8599 327.308 516.028
366 0 44.0142 11.2237 494 95.7085 330.925 516.526
367 0 43.0266 9.64521 415 99.3542 332.761 518.918
368 0 45.1163 11.415 515 98.4427 333.604 518.274
369 0 46.0455 11.0977 511 99.1311 334.387 519.323
370 0 50.0878 14.0154 702 94.5997 334.996 518.255
371 0 50.0451 13.1082 656 97.1433 335.172 520.764
372 0 52.0657 13.4445 700 97.3514 333.324 519.373
373 0 53.0985 13.3149 707 97.5672 331.818 520.3
374 0 57.03 15.0623 859 92.929 330.868 520.831
375 0 59.1034 14.9737 885 93.6079 329.129 519.611
376 0 59.1671 14.1464 837 95.9964 327.361 517.772
377 0 61.0662 13.5427 827 97.2177 325.961 518.941
378 0 63.1437 13.9206 879 95.9681 323.923 516.557
379 0 66.208 15.0888 999 92.6887 322.574 513.668
380 0 66.1425 13.4558 890 97.2697 322.067 511.757
381 0 69.1607 13.6927 947 95.963 320.291 511.842
382 0 69.0515 13.2944 918 97.707 319.101 510.265
383 0 73.0733 13.548 990 95.4131 317.948 510.772
384 0 76.2533 14.6223 1115 93.2099 317.696 508.385
385 0 78.1591 14.0611 1099 94.7279 315.651 504.369
386 0 78.1888 12.457 974 97.9579 314.776 500.742
387 0 82.1832 13.5064 1110 95.6766 313.492 500.404
388 0 84.0957 13.7938 1160 94.9845 313.274 495.611
389 1 44.0298 9.539 420 97.3524 313.762 517.912
390 0 44.0807 10.2085 450 98.9556 313.609 515.747
391 0 46.0373 9.31853 429 99.9883 314.828 512.834
392 0 50.0648 12.8833 645 92.1953 315.363 513.198
393 0 51.0833 12.6069 644 94.0388 316.579 509.559
394 0 52.1337 13.2928 693 91.7446 314.208 506.417
395 0 53.0679 13.8879 737 88.9118 316.096 509.498
396 0 54.0423 13.5819 734 90.6294 320.075 508.286
397 0 55.1692 13.3226 735 89.5143 323.737 509.633
398 0 57.1118 13.5699 775 88.7587 326.11 507.91
399 0 59.1413 14.5414 860 88.4 328.659 509.57
400 0 59.0421 12.8891 761 91.4455 331.318 508.874
401 0 61.1907 13.0575 799 90.5982 332.637 508.026
402 0 63.1262 13.4968 852 90.6185 332.252 508.815
403 0 65.1311 13.2041 860 91.4791 333.349 510.117
404 0 67.2621 13.7968 928 91.8524 332.594 510.103
405 0 69.0878 12.8532 888 94.2872 331.875 510.231
406 0 72.131 13.7112 989 93.2133 329.812 508.712
407 0 75.0799 14.4246 1083 91.8199 328.792 507.562
408 0 78.0658 13.4758 1052 95.0437 327.367 506.81
409 0 78.3311 13.2387 1037 96.6172 325.22 505.9
410 0 84.1271 14.1096 1187 94.1053 322.773 506.651
411 0 86.1315 12.4461 1072 99.7957 320.272 505.43
412 0 90.1442 15.7636 1421 93.0774 319.87 503.747
413 1 46.0178 9.73537 448 100.683 317.688 524.69
414 0 47.0175 10.0176 471 100.894 316.401 522.631
415 0 49.0303 10.5037 515 98.666 314.449 521.569
416 0 50.0318 10.4134 521 100.607 314.708 522.459
417 0 53.0409 11.1235 590 99.5695 313.707 516.831
418 0 53.0784 12.3402 655 98.7038 312.386 514.589
419 0 55.048 13.243 729 96.262 311.364 513.091
420 0 58.0568 12.66 735 97.7986 310.675 510.641
421 0 62.0813 13.2407 822 99.0036 309.482 509.075
422 0 62.0759 14.4984 900 99.0422 309.324 507.396
423 0 63.0767 13.7293 866 102.311 310.112 504.129
424 0 66.0681 12.8352 848 102.344 310.377 501.938
425 0 67.0993 13.8899 932 98.3562 310.677 500.866
426 0 69.0582 14.6253 1010 97.3208 312.207 498.318
427 0 70.0737 12.601 883 102.618 313.754 498.683
428 0 74.1103 13.291 985 101.525 315.963 498.463
429 0 74.0699 12.4477 922 103.923 319.18 497.82
430 0 81.0947 15.2168 1234 97.9011 322.075 497.298
431 0 82.0947 13.6793 1123 101.713 325.56 495.185
432 0 85.2065 14.013 1194 102.273 327.593 495.499
433 1 44.0712 9.71155 428 104.907 330.404 519.474
434 0 45.0684 10.3398 466 106.899 331.85 518.266
435 0 48.139 10.719 516 105.676 333.048 518.777
436 0 50.1608 10.8651 545 105.156 333.36 519.945
437 0 50.0584 13.4044 671 100.657 333.294 518.539
438 0 52.0468 12.7193 662 100.781 333.017 520.311
439 0 52.0571 13.7733 717 99.7211 330.82 519.828
440 0 53.0604 12.8533 682 103.918 329.23 517.871
441 0 57.0704 13.9477 796 100.985 327.538 517.921
442 0 59.0444 14.4467 853 98.939 325.461 518.715
443 0 61.117 13.7441 840 101.655 323.617 516.073
444 0 64.0684 14.2036 910 99.711 322.345 516.664
445 0 64.1155 13.5069 866 101.973 320.082 514.718
446 0 67.0796 14.3561 963 99.9065 319.637 514.319
447 0 68.0683 12.8253 873 101.115 317.361 513.45
448 0 68.0969 13.8773 945 100.658 315.707 510.566
449 0 72.0482 14.99 1080 96.8722 315.394 509.865
450 0 75.069 13.2944 998 99.3206 314.319 506.239
451 0 75.1463 13.5336 1017 99.6509 313.769 504.198
452 0 78.1205 15.3097 1196 94.7441 312.099 501.637
453 1 43.02 9.83264 423 102.144 311.478 518.331
454 0 44.0597 10.7354 473 100.199 309.753 517.395
455 0 43.0478 9.77982 421 105.233 310.204 513.477
456 0 46.054 10.8351 499 101.505 309.89 513.715
457 0 46.029 10.6889 492 102.573 310.404 513.516
458 0 49.0447 10.5822 519 101.435 315.25 511.414
459 0 51.0211 12.5438 640 97.0641 315.472 509.992
460 0 51.0344 13.2656 677 93.7208 318.004 507.29
461 0 52.0796 13.1145 683 93.6076 319.698 507.258
462 0 55.1073 12.9021 711 92.879 322.47 507.335
463 0 56.0878 13.9603 783 91.9591 325.525 507.456
464 0 58.0787 13.1546 764 92.6414 328.793 507.91
465 0 58.1532 13.3269 775 92.9961 330.857 505.041
466 0 61.0913 13.8645 847 90.3589 332.162 508.665
467 0 62.0805 13.3214 827 91.9601 334.336 507.039
468 0 62.1311 12.8116 796 94.392 336.418 508.849
469 0 65.1009 12.5497 817 93.8923 337.064 507.836
470 0 69.0574 13.9884 966 90.352 337.374 506.424
471 0 71.1482 14.5612 1036 89.1004 337.113 506.137
472 0 71.0987 11.6317 827 94.867 336.008 506.479
473 0 72.1908 12.3977 895 92.3531 333.663 507.13
474 0 76.2623 11.5785 883 93.3409 331.489 504.52
475 1 43.0585 9.93997 428 91.8388 331.14 524.605
476 0 47.1383 10.4798 494 89.1498 328.397 525.779
477 0 44.0618 9.8498 434 91.4816 325.896 525.129
478 0 46.0515 9.27223 427 93.8407 324.511 522.525
479 0 48.0968 11.6848 562 89.6121 323.007 521.799
480 0 51.1537 10.9669 561 89.0695 321.439 521.371
481 0 50.3988 12.0439 607 88.575 319.544 519.914
482 0 52.0907 12.843 669 85.7668 318.761 517.686
483 0 54.0872 11.6479 630 87.7222 317.473 516.524
484 0 55.0687 12.8567 708 86.2316 316.712 517.153
485 0 58.0602 13.6582 793 84.7415 316.175 514.071
486 0 57.1004 10.9982 628 89.4013 315.116 516.253
487 0 60.0637 13.2526 796 86.6131 313.513 510.162
488 0 62.138 12.6654 787 87.6671 313.907 508.729
489 0 63.066 14.5879 920 85.5337 313.618 506.502
490 0 66.0503 12.9901 858 88.0524 312.851 506.289
491 0 68.1294 13.5478 923 87.9534 313.323 502.024
492 0 68.1258 12.6531 862 90.0742 313.79 500.739
493 0 70.1318 13.9452 978 88.6984 315.219 500.762
494 0 74.1486 13.2032 979 89.0163 317.151 502.48
495 1 37.0063 9.02549 334 92.4132 320.563 518.509
496 0 39.0624 9.80483 383 92.3525 322.916 517.371
497 0 38.014 10.2594 390 91.1359 324.951 517.249
498 0 40.0671 10.9566 439 91.779 327.888 517.2
499 0 42.0536 10.2488 431 90.587 330.928 519.443
500 0 43.0627 11.8896 512 88.5625 332.285 518.744
501 0 44.1826 12.5841 556 88.6709 332.246 519.847
502 0 47.1869 14.0929 665 82.1143 333.28 519.68
503 0 47.0511 14.8774 700 82.1471 332.267 522.076
504 0 47.0501 12.7099 598 86.2876 331.502 520.982
505 0 50.1145 12.8107 642 85.0623 330.542 519.776
506 0 50.094 12.6163 632 87.2025 328.888 520.008
507 0 54.2461 13.5678 736 84.9361 327.918 522.322
508 0 54.0327 13.6029 735 86.1415 326.952 520.31
509 0 56.1782 14.4718 813 84.4711 324.305 519.014
510 0 58.1565 15.2004 884 83.6448 323.383 519.345
511 0 60.1818 15.6027 939 83.3056 321.224 517.672
512 0 62.1505 13.7569 855 87.2725 319.584 517.794
513 0 64.1415 14.0783 903 86.8848 317.331 515.695
514 0 64.0859 14.2621 914 88.9836 318.905 515.204
515 0 67.1281 14.0627 944 88.732 317.148 515.137
516 0 69.2174 14.6206 1012 88.1611 315.501 512.083
517 0 72.167 15.9768 1153 85.118 314.422 509.484
518 1 34.011 8.61485 293 95.5392 313.969 527.061
519 0 38.0387 11.646 443 88.8849 314.084 527.817
520 0 37.0684 11.7081 434 90.8571 312.175 524.242
521 0 39.0237 11.6339 454 89.2885 312.941 526.923
522 0 40.1259 9.84402 395 93.7544 311.671 519.734
523 0 42.0859 12.6883 534 88.7154 312.212 516.983
524 0 43.2072 13.7014 592 86.6284 312.209 515.019
525 0 46.0402 15.5733 717 84.1074 313.4 515.449
526 0 47.0966 13.4405 633 88.2101 314.757 516.325
527 0 49.107 14.9469 734 85.7193 315.613 511.523
528 0 51.1721 15.4186 789 84.6388 317.959 511.88
529 0 52.0965 14.857 774 86.3075 320.612 513.025
530 0 54.0534 15.0777 815 87.3006 323.648 511.456
531 0 53.1071 13.8588 736 91.5 326.008 510.715
532 0 57.1841 14.1648 810 90.1222 328.622 512.027
533 0 59.0708 15.1174 893 89.4569 330.423 512.638
534 0 63.1165 15.1149 954 89.4036 332.063 512.294
535 0 64.1121 16.5647 1062 88.2702 333.799 509.757
536 0 65.1831 17.3511 1131 88.1123 334.823 509.13
537 0 66.1358 14.7121 973 94.3566 334.747 510.803
538 0 70.2428 15.8308 1112 93.6457 333.206 509.147
539 0 73.1285 15.0283 1099 95.5223 332.241 509.555
540 0 75.2234 16.3513 1230 94.2016 330.287 509.433
541 0 77.1245 16.052 1238 96.6115 328.763 508.921
542 1 40.0503 11.7852 472 101.544 325.352 530.532
543 0 43.0564 10.4979 452 103.166 323.004 531.571
544 0 45.0357 10.7914 486 102.163 321.494 529.027
545 0 45.1038 13.4135 605 98.1636 320.073 529.19
546 0 46.2291 13.3898 619 96.7399 320.578 522.906
547 0 49.0686 16.3241 801 90.7466 316.296 526.567
548 0 49.0757 14.2433 699 96.5823 315.063 523.492
549 0 53.0478 14.8922 790 93.5101 313.603 522.722
550 0 53.0924 14.5219 771 96.5396 311.898 519.141
551 0 54.0389 14.4896 783 98.0115 310.609 517.43
552 0 55.124 14.4764 798 98.5251 310.281 517.288
553 0 57.2067 13.7921 789 99.8226 309.738 513.333
554 0 60.0399 14.6569 880 98.2886 309.247 512.739
555 0 59.168 15.2109 900 97.3622 308.314 510.15
556 0 61.0936 14.6824 897 98.0647 308.546 507.544
557 0 67.0804 13.9087 933 96.1072 309.549 511.909
558 0 66.0456 14.49 957 99.8422 310.206 505.92
559 0 68.0884 14.6574 998 99.7164 311.194 506.084
560 0 69.0308 12.8928 890 104.652 312.131 503.604
561 0 74.0674 15.6614 1160 98.7483 313.607 501.98
562 1 39.0135 11.9702 467 103.844 316.61 518.953
563 0 42.0225 10.7085 450 106.142 320.48 520.371
564 0 43.0392 12.4538 536 104.621 322.554 517.496
565 0 43.0422 13.5216 582 99.6684 326.893 518.747
566 0 45.2598 13.1021 593 100.088 326.815 513.934
567 0 47.0796 14.9109 702 96.3362 328.264 516.497
568 0 47.0802 11.6609 549 108.151 331.388 519.257
569 0 52.1122 14.0466 732 99.9003 331.399 518.059
570 0 52.123 13.5832 708 102.321 331.996 520.658
571 0 53.1404 12.6081 670 105.725 332.269 519.848
572 0 55.0726 13.3823 737 104.134 331.254 521.408
573 0 58.1138 13.3187 774 103.817 329.068 519.559
574 0 59.1513 14.6066 864 101.51 327.832 519.693
575 0 60.0595 12.5043 751 107.289 326.362 519.044
576 0 64.072 14.5617 933 102.514 323.902 518.946
577 0 64.1091 13.4458 862 106.666 321.574 516.292
578 0 67.0737 13.8504 929 106.837 319.341 514.326
579 0 69.1629 14.5309 1005 106.001 318.825 513.33
580 0 72.1293 14.377 1037 106.615 317.817 509.319
581 1 38.0859 8.9797 342 110.848 316.418 529.146
582 0 40.0317 10.3418 414 106.589 313.7 527.949
583 0 40.03 11.3165 453 106.638 314.265 525.243
584 0 42.0171 11.2335 472 107 311.544 522.265
585 0 42.0751 11.7647 495 106.764 312.313 520.824
586 0 46.0382 12.229 563 100.332 311.822 520.419
587 0 46.0817 13.3025 613 99.1533 311.574 517.452
588 0 48.076 12.4178 597 100.824 311.973 517.804
589 0 49.1061 12.6868 623 100.196 310.262 519.377
590 0 50.0257 13.1133 656 104.189 309.128 514.716
591 0 51.0639 13.0229 665 103.033 308.65 510.998
592 0 52.05 12.8915 671 103.83 308.9 510.38
593 0 55.0353 12.7918 704 103.307 310.067 511.814
594 0 56.0172 11.3715 637 104.956 311.411 509.356
595 0 57.0462 12.6564 722 101.993 313.479 508.639
596 0 59.0834 13.3709 790 101.528 315.933 507.034
597 0 61.1465 13.5085 826 101.483 318.672 506.287
598 0 65.0578 13.9107 905 98.6552 322.267 506.487
599 0 63.1428 13.3507 843 100.778 324.688 507.701
600 0 67.1077 14.0669 944 97.9862 328.091 502.751
601 0 70.1372 14.2007 996 95.6315 330.229 510.871
602 0 73.0974 11.984 876 97.9635 330.627 508.447
603 0 77.0599 15.4166 1188 90.9705 331.876 507.517
604 1 39.0501 10.525 411 97.5061 332.107 523.567
605 0 40.1628 9.76027 392 95.1071 332.02 527.439
606 0 42.1019 11.7097 493 92.645 330.444 526.268
607 0 45.096 11.2427 507 92.1755 328.436 525.041
608 0 45.0472 12.2316 551 90.3648 327.868 525.773
609 0 48.2002 12.6556 610 87.1344 326.598 521.385
610 0 49.0321 12.1349 595 88.8118 323.987 525.045
611 0 52.1161 12.2035 636 92.2689 321.986 526.258
612 0 52.0734 12.6168 657 92.2146 319.782 521.904
613 0 56.0969 13.8867 779 88.7882 318.078 521.928
614 0 56.1833 11.7829 662 93.8656 317.285 520.39
615 0 58.2008 13.8314 805 90.7217 316.319 519.313
616 0 59.1321 12.4467 736 94.197 315.181 516.261
617 0 61.3773 13.1482 807 93.461 315.321 512.452
618 0 63.3038 12.7323 806 94.4578 313.793 511.261
619 0 65.2343 14.8695 970 91.4866 312.798 507.409
620 0 68.1985 13.9006 948 92.5158 312.059 504.046
621 0 69.3197 14.022 972 92.5741 310.612 505.319
622 0 72.2551 13.7153 991 92.9768 310.402 502.364
623 0 75.2234 15.1017 1136 90.6866 311.555 501.698
624 0 76.2222 14.5889 1112 92.9721 310.844 498.693
625 0 78.3537 14.9833 1174 93.615 311.738 496.718
626 0 81.3738 14.2921 1163 96.5314 312.609 496.334
627 0 84.4848 14.8903 1258 95.2599 313.42 496.436
628 1 42.1911 10.4287 440 102.05 317.618 512.432
629 0 45.2465 8.50895 385 101.535 319.704 515.665
630 0 46.0317 10.1017 465 94.9312 319.931 515.798
631 0 47.0522 11.4766 540 94.1685 322.844 512.93
632 0 49.0751 11.6964 574 93.331 328.357 511.03
633 0 52.1565 12.9802 677 95.7799 331.606 511.01
634 0 52.2008 12.6243 659 93.0303 332.956 516.241
635 0 52.1085 13.0689 681 93.9486 333.523 515.85
636 0 55.1354 13.2039 728 93.8503 335.152 515.375
637 0 59.2007 13.0404 772 93.4598 335.588 514.753
638 0 61.1894 12.878 788 94.7335 334.635 515.358
639 0 63.1893 12.6445 799 94.8648 334.245 516.028
640 0 64.2911 13.6411 877 94.4823 333.245 513.133
641 0 68.2633 13.9753 954 93.7966 331.82 513.373
642 0 69.2312 13.1299 909 95.0341 330.823 513.82
643 0 73.1381 13.1122 959 94.2857 328.355 512.493
644 0 74.1515 13.3915 993 94.3142 326.423 510.075
645 0 78.2009 13.7339 1074 93.4553 324.074 511.235
646 0 80.2522 13.0837 1050 94.3133 321.233 508.427
647 0 84.199 14.347 1208 91.0488 321.548 508.544
648 0 87.2331 14.6389 1277 89.8872 319.775 504.505
649 0 90.1914 14.3362 1293 90.935 317.185 504.077
650 0 91.2347 13.5255 1234 92.7253 316.596 498.471
651 0 95.0711 13.411 1275 93.4918 316.506 496.872
652 0 99.1593 13.2212 1311 94.1007 314.741 494.651
653 1 52.0846 11.9805 624 91.399 314.388 517.088
654 0 51.0479 9.59883 490 95.9122 313.157 515.527
655 0 52.0428 10.7796 561 94.0196 313.228 515.216
656 0 54.0828 11.4269 618 94.3738 312.969 511.324
657 0 55.0652 12.9664 714 93.063 312.646 509.894
658 0 57.0388 12.921 737 95.0909 312.821 506.319
659 0 57.0718 12.8084 731 91.4679 313.713 505.019
660 0 61.1468 13.9337 852 88.5716 314.124 506.705
661 0 63.1005 13.1061 827 90.6626 315.761 503.447
662 0 63.1028 14.1198 891 89.2952 318.441 502.254
663 0 67.0893 13.9068 933 88.9518 321.148 501.838
664 0 68.1023 13.9936 953 89.9318 323.163 501.461
665 0 70.3541 13.7305 966 91.3261 326.081 500.019
666 0 73.2987 14.3659 1053 91.0266 327.643 500.789
667 0 75.1348 12.6706 952 94.3487 331.568 499.651
668 0 77.1966 14.0162 1082 92.9168 333.638 498.054
669 0 79.1507 13.2027 1045 94.3187 334.802 496.891
670 0 83.2526 15.8313 1318 89.4203 335.586 498.08
671 0 86.2611 15.1053 1303 91.2847 335.002 498.959
672 0 88.1964 14.8305 1308 91.8716 335.158 501.657
673 1 45.134 9.83737 444 98.7995 334.306 523.023
674 0 48.1091 9.08353 437 100.934 333.037 521.499
675 0 49.0437 10.5416 517 96.9787 331.17 524.25
676 0 49.0651 11.1281 546 99.1795 329.161 522.161
677 0 51.0486 12.1453 620 95.1323 327.845 524.571
678 0 55.1135 12.9188 712 94.9522 325.392 521.779
679 0 56.1973 13.1323 738 92.958 323.126 517.407
680 0 58.2092 14.5682 848 90.7134 321.236 518.94
681 0 60.1882 13.9728 841 91.8442 319.61 517.379
682 0 63.1307 14.5888 921 90.2693 317.864 517.456
683 0 65.2979 15.146 989 88.7048 316.355 515.614
684 0 66.2452 14.3256 949 90.8293 315.656 514.424
685 0 67.2092 13.1232 882 94.0147 314.155 510.766
686 0 69.238 13.172 912 93.7522 312.417 508.649
687 0 74.2314 15.519 1152 88.2674 311.551 508.135
688 0 74.2102 14.4994 1076 90.5641 311.203 506.831
689 0 76.2649 14.6332 1116 90.3907 310.566 502.224
690 0 78.1775 14.8508 1161 90.1904 310.793 503.704
691 0 80.2182 15.4578 1240 89.2048 311.363 499.968
692 0 84.2228 15.0791 1270 89.3228 310.8 497.506
693 0 85.2044 15.3983 1312 89.2584 311.485 497.823
694 0 85.09 14.1967 1208 92.6995 312.054 493.316
695 0 89.138 15.3806 1371 90.593 314.544 493.897
696 0 90.2248 14.0095 1264 93.8584 316.103 490.514
697 0 94.1191 13.9717 1315 93.9772 318.363 488.549
698 1 48.0634 10.8399 521 95.5125 321.474 511.781
699 0 49.0441 9.25698 454 94.6278 323.262 510.106
700 0 51.0308 9.58245 489 94.8793 326.223 511.521
701 0 54.0296 11.5677 625 91 328.382 509.699
702 0 55.3219 12.5448 694 89.7839 329.174 509.388
703 0 58.2253 10.9746 639 90.0626 330.673 512.978
704 0 61.0667 13.9028 849 92.5241 332.596 515.677
705 0 62.076 13.4352 834 95.006 333.687 514.451
706 0 66.0862 14.4659 956 92.2646 331.587 516.587
707 0 67.0912 13.2953 892 96.3128 330.771 515.376
708 0 70.1252 13.647 957 96.0961 329.225 515.286
709 0 72.1093 14.8663 1072 95.0485 327.605 513.754
710 0 74.0879 14.7797 1095 96.8584 326.244 512.942
711 0 78.2052 13.9121 1088 98.2868 323.865 512.586
712 0 79.1503 14.3903 1139 98.4495 321.609 511.772
713 0 84.227 15.2445 1284 96.0241 319.462 510.944
714 0 85.249 16.1644 1378 96.0283 317.956 507.238
715 0 89.2707 16.5564 1478 95.4005 316.068 505.243
716 0 92.3261 16.3226 1507 96.292 314.15 504.801
717 0 95.2732 15.3663 1464 99.8456 314.33 502.046
718 0 97.1951 14.8464 1443 101.597 312.506 499.418
719 0 100.412 14.54 1460 104.586 311.681 496.058
720 1 55.0798 10.1126 557 105.104 311.871 521.54
721 0 54.0835 10.3359 559 108.229 310.553 518.626
722 0 57.1407 11.3579 649 106.02 310.079 515.883
723 0 56.076 11.0743 621 107.789 309.944 515.259
724 0 58.0698 12.2267 710 105.954 309.652 509.52
725 0 62.1183 13.4099 833 101.831 309.539 509.179
726 0 62.1231 14.3103 889 102.146 310.222 507.162
727 0 62.2077 12.5386 780 106.74 310.715 507.003
728 0 66.2445 14.688 973 100.298 311.236 505.918
729 0 65.3548 14.5666 952 102.504 312.86 504.692
730 0 69.3763 14.3133 993 101.449 314.084 504.304
731 0 66.2297 13.4532 891 105.147 316.89 502.073
732 0 71.1986 12.8654 916 101.836 319.279 503.37
733 0 72.2488 14.4778 1046 100.762 322.013 499.942
734 0 73.2945 12.3065 902 106.676 325.936 498.88
735 0 76.239 13.274 1012 97.5484 327.481 494.084
736 0 66.1996 7.82482 518 95.5676 328.542 493.44
737 0 67.2309 10.9622 737 91.9837 330.453 497.228
738 0 66.0791 11.2744 745 92.3141 331.072 502.205
739 0 69.2292 11.0358 764 87.6531 330.313 503.548
740 0 67.3778 10.9977 741 72.5614 331.312 503.478
741 1 77.1872 15.1709 1171 126.675 328.819 435.603
742 0 79.216 16.3477 1295 123.811 327.136 436.818
743 0 79.1765 15.2571 1208 128.908 326.161 438.878
744 0 80.2168 16.0191 1285 128.524 324.348 439.286
