time division length width area intensity CMx CMy
0 0 47.0564 16.8096 791 102.425 1177.5 503.123
1 0 46.0448 15.7455 725 107.494 1177.16 500.426
2 0 48.0751 17.9719 864 103.723 1174.39 499.838
3 0 48.0903 16.9265 814 109.004 1175.07 496.77
4 0 49.0481 16.6163 815 110.987 1175.32 496.114
5 0 50.0818 16.4331 823 111.435 1176 491.713
6 0 54.1479 18.5049 1002 105.25 1176.77 492.128
7 0 53.077 18.0492 958 108.972 1178.32 491.351
8 0 54.0558 16.779 907 110.981 1179.47 488.032
9 0 56.0624 18.2832 1025 108.752 1181.8 488.232
10 0 58.0779 16.8739 980 112.595 1182.13 485.753
11 0 58.0425 17.1598 996 111.121 1184.1 487.786
12 0 59.1259 15.6615 926 115.744 1186.01 484.265
13 0 60.0293 17.025 1022 113.488 1188.08 483.206
14 0 63.206 18.0204 1139 109.015 1188.73 481.486
15 0 66.1527 19.591 1296 104.578 1191.03 482.63
16 0 64.2302 17.4061 1118 114.89 1193.55 481.4
17 0 66.094 16.7186 1105 117.929 1196.32 480.847
18 0 68.0946 17.226 1173 114.54 1197.61 479.705
19 0 72.191 16.678 1204 116.085 1199.39 478.304
20 0 76.094 18.556 1412 113.953 1200.36 477.227
21 0 80.1783 17.7729 1425 114.933 1201.05 477.668
22 0 82.1314 17.3137 1422 115.034 1200.48 477.478
23 0 85.0883 18.2869 1556 111.533 1199.84 475.718
24 1 45.0409 12.4109 559 119.624 1199.05 499.263
25 0 45.0409 12.4109 559 169.984 1205.05 499.263
26 0 47.0429 12.0953 569 119.699 1195.9 497.225
27 0 61.9228 11.0622 685 112.314 1193.19 495.486
28 0 49.1256 12.295 604 116.272 1189.98 492.083
29 0 52.0498 13.7945 718 114.521 1187.93 490.961
30 0 52.0744 15.1322 788 113.948 1186.36 490.187
31 0 53.1487 14.0361 746 115.196 1184.28 488.323
32 0 49.2458 13.991 689 113.788 1182.92 484.003
33 0 57.1098 15.0412 859 112.875 1181.27 481.745
34 0 60.1452 15.5623 936 110.816 1181.3 480.622
35 0 63.1053 15.9733 1008 109.401 1180.96 477.681
36 0 66.0916 15.9022 1051 109.308 1181.17 475.294
37 0 65.0481 16.4801 1072 109.204 1182.97 474.688
38 0 69.0407 16.1933 1118 109.464 1184.45 472.395
39 0 72.1047 16.7673 1209 107.25 1185.6 470.724
40 0 74.0667 16.7147 1238 108.838 1186.61 467.304
41 0 76.128 15.5528 1184 110.792 1188.58 466.053
42 0 81.0878 16.587 1345 107.426 1191.25 462.584
43 0 82.2731 15.9712 1314 109.892 1193.52 459.48
44 0 85.3342 15.0584 1285 111.167 1196.12 458.57
45 0 88.3954 16.0076 1415 108.329 1198.52 453.856
46 0 90.3757 16.3097 1474 107.446 1199.65 453.895
47 0 93.581 15.3664 1438 109.579 1201.52 453.508
48 0 94.4994 15.4287 1458 109.911 1202.97 448.604
49 0 98.3843 15.5614 1531 107.996 1205.13 453.975
50 0 103.29 17.3976 1797 103.668 1205.75 448.585
51 0 106.38 16.0932 1712 105.252 1207.08 449.549
52 0 112.593 16.0046 1802 103.094 1208.04 448.639
53 0 114.447 16.3657 1873 102.956 1208.34 446.97
54 0 118.395 15.4061 1824 104.283 1209.04 447.424
55 0 124.566 15.6785 1953 102.142 1209.02 448.791
56 0 126.481 14.4686 1830 103.76 1207.16 444.642
57 0 133.597 15.5093 2072 100.376 1206.69 443.028
58 0 140.729 15.2136 2141 101.242 1204.84 442.101
59 0 144.54 16.632 2404 99.4255 1202.84 435.866
60 0 151.753 16.428 2493 100.015 1200.2 434.132
61 0 157.755 16.3862 2585 99.5354 1197.27 427.251
62 0 162.555 16.2407 2640 100.805 1195.29 428.9
63 0 162.555 16.173 2629 149.806 1194.3 428.924
64 1 190.658 13.2436 2525 102.427 1191.42 425.045
65 0 188.635 10.9789 2071 161.18 1189.49 431.018
66 0 188.725 17.2474 3255 99.3837 1188.85 410.019
67 0 196.476 17.5747 3453 99.0753 1187.56 409.488
68 0 203.572 17.0701 3475 101.263 1187.3 403.558
69 1 50.1892 10.0221 503 96.6799 1191.83 480.98
70 0 53.1032 11.054 587 96.2964 1192.9 477.175
71 0 54.0262 11.6055 627 97.5183 1191.77 475.046
72 0 58.1551 14.2722 830 88.5675 1193.31 476.142
73 0 60.0691 12.5855 756 92.7024 1194.81 474.725
74 0 58.1473 12.0556 701 95.4936 1196.32 471.65
75 0 65.0794 13.061 850 91.6306 1198.18 471.609
76 0 68.0615 14.9865 1020 86.7892 1199.69 469.459
77 0 68.1631 13.1303 895 91.6771 1201.65 465.931
78 0 68.1631 13.0863 892 135.947 1203.66 465.948
79 1 40.0236 10.3439 414 93 1207.03 483.174
80 0 41.0368 11.9892 492 90.4289 1207.79 482.713
81 0 41.0237 12.0175 493 90.785 1209.76 482.88
82 0 42.1447 12.1249 511 87.8963 1211.13 484.384
83 0 41.069 11.9068 489 88.2781 1213.79 485.041
84 0 44.1558 13.8147 610 88.0508 1216.65 480.172
85 0 45.1324 11.987 541 91.6174 1216.83 481.322
86 0 47.0486 11.3925 536 93.6175 1217.12 483.174
87 0 46.1485 11.3546 524 91.2939 1217.21 483.508
88 0 49.1571 12.1854 599 89.6093 1216.74 484.826
89 0 50.0365 10.972 549 90.2787 1216.56 487.563
90 0 51.0384 10.2472 523 90.8107 1214.68 487.532
91 0 52.0296 12.1085 630 89.7556 1209.96 484.7
92 0 54.0695 13.4827 729 86.3731 1209.47 486.464
93 0 55.114 10.2878 567 89.5115 1206.03 483.557
94 0 57.0921 12.6638 723 87.3485 1203.33 482.065
95 0 59.0682 11.5798 684 88.5365 1200.88 481.795
96 0 59.0682 11.6814 690 148.157 1197.86 481.801
97 0 62.0735 12.4691 774 88.5103 1194.95 476.377
98 0 65.1033 14.454 941 87.3932 1193.93 474.912
99 0 69.0485 14.4246 996 84.8916 1191.83 474.074
100 1 39.0394 10.3997 406 89.6108 1190.19 485.283
101 0 41.1201 9.55738 393 90.9084 1190.41 486.433
102 0 41.077 13.4382 552 87.0018 1190.98 483.098
103 0 43.0781 12.3264 531 89.4934 1191.89 481.497
104 0 45.0967 12.7726 576 90.0608 1193.08 481.389
105 0 45.1285 13.251 598 90.3294 1194.55 478.821
106 0 46.0947 13.1685 607 90.6787 1195.83 476.038
107 0 46.0634 13.2643 611 89.9296 1198.67 476.421
108 0 48.0636 11.672 561 92.2442 1200.09 476.57
109 0 50.1468 15.0757 756 85.9471 1202.87 477.27
110 0 51.1957 12.5792 644 90.8121 1205.01 474.71
111 0 54.2375 13.699 743 88.2867 1206.67 474.954
112 0 53.0689 11.7772 625 92.224 1209.44 475.466
113 0 56.1085 13.5986 763 90.4574 1208.98 469.81
114 0 58.1181 13.3865 778 91.5707 1211.94 471.949
115 0 58.1721 13.2194 769 91.6619 1214.83 471.166
116 0 61.1617 12.2626 750 93.3253 1215.54 472.752
117 0 62.282 13.471 839 91.6687 1217.65 470.909
118 0 64.1191 13.6777 877 91.4641 1217.01 471.713
119 0 66.1809 13.4782 892 90.7276 1218.01 471.994
120 0 66.1534 11.6396 770 94.3065 1218.23 474.534
121 0 68.1306 12.4026 845 93.5621 1218.54 474.205
122 1 38.0851 9.89887 377 92.5305 1219.02 491.939
123 0 39.0745 10.1345 396 93.3106 1218.46 489.71
124 0 42.155 12.5489 529 89.1531 1215.65 490.584
125 0 40.0805 11.3272 454 92.7841 1214.44 489
126 0 44.0746 13.1368 579 89.2694 1213.02 487.839
127 0 46.3088 12.8485 595 60.9681 1210.98 489.18
128 0 41.1431 10.427 429 93.7949 1208.1 489.331
129 0 44.3084 12.0519 534 91.0524 1205.08 486.493
130 0 47.2714 12.5446 593 88.9359 1203.45 487.98
131 0 46.2872 11.4935 532 91.8665 1201.89 484.062
132 0 46.2352 11.355 525 92.741 1198.59 481.493
133 0 51.1672 11.6285 595 92.242 1197.31 480.617
134 0 51.1963 11.954 612 92.5098 1196.05 476.975
135 0 52.2216 10.915 570 95.5053 1195.82 476.556
136 0 55.3679 11.6674 646 93.7957 1197.02 473.865
137 0 56.2541 11.6969 658 94.1626 1197.14 472.605
138 0 54.1917 11.5147 624 96.1843 1199.15 470.663
139 0 59.1409 12.969 767 93.6701 1200.13 470.218
140 0 61.1679 12.5883 770 94.1364 1201.42 469.791
141 0 61.4195 13.2857 816 93.6838 1202.95 468.288
142 0 63.2136 12.1335 767 96.1708 1206.06 465.389
143 0 65.3642 12.4227 812 96.7229 1206.74 465.249
144 0 69.246 13.8636 960 92.6302 1208.12 464.533
145 0 72.209 12.4223 897 95.0847 1212.18 463.072
146 0 84.3677 18.5735 1567 58.4308 1211.01 465.961
147 1 40.0686 11.1309 446 95.7713 1215.69 477.953
148 0 41.0176 11.5073 472 96.0911 1216.6 477.968
149 0 42.0352 11.0146 463 98.1382 1218.44 477.935
150 0 46.1411 12.115 559 93.0823 1219.66 478.394
151 0 45.014 11.3298 510 94.151 1220.32 479.824
152 0 48.0566 12.2356 588 90.2517 1221.09 478.993
153 0 48.2071 13.6702 659 89.1988 1220.95 479.537
154 0 48.1903 12.3676 596 92.9614 1221.21 480.639
155 0 47.1913 12.4599 588 94.2483 1220.92 479.26
156 0 50.1925 13.3486 670 92.5328 1220.34 481.743
157 0 53.1524 11.8715 631 93.3344 1219.25 484.948
158 0 56.2176 13.928 783 90.1009 1218.98 483.05
159 0 56.1273 12.8636 722 94.8006 1216.23 478.972
160 0 59.219 13.7287 813 92.6728 1214.84 479.952
161 0 61.1999 13.4804 825 93.1042 1211.05 478.981
162 0 62.1739 13.993 870 94.5954 1208.64 475.317
163 0 64.2941 13.7182 882 94.9116 1205.93 473.712
164 0 65.2396 14.2245 928 95.0269 1203.73 471.835
165 0 66.2586 13.885 920 97.2087 1202.12 470.88
166 0 71.2534 14.0625 1002 95.0798 1201.05 470.641
167 0 74.2024 15.2421 1131 92.4111 1200.6 468.253
168 0 76.229 14.6532 1117 94.7807 1199.88 464.207
169 0 77.2245 12.9622 1001 97.5534 1198.17 463.632
170 1 43.0697 12.1895 525 96.5486 1201.09 477.358
171 0 43.05 10.5691 455 98.5385 1201.75 477.273
172 0 44.0596 11.8022 520 97.8519 1203.54 476.202
173 0 45.1279 10.4592 472 101.089 1204.7 475.388
174 0 48.1802 12.4117 598 97.689 1205.19 472.701
175 0 47.1488 11.2622 531 101.209 1207.67 472.772
176 0 49.0691 13.2263 649 98.322 1209.06 470.475
177 0 49.0691 13.2263 649 157.706 1211.08 470.405
178 0 54.1413 14.7762 800 91.4225 1212.1 471.619
179 0 51.1022 13.7372 702 95.3818 1214.42 472.207
180 0 55.2582 12.8307 709 97.519 1216.07 469.484
181 0 57.1334 13.4597 769 96.7399 1216.57 469.934
182 0 58.118 13.8856 807 96.4436 1218.58 469.87
183 0 61.1502 13.1643 805 97.1441 1219.59 472.215
184 0 62.1978 14.8719 925 96.7643 1221.7 469.285
185 0 64.1885 13.1488 844 100.091 1222.33 471.89
186 0 65.1651 13.9492 909 99.4345 1223.56 472.108
187 0 68.2195 15.5967 1064 96.6626 1224.08 472.163
188 0 69.1808 14.585 1009 99.8186 1224.23 471.2
189 0 74.3014 14.4277 1072 98.3582 1222.74 472.282
190 0 71.1784 13.2484 943 103.674 1221.06 469.993
191 0 74.1449 14.9842 1111 100.819 1220.41 471.689
192 0 78.1985 15.0387 1176 102.273 1218.04 467.448
193 0 78.1774 14.5183 1135 104.467 1214.72 466.396
194 0 81.1601 14.379 1167 105.584 1212.56 464.38
195 0 84.2813 13.8346 1166 107.113 1209.45 462.003
196 1 48.139 8.78706 423 108.515 1209.22 482.858
197 0 49.0882 11.4895 564 108.596 1206.33 478.282
198 0 47.0675 10.1344 477 111.549 1203.38 475.832
199 0 48.0303 9.86878 474 112.411 1202.12 475.002
200 0 51.0122 10.4877 535 111.979 1200.37 473.179
201 0 52.0423 12.1824 634 105.707 1198.81 468.994
202 0 52.1171 12.1265 632 103.475 1198.33 465.059
203 0 56.0939 11.5877 650 101.183 1197.28 464.415
204 0 57.1918 12.4843 714 107.842 1198.52 467.454
205 0 59.121 13.261 784 106.996 1199.85 463.168
206 0 63.1993 14.4938 916 103.267 1201.13 463.417
207 0 63.155 12.5722 794 107.698 1202.81 462.587
208 0 65.1408 13.9544 909 106.449 1205.39 461.317
209 0 67.2856 13.5839 914 106.508 1206.83 460.332
210 0 70.1323 14.4156 1011 106.065 1208.87 456.687
211 0 72.2048 13.0601 943 108.541 1210.52 458.481
212 0 80.2445 14.4434 1159 107.873 1214.7 455.558
213 0 82.2504 14.7355 1212 108.054 1216.53 454.525
214 0 82.0821 13.9129 1142 111.92 1218.56 454.132
215 0 88.1289 15.3298 1351 108.964 1219.72 455.303
216 0 88.1267 13.5146 1191 112.526 1221.46 453.158
217 1 49.0247 11.4024 559 111.349 1222.8 475.406
218 0 49.1352 11.3768 559 115.088 1224.11 475.544
219 0 55.025 13.7029 754 105.633 1224.26 475.983
220 0 54.0957 11.9048 644 111.193 1224.62 477.115
221 0 60.0839 14.047 844 104.115 1224.49 477.463
222 0 61.2987 13.9155 853 104.974 1222.81 475.917
223 0 61.0983 13.0936 800 107.709 1221.62 478.551
224 0 62.1787 13.6381 848 106.594 1221.13 476.935
225 0 63.219 13.1922 834 109.33 1217.94 473.037
226 0 67.2671 13.3646 899 106.307 1215.45 474
227 0 69.2556 13.3852 927 106.743 1212.88 471.54
228 0 71.3878 13.5738 969 106.42 1209.81 468.857
229 0 73.1468 14.6281 1070 102.424 1207.87 467.192
230 0 77.1675 12.5571 969 107.167 1205.61 465.761
231 0 79.1483 13.8348 1095 105.108 1203.31 463.71
232 0 83.1829 14.943 1243 101.776 1201.09 463.157
233 1 49.0857 9.81957 482 104.658 1202.07 479.952
234 0 49.0911 11.0611 543 104.961 1200.82 475.586
235 0 49.0832 12.4686 612 103.804 1200.77 471.614
236 0 49.0892 11.7745 578 107.692 1202.67 468.382
237 0 53.0864 13.3933 711 102.648 1203.76 469.655
238 0 55.1214 13.4793 743 100.404 1204.56 466.927
239 0 55.1359 13.1312 724 99.4351 1205.93 466.262
240 0 56.1523 13.0716 734 100.334 1208.81 466.54
241 0 57.1122 11.6788 667 102.628 1210.03 466.45
242 0 59.1265 13.4965 798 100.561 1211.46 462.594
243 0 61.1339 13.4132 820 99.0134 1213.13 464.846
244 0 63.2887 14.3628 909 97.2123 1214.86 462.352
245 0 65.1892 12.5788 820 100.257 1216.19 461.395
246 0 68.2669 14.663 1001 94.3447 1216.59 460.427
247 0 69.2386 14.515 1005 97.0935 1219.37 460.86
248 0 71.1931 13.4283 956 98.5533 1220.13 461.337
249 0 75.2973 13.8916 1046 99.2036 1222.33 460.687
250 1 40.066 10.333 414 103.403 1224.86 477.312
251 0 42.0202 9.8524 414 101.403 1225.12 480.577
252 0 44.0658 10.0305 442 103.238 1225.16 480.6
253 0 45.0906 12.2642 553 98.792 1225.29 481.823
254 0 47.1228 12.1597 573 100.363 1227.29 480.525
255 0 47.0945 12.1883 574 102.178 1225.97 480.132
256 0 49.0619 12.4944 613 101.067 1225.4 481.713
257 0 48.2474 13.3064 642 100.847 1222.15 482.388
258 0 50.1798 13.1926 662 101.449 1220.69 482.825
259 0 50.4073 12.0816 609 104.645 1218.76 481.947
260 0 54.1867 13.029 706 101.001 1216.25 483.144
261 0 53.4059 12.9761 693 102.205 1214.86 480.671
262 0 54.4051 12.2783 668 105.434 1211.5 477.87
263 0 56.3437 14.5713 821 100.514 1208.57 477.188
264 0 58.3624 14.5984 852 138.324 1204.52 476.737
265 0 59.5067 13.6791 814 102.443 1204.25 472.727
266 0 63.4085 14.3041 907 98.161 1203.77 473.611
267 0 63.3895 14.1506 897 100.3 1201.05 468.992
268 0 66.4552 14.0245 932 100.329 1201.02 465.777
269 0 69.4192 15.4424 1072 96.4674 1200.78 465.769
270 0 70.4891 15.662 1104 97.4638 1202.09 460.984
271 0 71.4115 15.1796 1084 98.8072 1203.48 460.308
272 0 72.3928 15.264 1105 99.5502 1202.86 457.64
273 0 75.3454 14.4534 1089 101.124 1205.11 456.896
274 0 77.3712 15.5743 1205 98.8664 1206.91 455.091
275 0 81.254 16.6392 1352 96.1893 1208.32 456.294
276 0 80.2836 15.1089 1213 100.005 1210.4 454.983
277 0 82.2818 15.5077 1276 99.489 1211.59 451.599
278 0 87.3921 15.1501 1324 97.6488 1213.67 450.927
279 0 88.2749 14.4662 1277 100.056 1214.68 449.262
280 1 46.0292 13.1656 606 98.066 1217.28 469.787
281 0 48.0167 11.6418 559 98.6905 1218.47 472.397
282 0 48.0168 11.4543 550 151.696 1222.5 472.465
283 0 53.0523 12.7422 676 92.2781 1220.68 472.33
284 0 54.0463 13.7105 741 89.9541 1219.95 472.548
285 0 55.1724 14.2463 786 90.7226 1222.25 472.587
286 0 56.0542 12.1668 682 94.3695 1222.07 474.277
287 0 59.0489 14.4287 852 89.6737 1221.35 474.92
288 0 60.0664 14.0511 844 89.4514 1221.82 474.385
289 0 64.1209 14.8314 951 87.8128 1221.8 475.839
290 0 64.1209 14.7222 944 130.77 1220.78 475.868
291 0 66.2393 13.889 920 90.3152 1220.21 474.03
292 0 69.1093 13.9923 967 93.7735 1217.78 470.294
293 0 73.0382 14.1433 1033 91.8984 1215.73 472.425
294 0 77.0533 14.4705 1115 91.7274 1212.97 468.943
295 0 77.0533 14.4705 1115 137.952 1209.96 468.83
296 0 79.0368 14.4237 1140 93.8386 1207.19 466.854
297 0 81.0989 14.6734 1190 94.5538 1204.41 462.126
298 0 87.1915 17.1347 1494 85.7523 1203.04 460.835
299 1 44.0328 11.4006 502 92.1992 1201.48 481.139
300 0 46.1607 10.7884 498 92.8293 1202.02 479.207
301 0 48.0833 11.7088 563 92.2043 1201.31 475.936
302 0 50.1062 13.631 683 88.7145 1200.98 474.04
303 0 50.2471 12.6972 638 91.7774 1199.69 471.328
304 0 52.4382 13.5398 710 90.4521 1201.66 470.665
305 0 53.0757 14.1496 751 91.5366 1204.22 467.804
306 0 56.0727 13.2506 743 92.9677 1205.13 465.945
307 0 57.1107 11.8191 675 95.5556 1205.91 466.717
308 0 60.0892 13.48 810 92.9642 1208.81 462.317
309 0 63.0528 16.2086 1022 87.3151 1209.81 463.873
310 0 63.0779 14.6961 927 91.9159 1212.7 462.752
311 0 66.0495 14.5043 958 93.2296 1213.84 460.41
312 0 69.0818 15.127 1045 91.5866 1215.49 463.767
313 0 69.0818 15.127 1045 143.122 1216.48 463.824
314 0 73.1501 14.8325 1085 93.0341 1218.16 462.72
315 0 76.1025 14.717 1120 94.5571 1219.15 458.957
316 0 79.0974 15.6895 1241 92.0161 1220.21 458.247
317 0 80.0993 14.6069 1170 95.0342 1222.25 459.694
318 1 43.0362 9.2248 397 97.2368 1224.71 480.955
319 0 41.0908 9.63719 396 99.2374 1225.62 481.053
320 0 46.0894 11.9984 553 95.3562 1226 482.365
321 0 47.0269 10.5259 495 97.0424 1224.72 482.028
322 0 48.0154 12.1419 583 96.8765 1225.61 482.274
323 0 57.3246 10.7284 615 94.0699 1224.43 484.154
324 0 51.2593 11.3931 584 94.2877 1223.19 482.594
325 0 51.568 12.4496 642 92.824 1222.47 480.05
326 0 54.1163 13.0275 705 96.7007 1218 479.379
327 0 54.1163 12.9166 699 157.707 1214.98 479.345
328 0 57.033 15.4823 883 93.9468 1213.24 477.326
329 0 60.0651 14.9171 896 94.1562 1210.98 476.959
330 0 62.0639 15.0007 931 93.2675 1206.6 474.213
331 0 64.0941 15.056 965 93.5606 1204.4 472.961
332 0 66.0655 15.4544 1021 94.1166 1202.43 469.007
333 0 66.1132 13.2954 879 99.6416 1200.25 467.532
334 0 69.0418 15.2661 1054 95.389 1198.29 465.108
335 0 70.1947 13.3201 935 100.328 1198.25 464.133
336 0 74.0689 14.716 1090 96.6991 1198.26 462.071
337 0 77.128 15.8827 1225 94.7363 1199.09 458.582
338 0 79.0759 15.6305 1236 96.1578 1200.35 455.515
339 0 81.0518 14.6696 1189 98.487 1201.28 456.325
340 0 83.0819 15.0454 1250 96.384 1204.17 452.685
341 0 83.0785 15.058 1251 147.461 1207.16 452.771
342 0 88.1462 13.7953 1216 100.788 1207.2 451.018
343 0 90.1856 14.1264 1274 99.5557 1209.15 450.352
344 0 93.1884 14.3258 1335 100.315 1210.77 449.247
345 0 97.3057 13.0414 1269 102.586 1213.31 447.814
346 0 100.299 14.5964 1464 100.019 1215.06 446.764
347 1 50.1564 11.8031 592 101.426 1214.87 470.422
348 0 50.0901 11.679 585 103.203 1216.49 469.275
349 0 55.1672 11.2929 623 100.284 1217.99 472.287
350 0 55.2877 13.6558 755 95.743 1219.7 472.939
351 0 60.2658 14.6352 882 91.9002 1220.4 470.491
352 0 61.1476 11.7748 720 97.6569 1221.41 468.396
353 0 64.1191 14.7538 946 91.6015 1221.73 469.771
354 0 65.2324 15.0232 980 91.4153 1222.77 472.089
355 0 66.3573 14.1657 940 93.9223 1223.82 471.921
356 0 67.2983 12.7492 858 96.359 1223.57 473.963
357 0 71.378 14.9626 1068 93.6592 1222.35 472.502
358 0 73.4367 14.8019 1087 93.8298 1222.2 471.058
359 0 77.3378 15.3482 1187 93.0236 1220.4 468.659
360 0 79.5262 14.5235 1155 94.7385 1218.15 467.509
361 0 79.3932 13.8677 1101 95.9101 1216.56 467.836
362 0 85.0417 14.2989 1216 92.6439 1214.93 465.44
363 0 87.9779 13.367 1176 95.2304 1211.35 460.806
364 0 92.0481 14.7314 1356 92.8237 1207.52 459.664
365 0 94.8345 13.5605 1286 95.4736 1204.8 456.881
366 0 95.2432 15.0142 1430 92.165 1202.26 452.589
367 1 51.1642 10.9647 561 93.4456 1201 471.918
368 0 53.3382 10.2553 547 95.883 1200.41 470.077
369 0 54.3486 10.2119 555 97.9586 1199.83 465.645
370 0 55.4707 10.3478 574 99.2561 1200.26 463.192
371 0 58.4025 12.4481 727 94.8198 1201.44 464.096
372 0 58.5159 11.1252 651 99.0307 1202.39 462.086
373 0 62.0441 12.0398 747 92.415 1202.71 461.608
374 0 65.1183 13.5599 883 89.9196 1204.05 459.734
375 0 67.1179 11.8746 797 92.7829 1207.65 460.321
376 0 68.1478 12.0767 823 92.7108 1208.69 456.05
377 0 72.0843 12.638 911 92.2327 1210.55 456.645
378 0 76.1718 14.2966 1089 89.3012 1212.41 453.68
379 0 77.1473 13.9603 1077 90.1328 1214.29 451.755
380 0 81.1857 13.4014 1088 91.8079 1214.78 450.801
381 0 81.3885 11.8444 964 94.529 1217.26 450.356
382 1 43.2696 10.5155 455 90.8352 1217.16 470.875
383 0 43.1799 10.7921 466 88.6202 1218.92 471.843
384 0 43.0436 9.43229 406 90.9113 1219.67 473.241
385 0 45.0919 9.00383 406 92.2759 1220.81 472.594
386 0 47.109 10.9321 515 89.4602 1222.12 474.002
387 0 50.0763 12.7805 640 92.2328 1222.1 477.602
388 0 54.1436 13.6304 738 89.6558 1224.99 477.293
389 0 55.1011 13.7021 755 93.9417 1225.5 479.703
390 0 57.0456 14.7426 841 92.6171 1225.71 478.163
391 0 55.0714 12.6018 694 98.5389 1224.43 476.622
392 0 59.0614 13.3082 786 96.2366 1223.42 478.333
393 0 61.0494 14.1361 863 93.9386 1222.42 477.683
394 0 64.0808 16.8225 1078 89.3367 1219.32 475.252
395 0 64.0612 12.7378 816 97.4044 1216.96 474.849
396 0 69.1928 14.5391 1006 92.834 1213.88 472.458
397 0 69.0951 15.4135 1065 93.0742 1212.23 470.74
398 0 69.0657 14.3197 989 96.452 1208.29 469.06
399 0 73.0391 14.0746 1028 95.6819 1206.07 466.63
400 0 75.0676 14.1472 1062 95.2505 1204.9 464.627
401 1 42.0776 11.1223 468 94.0812 1202.97 481.797
402 0 43.0634 9.79952 422 96.3697 1202.31 480.678
403 0 43.2593 11.0728 479 95.4509 1199.5 477.653
404 0 45.1715 11.2239 507 96.1696 1200.1 475.892
405 0 46.0825 11.1539 514 97.5 1201.46 473.975
406 0 48.1321 11.1984 539 97.4768 1202.13 473.568
407 0 50.1704 11.7201 588 96.9167 1204.71 471.699
408 0 51.1364 12.9653 663 95.7677 1206.01 471.54
409 0 55.1268 14.385 793 93.5927 1208.53 468.996
410 0 56.0397 12.3484 692 91.9306 1210.74 469.111
411 0 57.1831 12.7835 731 92.212 1215.11 465.644
412 0 59.4103 14.0211 833 87.9424 1216.46 468.848
413 0 60.2767 13.4048 808 90.1015 1218.25 466.476
414 0 61.3603 14.6838 901 87.9367 1218.64 466.138
415 0 63.1475 14.7116 929 87.9774 1219.95 464.772
416 0 65.28 14.7059 960 88.7812 1221.33 464.716
417 0 67.2436 14.0385 944 90.0201 1222.75 463.867
418 0 68.2849 15.1424 1034 88.7118 1223.42 464.205
419 0 72.1998 15.1109 1091 87.5866 1224.09 467.249
420 0 71.207 14.844 1057 89.912 1224.4 464.024
421 0 75.2501 15.7475 1185 88.3232 1225.76 466.446
422 0 76.3797 15.0564 1150 90.1896 1225.23 467.614
423 0 79.2149 14.7826 1171 91.5004 1226.21 467.217
424 0 82.2652 16.3252 1343 89.6136 1225.55 465.13
425 0 82.23 14.2405 1171 94.8215 1223.09 463.109
426 1 42.1162 11.6107 489 94.6299 1223.58 484.591
427 0 43.1568 9.54658 412 97.4515 1222.1 486.25
428 0 46.2183 10.0393 464 96.5841 1219.61 483.886
429 0 48.273 12.2636 592 92.0355 1215.92 481.747
430 0 49.0777 12.5719 617 91.9757 1214.44 481.668
431 0 49.2428 11.5956 571 94.0963 1210.65 479.067
432 0 52.4291 12.6647 664 91.5181 1207.59 478.652
433 0 54.3005 12.6702 688 91.2108 1206.43 477.126
434 0 54.4173 12.4041 675 92.7704 1203.65 473.428
435 0 57.3057 13.7334 787 89.5553 1202.65 470.276
436 0 60.2145 13.7342 827 89.4377 1202.2 466.276
437 0 62.2578 15.2913 952 87.1681 1201.77 465.31
438 0 64.1822 14.0693 903 90.1351 1202.75 463.889
439 0 66.3093 13.8291 917 91.3272 1204.32 462.279
440 0 66.2059 13.5335 896 93.3002 1206.73 460.472
441 0 70.2885 14.9384 1050 91.0333 1207.68 458.656
442 0 74.3986 13.2664 987 94.1266 1209.59 459.638
443 0 74.2887 15.1302 1124 93.323 1212.85 455.433
444 0 75.3417 13.9763 1053 97.5546 1213.4 454.962
445 0 80.3613 15.3059 1230 93.5732 1214.97 455.124
446 0 83.2723 15.5154 1292 93.8274 1216.22 454.539
447 0 84.4349 15.7992 1334 95.1364 1219.15 454.245
448 1 45.0153 10.0188 451 98.8359 1221.14 475.122
449 0 47.1272 11.2249 529 100.382 1223.02 474.457
450 0 48.0325 12.0543 579 97.848 1223.7 474.05
451 0 50.0976 11.1782 560 97.3607 1224.29 476.782
452 0 51.206 12.108 620 97.3355 1225.26 476.242
453 0 53.2022 12.2739 653 97.9403 1225.85 475.175
454 0 55.0743 13.3274 734 96.7398 1226.03 476.02
455 0 54.0573 13.0232 704 99.2287 1226.32 474.849
456 0 57.1138 13.1492 751 97.6391 1225.71 477.269
457 0 58.0984 12.737 740 99.2189 1225.6 476.555
458 0 60.0935 13.9117 836 97.8876 1224.84 474.81
459 0 62.2493 14.0403 874 93.1144 1223.9 474.852
460 0 64.2614 14.1765 911 93.5862 1222.29 476.957
461 0 65.2095 14.3384 935 95.0353 1219.17 472.179
462 0 67.2628 13.9007 935 96.5583 1217.13 470.141
463 0 69.1966 13.1654 911 98.27 1213.65 470.625
464 0 73.2947 14.7487 1081 98.0546 1210.06 467.972
465 0 73.1851 13.2677 971 102.258 1207.65 466.941
466 0 78.183 14.5428 1137 99.869 1204.52 464.408
467 0 80.2707 13.4669 1081 103.559 1202.46 461.155
468 0 85.4383 15.1103 1291 103.791 1201.02 459.462
469 0 88.4629 15.7015 1389 103.032 1200.91 455.761
470 0 90.2796 15.3634 1387 99.7318 1199.84 450.739
471 1 50.0636 10.0872 505 98.4218 1202.77 476.02
472 0 49.0265 10.9737 538 100.76 1203.94 473.275
473 0 49.0204 11.3014 554 100.931 1205.88 471.576
474 0 53.0453 11.6693 619 101.354 1207.17 469.8
475 0 56.0454 13.0252 730 96.8068 1207.69 466.126
476 0 56.0384 13.8298 775 96.6271 1210.82 465.6
477 0 57.3195 13.1718 755 100.158 1213.16 465.821
478 0 58.3962 12.9461 756 101.484 1214.92 463.673
479 0 60.3329 13.094 790 101.556 1216.46 461.672
480 0 62.4206 12.6721 791 102.096 1218.5 463.71
481 0 62.4206 12.7362 795 163.042 1220.52 463.757
482 0 66.3857 14.0693 934 100.596 1220.82 463.832
483 0 66.3639 13.7123 910 102.853 1221.9 463.013
484 0 70.2914 14.8098 1041 99.4515 1222.81 462.242
485 0 74.3667 14.7916 1100 98.0009 1224.01 463.743
486 0 75.3493 13.6564 1029 101.576 1225.3 461.615
487 0 75.3493 13.7758 1038 151.549 1226.3 461.743
488 1 44.1887 10.5909 468 103.464 1225.82 480.132
489 0 46.1415 10.7062 494 102.486 1226.46 482.98
490 0 47.0825 10.3648 488 104.102 1226.93 482.305
491 0 47.2015 11.4615 541 104.612 1225.56 482.477
492 0 48.2455 12.1048 584 103.372 1224.14 481.041
493 0 50.2575 12.2569 616 106.002 1223.37 480.779
494 0 52.2166 12.5247 654 104.792 1222.52 479.576
495 0 53.1262 12.555 667 106.541 1216.67 476.256
496 0 52.0765 12.4816 650 107.195 1214.64 476.531
497 0 56.1579 14.0497 789 102.186 1211.84 477.458
498 0 56.254 13.4213 755 106.117 1208.03 474.775
499 0 58.1756 13.3561 777 105.322 1205.62 475.051
500 0 58.1398 12.2464 712 110.897 1204.54 470.01
501 0 58.1537 12.2434 712 150.965 1201.54 470.056
502 0 66.1349 14.5309 961 102.063 1201.51 465.058
503 0 67.2033 15.6838 1054 99.6945 1201.63 463.128
504 0 67.2033 15.5945 1048 145.788 1201.61 463.094
505 0 71.3672 14.0261 1001 105.277 1202.79 456.471
506 0 71.3461 14.8151 1057 104.921 1204.85 456.549
507 0 76.2126 15.6273 1191 102.883 1205.83 454.51
508 0 78.2662 15.2812 1196 104.824 1207.41 451.808
509 0 80.2138 15.7953 1267 103.094 1209.97 453.54
510 0 84.2357 15.9434 1343 103.321 1211.78 451.157
511 0 86.4966 16.1625 1398 104.651 1215.32 451.423
512 0 89.484 15.12 1353 106.921 1216.31 448.953
513 1 46.1258 11.2518 519 102.266 1216.19 472.948
514 0 50.0329 12.3519 618 102.066 1219.88 471.919
515 0 51.0408 12.8917 658 101.287 1222.59 470.763
516 0 54.0645 12.6886 686 101.92 1224.79 470.069
517 0 55.34 13.5526 750 100.581 1225.98 469.292
518 0 55.1099 14.4801 798 99.4336 1226.17 470.652
519 0 53.0768 13.8479 735 102.397 1226.71 475.027
520 0 57.121 14.4956 828 100.611 1228.2 470.436
521 0 59.0782 14.1 833 100.204 1228.04 472.39
522 0 60.1818 14.4562 870 99.4276 1227.59 474.92
523 0 61.0569 14.2654 871 106.181 1230.65 473.268
524 0 64.0541 16.0333 1027 102.263 1228.13 471.405
525 0 66.2021 13.8666 918 108.74 1226.64 470.313
526 0 68.0941 14.2303 969 107.375 1226.66 469.939
527 0 70.0971 14.6511 1027 107.423 1225.31 470.546
528 0 70.0978 13.7094 961 111.219 1222.56 465.136
529 0 73.1776 15.1139 1106 107.882 1219.33 465.42
530 0 76.3236 15.9322 1216 108.116 1215.49 461.385
531 0 78.1163 14.9521 1168 108.696 1211.88 462.654
532 0 81.2335 14.206 1154 112.246 1210.84 458.875
533 0 81.2335 14.2798 1160 166.712 1211.84 458.848
534 1 44.2106 10.1786 450 113.32 1206.51 473.667
535 0 44.1315 11.1258 491 115.22 1206.24 470.532
536 0 48.2234 13.5204 652 106.178 1204.82 468.175
537 0 50.3192 14.8452 747 102.214 1205.15 468.352
538 0 52.1117 14.3538 748 102.813 1205.96 466.404
539 0 52.1282 13.7545 717 105.683 1206.87 466.53
540 0 55.1064 13.9004 766 104.607 1207.75 466.027
541 0 55.1635 14.031 774 105.3 1209.49 465.619
542 0 59.0855 14.9106 881 102.395 1211.08 463.132
543 0 57.0982 12.9076 737 110.053 1212.89 463.562
544 0 57.0982 12.8901 736 160.772 1214.89 463.598
545 0 61.1068 13.4355 821 106.82 1217.61 461.278
546 0 65.102 13.5633 883 104.416 1218.83 460.922
547 0 66.1025 14.1296 934 103.378 1221.07 461.699
548 0 69.1602 13.4615 931 104.681 1222.07 463.325
549 0 71.1877 13.5417 964 105.062 1223.29 462.935
550 0 74.1205 14.6248 1084 104.722 1225.45 459.97
551 0 74.1016 13.7649 1020 105.21 1226.7 461.432
552 0 77.0917 14.139 1090 107.639 1226.63 459.955
553 0 80.1247 13.3417 1069 107.442 1227.69 462.408
554 1 42.0292 11.0399 464 106.379 1228.12 481.681
555 0 42.0598 11.6501 490 106.443 1228.8 481.673
556 0 43.0584 10.4509 450 107.384 1228.62 483.887
557 0 44.1089 11.585 511 107.037 1227.84 483.188
558 0 46.6592 13.7379 641 101.627 1226.07 476.329
559 0 46.1885 12.2325 565 98.846 1224.47 481.827
560 0 48.0901 13.142 632 98.75 1225.19 483.09
561 0 49.0668 12.86 631 101.616 1223.21 482.488
562 0 50.051 12.6471 633 102.439 1220.92 480.553
563 0 53.1062 13.313 707 101.918 1217.39 477.876
564 0 52.0989 13.2057 688 132.984 1212.43 477.442
565 0 51.123 12.5579 642 134.949 1207.52 478.361
566 0 57.1003 13.4675 769 102.283 1208.45 473.779
567 0 59.2956 14.2675 846 99.8546 1207.18 470.862
568 0 62.1711 14.8622 924 97.1212 1204.45 468.34
569 0 62.1754 13.9927 870 99.0782 1204.94 466.91
570 0 66.2794 14.4238 956 98.068 1203.93 463.507
571 0 65.2144 13.0646 852 101.518 1203.33 461.239
572 0 70.1567 14.6957 1031 97.4617 1205.09 459.038
573 0 72.1645 13.5524 978 99.3885 1207.29 456.896
574 1 40.023 11.0936 444 99.705 1209.9 474.203
575 0 39.0491 11.5496 451 102.503 1211.33 470.871
576 0 43.0802 11.6295 501 98.8224 1213.84 471.808
577 0 42.0501 11.2961 475 102.208 1216.19 471.158
578 0 46.0155 12.7566 587 98.6286 1217.38 469.354
579 0 47.0632 13.0888 616 99.1477 1218.61 471.143
580 0 49.113 13.3366 655 98.2244 1219.26 468.765
581 0 49.0307 14.0524 689 99.1176 1221.7 468.245
582 0 53.0695 13.2468 703 99.8094 1222.77 472.445
583 0 52.138 13.4643 702 100.215 1222.29 470.853
584 0 53.094 14.0317 745 99.8537 1223.49 469.96
585 0 55.0965 14.2114 783 98.6539 1224.92 471.1
586 0 57.0501 14.6713 837 97.8937 1226.02 471.866
587 0 59.1258 14.6298 865 98.6035 1227.11 470.075
588 0 59.1539 13.6931 810 100.862 1227.54 470.527
589 0 63.1718 14.8484 938 97.4467 1226.25 472.311
590 0 65.204 14.0942 919 97.9859 1226.44 471.016
591 0 67.3858 13.7269 925 97.9492 1226.96 469.005
592 0 69.2905 14.3165 992 97.1875 1225.4 472.472
593 0 70.4053 13.7916 971 98.8435 1225.44 472.063
594 0 74.3323 16.0226 1191 94.0411 1223.27 471.338
595 0 76.3767 14.0488 1073 96.6589 1221.48 468.202
596 0 79.2817 15.199 1205 95.7726 1218.06 464.02
597 0 80.3178 14.3804 1155 98.5697 1216.18 462.149
598 1 44.0188 12.1312 534 95.7416 1214.89 481.333
599 0 44.0361 8.74282 385 101.081 1211.67 481.294
600 0 47.0598 9.34981 440 98.8455 1209.49 478.957
601 0 49.0466 13.3139 653 93.5605 1206.02 475.982
602 0 50.0615 12.225 612 96.3497 1201.34 472.471
603 0 53.1056 12.6352 671 93.9523 1200.95 471.35
604 0 54.0324 13.677 739 88.2341 1201.43 468.645
605 0 54.0552 13.1532 711 89.2954 1201.31 468.013
606 0 57.0655 12.2666 700 90.1371 1202.61 465.76
607 0 56.0565 11.9701 671 92.7124 1204.5 463.402
608 0 58.0579 13.1765 765 129.756 1206.5 464.948
609 0 63.2256 11.7357 742 89.4569 1208.03 463.736
610 0 64.1173 11.4634 735 90.1633 1209.9 461.706
611 0 66.1346 13.3364 882 88.8061 1211.72 459.685
612 0 70.2503 13.0391 916 88.5568 1214.02 457.807
613 0 70.2503 12.911 907 136.674 1217.02 457.605
614 0 73.2441 12.7655 935 89.1765 1216.82 460.053
615 1 41.1121 8.73222 359 92.6435 1218.05 475.276
616 0 43.1039 8.90872 384 91.7214 1219.11 478.826
617 0 47.0485 11.7113 551 89.6534 1221.82 476.526
618 0 45.02 11.1062 500 93.138 1222.37 476.602
619 0 46.0563 11.3122 521 92.8848 1223.42 477.058
620 0 48.0953 11.2485 541 92.9686 1224.77 478.42
621 0 51.1065 12.9338 661 90.9017 1224.48 478.112
622 0 50.0496 12.4676 624 92.4583 1224.19 476.683
623 0 53.1271 12.9877 690 91.5652 1224.6 480.609
624 0 54.0958 13.4576 728 95.2706 1224.62 479.169
625 0 56.0798 13.356 749 96.0975 1223.97 480.657
626 0 58.1405 13.347 776 96.6675 1222.38 479.477
627 0 60.1003 14.8086 890 93.3326 1220.69 479.408
628 0 62.084 15.9784 992 91.9052 1219.11 479.325
629 0 62.1659 14.7026 914 94.6947 1216.74 478.827
630 0 63.061 12.924 815 99.3939 1213.27 476.218
631 0 65.0785 13.9216 906 97.8631 1210.9 474.164
632 0 67.0666 13.7923 925 97.1373 1207.67 472.414
633 0 69.1043 14.3117 989 96.0202 1205.91 471.721
634 0 70.0569 14.2456 998 97.0411 1203.28 467.402
635 0 74.1234 14.3814 1066 96.4034 1201.76 463.812
636 0 77.1157 13.8753 1070 95.3738 1201.24 464.725
637 0 80.0325 15.4937 1240 92.404 1200.57 458.373
638 1 41.0719 11.5894 476 91.0441 1200.82 478.088
639 0 41.0412 8.96659 368 96.2391 1200.95 478.133
640 0 43.0141 10.7174 461 92.3753 1202.37 474.941
641 0 45.0243 9.79471 441 90.7279 1206.59 475.111
642 0 47.0521 12.3905 583 89.7101 1208.18 470.027
643 0 49.349 11.672 576 91.1146 1209.51 466.837
644 0 51.4264 13.3006 684 88.6813 1210.47 461.077
645 0 52.1452 13.8268 721 89.3135 1216.48 467.782
646 0 52.2408 12.1553 635 93.4756 1217.17 466.877
647 0 54.1121 13.4351 727 90.8074 1218.78 465.805
648 0 56.1865 14.9146 838 88.6456 1220.85 465.173
649 0 56.2082 13.023 732 92.5423 1221.54 468.546
650 0 58.2197 13.7239 799 91.7109 1221.9 465.282
651 0 62.3525 13.3595 833 90.9064 1224.38 465.473
652 0 63.3661 14.3136 907 90.3098 1224.8 466.236
653 0 65.3081 13.5052 882 92.3832 1224.77 465.18
654 0 65.3296 12.6895 829 92.082 1226.25 468.548
655 0 68.199 14.1058 962 89.8441 1226.06 468.584
656 0 69.2613 11.9547 828 93.1993 1226.19 466.025
657 0 72.2547 13.3417 964 89.029 1227.12 468.78
658 0 75.2246 14.6362 1101 87.1417 1226.58 467.497
659 0 78.2636 13.6334 1067 88.9531 1225.85 463.978
660 1 42.041 10.7038 450 91.6889 1226.66 483.289
661 0 41.1433 11.7881 485 91.7381 1225.03 481.501
662 0 44.0875 12.203 538 90.3141 1222.7 483.783
663 0 45.0723 13.5116 609 88.3383 1217.64 481.489
664 0 48.066 13.1902 634 86.7397 1213.85 479.751
665 0 50.0215 13.934 697 85.6385 1209.45 477.935
666 0 51.0529 13.9071 710 86.6549 1206.68 476.289
667 0 52.0425 15.3913 801 82.5855 1205.63 476.161
668 0 54.075 13.8696 750 87.2813 1202.73 471.205
669 0 56.146 14.4623 812 85.4249 1201.38 470.453
670 0 55.0814 14.415 794 86.3048 1200.22 467.031
671 0 60.0578 14.7524 886 84.754 1200.94 466.816
672 0 61.2257 12.6908 777 87.8649 1205.08 466.228
673 0 62.1901 13.3944 833 88.0144 1205.81 463.747
674 0 66.1821 16.1826 1071 83.4015 1207.18 455.822
675 0 66.1582 14.2235 941 86.729 1208.26 459.628
676 0 71.2013 15.393 1096 83.8394 1211.23 457.358
677 0 73.2853 15.2964 1121 83.3372 1213.19 453.712
678 0 76.2839 14.0134 1069 84.5051 1215.62 449.473
679 0 76.2839 14.0134 1069 139.652 1218.62 449.473
680 0 81.2213 14.3805 1168 85.7628 1218.41 447.953
681 1 46.0773 12.2186 563 86.6696 1221.05 467.874
682 0 45.1165 11.2376 507 89.3964 1222.21 469.677
683 0 50.1453 13.78 691 83.9103 1222.71 469.217
684 0 52.2972 14.7044 769 83.2835 1223.71 468.726
685 0 50.298 13.1417 661 81.2481 1225.13 463.014
686 0 51.0839 12.5676 642 86.7757 1227.93 469.969
687 0 51.1814 12.1529 622 87.008 1227.53 471.934
688 0 54.1722 13.1248 711 86.7567 1228.56 468.454
689 0 56.1527 13.8907 780 84.7731 1229 472.564
690 0 58.0729 13.638 792 86.572 1229.14 470.327
691 0 59.158 13.726 812 86.915 1229.17 469.193
692 0 60.0837 13.6143 818 86.7531 1228.77 472.957
693 0 63.1478 13.7455 868 85.6371 1228.38 471.207
694 0 64.132 13.9712 896 85.1071 1228.02 474.054
695 0 65.2012 12.4231 810 89.6049 1224.71 470.72
696 0 67.183 13.6195 915 89.2142 1223.19 467.792
697 0 69.1953 14.2929 989 88.2022 1221.01 466.799
698 0 72.135 13.655 985 90.1777 1218.11 467.929
699 0 76.1743 15.3595 1170 87.1983 1214.52 465.372
700 0 76.1855 13.9528 1063 91.523 1212.82 460.86
701 0 83.1341 16.9004 1405 84.6157 1210.13 462.115
702 1 45.1328 9.70469 438 93.9406 1208.53 475.779
703 0 44.1561 10.327 456 93.2785 1207.57 475.07
704 0 46.1014 13.1666 607 91.145 1205.6 467.494
705 0 47.4408 11.5302 547 93.0841 1205.82 464.585
706 0 47.3336 11.176 529 88.482 1206.5 462.104
707 0 49.2468 12.7318 627 87.1388 1207.65 461.199
708 0 52.1646 13.8408 722 90.356 1210.36 463.733
709 0 56.1056 13.7954 774 88.5426 1212.28 459.377
710 0 58.1724 14.6805 854 87.63 1214.17 460.646
711 0 61.2222 15.5662 953 85.2183 1216.3 458.28
712 0 62.1576 15.2516 948 86.5928 1218.39 456.893
713 0 64.0451 13.631 873 89.9691 1219.78 455.116
714 0 68.0312 14.7873 1006 86.4115 1221.86 455.814
715 0 70.0612 15.2438 1068 86.0964 1222.95 454.958
716 0 73.0859 15.3381 1121 85.7734 1224.5 453.793
717 0 74.2418 14.3585 1066 88.3133 1226.58 454.474
718 0 80.1602 15.5064 1243 84.3492 1228.37 454.763
719 1 41.0218 9.7753 401 89.3441 1228.7 475.449
720 0 41.0218 9.72654 399 141.11 1229.7 475.449
721 0 46.0979 11.8878 548 87.5018 1229.74 473.974
722 0 45.1109 10.6626 481 89.3035 1228.8 476.734
723 0 46.0606 10.3342 476 89.521 1229.8 475.676
724 0 49.1268 12.7629 627 87.3078 1229 474.349
725 0 49.4565 12.9204 639 86.975 1228.69 475.532
726 0 52.5568 14.9362 785 82.2841 1228.1 476.842
727 0 52.2388 13.3809 699 87.4592 1228.16 476.72
728 0 55.1691 13.1052 723 85.3223 1227.08 476.26
729 0 56.2076 13.9483 784 85.5676 1225.3 473.841
730 0 57.3134 14.7261 844 84.3057 1222.77 474.665
731 0 58.3718 13.4825 787 87.0127 1220.14 473.097
732 0 61.2846 15.4362 946 84.2611 1217.13 469.757
733 0 61.2335 12.2809 752 90.0426 1213.87 468.319
734 0 65.2704 13.942 910 86.5659 1211.44 466.971
735 0 66.3401 14.9985 995 85.0482 1208.3 466.337
736 0 68.2879 15.5811 1064 84.593 1207.56 462.383
737 0 70.2435 14.7914 1039 85.5871 1206.01 459.414
738 0 74.2968 13.7826 1024 86.082 1205.08 455.872
739 0 77.2013 14.7148 1136 83.9824 1205.01 456.559
740 0 75.3348 13.367 1007 89.0685 1205.63 450.961
741 0 82.2609 16.1681 1330 83.8173 1207.35 451.983
742 1 43.0964 11.5787 499 85.7154 1207.13 467.916
743 0 43.0964 11.6251 501 158.202 1208.15 467.99
744 0 45.1626 10.3404 467 86.4668 1211.93 467.143
745 0 48.0814 11.5013 553 86.226 1213.43 464.445
746 0 49.1361 13.0047 639 83.9499 1215.73 465.039
747 0 52.0574 11.1223 579 81.4335 1216.84 464.896
748 0 52.2989 11.9697 626 81.9521 1219.7 458.455
749 0 56.4955 15.2933 864 76.2396 1222.07 461.502
750 0 57.116 14.4268 824 79.9357 1221.94 464.857
751 0 57.2336 11.7938 675 84.4904 1223.52 464.883
752 0 60.2429 13.678 824 81.0206 1224.74 464.725
753 0 62.0882 14.5599 904 80.8009 1224.62 460.146
754 0 64.412 16.2082 1044 78.3898 1225.67 464.893
755 0 65.1051 15.0372 979 81.1941 1226.75 464.93
756 0 67.3684 14.5024 977 82.4084 1227.3 465.474
757 0 68.2368 14.6109 997 82.9168 1227.41 467.582
758 0 72.4865 14.9821 1086 83.0516 1228.15 465.782
759 0 71.3129 15.2146 1085 83.6295 1226.35 466.38
760 0 73.3954 14.4968 1064 84.5949 1226.74 467.277
761 0 77.339 15.0894 1167 84.4344 1225.39 461.788
762 0 78.3562 15.94 1249 82.4508 1224.85 464.507
763 0 81.3645 16.0881 1309 83.372 1223.21 462.011
764 0 84.5412 15.1405 1280 86.1875 1222.58 462.503
765 0 86.3896 14.8398 1282 88.7738 1219.19 461.517
766 0 89.2232 17.6636 1576 84.0362 1217.71 457.395
767 0 94.3675 16.8172 1587 83.4121 1213.9 456.079
768 1 50.3741 12.2881 619 89.042 1211 476.302
769 0 51.2484 11.9614 613 88.9168 1208.89 477.757
770 0 54.3782 12.2843 668 91.509 1205.97 468.235
771 0 56.3438 11.8203 666 90.0045 1205.79 473.919
772 0 57.1382 11.8135 675 87.04 1204.51 469.996
773 0 56.3913 13.2467 747 87.5649 1204.7 465.688
774 0 62.8309 15.9953 1005 83.5174 1207.65 460.066
775 0 66.5392 16.2461 1081 80.1388 1208.53 462.896
776 0 66.3072 14.1915 941 83.8193 1210.67 462.467
777 0 68.2514 14.8715 1015 84.1448 1211.8 457.961
778 0 72.2289 15.5478 1123 83.179 1213.84 457.604
779 0 73.2963 14.6529 1074 85.1415 1216.19 456.761
780 0 78.3345 15.5487 1218 83.9819 1218.48 454.622
781 0 78.3183 15.0412 1178 87.2691 1219.41 450.713
782 0 80.196 14.0655 1128 88.8085 1220.36 452.544
783 0 84.3251 14.7406 1243 89.3958 1222.42 451.027
784 0 87.3503 14.5392 1270 89.9118 1223.67 451.15
785 1 45.0505 12.2307 551 90.9855 1225.65 472.294
786 0 48.0367 11.2414 540 91.5278 1228.36 471.243
787 0 48.0958 11.0405 531 94.8305 1228.5 472.23
788 0 51.0971 12.349 631 91.3344 1228.98 472.279
789 0 51.1568 11.4354 585 91.9504 1226.67 471.214
790 0 54.1346 14.6671 794 88.5995 1226.33 467.306
791 0 55.0889 13.814 761 95.6307 1226.12 474.887
792 0 56.1702 14.6519 823 95.4313 1226.49 473.775
793 0 60.3 14.6932 886 92.5813 1226.85 477.64
794 0 60.2995 14.4446 871 94.8106 1225.75 474.005
795 0 63.1491 14.4895 915 92.6219 1224.48 475.403
796 0 64.0401 14.7252 943 94.1294 1223.27 472.452
797 0 64.1157 14.9417 958 94.3653 1222.7 472.497
798 0 68.3125 15.1802 1037 92.9846 1220.75 474.427
799 0 71.1977 15.4921 1103 93.7199 1217.21 468.859
800 0 73.0556 15.2897 1117 94.4781 1214.29 465.917
801 0 75.0573 16.5873 1245 92.9092 1211.18 465.317
802 0 76.074 15.5901 1186 96.9924 1208.54 462.658
803 0 77.0918 15.0081 1157 98.9378 1206.14 461.679
804 0 80.0473 14.8162 1186 100.033 1204.4 455.811
805 0 85.048 15.8852 1351 96.866 1203.52 454.967
806 0 85.2747 16.3237 1392 97.4878 1205.59 455.858
807 0 88.2452 15.7742 1392 100.341 1204.39 450.255
808 0 91.3062 15.6944 1433 101.959 1205.69 446.462
809 0 93.3186 16.2561 1517 101.232 1207.7 447.279
810 0 96.3616 15.7635 1519 102.681 1208.17 444.148
811 0 98.1715 15.7174 1543 100.406 1211.19 442.936
812 0 103.108 16.7786 1730 99.2873 1212.36 437.998
813 0 105.207 16.9666 1785 99.2118 1214.53 436.549
814 1 55.067 10.9866 605 106.625 1217.9 467.471
815 0 59.2621 12.5713 745 103.96 1218.59 461.824
816 0 60.3541 14.1167 852 102.602 1218.91 454.854
817 0 61.1213 13.3505 816 97.8211 1220.98 456.609
818 0 62.1162 13.4265 834 98.729 1223.31 455.386
819 0 66.1955 13.2184 875 93.5109 1223.62 460.379
820 0 67.1925 12.546 843 94.2017 1224.27 458.661
821 0 69.2202 12.4241 860 93.2814 1225.4 462.692
822 0 74.2929 15.3581 1141 88.0351 1225.71 459.432
823 0 75.2215 12.3635 930 93.4172 1227.21 461.973
824 0 78.2038 12.7999 1001 92.4855 1226.81 460.884
825 0 81.2452 15.3732 1249 88.257 1226.95 460.711
826 0 79.315 12.734 1010 94.3079 1226.52 459.802
827 0 83.3192 12.4341 1036 93.9556 1225.94 455.615
828 0 86.347 12.195 1053 93.9877 1225.12 457.403
829 1 48.1388 9.72189 468 90.7436 1226.66 480.682
830 0 48.2978 10.7251 518 90.4131 1224.91 478.463
831 0 48.1682 10.5049 506 90.7628 1223.12 477.682
832 0 53.2763 12.2381 652 86.0169 1220.14 479.238
833 0 52.3005 12.3517 646 90.918 1217.44 472.901
834 0 54.367 12.3604 672 94.4077 1214.59 473.277
835 0 56.1654 13.9766 785 94.0408 1213.09 471.228
836 0 57.1443 14.4546 826 94.0896 1210.84 470.962
837 0 60.2934 14.3963 868 93.273 1209.07 470.256
838 0 64.3982 16.8794 1087 87.6937 1205.92 464.692
839 0 66.3972 15.5579 1033 90.5334 1205.64 462.313
840 0 68.2264 14.6571 1000 91.529 1205.99 459.266
841 0 71.4221 14.2533 1018 91.6532 1205.94 458.719
842 0 72.4446 14.8251 1074 91.7142 1206.47 453.72
843 0 76.3776 15.9733 1220 89.5844 1208.3 452.019
844 0 77.3494 12.8896 997 94.0712 1209.71 450.705
845 1 42.186 9.48182 400 94.07 1213.29 471.888
846 0 44.0838 11.7277 517 91.9072 1215.38 469.905
847 0 48.2451 12.5194 604 88.6109 1217.07 465.793
848 0 46.1743 13.1242 606 90.9505 1218.78 465.761
849 0 49.314 13.5459 668 89.982 1219.98 465.681
850 0 50.4445 12.6674 639 90.7762 1221.43 465.568
851 0 52.2043 13.0449 681 85.326 1223.94 466.554
852 0 53.3361 13.0493 696 84.2213 1223.93 465.612
853 0 54.5121 12.1991 665 84.8887 1225.57 465.335
854 0 54.3591 12.0863 657 85.2618 1227.18 467.003
855 0 58.4695 15.0164 878 81.1219 1227.24 467.499
856 0 58.2548 13.4753 785 84.1389 1229.56 468.433
857 0 60.2557 13.841 834 82.199 1228.94 468.092
858 0 62.3239 12.7399 794 85.029 1229.51 469.538
859 0 62.362 12.2831 766 87.0509 1228.83 468.52
860 0 65.4196 12.6873 830 88.0904 1227.15 463.927
861 0 68.211 13.3263 909 86.0319 1227.52 467.484
862 0 70.2272 12.9295 908 88.1839 1226.9 464.138
863 0 73.3182 15.3577 1126 83.3623 1225.06 466.52
864 0 74.3046 12.5968 936 89.3451 1223.71 465.08
865 0 77.3851 15.5069 1200 86.2058 1221.78 463.456
866 0 77.2633 13.9005 1074 91.2272 1218.35 460.585
867 0 81.3234 13.4156 1091 92.6022 1215.33 461.515
868 0 83.2486 14.5348 1210 92.0678 1214.29 457.111
869 0 86.1856 13.4013 1155 95.2779 1211.57 456.273
870 0 89.4617 14.319 1281 94.6011 1209.48 451.375
871 0 91.6503 13.7479 1260 95.3206 1206.56 443.266
872 0 93.7213 13.6682 1281 97.758 1204.93 438.952
873 0 98.7726 14.2853 1411 96.3884 1204.49 440.264
874 0 102.637 13.7572 1412 97.7465 1204.45 437.283
875 1 50.5592 9.83006 497 99.0463 1205.9 462.936
876 0 55.2878 12.3174 681 93.9545 1207.44 459.502
877 0 56.2185 11.4197 642 94.7648 1208.43 459.791
878 0 60.0993 11.9968 721 94.1179 1213.05 461.356
879 0 62.2111 12.4897 777 91.0875 1215.29 455.512
880 0 64.2939 13.1428 845 89.9337 1214.35 453.514
881 0 66.4406 12.9288 859 91.6449 1216.34 452.607
882 0 68.4459 13.6166 932 90.3358 1218.82 452.763
883 0 72.3135 13.5659 981 89.8685 1219.6 453.664
884 0 73.424 13.9736 1026 90.5429 1221.79 449.663
885 0 76.3943 14.2288 1087 90.1463 1223.61 452.044
886 1 41.1688 10.0076 412 90.318 1226.88 470.029
887 0 44.0504 10.1475 447 92.2394 1227.89 475.009
888 0 45.0635 13.5364 610 87.9541 1229.81 473.211
889 0 46.0938 10.2183 471 93.1741 1229.35 476.051
890 0 47.0914 10.8088 509 93.9116 1231.38 475.316
891 0 47.1638 11.9371 563 94.1794 1230.57 473.126
892 0 47.1638 11.9159 562 151.653 1230.56 473.164
893 0 51.6217 13.0953 676 92.8033 1230.18 473.587
894 0 55.1611 13.8685 765 90.9255 1228.66 475.089
895 0 53.1544 13.5266 719 94.3366 1228.95 475.278
896 0 57.3937 14.1827 814 90.2027 1227.72 473.568
897 0 58.2563 14.1444 824 92.0388 1226.16 473.824
898 0 60.0665 15.3996 925 89.9632 1222.86 473.514
899 0 63.151 15.8509 1001 87.6354 1222.05 470.201
900 0 61.1158 14.5952 892 93.3195 1219.73 468.446
901 0 66.1207 15.2146 1006 91.66 1215.13 464.519
902 0 67.1608 15.1725 1019 92.1384 1213.77 464.173
903 0 72.2801 16.7128 1208 88.4081 1211.04 465.544
904 0 71.1968 13.9753 995 95.8764 1210.28 463.558
905 0 75.1243 14.1233 1061 95.6239 1208.38 459.699
906 0 76.1263 14.0425 1069 96.7905 1208.42 458.612
907 0 79.0794 14.5423 1150 97.233 1207.91 454.703
908 0 81.2211 13.7772 1119 99.1314 1208.16 452.304
909 0 85.1282 13.4386 1144 99.5411 1208.21 451.552
910 0 85.0931 13.1973 1123 101.903 1210.42 448.028
911 1 50.0949 10.7396 538 102.786 1212.43 466.015
912 0 52.0693 11.9456 622 101.232 1212.27 466.627
913 0 52.0693 11.8688 618 156.921 1213.25 466.516
914 0 55.0853 11.0193 607 102.367 1215.29 465.349
915 0 56.2102 13.4317 755 97.2702 1217.69 464.638
916 0 58.3152 13.5985 793 97.174 1220.73 459.598
917 0 59.0531 13.31 786 97.9618 1219.6 462.368
918 0 61.0714 12.9193 789 98.1458 1220.22 461.864
919 0 64.0503 12.8493 823 97.7461 1222.4 460.221
920 0 66.1015 14.6593 969 94.4004 1222.98 461.541
921 0 67.1843 12.5922 846 99.4598 1223.89 462.624
922 0 72.1158 14.9205 1076 94.066 1226.81 463.72
923 0 73.043 14.115 1031 95.1377 1226.16 462.881
924 0 76.119 13.8336 1053 95.1947 1228.18 464.659
925 0 78.1674 14.8144 1158 93.6693 1228.79 464.378
926 0 81.1633 15.1793 1232 94.9781 1227.69 462.988
927 0 82.1702 13.3138 1094 98.7002 1226.96 465.421
928 0 84.2102 14.2501 1200 98.185 1227.75 463.538
929 0 87.195 14.8632 1296 96.3835 1226.1 461.521
930 0 91.3715 14.6982 1343 98.9092 1224.94 460.561
931 0 93.1237 14.4002 1341 99.0753 1221.89 460.229
932 0 97.4418 15.8659 1546 97.8325 1219.68 454.227
933 0 101.301 15.9031 1611 99.378 1217.23 454.07
934 1 53.1714 11.4723 610 98.8197 1214.55 477.967
935 0 53.1825 11.1691 594 102.978 1213.22 475.348
936 0 54.4536 11.6062 632 101.218 1212.18 471.983
937 0 59.3769 11.4691 681 103.085 1210.79 467.675
938 0 61.3749 12.4155 762 101.102 1208.9 465.656
939 0 64.3816 13.5908 875 102.611 1206.34 462.137
940 0 67.4509 14.1436 954 100.243 1206.59 462.17
941 0 70.3415 15.0693 1060 100.03 1206.21 456.165
942 0 72.1543 13.5404 977 104.056 1205.65 457.555
943 0 77.0688 15.298 1179 99.162 1206.81 454.345
944 0 80.0846 14.4472 1157 100.431 1207.54 451.756
945 0 81.1011 16.0294 1300 98.3392 1209.24 449.663
946 0 84.0864 14.1997 1194 101.54 1212.29 449.298
947 0 91.389 14.6845 1342 99.0313 1214.06 447.43
948 0 92.1974 16.1067 1485 97.5805 1216.72 445.005
949 0 95.3876 14.7503 1407 99.4819 1217.13 442.028
950 0 100.186 15.571 1560 97.3532 1218.26 441.892
951 0 101.276 15.3738 1557 97.8985 1221.49 439.78
952 0 106.533 15.7885 1682 96.4423 1222.03 443.231
953 1 59.1293 12.2105 722 100.17 1223.43 466.134
954 0 61.176 10.9847 672 98.1086 1222.22 463.798
955 0 62.0493 8.92839 554 95.0614 1224.79 462.899
956 0 65.089 12.383 806 89.8486 1225.67 461.739
957 0 69.3957 15.1306 1050 91.8105 1229.59 465.621
958 0 69.4523 13.9088 966 91.881 1229.23 467.598
959 0 72.1648 14.4669 1044 90.9167 1230.03 466.776
960 0 73.1631 13.0667 956 94.6956 1229.29 465.49
961 0 78.1456 15.6119 1220 88.2697 1228.52 462.395
962 0 79.1212 14.2945 1131 91.7498 1227.93 464.916
963 0 83.1073 15.7748 1311 88.7307 1225.41 463.816
964 0 85.1118 16.0612 1367 89.0285 1223.91 461.54
965 0 87.1328 14.7476 1285 92.1541 1221.64 459.184
966 0 88.1026 13.6886 1206 95.0721 1219.06 456.998
967 0 90.1731 12.8863 1162 96.8236 1216.41 455.613
968 0 95.2856 13.5068 1287 96.641 1212.88 452.774
969 1 50.2001 11.733 589 96.9321 1210.07 474.097
970 0 51.3241 10.5019 539 99.5436 1209.4 476.045
971 0 53.2224 11.9123 634 99.306 1206.29 468.902
972 0 55.3116 11.5708 640 98.6188 1205.62 467.914
973 0 55.3143 12.5646 695 98.7511 1205.49 465.462
974 0 60.6234 15.7365 954 91.1268 1203.95 465.683
975 0 59.3742 13.6591 811 96.7891 1204.89 461.547
976 0 63.5302 15.41 979 91.7783 1206.46 462.096
977 0 65.5351 13.7789 903 94.9856 1209.43 460.983
978 0 68.5407 13.6269 934 95.3651 1211.25 459.567
979 0 70.4906 14.0728 992 95.7359 1213.78 457.756
980 0 71.6265 13.5425 970 96.9 1215.77 457.037
981 0 76.5424 15.1158 1157 93.497 1216.75 453.269
982 0 78.5877 15.2314 1197 92.9866 1218.56 455.231
983 0 81.5954 15.8342 1292 91.6393 1219.61 452.375
984 0 82.5428 14.6227 1207 94.2444 1221.28 455.58
985 0 86.3455 14.6389 1264 92.9383 1221.96 455.37
986 0 89.4984 15.5087 1388 91.5295 1223.39 451.977
987 0 92.7479 16.6796 1547 89.5844 1224.24 454.367
988 0 95.6847 15.1226 1447 90.973 1225.36 453.622
989 1 50.326 10.889 548 94.1533 1227.02 474.925
990 0 53.4492 10.1966 545 93.9486 1227.55 474.059
991 0 51.2442 10.4792 537 93.5996 1227.97 474.257
992 0 53.736 12.1706 654 92.6636 1227.56 472.428
993 0 57.7284 13.3556 771 90.6122 1226.5 473.178
994 0 60.5865 14.0625 852 88.831 1226.4 471.629
995 0 61.4505 13.7997 848 86.9281 1225.23 470.189
996 0 62.2882 13.582 846 86.779 1224.18 472.546
997 0 64.57 14.6972 949 85.6154 1222.13 474.351
998 0 63.2478 13.0439 825 89.5539 1219.22 470.595
999 0 67.3436 13.3049 896 85.8672 1216.67 468.754
1000 0 69.3086 13.5914 942 86.0467 1213.69 464.23
1001 0 73.3562 13.564 995 85.1809 1210.66 462.587
1002 0 76.4794 14.9321 1142 83.3573 1208.32 462.467
1003 0 78.4409 14.6862 1152 86.0234 1205.52 457.619
1004 0 78.522 12.5952 989 91.6936 1204.08 452.151
1005 0 84.6992 14.1442 1198 89.2563 1202.9 448.078
1006 0 84.5311 13.8529 1171 90.7916 1204.04 446.209
1007 0 87.5675 15.0056 1314 88.5913 1203.46 443.36
1008 0 93.7635 15.5391 1457 86.7378 1204.77 443.779
1009 1 49.4095 9.45163 467 90.4218 1205.84 465.33
1010 0 50.3727 11.4745 578 88.3253 1207.45 461.516
1011 0 54.4857 11.214 611 88.4206 1208.34 462.64
1012 0 57.5076 11.3029 650 88.4062 1211.17 460.78
1013 0 57.4325 12.2927 706 88.4858 1213.86 460.8
1014 0 59.4038 14.4435 858 86.8578 1216.81 459.646
1015 0 59.357 13.562 805 88.8335 1217.99 458.196
1016 0 63.251 14.8298 938 84.5789 1218.75 462.593
1017 0 65.1483 13.7379 895 86.514 1220.57 464.427
1018 0 66.2918 14.0138 929 87.2368 1222.33 464.206
1019 0 67.1809 14.7214 989 88.1244 1222.62 460.74
1020 0 68.1546 13.6454 930 90.4914 1224.87 461.599
1021 0 71.335 14.3688 1025 93.0966 1226.32 463.495
1022 0 72.3048 15.241 1102 89.2777 1225.51 463.079
1023 0 75.1805 15.1369 1138 88.0272 1226.5 463.913
1024 0 78.2734 15.5225 1215 87.4667 1226.3 462.128
1025 0 80.1898 14.8148 1188 90.7399 1226.21 462.824
1026 1 42.0363 10.705 450 92.1889 1225.78 484.567
1027 0 41.0463 10.1836 418 93.0502 1225.27 486.031
1028 0 43.1136 9.44017 407 90.9066 1225.75 487.211
1029 0 45.3411 11.1598 506 88.9051 1224.42 484.257
1030 0 46.3943 12.6093 585 89.0274 1223.74 480.696
1031 0 48.2768 12.5526 606 89.802 1222.1 479.078
1032 0 48.1849 13.8633 668 89.2754 1217.9 477.421
1033 0 49.2782 12.6019 621 90.8986 1216.38 478.51
1034 0 53.2268 14.1658 754 87.9337 1213.67 474.724
1035 0 54.0213 14.3832 777 88.166 1208.79 476.212
1036 0 54.0231 13.9385 753 89.2231 1205.75 472.707
1037 0 57.0445 14.7604 842 86.5594 1204.65 470.112
1038 0 54.1979 14.1887 769 89.2263 1204.56 469.638
1039 0 60.0564 15.6187 938 84.7473 1204.79 467.876
1040 0 59.1083 13.8559 819 89.6825 1203.83 464.02
1041 0 62.0397 15.0226 932 87.0891 1205.25 461.115
1042 0 63.0622 16.3014 1028 84.7996 1206.56 459.35
1043 0 65.2145 15.104 985 85.6934 1207.8 460.206
1044 0 67.1001 15.5141 1041 84.1182 1210.85 456.032
1045 0 69.1767 15.4676 1070 83.7449 1213.24 455.086
1046 0 69.3198 14.2384 987 85.5887 1214.5 456.252
1047 0 70.05 13.2191 926 86.6058 1217.16 454.297
1048 0 73.2566 14.5652 1067 85.7067 1219.66 455.138
1049 0 75.0594 15.4011 1156 84.4213 1220.83 452.551
1050 0 77.1249 13.8995 1072 82.1231 1222.16 454.336
1051 0 77.0847 13.816 1065 84.5887 1223.99 452.656
1052 0 80.2015 14.8376 1190 81.5798 1225.35 453.843
1053 0 85.2423 15.2037 1296 78.6458 1227.29 454.397
1054 0 86.1564 13.963 1203 79.271 1228.72 454.179
1055 0 89.2155 14.6499 1307 76.7819 1228.22 455.358
1056 1 44.075 9.68803 427 77.0656 1228.85 477.932
1057 0 43.063 11.309 487 74.8029 1231.28 476.593
1058 0 47.0392 12.2026 574 73.0784 1230.87 478.322
1059 0 44.0626 9.23686 407 76.3268 1230.32 478.172
1060 0 49.0863 11.1233 546 72.8645 1229.89 479.625
1061 0 49.1537 10.9249 537 68.2253 1227.13 478.372
1062 0 48.097 10.3957 500 69.222 1225.99 477.91
1063 0 50.131 11.7093 587 70.2606 1223.16 476.494
1064 0 54.1621 10.0439 544 75.7335 1222.66 426.877
1065 1 108.34 12.8669 1394 52.7776 1219.22 447.862
1066 1 51.0635 14.0414 717 71.4338 1215.53 419.276
1067 0 46.0472 7.27515 335 77.2478 1213.43 417.663
1068 1 112.509 9.45698 1064 89.8741 1211.4 388.091
1069 0 111.398 9.32692 1039 88.4995 1208.51 387.89
1070 0 115.458 9.05959 1046 92.5889 1207.08 378.209
1071 0 120.369 7.47701 900 95.8089 1206.05 372.683
1072 0 120.353 7.51125 904 99.5542 1205.71 353.22
1073 0 126.478 11.5752 1464 90.2821 1206.72 364.082
1074 0 131.487 11.7502 1545 90.7534 1207.18 359.261
1075 0 135.496 10.9376 1482 92.4285 1209.58 356.018
1076 0 138.541 12.2563 1698 91.5589 1209.99 346.622
1077 0 144.67 13.0988 1895 89.1103 1210.9 350.296
1078 0 147.613 11.1643 1648 92.8216 1212.9 342.786
1079 0 154.468 12.8052 1978 89.092 1215.24 342.041
1080 0 155.473 15.694 2440 129.129 1217.33 350.149
1081 0 164.408 13.8436 2276 85.9842 1216.77 335.337
1082 1 80.18 13.981 1121 102.167 1218.31 297.501
1083 1 183.402 7.26818 1333 94.5739 1219.6 332.672
1084 1 92.2098 12.9704 1196 102.921 1220.04 290.983
1085 1 183.663 10.5792 1943 91.0067 1222.88 325.606
1086 0 187.685 12.6329 2371 87.2185 1223.13 324.224
1087 0 194.886 13.5156 2634 84.661 1224.5 323.102
1088 0 199.752 12.1 2417 86.0099 1224.96 320.205
1089 0 205.879 12.0459 2480 87.1327 1224.25 314.564
1090 1 60.1259 11.1267 669 93.9447 1222.69 301.151
1091 0 56.1197 11.3864 639 96.4523 1224.15 297.692
1092 0 62.0594 13.2937 825 92.663 1223.63 294.018
1093 1 174.457 9.64706 1683 79.9643 1224.69 343.406
1094 0 180.732 11.4922 2077 78.0077 1223.79 338.722
1095 0 183.501 11.7111 2149 77.551 1222.4 333.05
1096 0 184.726 10.2584 1895 79.6734 1220.97 335.622
1097 0 192.423 11.9528 2300 76.6983 1217.89 339.373
1098 0 194.581 10.8952 2120 79.2396 1216.18 330.258
1099 0 201.864 10.5219 2124 82.8362 1212.73 324.162
1100 1 88.1711 13.5419 1194 96.2998 1210.07 263.399
1101 0 278.639 21.3286 5943 57.2107 1206.54 277.208
1102 1 71.2552 10.9466 780 93.1282 1206.16 265.435
1103 0 68.0941 10.2358 697 93.9225 1205.1 263.884
1104 0 63.1042 8.57312 541 96.7153 1202.9 261.451
1105 0 60.1882 9.56999 576 95.1528 1203.33 259.592
1106 0 52.1005 10.9212 569 98.1775 1202.34 252.573
1107 0 56.0684 11.8783 666 95.6637 1203.22 250.222
1108 0 58.1228 11.8026 686 95.8397 1204.52 244.869
1109 0 61.0751 14.6705 896 92.519 1206.88 238.221
1110 0 63.1167 14.5603 919 90.9587 1212.03 231.81
1111 0 66.1899 13.4311 889 85.3093 1210.9 233.823
1112 0 71.1903 15.0863 1074 81.4823 1212.66 231.337
1113 0 149.601 14.2513 2132 70.6557 1216.55 262.384
1114 0 153.317 15.8495 2430 68.3852 1217.67 255.162
1115 0 156.441 15.0281 2351 72.6874 1218.88 251.427
1116 1 46.3659 7.2467 336 89.122 1220.27 234.801
1117 0 43.2243 10.7116 463 90.2894 1221.67 229.359
