time division length width area intensity CMx CMy
0 0 41.1514 14.3616 591 127.149 1179.09 497.464
1 0 38.157 14.7548 563 131.004 1175.76 496.737
2 0 38.062 12.9263 492 136.118 1176.25 497.079
3 0 42.1134 14.366 605 129.663 1176.59 493.354
4 0 44.1507 15.1073 667 127.325 1176.69 491.573
5 0 45.1284 14.1596 639 130.419 1176.85 489.23
6 0 46.1374 15.4755 714 127.21 1178.36 490.225
7 0 47.2002 15.4237 728 127.271 1179.5 488.471
8 0 50.0414 16.1466 808 121.724 1180.62 487.833
9 0 50.2616 15.4392 776 124.296 1181.82 485.637
10 0 49.1943 15.3066 753 126.839 1182.09 483.918
11 0 52.1995 15.7664 823 121.719 1186.13 485.855
12 0 52.2328 14.646 765 127.097 1187.2 482.796
13 0 55.3353 16.1922 896 121.347 1189.32 479.891
14 0 53.2201 14.5246 773 128.419 1190.53 481.437
15 0 56.3423 14.8556 837 126.026 1192.81 479.332
16 0 57.3839 15.3005 878 124.026 1195.66 477.47
17 0 60.3117 16.4313 991 120.721 1197.9 478.328
18 0 63.2586 16.1085 1019 119.749 1199.93 478.653
19 0 63.3956 14.7487 935 125.684 1201.01 477.093
20 0 70.3078 15.9015 1118 121.072 1202.85 476.044
21 0 71.2542 16.2797 1160 121.225 1202.59 476.107
22 0 74.5673 14.3763 1072 123.842 1201.41 476.005
23 1 39.2298 13.5356 531 128.697 1200.82 490.879
24 0 41.42 13.3269 552 127.018 1200.45 492.553
25 0 45.2963 14.9019 675 121.086 1198.22 490.585
26 0 44.3989 14.0769 625 122.955 1196 490.083
27 0 46.5208 13.5638 631 125.311 1193.88 480.143
28 0 48.4475 15.7284 762 120.892 1191.62 476.806
29 0 50.2547 17.3317 871 113.615 1190.12 476.101
30 0 53.3137 15.6995 837 115.978 1186.91 480.595
31 0 54.1763 16.2063 878 113.835 1184.97 478.801
32 0 54.2914 15.3616 834 116.139 1183.13 479.327
33 0 58.2136 15.821 921 112.79 1182.54 477.598
34 0 58.2136 15.8039 920 162.884 1181.53 477.608
35 0 58.2136 15.7867 919 162.462 1180.52 477.6
36 0 63.2956 15.7673 998 112.019 1183.81 471.993
37 0 64.2231 15.8821 1020 111.821 1184.97 469.515
38 0 69.3703 15.6984 1089 110.185 1185.85 469.22
39 0 72.2512 16.4565 1189 108.288 1186.57 466.178
40 0 74.4333 15.5441 1157 111.951 1189.36 462.268
41 0 76.3155 16.0518 1225 110.696 1191.24 463.115
42 1 41.2174 12.058 497 114.433 1192.99 479.584
43 0 42.2806 13.5523 573 111.457 1195.28 478.998
44 0 44.1637 12.8612 568 110.181 1197.72 480.359
45 0 44.1352 12.8922 569 111.316 1199.4 474.158
46 0 44.1352 12.9149 570 164.57 1201.38 474.14
47 0 49.1907 14.0271 690 107.851 1203.38 474.501
48 0 51.1264 14.4935 741 104.571 1205.23 474.852
49 0 52.0756 13.9605 727 103.931 1206.87 476.497
50 0 53.1018 15.4232 819 103.166 1207.88 473.133
51 0 55.0909 15.9373 878 102.72 1208.79 475.405
52 0 56.115 14.898 836 104.897 1210.03 476.013
53 0 56.115 14.8089 831 162.095 1210.04 476.004
54 0 60.1225 15.4684 930 104.718 1212 478.02
55 0 64.1444 16.6343 1067 101.548 1210.68 477.649
56 0 64.1074 14.6317 938 105.643 1209.49 477.959
57 0 69.2605 16.1275 1117 100.763 1208.31 476.649
58 0 69.0805 14.114 975 107.598 1205.97 476.504
59 0 72.0553 15.613 1125 105.423 1204.81 471.893
60 0 74.0616 15.2711 1131 106.393 1201.62 471.746
61 1 37.0367 11.0161 408 109.289 1198.97 489.52
62 0 38.0813 9.6898 369 111.241 1196.49 490.518
63 0 41.0805 13.1449 540 106.496 1194.72 485.294
64 0 42.0646 11.6725 491 107.045 1193.44 485.411
65 0 44.122 12.6694 559 106.072 1192.62 481.623
66 0 46.3262 14.5058 672 102.757 1192.38 479.21
67 0 46.3262 13.5561 628 157.994 1191.3 478.627
68 0 48.2269 13.4987 651 106.767 1189.28 477.005
69 0 52.1008 12.0536 628 111.709 1189.84 472.877
70 0 51.1357 14.2953 731 108.807 1191.51 469.793
71 0 55.0739 14.9072 821 106.104 1193.72 468.949
72 0 56.1065 14.722 826 107.437 1194.01 468.326
73 0 57.0747 14.7351 841 107.611 1197.02 468.753
74 0 57.2412 15.0241 860 109.434 1200.04 465.616
75 0 59.2579 14.9516 886 109.702 1201.22 465.98
76 0 63.2925 17.0636 1080 103.302 1203.25 461.994
77 0 63.2246 15.0574 952 109.59 1205.13 462.456
78 0 67.4099 16.0066 1079 105.835 1207.24 460.426
79 0 70.1406 16.4242 1152 106.467 1208.22 460.813
80 0 71.2825 16.1891 1154 107.901 1210.55 458.995
81 0 75.2499 16.0798 1210 107.452 1211.69 459.961
82 0 76.1834 16.7622 1277 107.157 1213.39 457.448
83 0 81.1419 16.5389 1342 106.752 1215.95 459.125
84 0 81.1253 16.1602 1311 110.217 1216.24 458.023
85 0 85.1265 15.8235 1347 111.252 1215.99 459.195
86 1 45.0272 11.482 517 115.957 1216.48 480.321
87 0 47.112 12.4172 585 115.397 1216.66 478.788
88 0 48.0362 13.0943 629 116.293 1216.56 478.154
89 0 52.1444 13.6736 713 111.787 1216.27 473.825
90 0 54.4866 14.866 810 110.523 1216.54 465.564
91 0 54.1699 14.2884 774 114.961 1216.6 476.262
92 0 56.4021 15.2831 862 113.008 1214.47 476.7
93 0 59.2655 15.6077 925 113.902 1211.7 475.975
94 0 60.3222 15.9808 964 112.777 1209.68 474.97
95 0 64.2671 15.4823 995 112.387 1205.89 474.336
96 0 64.3593 14.6055 940 115.447 1202.61 472.011
97 0 66.2954 15.7628 1045 113.056 1199.97 469.897
98 0 68.313 15.1069 1032 115.432 1198.77 467.41
99 0 71.317 16.4477 1173 111.038 1197.55 465.473
100 0 74.2271 16.6785 1238 112.089 1195.67 460.279
101 0 77.3557 17.0382 1318 110.644 1196.15 461.642
102 0 74.3116 15.5965 1159 169.078 1196.08 459.419
103 0 81.3835 15.8263 1288 115.374 1196.73 455.293
104 0 81.3835 15.8509 1290 166.053 1197.73 455.154
105 0 87.3096 16.1494 1410 114.072 1199.25 449.92
106 0 91.4688 17.2299 1576 109.293 1200.24 447.017
107 0 91.3424 15.4802 1414 115.404 1202.35 446.088
108 1 50.2136 12.1083 608 114.169 1205.24 469.071
109 0 52.1939 10.9783 573 115.208 1207.05 469.462
110 0 55.269 12.3939 685 113.038 1208.06 467.962
111 0 56.1793 13.0475 733 110.926 1210.56 465.54
112 0 58.6508 13.4354 788 108.217 1211.55 461.277
113 0 60.2787 14.3168 863 99.6952 1211.89 451.714
114 0 59.3363 13.4993 801 107.894 1216 462.042
115 0 63.4961 14.9143 947 103.657 1217.71 461.669
116 0 64.4051 12.5766 810 106.599 1219.12 464.49
117 0 67.5862 14.8255 1002 104.759 1219.73 460.412
118 0 69.5276 14.8574 1033 104.555 1221.29 462.212
119 0 73.4133 16.0325 1177 105.664 1221.58 459.062
120 0 76.8185 15.1005 1160 105.494 1222.74 463.403
121 0 76.8185 15.1396 1163 157.15 1222.73 463.422
122 0 81.7469 15.2789 1249 106.768 1221.28 460.126
123 1 43.5435 10.656 464 109.448 1221.23 476.399
124 0 47.6226 12.6201 601 103.84 1221.12 474.28
125 0 51.7482 11.6526 603 100.463 1217.94 475.701
126 0 44.3752 11.1549 495 104.222 1215.86 472.253
127 0 44.3752 11.1324 494 153.935 1212.92 472.034
128 0 52.5314 12.6591 665 98.7759 1209.8 471.638
129 0 50.5002 13.4059 677 99.3811 1208.26 470.319
130 0 53.4855 12.5828 673 100.486 1207.91 469.933
131 0 53.3306 12.0381 642 103.67 1205.26 468.363
132 0 58.5191 14.491 848 101.417 1202.05 467.376
133 0 58.5753 13.7601 806 103.154 1201.48 465.273
134 0 60.5493 13.8069 836 99.4007 1200 464.188
135 0 62.6759 13.3863 839 99.1061 1200.32 464.753
136 0 65.5538 14.4309 946 97.4123 1199.8 461.212
137 0 66.4406 13.8018 917 98.9422 1200.01 457.076
138 0 69.5596 12.536 872 100.534 1202.3 456.308
139 0 69.5208 12.1259 843 103.123 1203.44 455.249
140 0 72.5344 14.0072 1016 100.962 1204.58 451.044
141 0 76.7275 13.4893 1035 100.451 1208.03 451.205
142 0 78.5838 14.5068 1140 99.8658 1208.12 446.495
143 0 80.7872 13.8017 1115 101.017 1209.19 445.274
144 0 84.5233 14.5404 1229 99.1912 1211.52 445.635
145 0 88.7758 14.4071 1279 100.953 1212.98 445.539
146 0 91.5725 15.3758 1408 99.7585 1214.08 442.356
147 0 93.569 14.3424 1342 101.594 1216.46 438.559
148 0 98.6079 15.3436 1513 98.6305 1217.64 439.021
149 1 52.4028 11.6215 609 97.757 1218.86 461.905
150 0 52.3029 11.7393 614 97.7899 1219.14 461.008
151 0 53.3584 11.4696 612 100.095 1221.49 460.531
152 0 57.3829 13.3664 767 95.6884 1222.17 461.296
153 0 59.4727 14.4604 860 93.0372 1222.58 460.917
154 0 59.4063 14.3082 850 95.2659 1223.67 465.325
155 0 63.3519 14.8535 941 98.3741 1223.51 466.78
156 0 63.3276 15.9962 1013 97.6604 1223.22 466.53
157 0 65.3525 14.4141 942 100.004 1222.12 467.814
158 0 67.3675 14.6064 984 100.957 1220.79 466.713
159 0 68.3011 14.6996 1004 101.661 1217.63 465.17
160 0 68.3011 14.6118 998 157.633 1213.62 465.08
161 0 74.3062 16.3513 1215 98.5893 1214.35 462.156
162 0 75.3489 14.6916 1107 103.201 1211.05 461.012
163 0 79.4075 15.326 1217 100.861 1208.62 458.449
164 0 80.4689 14.254 1147 102.825 1206.06 459.173
165 0 82.3918 14.8558 1224 103.167 1204.54 455.893
166 0 84.3272 14.3607 1211 103.472 1203.46 454.312
167 0 86.413 13.9794 1208 103.916 1202.91 451.983
168 0 90.3898 14.7251 1331 102.537 1201.83 446.626
169 0 93.5347 13.9627 1306 103.205 1201.32 447.451
170 0 94.7073 14.6451 1387 103.166 1202.71 441.004
171 0 102.759 13.3516 1372 104.087 1202.43 436.806
172 0 101.686 15.1151 1537 102.333 1204.01 433.205
173 0 106.828 15.6794 1675 101.026 1204.67 431.835
174 0 108.568 14.3136 1554 104.51 1205.73 429.403
175 0 111.67 14.695 1641 104.58 1207.88 426.363
176 0 115.599 17.4656 2019 98.6067 1209.54 429.574
177 0 117.395 15.2902 1795 103.9 1212.06 424.939
178 1 65.1988 10.1996 665 106.006 1213.52 456.992
179 0 69.1789 12.2725 849 104.037 1215.08 455.049
180 0 72.3558 12.6873 918 102.451 1215.13 455.608
181 0 74.3787 14.238 1059 102.173 1217.96 452.723
182 0 76.3502 14.106 1077 103.244 1218.67 454.327
183 0 80.2993 16.2766 1307 99.9671 1220.71 453.184
184 0 81.495 14.823 1208 98.2599 1223.16 453.974
185 0 85.5172 14.8274 1268 98.3147 1223.97 453.655
186 0 88.3987 14.7966 1308 97.8005 1224.13 456.5
187 0 90.3432 14.6884 1327 103.213 1224.08 451.044
188 0 94.5491 15.6215 1477 99.7055 1223.81 454.263
189 1 47.3845 11.7338 556 106.644 1223.01 474.721
190 0 51.326 11.0276 566 100.438 1222.37 478.173
191 0 54.1619 13.5335 733 96.3124 1220.6 477.072
192 0 57.0555 12.8471 733 98.4761 1217.9 474.606
193 0 57.1514 13.9629 798 97.1967 1215.38 471.571
194 0 57.2182 13.1252 751 97.1238 1213.5 470.538
195 0 60.1849 15.1533 912 92.9123 1210.93 469.734
196 0 61.2335 13.375 819 96.2576 1208.73 469.404
197 0 62.0983 14.3804 893 97.6361 1206.28 466.09
198 0 63.2398 14.1209 893 98.0605 1203.99 464.83
199 0 67.1768 15.0349 1010 97.204 1201.42 462.301
200 0 67.2041 13.7492 924 99.4264 1199.72 461.503
201 0 71.3087 14.1217 1007 99.8779 1199.96 457.169
202 0 73.1428 14.4922 1060 98.75 1199.34 456.418
203 0 76.2156 15.4824 1180 94.8339 1199.3 453.17
204 0 79.1768 15.1938 1203 95.5669 1200.07 451.731
205 0 82.1045 14.7738 1213 97.4328 1202.05 448.649
206 0 85.1439 16.7716 1428 93.1807 1203.48 447.298
207 0 86.241 14.5406 1254 98.9338 1204.89 443.039
208 0 89.2013 15.1455 1351 97.9874 1206.31 443.349
209 0 91.135 14.7144 1341 98.906 1207.75 443.488
210 1 49.0463 11.0916 544 101.779 1208.34 460.351
211 0 47.0461 10.3941 489 166.133 1210.25 461.84
212 0 54.1432 11.2849 611 101.309 1219.47 459.948
213 0 59.1768 13.5864 804 94.0771 1221.19 460.127
214 0 59.0386 14.1094 833 94.8499 1222.41 460.122
215 0 61.2866 13.6898 839 95.2872 1224.62 460.054
216 0 62.0738 12.8557 798 98.8847 1224.76 458.985
217 0 64.1697 13.9474 895 97.3397 1226.05 459.527
218 0 66.1757 13.6455 903 98.567 1227.35 460.017
219 0 69.243 13.431 930 97.7774 1227.27 459.435
220 0 73.239 15.6747 1148 92.8258 1227.41 462.574
221 0 74.1805 14.7478 1094 95.5082 1226.75 461.238
222 0 77.1748 13.6184 1051 99.568 1225.87 459.781
223 0 81.4755 16.2994 1328 95.1017 1225.27 459.126
224 1 42.2049 11.5389 487 103.61 1224.99 474.745
225 0 43.1422 10.2915 444 103.338 1222.16 476.282
226 0 45.1078 11.9492 539 101.406 1219.28 475.581
227 0 46.0561 12.4631 574 102.476 1215.95 472.855
228 0 47.0988 11.9536 563 104.371 1209.95 471.309
229 0 48.1401 13.8762 668 100.097 1208.09 472.549
230 0 50.1157 12.9301 648 102.319 1207.15 471.688
231 0 50.1157 12.95 649 151.186 1206.16 471.672
232 0 51.2703 14.2383 730 102.163 1203.99 468.604
233 0 51.093 13.7592 703 100.851 1203.21 467.058
234 0 51.093 13.9158 711 150.952 1201.23 467.044
235 0 55.1273 13.75 758 101.854 1204.51 459.16
236 0 58.1838 13.5948 791 100.193 1205.74 459.037
237 0 58.0865 13.2044 767 102.975 1206.44 456.297
238 0 61.1309 12.5632 768 103.871 1207.78 455.405
239 0 65.1308 13.5113 880 101.462 1209.83 454.389
240 0 66.205 14.9687 991 99.3946 1212.07 450.69
241 0 68.0989 13.7447 936 101.835 1213.45 449.469
242 0 72.1505 16.1052 1162 96.673 1214.68 448.991
243 0 70.1194 13.0777 917 105.769 1217.01 446.641
244 0 74.1129 14.6533 1086 101.622 1218.18 446.412
245 0 77.2309 13.8934 1073 103.268 1218.07 447.267
246 0 81.0904 14.2187 1153 102.773 1219.84 446.214
247 0 81.0904 14.305 1160 148.525 1221.82 446.301
248 0 86.2612 14.4909 1250 102.101 1224.3 445.531
249 1 46.0256 11.0156 507 102.755 1225.54 467.86
250 0 47.0984 10.149 478 104.525 1224.97 466.937
251 0 49.2517 12.3854 610 101.311 1224.2 467.469
252 0 49.5723 12.3456 612 100.925 1224.4 464.078
253 0 50.0584 12.9249 647 98.9474 1224.43 469.665
254 0 53.0377 13.6507 724 97.5898 1225.11 468.434
255 0 51.1214 11.8541 606 101.71 1225.58 470.573
256 0 56.1083 13.4561 755 98.257 1223.84 473.483
257 0 56.0527 13.4516 754 100.125 1222.58 471.735
258 0 57.0552 13.3555 762 100.986 1221.36 472.022
259 0 59.0853 12.6597 748 104.119 1220.68 470.781
260 0 61.1602 13.0804 800 101.436 1217.97 471.332
261 0 62.1732 13.5106 840 137.988 1215.98 470.588
262 0 67.2049 13.5407 910 99.256 1212.25 468.025
263 0 67.1725 13.2495 890 101.188 1209.51 466.485
264 0 69.0505 12.9615 895 103.597 1207.17 460.979
265 0 71.0747 12.93 919 106.185 1205.6 459.992
266 0 76.0688 13.6324 1037 103.099 1203.01 459.204
267 0 78.0891 14.6884 1147 102.658 1202.36 454.939
268 0 80.1065 15.03 1204 102.599 1201.67 451.99
269 0 83.1541 14.8399 1234 102.951 1201.23 451.788
270 0 85.1632 13.6092 1159 107.649 1204.19 445.969
271 0 87.2512 13.272 1158 106.325 1204.15 448.245
272 0 87.2512 13.2033 1152 155.477 1204.15 448.249
273 0 93.1033 14.5322 1353 106.839 1206.7 443.904
274 0 93.1033 14.6826 1367 160.572 1209.7 443.853
275 1 53.0237 11.4854 609 112.727 1209.58 462.929
276 0 55.0303 12.7203 700 110.187 1210.97 460.911
277 0 58.0327 13.7336 797 108.026 1211.59 458.848
278 0 56.0853 13.1407 737 106.89 1213.2 456.336
279 0 62.0577 15.3567 953 103.13 1214.46 456.348
280 0 64.0483 14.8794 953 104.704 1216.11 456.131
281 0 66.0273 14.1305 933 106.883 1218.55 456.375
282 0 68.0569 14.9287 1016 104.235 1219.34 457.93
283 0 70.0448 14.9619 1048 105.826 1220.3 457.152
284 0 72.0584 14.9323 1076 103.697 1222.38 455.737
285 0 72.1074 13.9237 1004 109.185 1223.38 454.362
286 0 78.0384 14.9798 1169 105.158 1223.35 456.583
287 0 81.0901 15.4889 1256 102.137 1223.65 456.532
288 1 42.0368 11.6089 488 103.711 1223.79 475.92
289 0 43.0637 10.2406 441 108.188 1222.73 477.249
290 0 45.088 12.2649 553 104.382 1225.54 476.785
291 0 46.0712 12.8497 592 102.231 1224.25 475.936
292 0 46.2186 13.2198 611 99.9607 1222.55 476.344
293 0 49.2813 13.2099 651 97.9493 1223.07 475.459
294 0 51.07 14.1962 725 97.0166 1219.52 474.869
295 0 52.0247 13.8588 721 100.73 1216.82 475.117
296 0 53.0404 13.3106 706 101.897 1213.72 472.348
297 0 55.0929 15.1562 835 97.0635 1210.52 471.226
298 0 58.0449 15.264 886 95.86 1209.78 470.264
299 0 59.2481 15.2916 906 96.6104 1207.44 464.471
300 0 60.1769 15.0888 908 97.8172 1205.37 465.178
301 0 64.16 15.6172 1002 96.1168 1205.06 460.252
302 0 64.2526 15.4546 993 97.8117 1204.24 458.831
303 0 66.1199 13.7477 909 101.187 1204.15 458.4
304 0 68.13 13.7531 937 102.546 1205.01 456.313
305 0 70.2743 14.6142 1027 100.473 1206.7 454.249
306 0 73.2121 15.257 1117 98.8514 1207.77 452.491
307 0 77.2666 17.2002 1329 94.9127 1208.79 451.016
308 1 40.0414 10.9636 439 105.18 1212.36 467.601
309 0 41.0422 10.7694 442 105.989 1214.02 467.391
310 0 41.0422 10.8181 444 163.16 1215.05 467.302
311 0 44.033 11.6276 512 107.342 1217.16 465.936
312 0 46.1153 12.1868 562 104.52 1220.32 466.128
313 0 48.0831 14.6621 705 101.332 1216.56 466.087
314 0 48.0253 12.8266 616 106.073 1216.17 466.737
315 0 50.1506 14.0178 703 103.486 1218.29 464.784
316 0 51.1912 15.7644 807 99.7745 1220.28 465.771
317 0 51.1095 13.5591 693 105.488 1222.12 467.31
318 0 52.2449 14.432 754 104.935 1223.86 466.301
319 0 55.0949 14.2844 787 104.573 1223.97 466.215
320 0 55.0238 13.794 759 108.922 1223.2 467.249
321 0 57.1124 13.6047 777 107.238 1223.84 468.909
322 0 59.0731 14.5413 859 104.487 1223.6 467.981
323 0 61.0731 14.3926 879 105.271 1223.29 465.739
324 0 62.0299 14.2834 886 104.424 1223.5 469.777
325 0 65.0639 15.2773 994 102.725 1222.19 467.089
326 0 65.1279 14.3257 933 105.698 1220.66 464.839
327 0 67.1399 14.0602 944 105.735 1217.58 467.019
328 1 34.0509 9.60328 327 105.914 1215.4 482.235
329 0 36.091 9.94707 359 110.351 1213.18 479.604
330 0 38.0588 10.3787 395 108.754 1209.18 477.866
331 0 39.0441 10.7827 421 107.544 1208.18 476.739
332 0 41.0117 13.1182 538 103.309 1205.39 474.643
333 0 39.0077 11.7669 459 163.869 1203.36 472.878
334 0 43.0464 13.3344 574 100.702 1202.64 471.889
335 0 44.137 14.9081 658 101.237 1203.64 466.74
336 0 46.048 12.5087 576 105.083 1201.93 466.229
337 0 47.036 13.4152 631 102.252 1201.56 465.867
338 0 49.0655 12.3508 606 105.498 1203.49 464.787
339 0 50.215 15.4336 775 100.058 1205.22 465.044
340 0 51.058 13.8274 706 105.728 1206.12 460.414
341 0 53.12 15.4179 819 102.222 1207.11 460.59
342 0 53.0691 14.6225 776 103 1210.97 459.568
343 0 55.0336 13.1919 726 106.753 1211.61 458.702
344 0 55.2061 13.1145 724 104.365 1212.96 460.511
345 0 59.2018 13.4624 797 102.708 1214.69 459.187
346 0 60.1793 13.5595 816 103.219 1216.87 459.45
347 0 62.1033 14.0894 875 102.281 1217.38 458.473
348 0 62.1521 13.3543 830 104.551 1219.04 460.607
349 0 66.1176 15.9413 1054 100.257 1220.16 458.908
350 0 67.174 14.0382 943 104.636 1221.22 460.355
351 0 70.3209 14.5049 1020 104.338 1223.13 460.192
352 0 71.1671 14.4168 1026 105.819 1224.3 458.982
353 0 73.2258 14.6943 1076 105.09 1224.7 459.475
354 0 77.2398 15.2253 1176 103.403 1226.6 461.074
355 1 43.155 11.8874 513 111.386 1226.12 476.335
356 0 46.1795 13.7074 633 106.744 1225.63 476.695
357 0 45.1163 12.235 552 111.181 1224.95 477.77
358 0 45.119 12.323 556 111.808 1224.02 476.516
359 0 47.2022 12.1393 573 110.101 1222.96 477.616
360 0 49.1092 12.8489 631 110.81 1219.82 475.797
361 0 50.1534 14.2762 716 109.462 1218.57 474.7
362 0 51.187 14.5545 745 110.616 1215.81 472.246
363 0 53.0401 15.9502 846 106.63 1211.09 468.887
364 0 55.0487 14.7143 810 109.636 1208.32 468.606
365 0 57.1469 15.3114 875 108.663 1207.03 468.406
366 0 58.1915 14.332 834 106.462 1204.85 467.627
367 0 60.0678 13.7345 825 108.578 1202.77 463.474
368 0 62.0405 15.0547 934 107.122 1201.85 461.147
369 0 64.0855 15.1829 973 105.605 1201.58 458.281
370 0 68.094 15.3464 1045 105.669 1202.13 456.145
371 0 69.1208 15.5814 1077 106.989 1202.9 454.661
372 0 72.1367 16.4133 1184 105.405 1204.47 451.408
373 0 75.1347 16.1443 1213 105.731 1206.43 449.163
374 1 38.0144 11.5746 440 115.734 1207.68 467.109
375 0 42.0653 11.5059 484 113.304 1210.52 469.174
376 0 44.1103 11.6073 512 114.783 1213.23 467.654
377 0 45.0274 13.7694 620 110.515 1215.02 466.889
378 0 45.0217 12.4829 562 112.883 1217.62 467.479
379 0 46.0916 13.6034 627 108.456 1215.04 463.376
380 0 47.0265 13.2266 622 114.322 1219.43 464.286
381 0 52.0827 14.573 759 108.511 1222.46 463.536
382 0 52.0576 15.9054 828 107.78 1223.46 464.409
383 0 53.084 14.9574 794 109.521 1225.23 464.807
384 0 54.0662 13.7794 745 111.883 1226.31 463.674
385 0 56.0154 14.7638 827 110.649 1227.88 464.358
386 0 57.0531 15.0737 860 110.116 1228.21 465.827
387 0 57.0495 14.7065 839 111.182 1228.4 467.51
388 0 61.0836 15.1759 927 108.16 1228.74 466.188
389 0 64.1198 17.3581 1113 103.073 1229.45 468.245
390 0 65.192 15.7995 1030 106.712 1229.78 468.317
391 0 67.0954 16.2902 1093 105.37 1228.29 467.019
392 0 69.1043 16.6705 1152 104.903 1226.83 465.973
393 0 72.1921 17.6058 1271 102.978 1224.47 464.225
394 0 74.1385 16.4961 1223 106.064 1221.66 465.529
395 0 75.1596 15.8729 1193 108.469 1219.32 462.699
396 0 78.1153 15.8228 1236 109.119 1216.9 460.69
397 0 81.212 16.9433 1376 105.403 1213.72 458.717
398 1 44.1209 11.4232 504 112.105 1212.13 475.837
399 0 44.0971 10.7037 472 111.547 1209.95 473.676
400 0 45.0556 10.2984 464 112.935 1205.26 473.67
401 0 45.0475 12.5645 566 110.572 1202.05 470.122
402 0 50.3624 13.383 674 107.77 1203.74 469.531
403 0 49.5306 14.1932 703 108.336 1204.39 461.067
404 0 52.0325 15.1636 789 104.796 1202.87 463.19
405 0 52.0581 13.0431 679 110.501 1204.22 462.862
406 0 56.0235 14.601 818 105.421 1205.39 462.125
407 0 58.206 14.5689 848 104.238 1208.28 460.75
408 0 61.0548 14.5771 890 105.058 1210.17 459.72
409 0 62.1156 15.4873 962 103.761 1212.13 457.643
410 0 64.0959 13.6202 873 107.252 1213.57 457.431
411 0 67.1561 15.8437 1064 102.191 1214.96 453.465
412 0 70.0415 16.6901 1169 100.148 1216.48 454.094
413 0 72.1388 15.29 1103 103.544 1217.65 452.819
414 0 75.0813 15.5032 1164 101.4 1219.43 455.198
415 0 76.1412 16.2724 1239 100.49 1220.45 451.33
416 0 80.1333 16.3852 1313 98.2574 1222.16 450.661
417 1 41.1475 11.7869 485 106.305 1222.89 471.062
418 0 40.1287 12.6593 508 105.268 1223.77 472.382
419 0 45.0506 12.0975 545 106.675 1224.4 473.637
420 0 46.0989 13.3626 616 103.545 1225.44 472.381
421 0 46.0721 12.437 573 105.075 1226.03 475.517
422 0 50.2385 14.3117 719 102.22 1226.3 474.06
423 0 49.0692 14.5916 716 102.461 1227.29 473.321
424 0 52.0873 15.2245 793 100.921 1227.16 471.604
425 0 54.2031 14.501 786 98.4695 1225.4 474.384
426 0 54.1647 15.379 833 98.2665 1224.83 475.402
427 0 57.2037 14.4921 829 99.1725 1222.8 472.65
428 0 58.1464 14.4463 840 100.29 1220.73 472.125
429 0 60.1969 14.0207 844 101.213 1216.96 468.57
430 0 63.1692 15.2606 964 99.3257 1214.84 468.311
431 0 64.3898 14.9868 965 99.9938 1211.02 466.177
432 0 67.2004 14.1815 953 102.221 1208.7 465.44
433 0 68.2785 14.8216 1012 100.501 1206.69 462.93
434 0 71.4799 14.9552 1069 101.759 1204.08 457.199
435 0 75.3348 15.982 1204 98.0507 1204.23 456.528
436 0 78.4323 14.8408 1164 99.9716 1203.17 451.275
437 0 81.371 15.9639 1299 98.194 1204.33 449.906
438 0 81.6646 14.5351 1187 102.564 1205.4 447.531
439 1 43.7864 12.3098 539 102.046 1208.17 467.173
440 0 45.7299 11.6773 534 103.273 1209.72 464.337
441 0 44.5045 11.2798 502 105.484 1210.83 462.498
442 0 48.6183 12.2382 595 102.539 1213.28 462.687
443 0 53.5263 13.4327 719 100.499 1215.65 460.566
444 0 51.4304 13.319 685 101.623 1216.72 459.914
445 0 57.3116 14.0809 807 97.8228 1218.17 461.336
446 0 59.5668 14.7062 876 97.4121 1220.94 458.481
447 0 60.0547 15.2361 915 95.9945 1219.52 460.585
448 0 62.1539 14.7698 918 96.6242 1220.49 458.237
449 0 63.0538 14.7493 930 97.3022 1221.61 459.616
450 0 67.071 14.999 1006 94.5825 1222.09 460.599
451 0 67.0717 14.7156 987 96.2776 1223.69 458.839
452 0 68.0387 14.8739 1012 95.8271 1224.51 460.679
453 0 71.1688 14.5007 1032 96.4564 1225.29 458.376
454 0 72.0836 14.4138 1039 98.7613 1226.7 458.081
455 0 75.3039 14.8067 1115 97.53 1226.97 458.787
456 0 80.1462 14.748 1182 97.8384 1226.95 459.625
457 0 81.1323 14.9386 1212 98.3358 1226.82 459.032
458 0 85.1433 15.2801 1301 97.4166 1225.76 458.053
459 1 46.2143 10.6677 493 98.0568 1225.15 478.103
460 0 48.1169 12.1371 584 96.2945 1223.35 477.82
461 0 48.2228 11.8201 570 98.2228 1223.16 473.546
462 0 48.3035 11.5313 557 96.2855 1221.11 474.912
463 0 50.2894 11.7918 593 98.2782 1217.63 472.43
464 0 51.153 12.922 661 97.528 1213.41 466.829
465 0 51.153 12.8438 657 153.95 1212.45 467.008
466 0 57.0985 13.6781 781 93.7759 1205.66 469.424
467 0 58.0772 14.1536 822 92.9866 1204.66 466.147
468 0 60.1109 13.1756 792 96.0265 1203.46 466.152
469 0 60.1395 14.4165 867 93.4556 1202.52 461.577
470 0 63.1026 14.6904 927 94.1629 1202.37 456.327
471 0 65.0361 13.0389 848 96.1002 1204.17 457.972
472 0 68.0458 13.3587 909 96.0946 1204.27 456.004
473 0 70.1954 14.7445 1035 91.9749 1205.2 454.429
474 0 73.1116 13.9102 1017 94.766 1207.81 450.321
475 0 75.0667 12.8153 962 96.5437 1210.12 446.643
476 1 41.0306 11.723 481 95.8898 1211.15 464.933
477 0 44.0405 11.1942 493 95.7769 1213.81 464.41
478 0 42.0816 10.5034 442 98.5226 1215.27 464.498
479 0 45.0325 11.0365 497 98.7726 1217.01 464.517
480 0 45.0315 11.7251 528 96.8826 1218 464.581
481 0 47.135 12.6021 594 99.1448 1220.25 465.219
482 0 48.115 12.5117 602 100.646 1221.72 464.791
483 0 52.5803 14.2829 751 95.3795 1225.13 463.241
484 0 53.6298 15.3646 824 90.182 1228.03 457.221
485 0 52.5214 14.7559 775 97.7058 1227.75 460.632
486 0 55.1061 16.2595 896 94.9286 1226.06 462.108
487 0 54.0461 15.4313 834 98.2758 1225.21 463.669
488 0 57.1149 15.1974 868 98.2604 1227.1 464.658
489 0 58.0466 13.9888 812 101.764 1227.16 466.626
490 0 62.0188 15.0761 935 98.369 1227.41 466.291
491 0 64.0629 16.7023 1070 94.1439 1226.85 466.328
492 0 64.0958 15.6485 1003 98.012 1225.47 464.862
493 0 66.0509 14.9884 990 99.7273 1223.62 466.495
494 0 69.0707 16.5627 1144 96.8881 1222.62 464.65
495 0 71.1501 16.0646 1143 98.1085 1219.73 462.324
496 0 74.0837 16.2114 1201 98.0325 1217.32 459.386
497 0 74.0819 14.214 1053 100.67 1214.48 459.227
498 0 75.2198 14.9695 1126 100.44 1211.59 457.385
499 0 78.3347 14.5019 1136 101.112 1211.18 456.813
500 0 83.098 15.5238 1290 99.9589 1208.31 452.287
501 0 83.098 15.5479 1292 155.055 1205.31 452.261
502 1 44.1505 10.9399 483 106.282 1206.19 468.928
503 0 47.1666 12.3604 583 104.372 1205.12 464.067
504 0 48.0278 14.1377 679 101.501 1205.12 460.797
505 0 49.0263 13.3806 656 103.948 1207.56 460.688
506 0 52.0336 14.1447 736 103.394 1207.86 460.986
507 0 54.0596 15.4089 833 99.8776 1209.17 457.879
508 0 55.1196 15.7113 866 98.2113 1210.78 455.521
509 0 59.0473 14.0057 827 100.243 1213.38 455.984
510 0 59.0186 13.9617 824 102.654 1216.8 454.291
511 0 64.1146 15.987 1025 96.3141 1218.27 454.809
512 0 64.0488 15.0666 965 99.6166 1219.24 454.763
513 0 67.1417 15.7726 1059 96.7564 1221.1 455.115
514 0 70.1161 15.2604 1070 99.6673 1222.74 454.146
515 0 75.1281 16.199 1217 95.9252 1223.89 454.136
516 0 74.0261 16.8319 1246 97.443 1225.87 451.035
517 0 77.1698 14.7985 1142 100.738 1226.31 452.697
518 0 79.3147 16.1887 1284 98.4065 1226.96 453.086
519 1 42.0451 11.559 486 104.805 1229.31 473.626
520 0 45.0772 12.2013 550 105.018 1228.37 470.551
521 0 47.2445 12.8057 605 103.516 1228.85 471.436
522 0 47.1011 13.333 628 101.831 1229.42 475.123
523 0 49.1047 13.3999 658 103.95 1229.88 472.59
524 0 49.0899 14.3614 705 101.84 1228.31 472.399
525 0 53.2805 15.7469 839 99.1931 1228.19 471.364
526 0 55.3122 16.5244 914 93.9486 1227.91 468.882
527 0 55.2908 15.1382 837 102.441 1226.73 470.694
528 0 58.2097 15.3067 891 102.097 1223.2 468.165
529 0 60.2625 15.6648 944 101.171 1221.12 467.594
530 0 62.2595 15.0178 935 102.253 1217.63 464.998
531 0 63.3862 16.0445 1017 100.757 1214.53 463.678
532 0 66.3923 15.7097 1043 101.222 1211.47 464.059
533 0 67.4358 15.7928 1065 101.852 1208.96 458.511
534 0 71.4541 15.6184 1116 102.407 1207.77 453.446
535 0 73.5185 15.6151 1148 102.297 1207.6 452.118
536 0 76.8499 14.4568 1111 103.086 1206.95 448.798
537 1 38.4913 11.2753 434 98.3502 1207.65 468.783
538 0 39.5749 11.0171 436 102.931 1208.12 461.624
539 0 39.5528 11.1749 442 104.106 1207.84 460.301
540 0 43.7462 13.0526 571 99.7163 1210.34 457.448
541 0 45.4738 12.4907 568 100.475 1210.93 457.359
542 0 46.6602 14.3163 668 95.5419 1212.88 456.111
543 0 48.6684 14.6502 713 94.0337 1215.22 456.297
544 0 48.1754 13.0149 627 97.0159 1217.71 460.77
545 0 51.0954 15.3047 782 91.9412 1217.55 458.797
546 0 52.295 14.2652 746 93.7534 1219.92 458.45
547 0 55.1002 15.5898 859 91.1048 1221.75 457.51
548 0 57.2514 15.1612 868 90.4067 1222.78 458.818
549 0 59.0963 14.5356 859 90.7043 1224.91 461.536
550 0 60.41 15.5272 938 89.3454 1226.95 459.675
551 0 60.3101 13.4472 811 93.7263 1227.15 459.189
552 0 63.3068 14.0585 890 92.5258 1228.19 460.424
553 0 63.1999 14.1139 892 91.8744 1228.55 461.707
554 0 66.269 14.2902 947 90.2788 1229.18 464.384
555 0 67.2079 15.9803 1074 89.3892 1229.33 462.475
556 0 70.1501 14.9251 1047 90.9876 1230.92 463.662
557 0 71.2739 14.0163 999 93.4515 1229.41 462.984
558 0 74.1116 15.3147 1135 91.1286 1228.68 462.818
559 0 78.2847 15.4053 1206 91.2231 1226.94 460.266
560 0 81.3235 14.4239 1173 93.9395 1226.55 462.002
561 0 83.3907 15.6252 1303 92.8127 1224.9 458.553
562 1 45.2615 12.9249 585 95.7282 1221.94 477.632
563 0 46.1776 11.9755 553 100.237 1218.88 474.174
564 0 48.2306 12.461 601 98.015 1215.16 471.797
565 0 50.3738 12.5462 632 99.4256 1212.98 468.563
566 0 52.2164 13.5398 707 97.2532 1210.09 468.973
567 0 54.182 13.2332 717 96.9554 1207.54 466.907
568 0 54.2568 14.2471 773 97.1488 1206.4 463.507
569 0 56.0827 14.0328 787 98.3863 1205.91 459.39
570 0 59.1205 15.4769 915 95.2306 1205.52 457.723
571 0 61.2549 14.6927 900 96.0756 1206.73 458.459
572 0 63.1964 15.0167 949 96.3572 1208.2 455.144
573 0 67.2177 16.692 1122 92.992 1208.57 453.379
574 0 69.2993 16.537 1146 95.2443 1211.22 451.539
575 0 71.2313 14.6986 1047 104.63 1213.55 447.805
576 0 74.1126 14.6939 1089 104.265 1215.26 447.115
577 0 78.3143 15.3739 1204 102.926 1217.89 445.386
578 0 80.4474 16.3461 1315 101.865 1218.69 446.123
579 0 81.3105 16.0619 1306 104.13 1220.86 445.763
580 1 42.1735 10.5042 443 105.682 1221.6 465.594
581 0 44.2379 11.0765 490 104.422 1223.27 466.008
582 0 44.0945 11.6114 512 104.639 1224.21 468.781
583 0 46.336 11.7187 543 104.906 1225.66 467.551
584 0 48.3165 12.5216 605 104.542 1227.64 465.793
585 0 49.0481 13.8639 680 99.45 1227 467.178
586 0 49.2545 12.7907 630 100.819 1228.3 468.552
587 0 50.3046 14.1538 712 98.2584 1228.63 467.921
588 0 52.2549 13.7212 717 99.7727 1229.05 466.771
589 0 55.2756 13.2427 732 100.025 1228.99 469.096
590 0 56.3005 14.2095 800 97.5438 1229.72 469.029
591 0 56.1833 13.5806 763 98.6815 1228.92 465.227
592 0 61.2682 15.6688 960 92.3698 1228.35 469.906
593 0 61.2784 12.9083 791 98.866 1228.11 469.016
594 0 64.3193 15.1276 973 94.1881 1226.34 470.38
595 0 65.2231 13.9521 910 97.289 1224.57 465.307
596 0 66.365 12.9737 861 97.8444 1221.51 463.666
597 0 69.2544 14.2518 987 93.8217 1218.68 459.963
598 0 71.6107 13.0707 936 97.0107 1215.02 460.978
599 0 72.2431 13.3438 964 97.639 1212.65 457.163
600 0 77.6952 13.8747 1078 95.3822 1210.95 453.968
601 0 79.3425 14.1538 1123 94.9973 1209.6 452.958
602 0 81.3357 14.3479 1167 95.7266 1207.52 448.901
603 1 45.3316 10.5004 476 95.542 1206.86 468.256
604 0 44.3085 9.9078 439 151.159 1205.72 467.658
605 0 51.383 10.7039 550 95.5545 1207.62 462.222
606 0 49.4711 9.52072 471 99.4586 1208.46 457.786
607 0 50.4091 9.87918 498 142.227 1208.49 457.209
608 0 55.8066 12.5075 698 92.5917 1211.89 451.239
609 0 57.1721 12.0688 690 94.1928 1213.14 454.542
610 0 60.185 14.0567 846 90.5118 1215.52 453.959
611 0 62.2845 14.1448 881 89.8263 1217.03 453.73
612 0 62.128 13.5688 843 92.2005 1217.81 453.692
613 0 64.3534 13.084 842 92.9062 1218.97 456.12
614 0 68.3796 15.3262 1048 88.5897 1222.47 453.378
615 0 69.3069 15.2366 1056 87.6695 1222.94 450.979
616 0 72.2785 14.5548 1052 87.4021 1225.33 453.339
617 0 75.5743 14.6081 1104 86.2708 1226.63 454.814
618 0 76.4586 15.0539 1151 87.6672 1227.65 451.105
619 0 78.6354 14.9424 1175 87.9549 1228.86 453.33
620 0 82.7323 16.1364 1335 90.8914 1229.65 451.996
621 0 84.7307 17.4553 1479 85.8898 1229.35 452.469
622 0 86.1018 13.0892 1127 93.323 1230.82 446.159
623 1 48.5914 10.9896 534 87.6348 1231.88 468.891
624 0 50.5307 11.775 595 88.005 1231.07 467.329
625 0 50.4865 10.9534 553 87.3092 1231.1 469.687
626 0 53.5435 13.7832 738 83.7886 1230.11 468.787
627 0 54.39 11.8036 642 87.6604 1228.35 464.815
628 0 58.3105 13.8225 806 85.2965 1226.37 466.146
629 0 59.2345 15.7341 932 82.4592 1223.14 471.511
630 0 60.2559 13.4261 809 86.6156 1220.45 470.297
631 0 61.4152 13.0098 799 87.9549 1217.21 466.511
632 0 62.345 13.6499 851 87.5734 1215.45 465.353
633 0 66.3045 15.836 1050 84.3733 1212.12 463.605
634 0 69.4142 15.8613 1101 84.7103 1209.66 460.847
635 0 69.373 14.1986 985 89.4508 1208.35 459.088
636 0 69.506 13.1787 916 92.3777 1208.78 456.133
637 0 76.4731 16.934 1295 83.6564 1207.38 452.64
638 0 78.4127 14.5385 1140 87.8816 1206.32 448.787
639 0 80.4974 14.6589 1180 87.8542 1207.28 448.894
640 0 82.3321 13.1905 1086 91.7357 1208.33 444.723
641 0 86.6077 15.3451 1329 88.4597 1210.47 440.757
642 0 90.4388 14.297 1293 90.1624 1212.48 442.234
643 1 49.2404 12.043 593 91.4722 1214.24 458.278
644 0 50.1756 10.9416 549 92.8033 1215.17 458.27
645 0 50.3029 11.9675 602 92.0764 1218.65 458.096
646 0 52.1332 13.1202 684 88.307 1217.46 456.681
647 0 55.3522 13.947 772 86.649 1221.15 454.509
648 0 55.277 14.2012 785 87.3822 1220.95 452.851
649 0 57.047 14.9175 851 88.1246 1222.22 460.012
650 0 58.1012 15.6623 910 88.2308 1224.26 456.036
651 0 61.11 14.9075 911 88.6125 1225.13 458.018
652 0 63.1422 14.7128 929 89.8385 1226.04 458.913
653 0 66.0826 15.1326 1000 89.172 1227.44 458.658
654 0 64.1264 13.3798 858 94.6807 1227.47 460.298
655 0 69.181 14.9752 1036 90.6747 1228.79 461.341
656 0 70.1416 15.3832 1079 91.1724 1228.62 456.999
657 0 72.2152 14.9553 1080 92.3481 1228.3 460.717
658 0 76.3544 15.1006 1153 91.4822 1228.45 458.781
659 0 77.2187 15.5532 1201 92.0899 1227.71 457.424
660 0 80.1426 15.5598 1247 93.0962 1226.76 458.52
661 0 83.1998 15.8895 1322 92.8979 1224.57 459.402
662 0 88.2184 17.0826 1507 90.3829 1222.68 459.072
663 0 88.2442 15.7631 1391 95.0352 1220.29 453.28
664 0 91.2317 15.2907 1395 94.6889 1217.53 452.262
665 0 93.3454 15.0516 1405 96.1502 1214.27 448.399
666 1 52.1523 10.8528 566 102.339 1212.25 469.571
667 0 52.1963 11.8974 621 101.572 1210.15 467.308
668 0 56.2633 12.9214 727 99.5543 1208.12 464.605
669 0 58.2847 14.6007 851 97.7109 1206.29 462.98
670 0 60.599 14.3897 872 98.6502 1207.8 455.672
671 0 60.3506 15.3934 929 98.535 1208.17 455.565
672 0 63.3711 14.9122 945 98.782 1208.29 452.917
673 0 65.4365 14.8847 974 101.183 1209.21 450.61
674 0 68.4633 14.4165 987 101.562 1210.61 446.167
675 0 68.3652 13.7058 937 104.424 1212.57 446.991
676 0 72.3602 14.87 1076 102.379 1215.18 445.546
677 0 76.3672 13.9851 1068 101.896 1217.26 442.423
678 1 38.0338 7.65109 291 105.464 1220.7 460.715
679 0 43.0324 11.1079 478 100.778 1221.86 457.759
680 0 45.0566 11.6964 527 98.3985 1222.85 458.918
681 0 45.0169 11.5068 518 99.7317 1224.3 458.693
682 0 45.0854 10.4469 471 101.798 1226.63 461.614
683 0 48.1018 12.7854 615 94.7398 1228.69 460.302
684 0 49.0764 13.1224 644 91.7702 1229.85 461.989
685 0 51.1854 13.1092 671 96.6632 1230.92 459.721
686 0 51.0498 12.576 642 98.8474 1231.36 463.1
687 0 54.0364 14.5458 786 93.5496 1232.11 464.099
688 0 54.146 13.8699 751 95.7337 1231.83 461.83
689 0 55.0696 14.2728 786 95.2621 1232.2 461.137
690 0 58.1353 14.1566 823 93.1689 1232.76 465.348
691 0 57.0267 14.6423 835 94.776 1233.17 461.418
692 0 59.0858 14.0981 833 95.4322 1232.31 463.418
693 0 62.1019 15.6356 971 91.2812 1232.11 464.487
694 0 63.2726 15.2673 966 91.7888 1231.1 464.188
695 0 66.0887 14.5259 960 92.9573 1229.26 461.629
696 0 64.0725 13.8281 886 97.0677 1227.36 460.717
697 0 69.1092 14.4264 997 93.5015 1224.66 458.155
698 0 70.2513 13.167 925 96.9741 1221.52 458.171
699 0 74.3774 14.3995 1071 93.8123 1219.08 456.598
700 0 75.3682 14.3827 1084 95.3275 1216.66 451.166
701 0 78.4197 14.6009 1145 93.7354 1214.07 448.619
702 0 82.3172 14.6749 1208 93.1118 1212.18 446.807
703 1 42.316 11.3905 482 95.9502 1210.29 463.288
704 0 44.3365 9.9241 440 98.0159 1209.23 459.666
705 0 44.3468 9.85415 437 147.952 1208.25 459.616
706 0 46.2096 12.162 562 92.5552 1209.42 459.085
707 0 47.1865 11.889 561 97.5455 1212.3 458.515
708 0 49.0722 13.9794 686 94.5437 1214.46 455.931
709 0 49.0722 13.8979 682 144.647 1215.48 455.896
710 0 53.0515 13.0062 690 91.9928 1219.64 453.797
711 0 54.1225 14.1346 765 90.2118 1221.27 452.046
712 0 58.1319 14.3811 836 88.0837 1222.68 452.291
713 0 60.1152 14.6552 881 87.7412 1223.69 449.578
714 0 61.2689 13.9059 852 89.4636 1225.47 452.668
715 0 62.1203 13.49 838 90.395 1226.29 451.568
716 0 65.1764 14.1002 919 89.6964 1228.25 447.458
717 0 68.1619 14.6709 1000 88.515 1231.22 448.902
718 0 71.134 16.6025 1181 84.0559 1231.68 449.966
719 0 71.1103 13.5986 967 90.0445 1232.53 452.073
720 1 41.0123 10.6066 435 92.4414 1235.08 470.037
721 0 41.0261 11.1636 458 93.7424 1234.69 468.007
722 0 40.0844 9.47999 380 96.9947 1234.75 469.805
723 0 41.0292 11.5771 475 94.0568 1235.3 466.531
724 0 45.0563 11.4967 518 90.8958 1234.65 469.253
725 0 46.0761 11.8282 545 91.3853 1235.04 469.62
726 0 45.1256 11.8336 534 91.5955 1235.01 472.901
727 0 49.0383 12.1538 596 88.7752 1234.15 471.403
728 0 51.0367 13.4217 685 89.1752 1232.32 467.988
729 0 51.0331 12.7172 649 91.0894 1230.33 470.562
730 0 54.0316 13.7142 741 88.2942 1229.17 469.46
731 0 53.1287 12.3285 655 91.8244 1226.01 468.191
732 0 56.1889 14.825 833 87.6026 1222.43 465.351
733 0 58.0461 12.559 729 92.4266 1220.13 463.287
734 0 60.0981 14.8258 891 87.8979 1216.92 461.448
735 0 62.0331 14.1054 875 88.4914 1215.4 462.966
736 0 65.0371 15.7602 1025 86.7151 1213.69 455.256
737 0 65.1449 14.7824 963 87.8702 1212.93 456.135
738 0 68.034 13.8019 939 90.1778 1211.81 450.605
739 0 70.0995 14.7077 1031 89.2755 1212.01 447.603
740 0 72.0393 14.381 1036 90.5907 1212.53 446.493
741 0 74.0691 14.203 1052 92.2205 1213.63 444.689
742 1 39.0406 10.5019 410 90.9073 1215.99 461.72
743 0 41.1388 11.3032 465 86.5656 1218.8 462.983
744 0 42.0173 11.2097 471 89.811 1219.01 461.268
745 0 43.0249 11.4817 494 89.9393 1220.73 460.32
746 0 45.0537 10.7871 486 91.8025 1223.08 458.963
747 0 46.0302 12.8177 590 88.3797 1224.04 459.692
748 0 49.0252 12.2386 600 89.0983 1226.11 455.638
749 0 51.1492 14.1742 725 89.3793 1228.05 459.087
750 0 49.0411 11.9492 586 95.9044 1229.64 458.945
751 0 51.0513 12.2622 626 94.9377 1231.42 458.682
752 0 55.021 14.0855 775 90.4735 1232.43 460.383
753 0 55.0876 12.7252 701 95.3666 1232.14 457.033
754 0 57.0667 14.7021 839 92.2741 1233.43 461.574
755 0 58.024 13.9425 809 93.5896 1234.27 463.773
756 0 58.0407 12.7841 742 98.2291 1234.88 461.349
757 0 60.0505 13.805 829 96.4077 1234.13 460.932
758 0 63.066 13.1291 828 97.9952 1233.21 459.808
759 0 64.0437 14.4433 925 95.6584 1233.33 461.28
760 0 64.0676 13.8916 890 98.5528 1233.62 461.946
761 0 68.0764 14.2487 970 97.2598 1231.3 460.356
762 1 34.0094 10.1442 345 104.362 1232.21 473.629
763 0 54.6653 6.49406 355 96.1465 1231.14 479.2
764 0 40.0123 10.5218 421 98.4181 1227.92 477.409
765 0 40.0157 12.0952 484 99.2686 1225.68 477.448
766 0 42.0349 10.5389 443 99.4289 1223.27 478.068
767 0 45.0215 11.3057 509 101.2 1220.13 472.792
768 0 44.0402 11.1716 492 99.9756 1217.72 469.376
769 0 46.2503 14.3567 664 91.8614 1212.53 469.726
770 0 46.0711 14.1737 653 93.8438 1208.19 462.42
771 0 48.0204 13.8691 666 94.9625 1208.2 467.62
772 0 49.0334 15.52 761 93.0552 1208.18 462.087
773 0 50.0573 14.5833 730 95.0329 1208.22 460.988
774 0 53.0452 14.1766 752 95.1769 1208.57 462.191
775 0 54.0301 15.2137 822 93.9757 1210.17 458.731
776 0 55.0502 15.1498 834 93.9281 1211.47 460.251
777 0 57.049 14.6891 838 94.3687 1212.74 456.413
778 0 58.0889 15.7517 915 91.659 1214.26 456.679
779 0 59.1336 15.8117 935 94.3529 1218.36 454.634
780 0 61.051 15.3151 935 96.0866 1219.67 451.988
781 0 63.0738 14.491 914 96.442 1221.28 454.038
782 0 66.0982 17.4135 1151 90.338 1221.87 452.416
783 0 66.0449 15.8983 1050 95.7552 1224.47 450.726
784 0 67.067 14.3289 961 100.023 1225.26 452.314
785 0 72.0961 16.2422 1171 95.345 1226.18 453.306
786 0 73.049 15.9756 1167 97.6769 1227.35 449.674
787 0 76.1241 17.2481 1313 95.8081 1227.45 451.281
788 1 38.0606 11.0613 421 105.2 1229.36 469.613
789 0 43.042 12.3136 530 100.977 1229.98 470.17
790 0 43.0262 13.3175 573 103.117 1230.33 471.675
791 0 44.0465 11.6922 515 106.019 1231.02 472.266
792 0 45.0166 13.284 598 101.995 1229.57 474.599
793 0 47.0687 14.6594 690 100.019 1230.84 473.571
794 0 47.1004 14.1188 665 102.444 1229.2 470.311
795 0 48.0773 13.8111 664 103.307 1227.8 470.318
796 0 49.0633 14.4303 708 100.107 1226.71 470.694
797 0 53.0642 16.5271 877 96.2873 1225.03 471.596
798 0 52.0402 15.3151 797 101.906 1224.33 469.437
799 0 54.1127 17.0755 924 98.3312 1222.26 468.723
800 0 54.0494 15.5783 842 102.216 1217.21 466.026
801 0 57.0305 15.8687 905 100.393 1214.19 467.071
802 0 59.0267 16.1114 951 100.793 1213.13 466.252
803 0 60.0492 16.653 1000 101.692 1210.64 460.534
804 0 64.0336 17.1316 1097 100.475 1209.6 458.894
805 0 64.0498 15.5816 998 106.218 1208.73 456.989
806 0 67.0686 17.251 1157 103.67 1207.66 454.154
807 0 70.0435 17.7318 1242 102.137 1207.73 453.41
808 0 72.1567 17.1987 1241 105.486 1208.82 450.682
809 0 74.0322 17.3303 1283 107.491 1210.24 447.223
810 0 76.0837 17.5333 1334 107.92 1211.21 447.434
811 0 79.1244 17.0365 1348 110.752 1213.52 443.591
812 0 80.1734 16.7637 1344 113.927 1215.43 442.577
813 0 84.2554 17.0078 1433 113.874 1217.57 439.307
814 0 89.4545 17.0142 1522 112.695 1220.3 436.145
815 1 44.3101 13.1121 581 120.907 1222.62 454.632
816 0 47.3142 12.0471 570 120.142 1223.71 451.618
817 0 48.4056 13.8207 669 115.719 1225.37 456.345
818 0 50.4902 13.9433 704 114.168 1227.14 456.983
819 0 50.4984 13.8618 700 162.717 1228.16 456.984
820 0 55.3038 15.659 866 105.469 1229.42 449.592
821 0 57.2327 15.6903 898 104.589 1230.31 454.947
822 0 60.2233 15.4425 930 102.509 1230.36 451.587
823 0 60.336 14.6513 884 105.963 1231.45 454.141
824 0 61.4056 15.2755 938 104.714 1230.99 454.086
825 0 63.1972 15.9975 1011 103.394 1232.09 454.506
826 0 66.207 15.5271 1028 104.204 1231.7 455.142
827 0 67.2435 16.2098 1090 103.072 1231.19 451.15
828 0 69.275 16.2974 1129 103.177 1230.07 456.29
829 0 70.2277 15.6633 1100 105.974 1229.41 456.224
830 0 72.1265 15.7917 1139 105.831 1227.26 456.65
831 0 74.0911 15.4 1141 108.449 1224.95 454.716
832 0 75.1698 14.5005 1090 111.518 1223.03 456.378
833 0 80.2065 15.9588 1280 108.155 1220.22 452.91
834 0 79.1547 15.855 1255 110.785 1218.31 450.78
835 0 83.1817 16.0973 1339 110.213 1214.63 449.334
836 0 88.208 17.2207 1519 108.677 1212.28 445.03
837 0 88.208 17.334 1529 153.844 1208.29 445.057
838 1 47.0961 12.7824 602 114.319 1207.48 462.467
839 0 50.0328 12.6317 632 115.783 1208.59 463.608
840 0 52.2936 13.4051 701 111.836 1207.32 456.244
841 0 53.2346 14.6897 782 110.682 1207.77 454.304
842 0 54.0825 14.1635 766 110.919 1208.05 454.111
843 0 56.0883 15.012 842 108.286 1211.34 451.923
844 0 59.1315 14.713 870 107.341 1212.6 451.675
845 0 62.1145 13.9259 865 108.807 1214.99 452.601
846 0 64.0433 15.7862 1011 104.381 1216.72 448.664
847 0 67.1982 15.3278 1030 103.658 1218.42 446.464
848 0 72.0674 16.3736 1180 101.408 1220.14 448.701
849 0 72.1366 14.6528 1057 107.188 1221.16 445.645
850 0 77.2377 16.0802 1242 102.489 1224.64 447.399
851 0 77.1565 15.7472 1215 105.998 1225.24 446.891
852 0 81.2216 16.3626 1329 105.12 1226.21 444.783
853 1 44.1697 12.2256 540 109.839 1230.07 461.935
854 0 43.1756 11.5343 498 112.422 1229.54 465.755
855 0 45.1952 13.2757 600 105.837 1229.29 469.272
856 0 45.2207 12.2732 555 110.706 1230.35 467.405
857 0 45.199 12.4781 564 109.232 1230.41 467.275
858 0 49.1967 13.6594 672 106.896 1231.17 466.876
859 0 52.2135 15.4558 807 100.243 1230.41 468.364
860 0 51.0563 14.5722 744 102.91 1228.77 463.816
861 0 51.1195 13.8303 707 104.465 1230.21 469.686
862 0 54.02 14.6427 791 102.335 1228.26 464.713
863 0 55.0575 14.9298 822 101.291 1227.51 465.17
864 0 54.0706 13.6488 738 104.984 1225.64 466.474
865 0 58.0766 14.2398 827 103.473 1223.28 464.27
866 0 61.0895 14.4706 884 103.416 1220.2 460.942
867 0 63.1461 14.6802 927 101.25 1218.71 462.136
868 0 66.1357 15.6194 1033 99.4269 1216.65 460.455
869 0 67.3649 13.8945 936 103.683 1214.32 457.332
870 0 69.1497 14.8952 1030 102.991 1211.51 452.892
871 0 73.1738 15.9757 1169 101.185 1209.07 451.284
872 0 74.2869 16.0863 1195 104.418 1209.61 447.573
873 0 77.3731 14.0617 1088 107.551 1208.69 447.915
874 0 79.3165 12.9986 1031 110.46 1209.03 443.51
875 0 84.2856 16.1237 1359 102.136 1210 441.937
876 0 87.3341 15.3777 1343 103.766 1210.97 439.447
877 0 89.2338 16.227 1448 102.896 1212.22 436.573
878 1 47.0516 10.4353 491 106.538 1212.77 458.619
879 0 47.0666 9.26347 436 107.388 1214.78 457.222
880 0 50.0168 11.3562 568 103.361 1217.61 458.5
881 0 50.0577 10.408 521 105.182 1219.89 455.269
882 0 53.069 12.5309 665 97.1233 1220.85 455.798
883 0 57.1785 13.7115 784 93.037 1225.72 456.724
884 0 58.0644 14.7595 857 92.5893 1224.74 455.966
885 0 60.1133 15.4209 927 92.9364 1225.36 454.005
886 0 61.0922 14.6827 897 96.7057 1226.16 454.047
887 0 65.0217 15.6409 1017 93.295 1227.89 457.152
888 0 64.0959 14.4939 929 98.2917 1228.96 455.147
889 0 65.0677 13.3861 871 101.171 1229.53 456.735
890 0 69.0476 15.4531 1067 96.9897 1230.44 456.791
891 0 70.0703 14.8137 1038 99.3911 1230.69 454.775
892 0 73.1109 16.5092 1207 95.1964 1231.55 455.538
893 0 75.1783 15.563 1170 98.1581 1230.99 458.436
894 0 75.3944 14.444 1089 101.168 1230.68 453.693
895 1 38.0042 10.1305 385 103.179 1232.59 478.119
896 0 42.0562 10.1055 425 100.574 1230.81 477.186
897 0 43.0877 12.9503 558 95.6147 1229.6 476.683
898 0 42.0531 10.3678 436 103.22 1227.98 473.424
899 0 42.0484 10.6544 448 101.804 1224.97 474.112
900 0 46.035 13.0118 599 96.1536 1221.28 471.98
901 0 46.2718 13.7016 634 95.8344 1219.65 465.167
902 0 47.0734 15.4227 726 93.4697 1216.6 465.54
903 0 48.1087 15.1324 728 94.658 1214.13 464.99
904 0 49.1891 13.377 658 98.5669 1213 463.16
905 0 51.0111 14.8987 760 94.0895 1212.55 460.661
906 0 52.15 14.8418 774 92.0943 1210.07 464.177
907 0 52.15 14.8226 773 140.781 1207.06 464.175
908 0 59.1234 16.2372 960 88.1938 1211.67 458.75
909 0 59.1115 15.6315 924 90.2814 1212.39 456.383
910 0 59.0996 15.0763 891 91.3771 1214.06 455.649
911 0 63.2961 15.388 974 89.3799 1215.15 451.007
912 0 63.1909 13.9577 882 94.2438 1216.6 452.295
913 0 69.2967 16.0902 1115 87.843 1219.09 449.232
914 0 70.2116 14.613 1026 91.5283 1221.27 449.579
915 0 75.204 16.555 1245 86.9606 1223.12 450.619
916 1 39.125 11.246 440 97.3795 1224.84 463.434
917 0 41.0671 12.5648 516 92.8798 1227.04 463.424
918 0 43.0226 12.8305 552 92.1685 1228.54 464.245
919 0 42.0754 13.1668 554 91.4278 1227.79 463.222
920 0 44.0615 13.4358 592 89.2568 1226.61 465.008
921 0 48.0233 15.2218 731 85.5212 1229.62 466.416
922 0 48.0558 13.2138 635 94.7213 1229.34 466.509
923 0 50.0572 13.9241 697 92.6471 1228.65 466.532
924 0 51.1378 15.644 800 89.0863 1231 467.698
925 0 51.3429 14.296 734 93.5272 1230.91 466.356
926 0 55.1353 15.5617 858 89.2075 1229.91 469.894
927 0 57.0772 13.946 796 91.2965 1229.28 469.06
928 0 56.0543 15.7347 882 90.0975 1229.15 466.085
929 0 58.0868 16.3204 948 88.6941 1227.87 469.4
930 0 59.0406 14.1767 837 93.0514 1227.41 468.656
931 0 63.0863 15.9147 1004 88.9313 1225.72 465.462
932 0 65.1582 16.8206 1096 86.8358 1222.68 464.818
933 0 66.2101 15.7378 1042 90.6324 1221.88 464.072
934 0 66.085 15.3287 1013 92.9931 1218.48 462.184
935 0 70.196 16.34 1147 91.8056 1217.2 459.987
936 0 69.2554 14.5404 1007 97.4171 1214.26 458.302
937 0 74.1643 16.3826 1215 94.0033 1212.13 455.5
938 0 76.2291 15.7551 1201 95.8993 1210.57 454.219
939 0 77.1506 16.4613 1270 95.7811 1209.7 451.448
940 0 79.2359 15.8766 1258 98.7067 1209.26 448.556
941 0 84.3726 15.3723 1297 100.169 1209.61 443.618
942 0 87.2303 16.4278 1433 99.3098 1209.75 435.44
943 0 91.2218 17.726 1617 96.8021 1210.87 440.888
944 0 93.1362 17.3509 1616 98.2395 1213.37 436.564
945 0 97.1509 16.8192 1634 97.5526 1214.58 437.124
946 1 48.278 12.4487 601 98.1231 1216.23 463.328
947 0 47.118 11.312 533 102.024 1218.5 462.754
948 0 46.1744 11.8031 545 101.07 1220.89 462.809
949 0 47.2433 12.5732 594 100.961 1222.22 458.505
950 0 53.1883 15.4169 820 94.1537 1223 459.138
951 0 53.0788 14.4502 767 97.7992 1224.82 459.54
952 0 56.0608 13.6459 765 99.5007 1225.84 459.486
953 0 60.1685 14.1935 854 96.904 1227.42 460.752
954 0 59.148 14.1509 837 97.5878 1229.03 458.683
955 0 61.1415 15.734 962 92.8191 1229.64 456.903
956 0 62.2039 13.7773 857 96.119 1230.42 458.959
957 0 64.1683 15.2567 979 93.9132 1230.93 456.75
958 0 66.1314 15.3331 1014 93.1519 1230.79 457.32
959 0 68.1868 14.7682 1007 94.5492 1231.08 458.867
960 0 70.1523 15.11 1060 93.8849 1230.32 458.779
961 0 71.2181 14.94 1064 94.3524 1230 454.789
962 0 75.1795 16.2544 1222 91.1015 1228.44 461.603
963 0 75.2754 14.9584 1126 93.4751 1226.92 460.44
964 0 77.0787 15.6074 1203 93.9036 1224.99 450.984
965 0 79.1119 14.865 1176 95.7109 1222.41 457.411
966 0 84.3906 17.0517 1439 90.9249 1219.79 454.11
967 0 86.2938 17.0348 1470 90.8265 1217.68 454.145
968 0 87.3732 16.5497 1446 93.8479 1214.1 449.389
969 0 87.4359 16.7323 1463 95.4901 1212.53 447.718
970 0 90.2792 16.7702 1514 96.6896 1211.32 445.928
971 0 93.3005 17.2346 1608 96.6536 1208.96 440.859
972 0 94.3609 16.882 1593 100.9 1207.75 437.771
973 0 98.4532 16.5358 1628 100.846 1205.77 429.883
974 0 99.4863 18.3141 1822 99.3858 1208.03 433.188
975 0 99.4395 16.3114 1622 105.821 1209.27 431.655
976 0 101.522 16.4595 1671 104.912 1210.31 432.825
977 0 103.617 16.8988 1751 103.955 1212.39 429.349
978 0 105.421 16.3724 1726 104.405 1212.9 427.592
979 0 108.44 18.2497 1979 100.579 1215.56 423.09
980 0 107.437 15.8232 1700 106.648 1217.76 427.435
981 0 110.647 16.503 1826 106.067 1219.88 423.278
982 0 113.51 16.8267 1910 104.987 1221.55 426.802
983 0 114.713 17.0513 1956 105.67 1223.15 421.827
984 0 116.534 16.5359 1927 106.793 1225.15 426.756
985 0 118.631 16.7072 1982 105.917 1225.76 424.861
986 0 120.562 15.5522 1875 108.537 1227.89 426.057
987 0 121.504 16.8883 2052 106.358 1229.22 426.411
988 0 123.661 16.8444 2083 104.627 1230.49 430.514
989 0 122.569 17.7124 2171 102.153 1230.47 424.123
990 0 124.697 15.4775 1930 106.325 1231.75 428.915
991 0 126.565 15.9681 2021 104.536 1230.6 429.938
992 0 126.449 16.7103 2113 103.283 1229.8 430.421
993 0 128.585 17.0626 2194 102.482 1230.06 431.557
994 0 128.432 16.024 2058 104.917 1229.57 429.927
995 0 131.388 17.7718 2335 100.072 1228.24 428.655
996 0 131.451 15.9831 2101 104.877 1227.16 428.876
997 0 132.583 15.3036 2029 106.653 1224.91 428.16
998 0 135.488 18.3559 2487 99.3341 1221.58 430.222
999 0 136.535 16.7942 2293 103.962 1219.02 426.323
1000 0 137.483 16.6566 2290 105.406 1216.62 422.589
1001 0 138.462 16.6255 2302 105.245 1213.27 420.679
1002 0 138.408 15.5988 2159 107.934 1211.17 419.134
1003 0 140.457 16.9732 2384 104.348 1208.64 417.263
1004 0 141.519 17.6301 2495 102.914 1207.62 416.333
1005 0 143.722 16.678 2397 104.466 1208.61 411.68
1006 0 145.482 17.0124 2475 103.398 1206.94 412.968
1007 0 145.503 16.3295 2376 104.356 1208.64 409.561
1008 0 147.558 19.0298 2808 97.6781 1209.82 409.584
1009 0 149.449 17.511 2617 96.4731 1210.2 408.316
1010 0 150.417 15.6764 2358 100.181 1210.99 406.385
1011 0 151.476 16.3855 2482 98.4577 1213.19 407.971
1012 0 153.561 16.964 2605 97.4054 1215.63 405.102
1013 0 152.474 16.6914 2545 96.7014 1218.58 407.657
1014 0 154.325 17.6965 2731 94.4068 1220.34 406.849
