time division length width area intensity CMx CMy
0 0 30.056 11.8113 355 125.482 1321.03 502
1 0 30.0697 12.2382 368 123.69 1321.48 501.796
2 0 30.0376 12.5176 376 123.676 1321.33 501.386
3 0 30.075 13.0341 392 124.283 1321.54 499.745
4 0 31.0505 12.3026 382 125.641 1321.72 500.955
5 0 34.0252 12.814 436 121.541 1322.24 499.906
6 0 35.0152 12.9372 453 120.196 1321.94 500.446
7 0 32.0277 12.3643 396 126.283 1321.56 499.222
8 0 35.1009 12.4498 437 123.808 1321.92 499.707
9 0 35.0682 12.7751 448 124.275 1321.75 500.48
10 0 38.1071 13.5933 518 120.654 1321.41 499.201
11 0 38.0673 12.7406 485 121.773 1321.56 501.033
12 0 38.0898 12.4968 476 125.158 1320.83 498.863
13 0 40.0268 13.466 539 120.616 1319.96 499.703
14 0 41.1559 13.3152 548 120.064 1321.14 499.276
15 0 43.053 13.3556 575 119.77 1320.78 498.414
16 0 43.1016 13.2478 571 120.625 1320.32 498.879
17 0 44.1183 13.3278 588 119.529 1320.63 499.015
18 0 47.1198 14.3464 676 115.302 1320.57 497.916
19 0 49.093 13.1791 647 116.858 1320.12 497.83
20 0 50.1683 13.6341 684 115.52 1320.44 496.643
21 0 52.1045 14.7012 766 112.701 1320.37 494.991
22 0 53.2153 14.7702 786 112.374 1320.5 496.799
23 0 54.0604 13.8549 749 114.521 1320.15 496.479
24 0 56.1061 14.8112 831 116.268 1319.68 495.718
25 0 56.1026 13.1723 739 116.261 1319.62 495.313
26 0 61.0823 14.2431 870 112.334 1320.14 494.202
27 0 60.1105 14.3569 863 113.07 1320.1 492.911
28 0 63.1237 13.7349 867 114.115 1319.68 493.137
29 0 63.0609 13.8596 874 115.255 1319.86 490.363
30 0 66.0936 14.0709 930 113.706 1319.25 490.247
31 0 70.1084 15.6044 1094 110.625 1318.89 487.862
32 0 72.0815 14.8304 1069 111.92 1319.27 489.342
33 0 75.1356 14.201 1067 112.171 1319.05 487.029
34 0 76.0768 13.2892 1011 114.704 1318.96 487.435
35 0 81.0899 15.119 1226 108.78 1319.24 484.47
36 1 44.0312 13.1952 581 117.27 1319.32 502.633
37 0 45.0182 13.9499 628 112.522 1317.68 501.468
38 0 48.1882 13.2605 639 119.792 1317.59 500.133
39 0 48.184 14.1333 681 118.11 1317.34 498.846
40 0 50.1254 14.5435 729 119.063 1317.77 499.368
41 0 52.1584 14.4368 753 118.297 1317.57 499.017
42 0 54.1291 14.7425 798 117.169 1317.32 497.42
43 0 55.1549 14.8309 818 117.095 1317.76 496.235
44 0 57.1134 14.585 833 117.492 1317.99 496.161
45 0 56.1386 12.5938 707 112.952 1317.9 496.666
46 0 60.105 15.0237 903 106.711 1317.72 495.297
47 0 61.0541 13.9548 852 109.025 1318.52 493.784
48 0 65.0638 14.14 920 106.202 1318.59 494.143
49 0 66.088 13.6787 904 108.174 1318.12 494.106
50 0 69.1459 14.4188 997 107.318 1318.19 490.865
51 0 71.1347 14.4374 1027 107.553 1317.56 489.97
52 0 75.1778 15.2173 1144 104.987 1317.2 489.746
53 0 77.168 14.9803 1156 106.204 1317.51 487.682
54 0 79.1429 15.074 1193 106.617 1317.29 484.888
55 0 81.2582 13.7463 1117 108.682 1317.54 485.8
56 0 86.1682 14.0191 1208 108.763 1316.84 483.314
57 0 89.0978 14.9386 1331 105.933 1316.7 483.544
58 0 91.1374 15.1749 1383 109.287 1316.59 482.474
59 0 95.2572 15.4739 1474 109.424 1316.94 480.453
60 0 98.2206 16.127 1584 107.557 1317.1 480.184
61 0 103.163 15.3156 1580 110.066 1316.45 476.992
62 0 106.252 15.4161 1638 110.189 1316.26 474.725
63 0 108.217 14.1291 1529 110.739 1316.43 469.927
64 1 55.1861 12.775 705 107.956 1316.66 494.716
65 0 58.1171 13.0254 757 106.764 1316.81 494.497
66 0 58.0626 12.0732 701 109.882 1316.25 493.254
67 0 58.0626 12.0732 701 146.097 1315.23 493.362
68 0 64.2141 15.6041 1002 104.902 1316.66 494.963
69 0 65.0787 14.0292 913 108.313 1316.82 495.559
70 0 67.0426 13.7226 920 110.614 1316.12 492.979
71 0 71.1465 14.7442 1049 107.909 1316.5 492.183
72 0 75.2111 14.559 1095 107.867 1316.86 491.003
73 0 74.21 13.5561 1006 111.577 1316.8 491.464
74 0 78.2693 15.0506 1178 107.902 1317.2 489.878
75 0 81.0645 13.7421 1114 104.636 1316.83 486.951
76 0 84.0786 14.2724 1200 105.544 1316.99 486.172
77 0 86.1911 15.1292 1304 104.07 1317.17 484.429
78 0 87.152 12.9199 1126 108.876 1317.26 484.715
79 0 91.0816 13.7679 1254 107.694 1316.46 483.436
80 0 96.2054 14.2508 1371 106.404 1316.47 480.533
81 0 97.1437 13.7528 1336 107.877 1316.45 478.846
82 0 103.142 15.3769 1586 104.038 1316.77 476.906
83 0 106.097 14.8638 1577 104.843 1317.04 475.025
84 0 110.213 15.334 1690 104.225 1316.78 473.492
85 0 116.252 15.0105 1745 109.248 1317.58 469.014
86 0 118.305 14.5218 1718 112.405 1316.58 463.403
87 0 124.366 15.5831 1938 109.238 1316.7 462.921
88 0 127.32 14.8837 1895 112.534 1316.33 460.944
89 0 129.419 14.0629 1820 114.204 1315.68 458.171
90 0 136.407 15.4024 2101 111.571 1315.81 455.338
91 0 141.378 15.2499 2156 112.018 1315.86 454.612
92 0 145.42 15.5206 2257 112.002 1315.41 449.401
93 0 153.434 15.87 2435 110.397 1315.49 449.324
94 0 154.503 14.1291 2183 116.644 1315.25 445.547
95 0 162.389 15.4259 2505 113.343 1315.02 445.958
96 0 166.47 15.0958 2513 114.444 1314.8 442.55
97 0 172.461 15.7195 2711 113.335 1314.84 439.427
98 1 93.2799 12.8109 1195 112.519 1314.76 476.943
99 0 97.1913 13.3757 1300 111.627 1315.46 479.273
100 0 98.1872 13.2502 1301 112.183 1314.82 478.038
101 0 103.533 13.7928 1428 111.335 1314.33 473.661
102 0 104.384 12.9905 1356 113.681 1314.84 471.668
103 0 110.308 13.5893 1499 111.473 1314.58 470.6
104 0 116.528 13.5246 1576 111.038 1314.64 468.801
105 0 120.536 13.133 1583 112.393 1314.56 465.92
106 1 63.3657 11.4573 726 108.095 1315.1 494.285
107 0 65.0947 12.8428 836 103.187 1314.9 494.528
108 0 66.055 11.9749 791 102.355 1314.09 492.263
109 0 70.1355 12.761 895 104.291 1316.06 494.571
110 0 70.2312 11.4621 805 107.38 1315.83 493.8
111 0 73.1754 12.0806 884 106.946 1316.08 490.387
112 0 77.0571 13.0163 1003 105.379 1315.7 489.482
113 0 82.2869 13.5015 1111 101.959 1315.9 487.476
114 0 84.2541 13.0083 1096 102.425 1315.72 486.039
115 0 86.1685 13.3227 1148 102.356 1315.65 482.858
116 0 90.1839 12.7185 1147 102.828 1315.32 485.186
117 0 94.2577 13.4843 1271 100.552 1315.38 482.239
118 1 47.0318 9.97198 469 103.301 1317.31 503.424
119 0 49.064 11.6379 571 100.391 1316.85 500.865
120 0 50.1012 12.4548 624 100.59 1316.23 499.58
121 0 52.2199 12.5623 656 98.8643 1313.69 501.68
122 0 54.2586 12.1271 658 98.231 1313.68 499.787
123 0 54.0636 12.0044 649 99.2034 1313.74 499.643
124 0 59.1467 11.7504 695 98.4691 1314.51 498.929
125 0 60.2371 14.5093 874 92.7357 1315.04 497.014
126 0 60.0546 13.1047 787 97.4536 1313.98 495.713
127 0 63.1393 13.7791 870 94.8621 1314.27 495.26
128 0 64.1876 14.1149 906 95.5905 1314.26 493.291
129 0 67.3851 13.4006 903 96.9668 1314.61 492.99
130 0 66.2594 12.9189 856 98.8925 1314.74 496.183
131 0 69.2706 12.1985 845 100.363 1314.45 493.754
132 0 70.2849 12.9615 911 100.419 1314.73 488.984
133 0 75.2141 12.6306 950 96.2337 1314.38 488.222
134 0 77.2211 12.4318 960 97.1229 1314.27 488.435
135 0 79.2081 11.413 904 98.7279 1316.23 486.754
136 0 83.1397 11.7754 979 98.5158 1315.89 486.859
137 0 85.159 11.9541 1018 99.5265 1316.1 484.337
138 0 87.2503 11.3237 988 102.278 1316.33 480.687
139 1 47.0419 11.2878 531 94.4557 1317.16 502.145
140 0 48.0955 10.8742 523 95.1109 1316.86 501.753
141 0 47.0997 10.9767 517 97.8936 1316.45 502.054
142 0 49.1849 13.3578 657 95.6073 1316.55 503.244
143 0 51.0712 11.0042 562 100.189 1315.8 503.1
144 0 52.1066 11.6108 605 99.0909 1316.44 500.407
145 0 55.078 13.8531 763 93.9567 1316.76 499.975
146 0 51.1702 12.2532 627 99.5614 1316.85 499.096
147 0 55.1517 11.6225 641 99.9314 1316.26 498.343
148 0 58.3035 12.1777 710 97.3324 1316.33 498.98
149 0 61.09 14.094 861 93.3961 1316.62 497.345
150 0 59.2123 11.3997 675 100.09 1316.47 496.659
151 0 63.1262 13.1958 833 96.4274 1316.63 495.509
152 0 66.2292 13.9968 927 94.9223 1316.21 493.807
153 0 69.2084 12.7586 883 96.7894 1316.58 495.112
154 0 71.2029 13.1736 938 96.8593 1316.45 492.361
155 0 72.1706 11.6252 839 99.8534 1316.17 493.282
156 0 74.2674 12.9397 961 98.1238 1315.97 489.168
157 0 78.3318 12.5364 982 97.5489 1315.58 488.394
158 0 80.2782 14.238 1143 93.9624 1315.09 489.423
159 0 83.2131 12.486 1039 98.2724 1315.23 486.64
160 0 85.2859 12.7336 1086 97.7302 1315.59 484.167
161 0 88.3572 12.6645 1119 97.1117 1315.29 480.873
162 0 90.1319 12.9477 1167 95.4019 1315.81 483.484
163 0 94.197 12.6968 1196 96.6413 1315.43 480.344
164 0 95.0881 10.9793 1044 100.387 1314.96 477.868
165 0 98.1111 12.8426 1260 97.7706 1315.18 475.355
166 0 102.133 12.2487 1251 98.4644 1314.87 477.402
167 0 103.115 11.3659 1172 100.189 1314.58 478.472
168 0 106.119 11.3364 1203 100.618 1315.57 474.006
169 0 112.301 12.8405 1442 102.755 1314.67 468.286
170 1 61.1192 10.8804 665 100.91 1313.62 496.788
171 0 65.217 12.1594 793 97.4931 1315.35 492.149
172 0 67.1595 11.629 781 98.4264 1315.36 491.835
173 0 70.1397 12.3325 865 97.2324 1315.32 492.39
174 0 73.1776 12.7088 930 97.6677 1315.29 490.106
175 0 76.1965 13.1896 1005 96.2448 1314.71 486.603
176 0 79.3212 13.313 1056 95.9877 1315.15 485.973
177 0 84.1773 12.4618 1049 97.3394 1314.86 484.462
178 0 83.2557 12.2034 1016 99.7687 1314.94 482.74
179 0 89.2748 13.5201 1207 96.4963 1315.05 480.621
180 0 93.2464 12.4831 1164 98.0576 1314.18 479.076
181 0 95.3412 11.4956 1096 101.734 1314.61 477.012
182 0 99.2276 11.5291 1144 100.577 1314.84 475.742
183 1 52.0633 12.3503 643 98.1975 1315.68 497.555
184 0 54.083 13.4608 728 95.8297 1315.67 497.163
185 0 57.045 13.2352 755 95.6106 1316.06 496.562
186 0 59.0583 13.7491 812 94.6219 1315.98 495.926
187 0 60.0199 13.8621 832 95.006 1316.45 495.695
188 0 63.0294 14.644 923 93.4355 1316.1 493.886
189 0 62.0724 12.9365 803 97.6862 1316.17 494.164
190 0 66.0711 14.7114 972 93.6698 1315.37 491.283
191 0 66.0726 12.8041 846 98.0378 1316.07 490.729
192 0 70.1125 13.2929 932 93.7232 1315.52 490.632
193 0 72.0956 12.8163 924 95.8593 1315.91 489.615
194 0 74.1374 13.4345 996 94.8082 1315.9 489.02
195 0 75.149 12.3621 929 95.6502 1316.05 489.178
196 0 78.1855 12.2785 960 96.8156 1316.07 487.606
197 0 82.1585 14.4355 1186 93.6686 1315.35 483.508
198 0 85.184 13.0658 1113 95.4492 1316.2 484.208
199 0 88.1384 14.9311 1316 91.8921 1315.99 481.222
200 0 91.184 13.9498 1272 93.5063 1315.88 481.855
201 0 93.2603 12.835 1197 96.8488 1315.4 478.475
202 0 98.1434 12.227 1200 97.37 1315.49 479.318
203 0 101.271 13.3305 1350 95.9963 1315.96 475.458
204 1 52.1866 11.7272 612 94.5833 1316.08 499.093
205 0 54.2028 12.0104 651 93.8909 1315.73 499.47
206 0 55.2072 12.5889 695 91.3612 1314.45 497.094
207 0 55.2072 12.5165 691 134.809 1314.44 496.965
208 0 59.2405 13.5549 803 91.2466 1312.81 496.885
209 0 57.1289 12.0254 687 94.2955 1312.44 494.627
210 0 61.1693 12.4736 763 92.2333 1311.89 494.557
211 0 64.1335 12.2713 787 90.8895 1312.45 495.741
212 0 65.0442 11.3769 740 93.4514 1312.55 492.35
213 0 67.054 13.2729 890 89.5404 1312.27 492.16
214 0 69.088 13.4032 926 90.0173 1312.88 489.336
215 0 71.1155 11.418 812 92.798 1312.28 489.183
216 0 74.1026 12.5772 932 89.9045 1312.4 488.788
217 0 75.0503 12.7781 959 89.1794 1312.35 487.943
218 0 79.175 13.4765 1067 85.9475 1312.73 487.507
219 0 81.0844 12.7645 1035 87.8976 1312.66 483.73
220 0 83.2673 12.6941 1057 87.6405 1314.52 483.997
221 0 87.1648 12.723 1109 87.2353 1314.7 483.601
222 0 89.244 12.0232 1073 89.7791 1314.58 481.006
223 0 90.1991 10.0444 906 91.8091 1314.41 479.458
224 0 96.2002 12.6611 1218 88.6905 1313.61 477.924
225 0 101.46 12.5074 1269 89.4153 1313.87 475.728
226 1 55.3599 13.0961 725 82.1972 1313.58 496.654
227 0 55.3007 11.3018 625 86.3216 1313.42 495.419
228 0 57.1634 12.3855 708 84.7203 1312.91 499.15
229 0 55.1439 11.7148 646 86.9845 1312.93 497.977
230 0 58.0877 11.1383 647 87.3864 1313.36 497.382
231 0 61.1663 11.7058 716 85.3743 1315.65 496.828
232 0 62.1349 10.0105 622 88.7556 1315.22 495.256
233 0 67.2683 11.2386 756 86.168 1315.38 494.82
234 0 70.2512 12.6973 892 84.824 1315.57 491.075
235 0 70.2035 11.2672 791 88.6258 1315.36 489.654
236 0 74.1341 11.5466 856 88.2348 1315.23 491.339
237 0 77.1805 12.5291 967 87.3071 1315.21 488.013
238 0 81.3068 12.4836 1015 87.2532 1314.93 486.1
239 0 83.2846 13.0036 1083 87.8633 1314.7 482.634
240 0 84.1869 11.7239 987 90.4144 1314.93 483.9
241 0 87.3227 11.7381 1025 91.7805 1314.4 482.509
242 0 91.1781 12.8978 1176 89.8027 1314.55 481.025
243 0 93.2584 11.5164 1074 92.5047 1314.23 477.867
244 0 98.1964 11.1206 1092 91.717 1314.68 477.32
245 0 102.223 12.8738 1316 89.3503 1314.16 474.69
246 0 105.242 12.7896 1346 91.1857 1314.3 472.184
247 0 108.261 12.9132 1398 90.7775 1314.95 468.539
248 0 114.224 13.5786 1551 88.3269 1314.47 470.4
249 0 116.229 11.3311 1317 92.2392 1314.87 471.267
250 0 119.394 12.2535 1463 92.9597 1315.21 463.826
251 0 123.424 13.0444 1610 91.4758 1315.56 465.56
252 1 64.3138 12.1747 783 83.4163 1316.74 493.101
253 0 65.1467 11.6967 762 86.2415 1315.81 491.724
254 0 68.2309 11.505 785 85.2178 1315.54 492.42
255 0 70.3154 10.4102 732 87.3347 1316.21 492.607
256 0 71.1327 12.7086 904 90.8462 1316.4 488.683
257 0 76.21 15.1555 1155 85.2312 1316.46 489.833
258 0 79.2769 14.1782 1124 87.339 1316.56 487.833
259 0 82.1772 13.5804 1116 87.6837 1316.04 488.29
260 0 84.2425 13.0932 1103 89.4288 1316.26 484.677
261 0 87.2338 13.4122 1170 89.0564 1316.37 483.489
262 0 91.1909 13.0057 1186 89.9536 1316.38 483.931
263 0 90.1384 11.4602 1033 94.0823 1316.03 482.721
264 0 95.4455 12.7088 1213 92.2671 1316.21 480.796
265 0 98.2448 11.8276 1162 93.2719 1315.89 479.897
266 0 101.185 13.2233 1338 92.0747 1315.33 477.662
267 1 57.0446 12.4639 711 91.9634 1316.7 498.201
268 0 60.166 12.2993 740 91.8986 1316.49 497.839
269 0 60.0323 12.5266 752 87.0013 1316.7 497.339
270 0 61.1448 12.5276 766 94.2689 1316.66 495.363
271 0 61.094 11.7033 715 97.8252 1316.65 494.996
272 0 64.0962 12.1848 781 95.5224 1316.03 494.355
273 0 67.1266 11.9476 802 95.7506 1316.51 491.163
274 0 69.075 13.203 912 92.932 1316.74 491.162
275 0 72.1351 13.1559 949 92.9052 1316.93 490.105
276 0 75.0972 12.9565 973 93.4286 1316.82 488.637
277 0 77.2805 12.4352 961 94.1301 1316.91 490.696
278 0 81.3403 13.3267 1084 92.5876 1316.67 486.838
279 0 81.4783 11.6473 949 97.0906 1316.02 485.459
280 0 85.3029 12.145 1036 95.9836 1315.31 485.967
281 0 87.3628 13.7587 1202 93.876 1315.48 482.925
282 0 91.4346 13.3429 1220 94.3902 1315.18 481.567
283 0 95.3278 15.0743 1437 91.7704 1315.43 478.227
284 0 97.3677 14.0909 1372 93.9687 1315.57 477.391
285 0 98.4266 13.4008 1319 97.8506 1315.2 473.022
286 0 100.356 12.2265 1227 100.262 1315.65 473.669
287 1 55.1533 12.2205 674 93.9258 1315.72 499.929
288 0 54.3031 11.1412 605 96.995 1315.07 499.081
289 0 57.058 12.5136 714 94.014 1317.03 499.106
290 0 58.0945 10.9305 635 96.3024 1316.87 499.767
291 0 61.0928 12.6201 771 92.7354 1316.81 498.45
292 0 62.1337 13.0042 808 92.6572 1316.59 496.328
293 0 64.0512 13.9888 896 90.1596 1316.67 495.562
294 0 65.0407 12.8842 838 93.6432 1316.33 496.093
295 0 66.2447 13.1331 870 92.6356 1316.48 496.578
296 0 68.109 13.082 891 94.3356 1316.11 493.044
297 0 69.1242 13.0345 901 95.3529 1316.33 490.368
298 0 71.1129 12.4872 888 96.6689 1316.59 490.53
299 0 76.1701 13.4173 1022 93.6389 1315.98 489.053
300 0 77.2732 13.2517 1024 92.9863 1315.9 492.884
301 0 79.2353 12.8478 1018 96.4361 1315.77 486.579
302 0 82.1876 13.4692 1107 95.0397 1315.63 485.359
303 0 84.2498 14.5994 1230 93.1724 1315.34 486.427
304 0 87.2067 13.1297 1145 96.1083 1314.42 483.814
305 0 91.4058 14.2442 1302 94.586 1314.45 481.395
306 1 48.066 11.6507 560 94.9161 1315.76 503.173
307 0 48.0838 11.8751 571 96.4168 1315.76 502.706
308 0 50.4588 12.6242 637 94.6562 1313.89 500.706
309 0 51.0278 13.3848 683 86.202 1313.01 500.814
310 0 53.0368 12.4065 658 87.9666 1312.95 499.538
311 0 51.1328 11.0497 565 92.6991 1312.84 501.188
312 0 55.0351 12.6828 698 89.2178 1313.29 500.808
313 0 56.0404 12.2233 685 90.5547 1313.07 500.65
314 0 57.1135 11.1182 635 93.8583 1312.41 499.031
315 0 59.0646 12.9011 762 90.958 1312.01 498.442
316 0 61.1012 12.1929 745 91.749 1313 498.489
317 0 61.0936 10.6721 652 96.6779 1311.76 494.979
318 0 65.0652 11.8189 769 93.4473 1311.84 496.584
319 0 65.0582 12.8654 837 92.319 1312.48 495.705
320 0 67.071 11.7338 787 95.5832 1313.07 492.377
321 0 71.0483 12.963 921 92.8295 1312.73 492.085
322 0 72.0468 11.6591 840 95.8786 1311.47 490.72
323 0 76.1605 12.7363 970 92.7649 1312.26 490.688
324 0 78.0909 13.1257 1025 92.3405 1312.68 489.125
325 0 80.1028 12.7711 1023 93.043 1312.4 489.413
326 0 83.0987 12.1422 1009 96.1734 1312.64 485.228
327 0 86.0618 12.0379 1036 95.1207 1312.78 485.86
328 0 88.0656 12.5588 1106 94.368 1313.2 486.265
329 0 92.1048 12.6052 1161 93.5375 1313.08 482.141
330 0 96.1421 12.8352 1234 93 1312.54 480.865
331 0 99.2295 12.4459 1235 94.1393 1313.06 479.177
332 1 53.0664 12.0604 640 92.8438 1312.27 500.214
333 0 53.1698 11.247 598 91.8997 1313.95 502.166
334 0 56.0289 12.565 704 94.8878 1317.08 499.615
335 0 58.0283 11.8218 686 96.0962 1316.38 498.169
336 0 60.0539 11.7395 705 96.2199 1316.94 497.085
337 0 63.1531 12.636 798 93.9987 1316.47 495.607
338 0 63.0726 12.6521 798 93.6479 1316.49 495.03
339 0 63.0487 12.1652 767 94.7132 1316.9 495.744
340 0 67.0653 12.4804 837 93.5854 1316.88 494.272
341 0 71.1918 14.1449 1007 90.2115 1316.24 492.662
342 0 72.0476 12.811 923 93.1192 1316.37 490.923
343 0 74.1244 12.7623 946 92.0719 1315.96 491.437
344 0 75.1118 13.1271 986 92.0193 1316.41 490.443
345 0 77.1035 12.4767 962 94.1892 1316.66 486.968
346 0 79.045 12.1829 963 94.1205 1316.58 489.621
347 0 83.1128 13.3674 1111 92.1035 1317.18 486.021
348 0 84.0553 12.8011 1076 93.5827 1317.23 482.96
349 0 89.2348 14.7924 1320 88.578 1317.34 483.298
350 0 89.108 13.377 1192 92.3851 1317.04 480.054
351 0 92.1077 12.5397 1155 93.7844 1316.96 478.535
352 0 95.0903 13.0613 1242 92.7432 1317.57 478.267
353 0 98.099 13.466 1321 92.623 1317.53 475.686
354 0 102.111 13.3287 1361 91.3681 1316.84 475.522
355 0 105.159 12.6856 1334 92.4858 1317.17 472.208
356 1 58.0736 11.847 688 88.1613 1317.29 499.041
357 0 59.0462 13.1592 777 84.9434 1317.34 497.698
358 0 59.1033 12.7404 753 85.1554 1314.24 493.858
359 0 62.1034 12.7207 790 84.338 1314.29 495.078
360 0 63.0611 14.3829 907 82.6075 1313.73 494.458
361 0 64.2106 12.1787 782 87.0946 1313.42 494.997
362 0 68.2772 13.5184 923 84.6566 1313.49 494.152
363 0 70.2684 11.2995 794 88.5139 1313.71 494.168
364 0 72.2876 14.4146 1042 84.3013 1313.41 491.278
365 0 75.2665 11.7051 881 90.0556 1313.22 489.507
366 0 77.1328 13.0165 1004 87.6305 1313.4 488.432
367 0 78.2182 12.0049 939 89.2641 1313.64 487.745
368 0 79.4316 10.6759 848 91.5825 1314.1 489.792
369 0 85.2858 12.5695 1072 88.4235 1314.65 485.471
370 0 88.2852 13.1845 1164 87.5825 1315.14 482.146
371 0 89.4213 11.4179 1021 90.9236 1314.91 484.093
372 0 93.3419 11.3775 1062 90.3785 1314.51 482.475
373 1 49.2765 11.5877 571 89.5079 1314.05 500.618
374 0 51.2864 12.128 622 89.0338 1314.4 499.367
375 0 53.1179 12.5193 665 82.6015 1313.73 503.789
376 0 53.0535 11.9502 634 84.8817 1313.98 501.645
377 0 53.0693 12.6627 672 85.744 1314.06 501.568
378 0 56.2591 12.318 693 85.026 1314.26 500.893
379 0 56.1377 10.5811 594 87.9764 1314.41 501.835
380 0 59.0828 13.5572 801 84.2534 1314.69 498.508
381 0 60.0671 12.536 753 86.8008 1314.21 497.991
382 0 63.0923 12.2677 774 87.5078 1314.53 496.669
383 0 64.2399 12.2977 790 87.8177 1314.58 495.505
384 0 67.2439 12.3729 832 88.2464 1314.4 493.393
385 0 70.0888 13.2118 926 86.7581 1314.66 493.119
386 0 72.1905 12.1484 877 87.4173 1314.61 494.192
387 0 74.1389 12.1394 900 87.9333 1314.33 491.953
388 0 80.1314 13.4155 1075 86.5498 1314.73 490.275
389 0 80.1243 11.6943 937 91.7332 1314.53 490.036
390 0 83.1394 11.4266 950 91.4232 1313.93 485.764
391 1 47.0505 11.2432 529 88.6049 1318.08 506.217
392 0 48.1171 12.8852 620 86.9758 1314.3 504.371
393 0 47.1133 11.865 559 89.0483 1315.43 504.653
394 0 52.1118 13.7013 714 84.6078 1314.01 502.424
395 0 53.0391 12.651 671 86.3577 1314.05 501.876
396 0 52.0473 10.7787 561 90.4884 1314.57 505.652
397 0 55.0521 11.48 632 90.7025 1313.7 502.044
398 0 57.1302 11.8676 678 89.9041 1313.64 501.9
399 0 57.0338 11.3968 650 91.8169 1314.4 500.162
400 0 58.0318 10.9767 637 90.5322 1314.56 502.917
401 0 61.1568 11.7076 716 90.8827 1314.42 499.028
402 0 61.0629 12.5444 766 89.6736 1314.54 496.856
403 0 64.1177 11.8688 761 89.6439 1315.11 499.867
404 0 66.1094 12.3583 817 89.1334 1314.82 494.988
405 0 66.0847 12.2721 811 90.0049 1314.61 496.605
406 0 69.1768 12.403 858 88.6061 1315.11 497.416
407 0 71.0921 13.0394 927 88.9126 1315.25 491.861
408 0 74.0694 13.1768 976 88.1721 1315.66 491.572
409 0 73.1454 11.3746 832 92.0325 1315.44 490.165
410 0 77.075 12.2738 946 90.3636 1314.73 489.932
411 0 80.1433 12.6274 1012 89.2777 1314.76 490.899
412 0 83.0802 13.6735 1136 87.9164 1314.62 488.634
413 0 86.1687 12.7541 1099 89.6888 1314.51 486.783
414 0 89.1322 11.8812 1059 91.2521 1314.54 483.831
415 0 94.142 14.0532 1323 87.0408 1315.47 482.832
416 0 95.1867 12.0185 1144 90.2885 1314.95 482.115
417 1 58.1417 11.644 677 92.0059 1315.05 498.251
418 0 60.1206 12.2421 736 90.0639 1315.01 498.713
419 0 63.1103 12.0899 763 91.4561 1314.54 497.19
420 0 64.085 12.9827 832 91.1094 1314.92 495.845
421 0 68.0728 12.9714 883 89.9807 1314.9 494.861
422 0 70.0402 12.2787 860 91.6442 1315.39 493.659
423 0 72.0591 14.3771 1036 88.7954 1315.12 491.569
424 0 73.0746 12.9183 944 91.696 1314.73 491.803
425 0 77.221 14.3355 1107 89.1138 1314.92 489.377
426 0 78.1096 13.4554 1051 91.275 1315.83 487.375
427 0 83.0957 12.9008 1072 92.014 1315.32 486.819
428 0 84.0714 13.6075 1144 91.542 1315.22 485.936
429 0 87.1607 12.9875 1132 93.9708 1315.3 483.754
430 0 91.1175 13.2137 1204 93.6728 1315.13 482.645
431 0 91.2188 13.4183 1224 94.4722 1315.63 480.706
432 0 95.2907 12.7819 1218 96.2003 1315.09 478.651
433 0 98.149 14.5085 1424 93.1721 1315.06 478.939
434 0 101.165 13.7004 1386 93.925 1315.45 478.012
435 0 105.124 14.3545 1509 92.6302 1315.19 477.824
436 0 105.236 12.8949 1357 96.4967 1314.95 473.807
437 0 111.163 14.0065 1557 93.9396 1314.74 472.523
438 0 111.145 11.6604 1296 98.5702 1316.11 472.641
439 0 116.179 13.2124 1535 96.4977 1315.46 468.007
440 0 119.193 12.2826 1464 97.9939 1316.11 466.04
441 0 126.17 12.1027 1527 99.5154 1315.69 466.516
442 0 131.306 12.9163 1696 99.5784 1315.54 463.972
443 1 79.2606 9.77787 775 100.603 1315.81 489.465
444 0 81.2418 11.9766 973 97.3792 1316.08 486.63
445 0 84.1915 11.557 973 100.353 1315.4 486.724
446 0 87.1322 11.8441 1032 100.45 1315.1 484.31
447 0 91.3861 12.8138 1171 100.065 1314.91 483.032
448 0 96.2417 12.7076 1223 102.088 1315.3 480.95
449 0 99.1559 13.2317 1312 102.617 1314.95 479.463
450 0 105.19 13.9653 1469 101.518 1314.99 478.803
451 0 106.123 13.1733 1398 105.9 1315.19 474.567
452 0 109.312 12.5421 1371 108.043 1315.36 472.562
453 0 112.359 13.5636 1524 105.993 1316.54 469.65
454 0 117.377 14.0573 1650 104.538 1316.89 470.448
455 0 118.27 12.6067 1491 109.863 1316.02 466.245
456 0 124.341 13.8972 1728 107.068 1316.54 464.02
457 0 130.268 14.5239 1892 105.488 1316.06 464.311
458 0 130.387 14.1809 1849 108.029 1315.94 459.853
459 0 137.329 13.7189 1884 107.789 1316.36 462.719
460 0 139.333 13.213 1841 111.029 1316.09 459.336
461 0 143.375 13.5309 1940 109.888 1315.96 458.308
462 0 147.47 13.996 2064 110.38 1316.39 454.698
463 0 153.392 13.8338 2122 110.967 1317.12 452.41
464 0 159.375 13.6973 2183 111.148 1316.79 451.705
465 0 163.301 13.2087 2157 112.451 1317.27 444.414
466 1 94.1358 12.4926 1176 109.959 1317.78 481.412
467 0 96.1788 13.4541 1294 107.892 1317.44 479.561
468 0 96.1778 11.5619 1112 110.031 1316.95 481.714
469 0 101.237 11.8534 1200 108.762 1317.09 480.481
470 0 105.201 12.6519 1331 107.688 1316.99 476.681
471 0 108.192 11.9603 1294 110.326 1316.69 473.585
472 0 112.232 13.1068 1471 106.312 1315.99 475.345
473 0 116.299 13.5255 1573 108.349 1316.42 468.117
474 0 122.49 13.5357 1658 107.206 1316.04 467.028
475 0 128.329 14.7199 1889 104.913 1316.17 467.03
476 0 131.414 13.8113 1815 111.668 1315.58 462.024
477 0 137.42 14.2264 1955 111.663 1315.61 460.845
478 0 139.378 13.4095 1869 114.568 1315.69 456.612
479 0 146.386 13.9016 2035 108.958 1315.63 457.143
480 0 152.439 13.5595 2067 106.478 1316.17 454.478
481 0 152.439 13.5792 2070 162.338 1316.18 454.282
482 1 85.2801 11.4915 980 99.648 1315.88 485.366
483 0 85.5261 11.4936 983 111 1317.08 479.769
484 0 89.3054 13.3027 1188 102.73 1317.67 484.878
485 0 92.4704 12.9771 1200 103.175 1317.19 483.398
486 0 94.4442 13.4894 1274 101.438 1317.02 483.25
487 0 99.3163 12.9385 1285 105.204 1316.66 477.161
488 0 103.57 12.9768 1344 104.98 1316.18 473.152
489 0 107.465 13.7905 1482 103.213 1316.33 471.582
490 0 109.726 13.2147 1450 104.541 1315.41 467.795
491 0 113.172 11.0628 1252 97.0623 1315.72 472.024
492 0 119.22 11.1474 1329 96.7795 1315.89 467.065
493 0 123.294 12.0444 1485 95.3663 1314.91 462.714
494 0 127.218 11.4135 1452 96.3361 1316.04 462.965
495 0 130.208 10.5523 1374 96.8297 1316.83 461.677
496 1 54.0338 10.2528 554 89.1083 1315.97 501.408
497 0 56.0639 10.5237 590 88.7881 1316.48 499.976
498 0 58.0918 10.0875 586 87.0529 1318.28 498.589
499 0 59.1499 10.0085 592 90.5693 1315.68 499.546
500 0 61.0724 11.1179 679 92.7629 1314.65 496.769
501 0 62.1708 10.8411 674 92.0148 1315.91 496.507
502 0 65.1205 12.331 803 90.2366 1314.78 495.951
503 0 66.2154 11.4777 760 92.3 1315.26 494.961
504 0 68.1153 12.3908 844 89.9976 1316 492.808
505 0 69.122 11.1253 769 91.2809 1315.91 494.607
506 0 74.1116 10.4842 777 91.9537 1315.69 491.758
507 0 74.1045 10.2288 758 93.0224 1315.96 489.784
508 0 81.1874 13.9307 1131 85.1927 1315.71 487.383
509 0 82.1648 10.552 867 91.7958 1315.13 489.923
510 0 84.1708 10.0748 848 93.7028 1315.45 485.646
511 1 47.1038 10.6785 503 92.163 1315.99 503.01
512 0 47.0604 10.5609 497 91.8793 1317.69 502.744
513 0 46.0758 11.85 546 89.1868 1315.98 504.518
514 0 49.029 10.9527 537 88.905 1318.27 503.313
515 0 51.0908 11.8221 604 88.9603 1316.27 503.04
516 0 50.0338 10.5928 530 93.2792 1318.41 498.785
517 0 53.0313 9.84324 522 93.6092 1318.03 501.165
518 0 55.074 10.8218 596 91.7383 1318.04 499.777
519 0 55.0354 10.8112 595 93.1462 1318.28 498.716
520 0 56.0575 10.6855 599 93.8965 1318.01 499.531
521 0 60.1141 11.5447 694 92.5432 1317.34 496.089
522 0 61.0345 10.6169 648 94.3009 1317.44 496.963
523 0 64.0313 10.5886 678 93.6077 1317.52 498.369
524 0 68.1643 11.3402 773 92.6197 1317.95 495.802
525 0 69.0963 11.6794 807 90.6815 1317.92 494.3
526 0 68.1833 11.0291 752 92.2939 1317.64 493.746
527 0 75.1935 11.9691 900 90.2544 1317.02 491.228
528 0 74.0735 9.97658 739 94.1746 1316.97 492.074
529 1 38.092 9.66083 368 93.3125 1318.02 508.149
530 0 41.0589 12.2507 503 91.0278 1318.68 507.704
531 0 43.0944 12.7395 549 86.4226 1314.39 508.35
532 0 44.0146 13.5183 595 84.8588 1314.24 509.418
533 0 44.0086 11.9749 527 90.4991 1314.17 507.507
534 0 45.0236 11.8382 533 91.7336 1313.76 507.246
535 0 46.0286 12.8616 592 90.6503 1313.84 506.676
536 0 48.0593 15.1271 727 85.8418 1314.8 505.432
537 0 47.0636 12.9399 609 92.2102 1315.59 504.118
538 0 51.0938 13.622 696 89.6351 1316.57 503.928
539 0 52.0674 14.1547 737 90.6526 1316.14 503.353
540 0 52.082 14.4388 752 91.1676 1316.06 503.508
541 0 54.0416 13.8042 746 92.819 1315.94 503.483
542 0 55.0357 13.5003 743 93.7873 1316.28 502.335
543 0 57.1146 12.2736 701 96.2625 1317.28 501.716
544 0 58.0444 13.9204 808 93.5941 1317.04 499.944
545 0 57.0762 12.5446 716 97.2081 1317.22 500.862
546 0 62.1633 14.3332 891 91.835 1318.92 497.514
547 0 59.0406 11.6361 687 100.722 1316.92 498.715
548 0 64.0401 13.0387 835 97.5305 1316.46 498.019
549 0 67.0836 13.0285 874 94.6064 1317.11 496.565
550 0 68.0753 13.5732 924 93.7965 1316.53 495.703
551 0 70.0957 13.7241 962 97.4865 1314.52 492.361
552 0 71.0917 11.6188 826 100.846 1317.5 494.801
553 0 76.0512 13.4252 1021 95.6445 1317.26 493.376
554 0 78.0822 13.5114 1055 96.5526 1316.46 490.914
555 1 41.0166 11.5319 473 98.0846 1314.49 507.055
556 0 41.0705 11.9307 490 93.8367 1316.38 508.539
557 0 43.0609 12.5868 542 90.3801 1316.02 508.856
558 0 41.0519 11.4976 472 93.2267 1315.73 506.917
559 0 45.0317 11.1699 503 95.1869 1315.83 505.477
560 0 43.1866 13.2217 571 93.1541 1316.28 505.769
561 0 45.2833 11.8145 535 96.1383 1315.9 506.221
562 0 47.2356 12.2154 577 94.2288 1316.08 504.977
563 0 50.0677 13.1222 657 91.7626 1315.44 504.766
564 0 48.1457 11.6106 559 96.8945 1315.56 504.265
565 0 50.234 12.2825 617 96.0665 1315.86 502.246
566 0 53.1513 14.1295 751 92.8509 1316.01 501.796
567 0 53.156 12.9242 687 95.6638 1315.35 502.247
568 0 55.1925 13.4076 740 94.5243 1315.67 500.615
569 0 55.0661 13.0389 718 96.2089 1315.42 500.304
570 0 57.1962 12.7456 729 97.4554 1315.8 499.8
571 0 60.1523 13.9313 838 95.29 1315.72 499.579
572 0 62.1206 12.8782 800 99.0925 1315.98 497.741
573 0 65.1293 14.2639 929 98.1259 1316.34 495.323
574 0 65.354 12.547 820 103.032 1315.89 495.622
575 0 70.1721 14.949 1049 97.9266 1316.38 494.278
576 0 70.1717 13.7662 966 100.746 1316.49 496.04
577 0 75.3882 14.883 1122 101.176 1315.75 490.381
578 0 75.3517 12.9659 977 106.675 1315.57 491.254
579 1 42.1471 12.3852 522 103.199 1315.53 507.238
580 0 41.1364 12.3735 509 104.621 1315.83 507.67
581 0 45.0701 12.3585 557 103.592 1314.71 506.803
582 0 47.0462 13.3911 630 102.925 1314.87 505.476
583 0 47.1086 12.97 611 105.972 1314.82 505.728
584 0 46.0352 11.6433 536 103.338 1317.32 506.815
585 0 47.1401 12.5371 591 103.117 1317.07 504.875
586 0 48.0737 12.2728 590 101.551 1318.49 504.837
587 0 50.0546 12.7461 638 100.699 1318.85 504.199
588 0 52.0726 12.2905 640 101.389 1319.04 503.697
589 0 56.0632 12.1648 682 100.708 1318.85 503.176
590 0 57.0447 12.6567 722 101.109 1318.05 500.861
591 0 58.1277 13.9348 810 98.9358 1318.02 499.791
592 0 60.1403 13.1027 788 100.6 1317.87 499.006
593 0 64.1311 13.7687 883 96.6546 1317.88 500.558
594 0 67.0616 13.0477 875 98.3931 1317.76 498.952
595 0 68.0565 12.3721 842 100.816 1317.89 497.97
596 0 70.1017 12.9811 910 99.5066 1317.31 496.61
597 0 73.1029 11.9968 877 101.216 1317.45 495.552
598 0 75.1702 12.066 907 101.615 1317.93 491.792
599 1 41.0197 12.0186 493 101.083 1318.34 509.822
600 0 42.1126 12.4666 525 102.175 1318.18 507.158
601 0 42.0094 12.1163 509 102.13 1315.87 508.187
602 0 41.0156 11.4834 471 102.312 1315.23 508.571
603 0 46.0197 13.4942 621 95.132 1315.19 506.791
604 0 44.0092 11.6794 514 100.375 1317.53 506.891
605 0 47.0565 12.3894 583 98.5523 1316.97 505.383
606 0 51.0677 13.8052 705 93.9603 1316.73 505.075
607 0 49.082 12.2856 603 99.3367 1316.85 503.877
608 0 52.0417 13.297 692 95.9827 1317.5 502.334
609 0 53.0456 12.3102 653 98.2481 1317.8 501.539
610 0 56.0593 15.5728 873 92.1123 1317.02 501.129
611 0 57.0531 13.724 783 96.9093 1317.45 499.738
612 0 60.088 13.2972 799 97.2941 1317.26 499.337
613 0 60.0979 13.6111 818 96.9095 1317.62 498.347
614 0 63.0953 11.8868 750 100.191 1318.42 497.476
615 0 65.0542 14.2958 930 95.9989 1318.11 496.657
616 0 66.0572 11.8382 782 100.853 1318.11 495.37
617 0 70.1152 14.5618 1021 94.0088 1317.44 493.918
618 0 71.1043 13.8107 982 97.0132 1317.35 494.029
619 0 74.053 13.8279 1024 96.6055 1317.28 489.954
620 0 78.0763 13.0257 1017 97.0344 1317.79 491.402
621 0 80.1328 12.8911 1033 105.393 1318.4 487.508
622 0 83.126 12.7517 1060 106.136 1318.06 485.43
623 0 85.0421 12.5938 1071 107.088 1317.87 486.359
624 1 46.0406 10.9903 506 105.063 1316.19 505.945
625 0 47.0671 11.3243 533 102.966 1318.54 506.801
626 0 45.0529 10.7207 483 108.255 1318.04 504.265
627 0 50.0238 12.534 627 97.815 1315.53 502.697
628 0 51.1135 13.0494 667 97.4813 1315.74 502.559
629 0 53.0827 12.1885 647 99.7604 1315.3 503.073
630 0 54.1139 14.0445 760 96.6039 1315.64 501.526
631 0 57.0576 12.9343 738 98.2859 1315.42 501.512
632 0 57.0429 14.2349 812 97.1034 1314.95 499.804
633 0 59.0663 11.9865 708 102.388 1315.02 498.428
634 0 61.0375 13.4016 818 98.1711 1315.03 499.454
635 0 64.1192 13.9428 894 97.2058 1315.3 497.365
636 0 64.1386 12.473 800 101.096 1315.46 492.796
637 0 68.076 13.2646 903 99.3389 1315.01 494.173
638 0 70.1556 13.7836 967 99.8046 1314.79 491.818
639 0 72.1571 14.2467 1028 99.536 1315.33 491.087
640 0 76.1008 13.7449 1046 99.8805 1315.77 491.008
641 0 77.2191 13.3646 1032 101.501 1315.95 490.956
642 0 79.1785 13.337 1056 102.189 1315.19 486.816
643 0 82.1696 13.5451 1113 102.3 1315.05 486.436
644 0 86.1937 15.5928 1344 97.3192 1315.1 483.749
645 0 88.2374 14.393 1270 100.692 1315.5 483.369
646 1 48.0338 11.8042 567 103.968 1314.81 504.187
647 0 46.0382 11.7511 541 103.956 1318.06 503.322
648 0 51.038 11.9519 610 102.169 1318.12 503.172
649 0 50.0436 12.589 630 99.2714 1317.76 505.002
650 0 52.0207 12.3989 645 99.7721 1318.1 504.299
651 0 52.0654 12.5419 653 100.45 1317.61 503.017
652 0 53.1797 11.4517 609 99.312 1317.99 502.43
653 0 54.0866 11.4261 618 98.5631 1317.95 502.748
654 0 58.1337 12.9873 755 96.9417 1318.14 499.788
655 0 58.0336 13.0614 758 97.533 1317.78 499.091
656 0 60.1387 13.8347 832 95.2524 1317.62 498.974
657 0 63.0587 12.4487 785 97.6637 1318.07 498.902
658 0 65.1188 13.0991 853 97.2368 1317.66 498.043
659 0 65.2837 12.5912 822 98.8881 1317.84 497.718
660 0 68.0933 12.3066 838 98.6897 1317.77 496.726
661 0 69.0804 12.2032 843 99.3191 1317.61 495.571
662 0 71.1992 12.1209 863 99.6362 1317.64 494.216
663 0 76.1827 13.6514 1040 95.7221 1318.12 493.542
664 0 78.1064 12.9695 1013 96.1688 1318.45 491.794
665 0 81.1453 13.1493 1067 94.4911 1318.81 490.002
666 0 82.1241 12.1523 998 96.5812 1318.66 489.008
667 0 87.2033 12.1555 1060 95.6179 1318.3 485.995
668 1 46.0755 12.7834 589 94.3124 1319.08 505.239
669 0 46.0997 12.6899 585 94.2855 1318.53 503.92
670 0 48.0184 13.1408 631 96.5959 1317.88 503.954
671 0 49.0174 13.2606 650 96.1646 1317.8 504.212
672 0 50.0476 11.0695 554 100.637 1318.06 503.233
673 0 56.098 13.5655 761 93.8357 1317.34 502.597
674 0 54.0284 12.2528 662 99.0211 1317.86 500.779
675 0 58.0839 13.4289 780 95.9308 1317.9 500.163
676 0 58.0509 14.3495 833 95.2629 1317.87 500.029
677 0 61.021 13.946 851 95.4254 1318.02 498.571
678 0 62.0922 13.5283 840 96.3821 1318.2 496.202
679 0 64.0312 13.4466 861 96.784 1318.03 496.461
680 0 67.1521 14.6682 985 94.5492 1318.3 495.082
681 0 68.0731 13.794 939 97.4909 1317.16 492.531
682 0 70.0304 14.0225 982 98.334 1317.11 491.522
683 0 71.0908 13.2647 943 100.973 1317.19 491.222
684 0 75.0777 13.4394 1009 100.779 1317.39 489.201
685 0 78.0908 14.4575 1129 98.8521 1317.19 488.552
686 0 81.1487 13.8141 1121 100.212 1317.34 489.643
687 0 85.1962 14.8011 1261 98.0817 1316.82 486.551
688 0 87.0661 13.5874 1183 101.415 1316.97 485.276
689 0 90.0854 14.2531 1284 100.783 1317.08 484.322
690 0 91.1661 14.3474 1308 102.08 1316.73 480.622
691 0 95.1317 14.1278 1344 102.321 1317.52 480.828
692 0 98.1361 13.8583 1360 103.19 1317.39 479.086
693 1 51.0559 11.9868 612 101.24 1318.03 502.84
694 0 50.0453 11.6295 582 103.177 1317.75 502.275
695 0 52.0918 13.5338 705 96.244 1317.45 503.756
696 0 53.0436 12.8385 681 99.4376 1317.05 502.304
697 0 55.0579 11.1337 613 101.152 1317.1 503.268
698 0 58.0602 13.0038 755 97.3338 1317.2 502.036
699 0 59.1253 13.1923 780 94.7692 1317.07 500.956
700 0 59.0386 12.5342 740 98.4311 1317.16 500.257
701 0 64.0774 13.312 853 94.8535 1317.21 498.076
702 0 65.1719 12.6588 825 98.1867 1316.6 496.28
703 0 68.1625 13.4091 914 96.8731 1316.37 495.422
704 0 70.2301 12.4306 873 98.5452 1316.62 494.873
705 0 72.177 13.3699 965 97.5658 1316.58 491.709
706 0 77.2481 12.79 988 96.4666 1316.67 493.469
707 0 77.1152 13.8624 1069 96.4135 1317.03 489.217
708 0 81.3947 12.7035 1034 98.0338 1316.51 490.715
709 0 81.197 12.1679 988 100.858 1316.55 485.333
710 0 88.157 14.6443 1291 94.794 1316.48 485.473
711 0 89.1279 13.6545 1217 97.6311 1317.36 484.089
712 0 91.1552 12.6158 1150 100.114 1316.61 483.296
713 1 50.1365 12.4261 623 99.1974 1317.75 503.138
714 0 52.117 13.0668 681 97.0264 1317.97 502.035
715 0 51.0998 11.8004 603 97.4279 1317.72 501.882
716 0 53.1718 13.6538 726 93.7355 1317.81 501.598
717 0 54.1319 13.2454 717 95.3752 1317.88 500.816
718 0 56.1088 14.7036 825 92.9576 1317.93 497.818
719 0 58.1873 14.0752 819 93.63 1317.92 500.057
720 0 62.1169 13.6517 848 94.5071 1317.38 497.441
721 0 61.1713 12.9145 790 97.2582 1317.9 497.154
722 0 63.0917 13.948 880 95.3523 1317.43 495.178
723 0 67.1169 14.1544 950 94.8305 1317.74 494.818
724 0 69.193 13.2239 915 98.1486 1317.5 494.325
725 0 69.1344 12.4685 862 101.078 1317.22 493.435
726 0 71.1288 12.1892 867 102.949 1317.23 493.204
727 0 74.1271 13.8006 1023 100.228 1317.41 492.176
728 0 78.1376 13.361 1044 100.719 1317.05 491.31
729 0 81.2079 12.6096 1024 102.799 1317.35 489.985
730 0 83.12 13.9196 1157 100.695 1317.15 487.321
731 0 87.1457 14.1372 1232 100.785 1317.07 487.403
732 0 89.127 13.621 1214 102.166 1317.01 486.287
733 1 48.0104 11.6641 560 98.3554 1318.47 505.234
734 0 49.0803 12.0619 592 97.7196 1317.72 505.373
735 0 51.3133 13.096 672 96.6161 1317.66 502.659
736 0 53.1694 12.5636 668 99.0299 1317.8 501.63
737 0 56.0733 13.5359 759 96.8748 1317.52 501.253
738 0 56.1166 12.2602 688 101.074 1317.69 500.663
739 0 60.0997 12.8786 774 98.8307 1318.23 499.328
740 0 59.0722 12.6286 746 101.37 1317.91 499.686
741 0 64.161 13.7155 880 98.767 1318.13 498.347
742 0 65.0855 12.8139 834 101.67 1318.62 494.143
743 0 67.1207 13.215 887 101.306 1318.18 494.826
744 0 69.0819 12.5069 864 102.88 1318.41 493.684
745 0 71.1274 13.1173 933 102.028 1318.63 492.536
746 0 74.13 13.962 1035 100.818 1318.72 491.085
747 0 75.1484 12.1626 914 104.754 1318.53 490.841
748 0 78.1852 12.7262 995 103.154 1318.09 490.589
749 0 81.1965 13.5227 1098 102.983 1318.24 487.202
750 0 83.1765 12.6358 1051 105.238 1318.35 486.554
751 0 85.189 13.0299 1110 103.767 1318.27 486.249
752 0 87.1393 12.4399 1084 106.13 1318.39 485.677
753 0 91.0919 12.438 1133 105.38 1318.15 485.046
754 0 93.1358 12.9274 1204 104.866 1318.39 480.431
755 0 98.1143 11.507 1129 104.818 1318.28 482.989
756 1 53.101 10.2635 545 104.354 1319.11 502.114
757 0 55.2824 11.6312 643 101.773 1318.77 500.806
758 0 54.5152 10.8043 589 92.5195 1317.28 494.389
759 0 57.3359 11.8774 681 96.8825 1317.06 494.377
760 0 57.3864 10.6471 611 87.2471 1316.8 495.326
761 0 60.0729 10.2875 618 97.3851 1318.51 499.107
762 0 64.1119 11.012 706 95.7167 1318.26 496.306
763 0 66.3525 10.4744 695 95.5899 1318.06 495.698
764 0 66.2691 10.6535 706 95.6941 1317.9 492.204
765 0 70.2613 10.3186 725 95.9834 1318.1 494.393
766 0 73.1809 10.5629 773 94.8887 1318.05 492.596
767 0 73.186 9.79696 717 95.9916 1318.04 491.837
768 0 77.1932 10.817 835 94.0216 1317.74 488.962
769 0 80.2135 10.0607 807 95.2255 1318.03 487.446
770 0 85.2226 8.84742 754 95.8767 1318.59 487.72
771 0 88.3651 9.5626 845 94.0651 1318.23 484.859
772 0 91.3442 12.5788 1149 92.0644 1317.99 479.06
773 1 50.0224 11.9347 597 90.397 1319.22 506.379
774 0 50.0326 10.733 537 99.0317 1318.67 502.471
775 0 51.3439 10.381 533 92.5722 1317.08 496.702
776 0 45.1015 4.34576 196 90.9745 1315.19 496.474
777 0 48.1206 9.20604 443 87.2325 1315.47 495.567
778 0 51.1413 9.17068 469 86.6183 1315.83 492.951
779 0 56.0527 12.8094 718 88.9791 1315.6 501.266
780 0 57.1609 9.67445 553 94.9675 1314.54 501.759
781 0 61.0328 12.5834 768 90.4323 1314.51 497.656
782 0 60.205 10.7134 645 93.9008 1313.98 496.679
783 0 62.0557 10.5712 656 94.1479 1314.86 498.648
784 0 67.1163 11.7259 787 92.0051 1314.87 496.435
785 0 66.1481 12.0336 796 91.6193 1314.34 496.785
786 0 71.1434 12.0039 854 91.4941 1315.15 493.224
787 0 72.1998 11.8006 852 67.0634 1314.29 498.996
788 0 75.0975 12.597 946 92.4123 1314.43 490.351
789 0 78.1115 11.7396 917 93.5202 1314.58 492.1
790 0 79.0592 11.4977 909 95.2398 1314.32 489.906
791 0 83.0786 12.5905 1046 93.8145 1314.25 489.174
792 0 87.1725 12.1827 1062 93.6026 1313.95 487.888
793 0 91.1334 13.2882 1211 90.2254 1314.23 486.301
794 1 49.1242 11.4811 564 92.0762 1313.76 506.69
795 0 48.0227 10.4326 501 94.1138 1313.97 506.363
796 0 52.2138 12.0466 629 86.7059 1314.62 503.175
797 0 54.0395 14.1748 766 83.3003 1314.3 503.044
798 0 57.0313 14.2553 813 91.5646 1313.54 502.477
799 0 58.1442 13.1398 764 94.428 1313.61 502.815
800 0 59.023 14.6214 863 92.3024 1313.87 500.959
801 0 59.0345 12.823 757 97.1295 1313.14 499.47
802 0 61.0629 12.1678 743 98.0929 1313.11 500.494
803 0 62.1018 13.0431 810 98.7469 1313.17 497.585
804 0 65.0867 12.4449 810 99.4543 1313.11 498.37
805 0 68.1968 13.637 930 96.7323 1312.89 497.677
806 0 69.1232 13.541 936 97.391 1313.46 496.29
807 0 73.1669 13.6811 1001 97.2937 1313.64 494.481
808 0 74.3798 12.8798 958 99.5251 1313.97 493.349
809 0 79.1668 13.9073 1101 96.8692 1314.17 492.51
810 0 80.2342 13.4357 1078 98.6781 1313.82 492.125
811 0 82.2623 13.2017 1086 99.1519 1314.69 491.106
812 0 88.2554 14.1294 1247 97.2133 1313.98 489.488
813 0 90.1868 14.1151 1273 97.7423 1314.14 487.518
814 1 48.0645 11.4013 548 99.4234 1313.58 506.46
815 0 49.0811 12.3265 605 98.4446 1313.29 505.425
816 0 52.1177 13.4695 702 95.2607 1313.3 505.613
817 0 52.0566 12.0254 626 99.1613 1313.42 504.772
818 0 52.0268 11.7055 609 100.849 1312.91 502.337
819 0 55.0584 11.8601 653 100.787 1312.59 503.055
820 0 54.1016 11.0533 598 104.03 1313.09 500.376
821 0 59.0784 12.7458 753 99.3878 1313.23 499.769
822 0 59.0362 12.0604 712 101.021 1313.74 500.546
823 0 63.0597 12.0362 759 100.967 1313.42 497.73
824 0 64.0798 12.4688 799 100.977 1313.87 497.836
825 0 67.0421 12.9918 871 99.1309 1314.2 497.038
826 0 68.0215 12.202 830 101.173 1313.24 494.851
827 0 70.0589 12.4895 875 100.439 1313.39 494.382
828 0 71.18 11.7449 836 102.523 1314.14 493.745
829 0 78.0435 13.0953 1022 97.956 1314.03 492.682
830 0 78.2678 11.4223 894 101.172 1313.68 494.002
831 1 43.1328 11.5689 499 99.1683 1313.8 509.411
832 0 43.071 12.5142 539 98.4045 1313.5 507.291
833 0 45.0913 12.7741 576 97.3576 1313.52 506.257
834 0 46.0552 12.5501 578 99.0536 1313.15 505.965
835 0 45.0218 10.506 473 104.56 1312.86 505.44
836 0 47.0309 12.8001 602 98.9585 1312.37 504.267
837 0 48.1363 13.0255 627 91.134 1313.59 506.697
838 0 50.0538 12.4466 623 92.5666 1313.27 506.486
839 0 49.0294 11.177 548 96.7318 1313.63 505.755
840 0 52.0534 11.6803 608 94.5312 1313.55 506.14
841 0 56.0944 12.265 688 93.5916 1313.91 503.36
842 0 55.1271 12.19 672 94.5134 1313.48 502.634
843 0 58.131 12.1278 705 93.3021 1314.04 502.204
844 0 59.1103 13.2464 783 91.9923 1314.25 501.402
845 0 61.2678 12.3556 757 94.5561 1313.49 500.885
846 0 61.0629 12.9375 790 94.0076 1314.04 498.862
847 0 65.1642 12.9519 844 93.269 1313.94 498.72
848 0 66.1179 13.2944 879 93.1069 1313.64 498.232
849 0 67.1881 12.1748 818 95.1504 1313.61 496.347
850 0 71.0718 12.7336 905 93.3536 1314.41 496.31
851 0 71.1544 13.3512 950 92.7758 1313.79 495.107
852 0 74.1337 13.0845 970 93.5485 1314.7 494.868
853 0 79.2515 14.3467 1137 91.0836 1314.91 490.361
854 0 79.1957 10.9728 869 97.8331 1314.51 491.614
855 0 83.1191 13.4626 1119 94.227 1314.49 486.738
856 1 46.075 11.2859 520 99.0154 1313.79 506.344
857 0 49.0431 13.9877 686 92.9548 1313.77 504.45
858 0 50.0911 12.5372 628 95.7054 1313.98 503.887
859 0 52.1975 12.2228 638 99.7602 1313.9 503.049
860 0 53.1412 13.0031 691 98.0883 1313.78 503.311
861 0 56.2008 12.6511 711 98.82 1313.68 502.241
862 0 58.0645 14.2256 826 96.753 1314.12 500.247
863 0 57.1417 12.7052 726 101.634 1314.09 499.775
864 0 60.2652 11.8642 715 102.821 1314.53 499.961
865 0 63.1597 14.0913 890 99.3281 1314.48 497.072
866 0 61.2863 11.5197 706 95.0552 1314.92 501.941
867 0 65.1572 13.4598 877 87.7685 1316.1 497.073
868 0 66.187 12.646 837 89.2413 1316.06 499
869 0 67.0753 12.3741 830 90.5518 1316.42 496.513
870 0 71.1843 13.5002 961 89.1488 1315.95 493.953
871 0 73.2158 13.1529 963 88.675 1316.35 490.481
872 0 77.1344 12.4847 963 91.0187 1317.18 492.834
873 0 79.1085 12.2616 970 92.8021 1317.17 490.725
874 0 82.1175 13.3954 1100 91.7991 1316.88 490.397
875 0 83.1118 11.8876 988 94.0162 1317.73 489.495
876 0 86.1707 11.6165 1001 93.6893 1316.95 488.395
877 0 90.2628 12.8403 1159 91.0095 1316.93 486.701
878 0 91.1494 11.2892 1029 94.0078 1317.29 486.982
879 0 93.1378 11.338 1056 95.5483 1317.14 481.219
880 0 98.2394 13.5689 1333 92.111 1316.97 478.873
881 0 100.259 12.0688 1210 94.6736 1316.89 480.529
882 0 104.331 12.307 1284 94.5156 1316.25 479.186
883 0 110.526 12.8748 1423 95.3654 1316.29 471.177
884 0 111.366 11.5026 1281 97.2404 1316.04 473.8
885 0 118.256 13.4454 1590 96.5094 1316.7 467.494
886 1 63.2761 13.2278 837 95.1087 1316.65 494.258
887 0 67.3445 13.275 894 93.5559 1317.33 494.155
888 0 67.2752 12.6049 848 95.7547 1316.92 495.621
889 0 72.346 13.6981 991 92.995 1316.03 492.758
890 0 73.2137 13.9318 1020 92.2392 1316.13 492.891
891 0 77.1854 11.8028 911 95.8946 1315.65 490.679
892 0 80.0769 12.9251 1035 95.1556 1314.78 487.219
893 0 83.0871 12.3485 1026 96.9649 1314.79 486.777
894 0 85.0695 12.2488 1042 97.2083 1315.34 483.496
895 0 89.0906 13.3684 1191 95.1134 1315.85 481.278
896 0 92.1137 12.4629 1148 97.054 1315.27 481.78
897 0 92.2161 11.8417 1092 100.134 1315.39 480.134
898 0 98.5182 13.3072 1311 96.2342 1316.63 478.984
899 0 100.254 13.2963 1333 97.6212 1315.51 477.752
900 0 104.315 12.2226 1275 99.2149 1315.64 477.265
901 0 107.166 13.2318 1418 99.5677 1315.49 472.479
902 1 55.1682 12.9604 715 98.0517 1315.27 498.544
903 0 57.1022 12.4338 710 93.1831 1316.95 500.376
904 0 57.1738 12.5407 717 94.0488 1316.64 496.417
905 0 60.3572 13.4201 810 104.181 1317.63 499.184
906 0 64.2096 14.7174 945 100.88 1316.93 497.338
907 0 66.2786 14.7408 977 100.029 1317.11 496.681
908 0 68.3122 14.1263 965 101.343 1317.21 496.943
909 0 70.3435 14.6709 1032 101.507 1317.51 493.441
910 0 73.3348 14.3179 1050 101.036 1318.02 492.932
911 0 76.3005 15.1506 1156 100.183 1317.51 492.103
912 0 78.339 13.3778 1048 104.636 1317.11 491.619
913 0 81.2999 14.6987 1195 101.286 1317.2 490.068
914 0 81.3855 13.307 1083 107.387 1317.15 487.456
915 0 85.1791 13.1018 1116 98.0726 1317.46 483.811
916 0 85.2054 11.173 952 100.027 1317.34 480.648
917 0 90.2094 12.471 1125 97.8773 1317.05 477.696
918 0 93.4858 12.5581 1174 98.0903 1316.74 477.173
919 0 99.2794 13.0239 1293 99.7734 1316.62 478.643
920 1 53.0473 10.8582 576 98.0521 1318.39 500.399
921 0 55.1289 11.8268 652 96.2546 1316.87 502.221
922 0 55.2029 12.5718 694 95.9654 1315.7 499.53
923 0 58.1042 13.252 770 92.1675 1316.63 501.332
924 0 62.1098 13.0092 808 91.2847 1316.98 498.629
925 0 64.1709 13.4641 864 89.0023 1317.5 496.77
926 0 64.1997 11.9938 770 92.8688 1317.22 496.431
927 0 67.1615 12.6858 852 91.8192 1316.53 495.812
928 0 71.2379 13.4198 956 89.7845 1317.07 492.927
929 0 72.2759 14.2094 1027 88.5297 1317.22 493.321
930 0 75.1706 13.1834 991 90.6024 1316.89 490.18
931 0 79.1804 13.4377 1064 89.8957 1317.17 490.223
932 0 82.2307 14.9214 1227 87.5061 1316.5 488.664
933 0 84.2619 12.4493 1049 91.9028 1316.84 489.503
934 0 87.3056 13.3096 1162 91.191 1316.51 487.442
935 0 89.1901 12.5799 1122 93.1016 1316.5 486.004
936 0 94.1678 13.0936 1233 92.7656 1317.12 482.865
937 1 49.1789 11.8344 582 94.5292 1316.97 503.985
938 0 52.2991 11.6254 608 93.8618 1315.44 503.622
939 0 51.2747 11.7992 605 95.6033 1315.9 500.382
940 0 52.1562 11.7723 614 96.4039 1315.85 500.836
941 0 55.2354 12.4377 687 95.8384 1315.38 502.892
942 0 56.1684 12.1599 683 96.6179 1315.85 502.498
943 0 58.2558 12.7198 741 96.6424 1315.29 501.571
944 0 61.2869 12.5639 770 95.7247 1316.06 498.586
945 0 61.1633 12.5239 766 96.7376 1315.6 498.514
946 0 64.115 14.2712 915 92.4066 1316.16 496.857
947 0 66.1195 13.4756 891 94.1257 1316.27 495.388
948 0 70.1836 13.1655 924 93.8019 1316.82 494.077
949 0 70.1793 12.8528 902 94.8814 1316.5 493.749
950 0 72.4719 13.7709 998 93.9038 1316.58 490.821
951 0 76.1787 13.5471 1032 94.7461 1316.22 491.386
952 0 78.2604 12.829 1004 95.8536 1315.85 490.43
953 0 80.301 13.3124 1069 95.5819 1315.36 488.094
954 0 83.2535 13.3328 1110 94.0928 1315.69 486.82
955 0 86.1945 12.9591 1117 96.0161 1315.81 483.428
956 0 89.2392 12.4833 1114 97.1248 1315.48 483.143
957 0 91.2238 12.8694 1174 96.1346 1316.4 482.867
958 0 95.2108 12.6876 1208 97.1755 1316.18 482.107
959 1 52.0788 13.0763 681 95.0925 1315.18 498.283
960 0 50.176 11.2803 566 94.2562 1318.26 500.647
961 0 55.2012 12.9164 713 90.1262 1318.23 499.941
962 0 57.0625 12.8981 736 93.3342 1318.72 501.697
963 0 59.2655 13.9035 824 90.9223 1318.78 500.677
964 0 61.0854 12.8509 785 92.7975 1318.26 500.124
965 0 63.1318 14.0658 888 90.3119 1317.81 497.363
966 0 65.1288 13.4656 877 91.4903 1317.42 495.897
967 0 65.126 13.758 896 91.625 1317.48 493.442
968 0 67.1288 13.7795 925 92.3514 1317.36 495.035
969 0 70.2568 14.6463 1029 90.8591 1316.96 493.134
970 0 72.2147 13.2106 954 93.6101 1317.21 491.827
971 0 75.2099 13.8147 1039 92.6766 1316.55 491.168
972 0 75.2326 13.4782 1014 94.7258 1316.4 488.688
973 0 80.2826 14.7853 1187 91.1997 1316.78 488.66
974 0 81.404 13.9551 1136 93.9877 1316.41 486.55
975 0 86.2913 12.7707 1102 97.5708 1316.52 486.226
976 0 89.2246 12.3621 1103 95.9021 1316.68 485.102
977 0 89.2139 11.0521 986 99.1146 1316.8 483.173
978 0 91.2751 11.4708 1047 98.3133 1316.77 480.104
979 0 96.2827 12.6814 1221 94.3481 1316.96 480.044
980 0 101.17 14.6684 1484 90.4609 1316.73 473.571
981 0 101.154 13.0691 1322 92.3132 1316.95 470.399
982 0 105.26 11.8469 1247 95.8829 1317.06 469.412
983 0 105.26 11.8279 1245 142.855 1317.06 469.458
984 0 112.157 12.429 1394 96.4053 1317.12 469.633
985 1 62.1097 12.2847 763 87.9056 1316.05 498.574
986 0 62.1984 12.0743 751 89.8535 1317.98 493.719
987 0 66.1062 13.1304 868 87.4217 1317.89 494.416
988 0 67.2449 12.7742 859 89.7183 1315.88 492.081
989 0 67.196 11.5632 777 92.0605 1315.78 492.758
990 0 71.1809 13.2479 943 88.8706 1315.97 490.646
991 0 73.2247 12.3865 907 90.4101 1316.34 492.139
992 0 75.2368 12.2148 919 91.6812 1316.12 487.866
993 0 75.2729 13.3116 1002 92.2285 1316.34 488.366
994 0 82.1645 12.9375 1063 90.9718 1315.68 487.875
995 0 82.1496 12.1851 1001 93.6803 1315.8 484.928
996 0 85.2187 12.4503 1061 94.0254 1316.39 484.234
997 0 87.1364 13.7141 1195 91.8368 1316.54 483.771
998 0 89.1686 11.5175 1027 95.8851 1315.9 483.916
999 0 91.1596 14.2497 1299 92.4911 1316.69 480.4
1000 0 95.1408 12.8126 1219 94.9737 1316.5 478.343
1001 0 99.1841 13.6312 1352 93.6243 1316 475.44
1002 0 100.312 13.1789 1322 94.6309 1316.01 474.943
1003 0 103.073 12.9325 1333 95.156 1315.89 474.944
1004 0 107.181 12.9594 1389 94.7581 1316.12 473.01
1005 0 113.154 14.034 1588 92.9477 1315.88 468.727
1006 0 116.312 12.8018 1489 96.0437 1315.45 469.796
1007 0 117.101 12.7326 1491 96.0389 1315.44 466.254
1008 0 124.141 13.533 1680 95.678 1315.23 461.927
1009 1 67.3569 12.5748 847 97.1606 1315.95 491.608
1010 0 69.2039 13.2074 914 97.0438 1315.61 488.977
1011 0 71.1671 13.0819 931 98.0365 1315.16 488.362
1012 0 74.1121 13.0883 970 98.2155 1315.55 487.53
1013 0 75.2056 14.108 1061 97.6852 1315.19 486.445
1014 0 77.1573 13.2586 1023 99.7683 1314.64 486.944
1015 0 81.225 12.2992 999 101.126 1315.27 484.136
1016 0 84.1358 14.3459 1207 97.5079 1314.91 483.761
1017 0 86.2131 13.687 1180 99.4314 1315.53 481.969
1018 0 89.1341 14.1697 1263 98.5503 1315.67 480.974
1019 0 91.3667 14.2284 1300 98.9046 1315.17 479.621
1020 0 94.3419 14.3309 1352 99.0192 1316.19 476.714
1021 0 95.2308 13.336 1270 102.146 1315.19 476.312
1022 0 100.393 14.5927 1465 99.4464 1316.71 473.279
1023 0 100.624 14.1716 1426 101.101 1316.43 471.687
1024 0 104.311 14.0829 1469 101.945 1315.75 471.655
1025 1 54.1008 11.1274 602 100.204 1315.79 496.631
1026 0 60.0452 12.1075 727 98.5076 1315.43 497.545
1027 0 62.1492 13.0975 814 92.1744 1313.92 495.715
1028 0 63.3128 12.4777 790 98.7532 1315.52 495.304
1029 0 65.2437 12.9668 846 98.4728 1316.16 494.006
1030 0 66.0712 14.5298 960 89.3885 1315.17 494.145
1031 0 67.0988 12.5636 843 92.6477 1315.37 493.877
1032 0 71.1426 13.2691 944 91.9576 1315.38 490.796
1033 0 73.0717 10.7155 783 96.6232 1316.38 492.243
1034 0 77.1572 13.9196 1074 90.8454 1316.33 489.747
1035 0 78.2523 13.0987 1025 93.161 1316.09 489.159
1036 0 81.1943 12.2299 993 95.2508 1315.75 486.831
1037 0 84.1946 12.0673 1016 95.5581 1316.26 485.118
1038 0 87.3987 13.0208 1138 93.9499 1316.62 485.941
1039 0 90.3127 14.2173 1284 93.257 1316.19 482.681
1040 0 91.3868 13.4921 1233 94.9554 1316.05 480.652
1041 0 96.3632 14.7774 1424 91.9242 1316.26 479.032
1042 0 99.2322 14.5416 1443 93.273 1316.08 475.901
1043 0 101.355 13.6845 1387 95.1449 1316.12 473.164
1044 0 106.363 14.0557 1495 93.9786 1316.7 474.355
1045 0 109.346 11.7974 1290 104.73 1316.8 472.171
1046 0 113.381 14.3586 1628 99.613 1316.76 471.535
1047 0 118.37 13.8802 1643 99.6318 1316.65 469.147
1048 1 64.2945 12.0695 776 98.8183 1316.12 495.62
1049 0 66.3163 13.7221 910 95.9736 1315.61 493.405
1050 0 69.3152 15.0183 1041 92.8818 1316.2 490.842
1051 0 70.3528 14.4273 1015 94.6207 1315.97 490.443
1052 0 71.3662 13.718 979 96.0061 1315.96 488.339
1053 0 76.5217 14.2966 1094 94.2532 1316.21 486.603
1054 0 79.4774 14.2053 1129 93.7378 1316.18 487.231
1055 0 78.568 13.657 1073 96.0382 1315.92 484.671
1056 0 81.6126 13.8091 1127 94.7791 1316.32 483.476
1057 0 86.631 14.6714 1271 93.2085 1316.18 481.934
1058 0 88.5628 14.3853 1274 92.7716 1316.4 478.192
1059 0 90.5401 15.2198 1378 91.3012 1316.25 476.173
1060 0 94.5872 14.262 1349 93.8903 1316.71 472.942
1061 0 92.2174 13.8694 1279 92.5152 1315.24 469.522
1062 0 97.2261 13.6795 1330 91.782 1315.25 468.419
1063 0 100.262 12.7067 1274 94.2504 1315.57 465.754
1064 1 52.3435 11.1953 586 82.9164 1317.05 494.179
1065 0 50.1076 9.55944 479 92.9311 1315.61 490.215
1066 0 57.2532 11.5801 663 83.8673 1317.18 490.214
1067 0 55.1499 11.6229 641 86.0078 1316.8 489.284
1068 0 59.2605 11.8123 700 85.3829 1316.88 489.12
1069 0 62.1845 12.5755 782 84.0409 1316.66 489.028
1070 0 66.1196 12.4471 823 82.2503 1317.24 489.706
1071 0 65.1105 10.9813 715 85.8713 1317.64 484.768
1072 0 71.1902 11.7713 838 83.9344 1318.05 487.626
1073 0 73.1263 12.2801 898 84.3719 1317.3 485.197
1074 0 77.1369 10.7731 831 86.7894 1317.59 484.803
1075 0 79.1663 11.4569 907 87.3594 1317.59 483.155
1076 0 80.1924 11.0858 889 89.126 1317.66 481.256
1077 0 86.2406 11.4447 987 89.4833 1317.01 479.951
1078 0 88.2543 10.8097 954 91.7421 1316.72 480.273
1079 1 46.1077 10.4755 483 83.9731 1318.11 501.671
1080 0 50.0181 12.5754 629 88.4722 1318.1 502.496
1081 0 50.1064 12.3338 618 87.5906 1318.99 502.167
1082 0 54.118 13.1934 714 93.4818 1318.68 500.877
1083 0 55.0139 12.4332 684 96.5892 1318.29 500.586
1084 0 56.0797 12.7319 714 96.0266 1318.43 499.5
1085 0 59.0924 14.5704 861 91.5749 1318.73 498.481
1086 0 57.1563 12.0722 690 99.8797 1318.51 496.813
1087 0 61.0278 10.8639 663 100.508 1317.99 498.578
1088 0 65.0777 14.0908 917 94.0403 1317.63 495.88
1089 0 67.0629 13.2413 888 96.1993 1317.96 495.455
1090 0 67.1071 13.62 914 96.6083 1318.22 494.144
1091 0 71.096 13.7842 980 95.5429 1318.6 493.055
1092 0 71.071 12.6493 899 99.4294 1318.43 492.006
1093 0 73.0673 12.6185 922 99.3894 1318.32 492.203
1094 0 75.093 13.1437 987 100.259 1318.08 489.541
1095 0 77.1219 13.0702 1008 101.449 1316.44 488.275
1096 0 81.2103 13.4219 1090 99.5477 1317.5 486.205
1097 0 83.0824 12.6621 1052 102.163 1316.99 485.674
1098 0 84.146 13.2983 1119 99.916 1317.21 484.724
1099 0 87.221 13.7238 1197 98.9549 1316.48 483.445
1100 0 90.1745 12.7309 1148 99.3545 1315.92 484.447
1101 1 51.07 12.9822 663 93.4389 1315.26 502.179
1102 0 50.1354 11.2495 564 91.1348 1315.54 503.855
1103 0 54.4445 13.2429 721 89.8017 1316.88 496.702
1104 0 56.226 13.3924 753 90.1992 1315.61 500.307
1105 0 57.1584 12.6141 721 91.1207 1314.82 497.964
1106 0 57.108 12.1524 694 92.1383 1314.4 497.388
1107 0 60.0557 12.4551 748 91.3489 1315.26 497.044
1108 0 60.0664 15.3663 923 86.8971 1314.9 496.412
1109 0 62.0731 12.5014 776 91.8312 1315.1 496.418
1110 0 65.2357 13.9034 907 88.849 1315.26 494.325
1111 0 65.1026 13.7168 893 89.1456 1315.17 494.122
1112 0 68.1782 12.4967 852 91.9413 1315.03 492.006
1113 0 70.1343 12.9894 911 90.3019 1315.07 492.552
1114 0 72.1191 14.1849 1023 88.6628 1315.24 490.289
1115 0 73.1478 12.796 936 92.7062 1315.63 488.955
1116 0 77.1906 13.227 1021 91.8639 1315.21 487.682
1117 0 79.1348 12.346 977 93.0215 1315.14 486.139
1118 0 80.1141 13.5182 1083 92.0268 1315.27 485.268
1119 0 84.2607 13.4582 1134 92.2557 1315.06 487.417
1120 0 86.112 13.1689 1134 94.4021 1314.11 482.771
1121 1 47.0247 10.9304 514 99.3288 1313.99 500.899
1122 0 50.031 12.5322 627 95.9936 1314.38 502.352
1123 0 52.1048 10.69 557 99.4165 1315.18 501.801
1124 0 51.0644 10.3399 528 104.722 1314.86 498.93
1125 0 53.0194 12.3728 656 100.584 1315.14 500.277
1126 0 55.0527 12.1883 671 100.31 1315.94 499.806
1127 0 58.0976 11.6012 674 101.789 1315.15 497.025
1128 0 60.0467 11.9407 717 101.703 1315.09 495.128
1129 0 59.0909 12.0323 711 103.152 1315.39 495.179
1130 0 64.1281 13.1144 841 98.9786 1314.98 496.323
1131 0 64.0564 12.2236 783 103.575 1315.26 493.939
1132 0 65.0766 12.1703 792 104.54 1315.23 494.33
1133 0 69.083 12.2751 848 104.119 1315.62 493.099
1134 0 70.0792 12.5572 880 105.147 1315.3 492.477
1135 0 71.1062 13.2759 944 104.346 1315.21 494.206
1136 0 75.1091 12.7814 960 106.822 1314.12 489.723
1137 0 76.3614 13.8552 1058 105.712 1315.26 487.336
1138 0 78.2569 13.8774 1086 108.284 1314.71 486.534
1139 0 82.1544 14.4849 1190 106.736 1314.86 486.925
1140 0 83.1224 13.8711 1153 111.31 1315.38 485.25
1141 0 86.2651 14.7684 1274 110.567 1315.84 482.36
1142 0 90.2559 15.168 1369 109.72 1315.33 482.931
1143 0 90.2523 14.6146 1319 113.549 1315.21 479.784
1144 0 93.1782 14.8962 1388 113.798 1315.48 476.37
1145 0 96.1667 14.6412 1408 114.672 1315.25 478.503
1146 0 100.213 14.0801 1411 116.664 1314.98 476.822
1147 0 102.223 14.8303 1516 115.876 1315.02 474.125
1148 0 104.238 14.9273 1556 116.163 1314.76 472.837
1149 0 107.135 15.5878 1670 115.143 1314.59 470.51
1150 0 109.257 14.3881 1572 116.882 1314.24 471.244
1151 0 114.215 14.7266 1682 116.825 1314.83 469.15
1152 0 117.182 15.1047 1770 115.025 1314.59 470.405
1153 0 121.146 13.7189 1662 115.357 1315.49 466.196
1154 0 125.181 13.3646 1673 114.327 1314.61 468.207
1155 0 128.339 15.6071 2003 108.57 1315.23 464.117
1156 0 134.289 13.6273 1830 113.215 1315.44 464.211
1157 0 136.362 14.5348 1982 111.193 1315.14 461.525
1158 0 142.484 14.4859 2064 112.866 1314.65 455.497
1159 0 146.218 14.3758 2102 113.984 1315.04 455.747
1160 0 150.265 14.754 2217 115.507 1315.02 451.388
1161 0 153.336 14.915 2287 115.502 1315.2 451.898
1162 0 158.232 14.801 2342 118.967 1314.69 446.911
1163 0 164.321 14.8307 2437 118.206 1315.1 447.377
1164 0 167.426 14.6273 2449 119.642 1315.53 441.054
1165 0 174.453 14.4796 2526 119.88 1315.51 439.147
1166 0 179.35 14.3407 2572 120.775 1316.4 439.9
1167 0 182.259 13.4314 2448 124.006 1315.6 433.862
1168 0 189.341 14.5293 2751 120.415 1316 435.402
1169 0 193.296 14.5994 2822 120.581 1315.42 430.191
1170 0 201.308 14.4952 2918 121.539 1315.53 428.637
1171 0 203.346 15.058 3062 121.754 1315.67 421.593
1172 0 208.435 15.2853 3186 121.337 1315.12 422.438
1173 0 217.341 15.501 3369 120.498 1315.04 418.977
1174 0 224.372 16.6643 3739 118.115 1315.24 414.3
1175 0 228.465 14.8863 3401 125.108 1315.36 407.026
1176 0 238.503 15.0564 3591 126.097 1314.36 404.805
1177 0 244.583 14.6862 3592 126.835 1314.87 397.302
1178 0 254.41 15.589 3966 126.785 1314.53 395.39
1179 0 260.658 14.6169 3810 130.222 1315.05 392.83
1180 0 269.322 14.258 3840 132.867 1315.4 392.241
1181 0 276.441 14.8169 4096 134.355 1315.7 386.849
1182 0 280.482 14.6819 4118 137.932 1315.78 381.949
1183 0 281.638 14.8631 4186 141.476 1315.72 378.333
1184 0 289.517 16.2754 4712 139.104 1315.4 378.589
1185 0 295.421 15.3747 4542 144.924 1315.77 372.715
1186 0 303.588 16.1996 4918 142.568 1315.86 365.301
1187 0 310.64 15.5486 4830 141.811 1316.57 356.886
1188 0 321.613 16.9894 5464 136.281 1315.8 347.522
1189 0 329.477 16.2257 5346 140.655 1315.46 345.687
1190 0 336.614 16.357 5506 144.224 1315.04 336.578
1191 0 344.627 15.3761 5299 147.782 1315.59 327.618
1192 0 355.615 16.0511 5708 147.278 1315.92 329.5
1193 0 366.8 16.3413 5994 145.779 1315.76 318.762
1194 0 375.64 16.7714 6300 144.487 1316.11 318.701
1195 0 386.714 15.6317 6045 149.586 1316 313.914
1196 0 399.781 16.5491 6616 147.01 1315.47 302.418
1197 0 409.65 15.6475 6410 150.742 1316.06 290.591
1198 0 419.346 17.3508 7276 144.243 1316.3 276.001
1199 0 405.817 16.4779 6687 148.374 1315.82 282.038
1200 0 405.009 16.4614 6667 151.33 1315.61 286.176
1201 0 418.199 14.9809 6265 158.472 1316.29 290.369
1202 0 428.428 17.2444 7388 151.822 1316.87 293.783
1203 0 429.385 15.8319 6798 162.758 1316.6 285.901
1204 0 436.743 15.9155 6951 166.158 1317 284.659
