time division length width area intensity CMx CMy
0 0 53.0669 13.2286 702 120.638 1169.05 490.311
1 0 54.0886 11.3148 612 124.258 1169.15 491.757
2 0 55.1955 12.1749 672 123.061 1169.1 489.344
3 0 56.1797 13.439 755 121.06 1169.29 490.156
4 0 58.2042 12.6451 736 124.274 1170.39 488.736
5 0 60.3935 12.551 758 123.132 1171.21 487.083
6 0 59.088 10.4082 615 129.954 1170.8 488.343
7 0 62.2407 12.307 766 124.843 1170.39 486.504
8 0 63.1999 11.5032 727 125.846 1170.8 485.869
9 1 33.0409 12.9537 428 125.827 1169.89 499.762
10 0 31.0452 13.2065 410 122.968 1169.3 501.956
11 0 31.0221 12.7651 396 124.934 1169.62 502.396
12 0 32.024 12.3345 395 125.835 1169.38 502.686
13 0 32.0896 13.0572 419 128.126 1168.64 501.212
14 0 34.0532 13.009 443 127.677 1169.11 501.767
15 0 35.0443 14.9525 524 123.38 1168.47 501.311
16 0 36.1647 13.2173 478 127.297 1168.14 501.755
17 0 38.0791 14.3648 547 123.53 1168.34 501.353
18 0 39.0824 14.6869 574 124.695 1168.42 500.246
19 0 40.0729 13.7 549 126.142 1167.86 501.179
20 0 40.0628 15.1762 608 123.262 1168.1 499.235
21 0 43.0638 14.3276 617 124.82 1167.97 498.974
22 0 44.1066 14.4876 639 123.892 1167.93 500.41
23 0 44.096 14.6952 648 124.019 1167.65 499.532
24 0 47.0949 14.0567 662 125.885 1167.31 500.246
25 0 47.0694 14.5742 686 122.622 1167.1 498.477
26 0 47.0534 14.0479 661 125.13 1167.53 497.905
27 0 50.0635 14.941 748 121.086 1167.61 498.23
28 0 52.1258 13.4482 701 125.15 1166.99 497.342
29 0 52.1262 14.2155 741 124.223 1167.2 496.424
30 0 52.0662 14.3087 745 123.675 1166.52 497.882
31 0 52.0333 13.0493 679 129.626 1166.18 495.763
32 0 56.0447 14.2922 801 124.28 1166.64 496.488
33 0 59.1045 13.2816 785 126.631 1166.53 494.976
34 0 61.049 16.1018 983 118.468 1166.53 494.579
35 0 63.0445 14.577 919 122.991 1166.8 493.614
36 0 62.1332 13.5515 842 127.344 1166.33 492.265
37 0 65.0452 14.3439 933 123.801 1166.15 493.748
38 0 69.1149 15.1053 1044 121.9 1165.68 489.483
39 0 71.1005 14.7256 1047 123.5 1165.3 489.562
40 0 72.1047 14.3403 1034 124.626 1165.83 490.229
41 0 76.0902 14.7062 1119 123.184 1165.57 488.33
42 0 76.131 13.884 1057 125.792 1165.28 487.426
43 0 81.0899 14.4408 1171 123.237 1165.57 485.858
44 0 84.218 15.0087 1264 121.824 1165.69 483.474
45 0 85.1452 14.3402 1221 123.82 1165.8 482.654
46 0 90.0576 15.1681 1366 120.48 1165.52 480.894
47 0 93.0816 14.3208 1333 122.161 1166.21 479.58
48 0 99.1613 15.1168 1499 118.138 1166.21 478.617
49 1 51.0242 13.5818 693 125.137 1165.82 498.844
50 0 54.0457 14.6543 792 121.321 1166.04 496.837
51 0 54.0424 14.8402 802 122.537 1165.31 495
52 0 57.1112 15.0058 857 121.597 1165.1 496.882
53 0 60.0439 15.2722 917 120.585 1165.42 496.201
54 0 60.0332 13.7257 824 121.038 1164.95 496.157
55 0 62.1274 14.5346 903 120.339 1165.19 495.641
56 0 65.1483 14.5514 948 119.951 1164.59 493.263
57 0 66.085 14.436 954 120.794 1164.67 493.665
58 0 69.0854 15.3578 1061 119.705 1164.89 490.805
59 0 69.206 13.9872 968 124.267 1165.23 490.009
60 0 75.0719 14.6127 1097 120.673 1165.23 488.827
61 0 78.0574 15.7833 1232 117.494 1164.58 487.702
62 0 80.0807 14.5228 1163 120.6 1164.34 487.163
63 0 81.2049 14.408 1170 120.677 1164.28 482.432
64 0 85.072 14.3996 1225 120.628 1164.49 481.822
65 0 88.0931 15.0523 1326 118.02 1164.46 483.986
66 0 91.0903 15.7536 1435 117.146 1164.04 478.793
67 0 91.1061 15.7728 1437 140.606 1164.05 478.916
68 0 97.1312 13.281 1290 122.371 1163.98 477.605
69 0 103.118 16.1369 1664 114.314 1164.03 475.209
70 0 107.306 16.2433 1743 114.297 1163.42 471.805
71 1 56.0842 11.3401 636 115.807 1163.67 495.005
72 0 58.0367 13.3364 774 111.506 1164.67 493.133
73 0 61.0486 13.8906 848 118.463 1164.36 496.43
74 0 64.0411 13.8036 884 118.821 1164.76 494.915
75 0 66.1134 13.8247 914 115.65 1163.89 494.348
76 0 68.0983 14.4938 987 115.706 1164.24 493.302
77 0 71.2144 14.2949 1018 116.908 1164.47 491.557
78 0 73.0584 14.9469 1092 115.899 1164.47 489.946
79 0 77.1369 14.8826 1148 117.993 1164.64 489.886
80 0 81.1091 15.5346 1260 116.341 1165.02 486.555
81 0 85.0219 15.4548 1314 117.326 1164.66 485.018
82 0 85.2294 13.7629 1173 119.724 1165.19 484.39
83 0 89.1074 14.6452 1305 115.132 1165.32 483.234
84 0 94.2361 15.5248 1463 112.044 1165.07 479.454
85 0 95.1046 14.7311 1401 113.642 1165.71 477.996
86 0 100.175 14.9539 1498 113.748 1165.01 476.399
87 1 49.0992 10.326 507 115.817 1164.59 503.564
88 0 51.0533 13.574 693 110.307 1164.66 500.674
89 0 55.1198 13.7156 756 107.667 1163.74 500.761
90 0 55.1515 12.4929 689 112.058 1163.98 500.222
91 0 56.2638 11.6238 654 114.226 1164.15 500.018
92 0 59.078 13.2367 782 110.503 1163.3 498.226
93 0 61.1183 13.6129 832 110.12 1163.51 497.034
94 0 62.0465 12.3134 764 112.986 1163.39 497.246
95 0 65.2376 14.1789 925 110.292 1163.34 493.759
96 0 66.0814 12.5451 829 112.425 1163.2 493.87
97 0 70.0759 13.3284 934 110.854 1163.17 493.526
98 0 70.0819 11.9004 834 115.259 1162.89 492.336
99 0 74.177 13.7105 1017 110.9 1163.23 490.663
100 0 77.1814 13.8893 1072 111.822 1163.25 486.763
101 0 78.1251 12.736 995 114.416 1162.87 485.386
102 0 80.1179 13.2929 1065 113.662 1163.21 486.157
103 0 85.1475 13.6821 1165 111.985 1163.11 483.964
104 0 87.1065 12.8923 1123 113.899 1163.1 483.461
105 0 90.1537 13.0999 1181 116.617 1162.89 482.852
106 0 93.1854 13.6824 1275 120.96 1162.9 479.818
107 1 49.0596 10.9051 535 116.845 1162.24 502.237
108 0 52.0818 11.5011 599 117.518 1162.04 500.558
109 0 53.1109 12.954 688 109.968 1162.91 499.73
110 0 55.301 12.4229 687 107.148 1162.16 500.154
111 0 55.1167 13.6256 751 105.808 1162.51 498.265
112 0 56.2508 12.4443 700 109.531 1162.13 497.793
113 0 59.3101 12.2239 725 109.248 1162.42 498.521
114 0 62.2671 13.5866 846 106.177 1162.15 498.694
115 0 62.12 13.0876 813 108.75 1162.45 495.621
116 0 65.1553 12.8616 838 109.606 1161.94 495.652
117 0 66.1327 13.6544 903 108.066 1162.24 493.251
118 0 70.1799 12.7672 896 109.606 1162.79 490.42
119 0 73.2184 14.3953 1054 105.615 1162.57 491.068
120 0 74.1888 13.3309 989 108.475 1162.52 488.963
121 0 76.076 13.2499 1008 109.43 1162.76 488.741
122 0 78.2036 13.1963 1032 109.299 1162.61 487.985
123 0 81.1778 13.6244 1106 109.061 1162.72 483.364
124 0 86.1587 13.2314 1140 109.078 1163.39 484.986
125 0 88.1688 13.7804 1215 107.566 1163.56 481.846
126 0 92.069 13.7397 1265 112.891 1162.14 482.795
127 0 93.1059 12.8993 1201 113.786 1162.58 476.486
128 0 98.1046 12.7211 1248 114.002 1162.42 477.067
129 1 49.0604 11.0884 544 105.276 1163.3 501.84
130 0 51.4388 11.956 615 105.6 1164.11 498.572
131 0 53.2179 12.4582 663 103.287 1162.75 500.879
132 0 53.0351 10.3328 548 107.704 1163.01 500.765
133 0 55.0613 11.0059 606 106.101 1163.14 499.711
134 0 58.1463 11.7462 683 105.092 1163 498.448
135 0 58.0418 12.3359 716 104.86 1163.3 498.444
136 0 62.0857 12.4022 770 104.61 1163.43 496.642
137 0 64.0937 12.1697 780 105.96 1163.74 496.306
138 0 66.2061 12.8085 848 106.672 1164.03 493.358
139 0 69.1055 12.9946 898 106.814 1163.72 493.024
140 0 70.1865 12.595 884 110.519 1164.08 490.277
141 0 73.1343 13.0992 958 113.114 1163.18 489.609
142 0 74.1048 12.2664 909 116.558 1163.66 488.684
143 0 78.3097 12.6549 991 115.937 1162.92 485.877
144 0 82.323 14.9411 1230 110.018 1164.07 483.994
145 0 84.4587 13.8766 1172 113.463 1164.58 482.369
146 0 86.438 13.1886 1140 118.051 1164.43 475.945
147 0 89.5905 13.0148 1166 118.623 1163.98 476.802
148 0 94.6183 13.7394 1300 116.538 1164.17 474.946
149 0 96.5203 14.2146 1372 116.324 1164.6 473.996
150 0 100.743 13.6983 1380 118.076 1164.44 472.898
151 0 102.763 13.2343 1360 120.267 1164.45 469.522
152 0 106.714 12.7256 1358 122.5 1164.13 468.28
153 0 111.489 14.1987 1583 118.505 1164.48 467.068
154 1 58.2486 10.747 626 114.321 1164.56 498.11
155 0 60.0851 10.585 636 115.844 1163.5 497.764
156 0 61.1507 12.3138 753 114.259 1163.16 496.339
157 0 61.0693 11.0203 673 117.253 1162.75 496.447
158 0 64.2107 12.0541 774 115.68 1162.09 491.646
159 0 67.1858 12.9194 868 112.392 1162.09 491.347
160 0 70.3998 15.0142 1057 106.557 1162.48 488.463
161 0 69.6585 11.2836 786 115.622 1162.6 486.441
162 0 72.5155 11.3907 826 115.28 1163.02 483.823
163 0 76.6444 12.6558 970 111.759 1162.92 483.239
164 0 78.7092 12.3366 971 111.943 1162.78 482.148
165 0 82.8058 12.3542 1023 111.727 1162.94 479.183
166 0 84.9634 12.523 1064 112.525 1162.68 478.012
167 0 88.5719 13.9209 1233 108.534 1162.6 476.645
168 0 92.7645 13.0546 1211 110.394 1162.64 476.327
169 0 94.8138 12.7091 1205 112.616 1162.38 473.205
170 0 98.6876 12.5244 1236 112.111 1162.2 471.873
171 0 102.617 11.7232 1203 114.037 1162.43 470.421
172 0 104.711 11.4983 1204 115.226 1162.33 468.941
173 0 110.788 13.4581 1491 111.021 1162.26 466.929
174 1 56.3039 12.397 698 111.751 1162.05 492.573
175 0 57.2192 12.7579 730 109.266 1161.49 493.879
176 0 58.1943 12.7848 744 102.983 1162.31 497.048
177 0 59.2345 12.5771 745 103.632 1162.05 495.514
178 0 61.2143 12.7911 783 102.908 1162.22 496.346
179 0 62.1608 13.0629 812 103.026 1162.37 495.095
180 0 64.1699 13.0279 836 104.122 1161.39 492.646
181 0 65.1118 11.1654 727 106.352 1161.83 494.656
182 0 67.2711 12.903 868 102.824 1162.36 491.931
183 0 69.1462 12.4374 860 104.186 1161.98 492.194
184 0 71.1914 13.0212 927 102.224 1162.32 492.179
185 0 74.234 12.4471 924 103.701 1162.59 488.719
186 0 75.1687 11.4276 859 105.849 1162.42 487.787
187 0 78.1834 12.6881 992 104.029 1162.96 485.688
188 0 80.2237 13.2878 1066 103.492 1162.75 485.952
189 0 82.2072 12.651 1040 104.511 1162.68 481.555
190 0 84.135 12.1709 1024 106.051 1162 482.955
191 0 87.2132 13.0026 1134 103.693 1162.58 482.207
192 0 91.2558 12.9197 1179 104.31 1162.5 479.292
193 0 92.1968 13.1024 1208 105.146 1162.95 476.337
194 0 97.1438 12.5381 1218 105.02 1162.97 476.172
195 0 100.221 13.6697 1370 102.38 1162.95 474.935
196 0 103.18 13.3941 1382 103.928 1163.06 472.792
197 1 55.0989 11.3251 624 104.236 1161.86 498.053
198 0 58.1002 11.7556 683 101.495 1162.57 497.556
199 0 57.0265 13.2219 754 99.382 1162.36 495.553
200 0 60.1234 14.1376 850 96.6153 1162.33 495.055
201 0 60.1791 11.5322 694 101.873 1161.32 495.657
202 0 62.1515 13.2257 822 101.311 1161.54 493.938
203 0 63.1255 13.6395 861 100.366 1162 493.642
204 0 64.1432 11.5055 738 105.327 1161.6 492.752
205 0 67.1817 12.1759 818 102.736 1161.58 489.687
206 0 70.1374 12.1904 855 104.945 1161.32 490.24
207 0 70.1345 12.1623 853 139.464 1160.32 490.265
208 0 75.3177 13.131 989 102.999 1161.44 488.203
209 0 77.4937 13.3172 1032 102.982 1161.47 485.828
210 0 79.353 12.3751 982 105.838 1160.89 485.002
211 0 82.4291 13.7451 1133 103.379 1161.65 481.695
212 0 86.387 13.6132 1176 102.587 1162.08 483.463
213 0 90.5188 13.8977 1258 103.151 1161.71 479.265
214 0 93.2893 13.4635 1256 104.268 1162.13 472.639
215 0 96.3982 13.9733 1347 103.31 1161.63 475.393
216 0 100.441 13.2417 1330 104.39 1161.62 475.861
217 1 54.3317 12.2949 668 100.115 1161.7 497.292
218 0 54.3734 11.7337 638 102.147 1162.01 492.555
219 0 57.0679 12.1785 695 95.4101 1161.06 497.363
220 0 58.1249 12.2667 713 96.5849 1161.54 494.428
221 0 61.1337 12.4645 762 95.9318 1161.53 494.299
222 0 64.0394 12.4611 798 97.0677 1161.3 493.744
223 0 64.0702 12.5331 803 98.4134 1161.01 492.301
224 0 64.2258 11.5841 744 100.409 1160.89 488.81
225 0 69.0592 13.1337 907 96.8104 1161.15 491.397
226 0 70.1588 12.9991 912 98.136 1161.65 487.728
227 0 73.1675 14.255 1043 95.5158 1161.49 486.423
228 0 74.1869 12.6707 940 99.816 1161.46 486.771
229 0 77.4315 13.7283 1063 98.2117 1161.36 482.804
230 0 81.2226 11.5362 937 101.745 1161.68 484.164
231 0 82.4324 12.6407 1042 100.4 1162.75 481.821
232 0 87.4734 13.6842 1197 99.5581 1162.91 477.122
233 0 91.6265 13.3149 1220 100.398 1163.24 475.816
234 0 94.4776 12.6168 1192 101.343 1164.01 476.671
235 1 48.011 10.5184 505 96.9406 1164.85 499.895
236 0 50.0274 12.1334 607 94.2982 1165.03 498.82
237 0 47.0341 10.9495 515 94.7301 1163.53 499.909
238 0 50.0454 9.8111 491 95.3279 1163.6 500.02
239 0 52.0384 9.64672 502 96.4661 1163.95 499.884
240 0 52.0504 9.4716 493 98.0243 1163.97 497.29
241 0 54.0386 10.585 572 96.1189 1163.82 495.323
242 0 55.0508 11.553 636 93.9638 1163.81 495.23
243 0 58.0219 10.5822 614 94.1857 1163.78 497.107
244 0 60.0957 10.5166 632 93.5791 1164.32 494.027
245 0 60.0888 9.55253 574 96.3693 1163.7 495.31
246 0 62.0777 11.4534 711 93.3066 1163.84 491.935
247 0 64.054 9.69494 621 95.7552 1164.32 490.382
248 0 67.0277 9.17532 615 95.5789 1163.06 493.179
249 0 69.1332 10.6606 737 94.3677 1163.88 488.814
250 0 72.1083 9.49961 685 96.1401 1164.31 488.388
251 0 73.1122 10.5865 774 93.947 1164.72 489.023
252 0 79.1801 12.0106 951 91.6425 1164.98 485.351
253 1 43.0285 9.80745 422 91.936 1164.97 505.289
254 0 40.0403 10.7891 432 92.2292 1164.55 502.292
255 0 41.0831 9.59032 394 95.264 1164.97 503.31
256 0 45.1219 11.1919 505 92.0535 1164.58 501.77
257 0 46.109 10.974 506 92.9032 1164.67 502.445
258 0 49.1142 12.5218 615 89.7675 1164.81 501.354
259 0 48.0392 11.5531 555 92.1766 1164.32 500.29
260 0 48.0355 11.1376 535 94.8056 1164.69 499.407
261 0 46.0429 10.3816 478 90.3389 1162.97 501.226
262 0 51.0552 12.3788 632 86.625 1162.22 499.481
263 0 52.0264 11.2059 583 89.6175 1161.66 498.743
264 0 54.0741 10.1158 547 91.9342 1161.58 498.952
265 0 53.0601 9.42329 500 92.976 1161.51 500.14
266 0 56.0379 12.7771 716 89.7863 1160.95 496.175
267 0 57.0842 10.4232 595 94.2655 1161.53 495.4
268 0 61.0807 11.6894 714 91.7437 1161.22 495.227
269 0 62.0639 11.1498 692 93.513 1161.55 493.717
270 0 65.2114 10.4583 682 95.8152 1161.89 493.431
271 0 63.1045 9.09602 574 100.003 1161.66 492.967
272 0 67.1175 11.2936 758 96.4644 1161.41 491.359
273 0 70.0715 10.7462 753 98.2736 1161.8 490.671
274 0 74.2119 12.0735 896 97.4364 1162.25 489.425
275 0 75.1039 11.0514 830 99.8916 1162.56 489.304
276 0 79.1269 11.6395 921 99.1357 1162.72 488.137
277 0 82.2511 11.2339 924 101.772 1163.34 484.666
278 0 84.2242 13.0841 1102 98.4093 1162.9 484.61
279 0 87.1946 13.6591 1191 99.6054 1162.36 480.819
280 0 89.1584 12.3376 1100 104.304 1161.58 481.656
281 1 47.0554 11.4333 538 106.082 1161.42 500.957
282 0 50.0754 12.3214 617 101.047 1160.9 501.997
283 0 49.0698 12.2682 602 99.0714 1161.56 501.045
284 0 50.0508 12.0677 604 100.114 1161.64 499.892
285 0 54.1148 13.3235 721 96.8738 1161.6 499.32
286 0 53.1127 12.4641 662 99.2961 1161.87 498.657
287 0 56.0584 12.2908 689 99.7692 1161.96 499.861
288 0 54.0605 10.3773 561 106.597 1162.07 498.727
289 0 57.0562 11.3923 650 102.866 1162.08 495.898
290 0 59.0411 12.5675 742 98.7642 1161.94 497.109
291 0 60.0613 11.5549 694 102.968 1162 495.339
292 0 62.1355 11.8773 738 101.495 1161.91 494.388
293 0 67.118 13.6476 916 97.0666 1162.26 492.484
294 0 68.1182 12.7719 870 99.1644 1161.68 492.97
295 0 70.092 11.9843 840 100.729 1161.9 492.314
296 0 72.099 12.6077 909 100.578 1161.59 489.045
297 0 74.0945 11.3774 843 103.471 1161.77 490.415
298 0 77.1028 13.0086 1003 101.059 1162.2 487.149
299 0 79.0945 12.681 1003 101.908 1161.63 489.608
300 0 82.0574 13.844 1136 100.239 1161.57 485.116
301 0 84.1526 13.0002 1094 101.81 1161.72 484.598
302 0 86.1347 12.0625 1039 104.042 1161.67 483.023
303 0 89.3002 12.7323 1137 103.847 1161.42 482.226
304 0 94.1357 12.0358 1133 103.698 1160.92 483.185
305 0 98.1589 13.743 1349 102.119 1161.5 481.302
306 0 100.154 12.361 1238 104.696 1161.65 480.481
307 1 55.0506 12.0071 661 104.109 1161.52 499.67
308 0 57.1603 12.4212 710 103.29 1161.76 499.63
309 0 57.2707 12.4846 715 108.217 1162 497.162
310 0 58.1816 13.3891 779 107.524 1162.56 495.485
311 0 61.3213 13.1113 804 108.188 1162.4 495.612
312 0 62.1887 13.057 812 107.631 1162.7 495.659
313 0 65.2193 14.7502 962 103.872 1162.56 494.4
314 0 68.113 14.4613 985 103.95 1162.52 493.328
315 0 68.2149 12.9151 881 109.434 1162.14 492.632
316 0 72.1922 14.7107 1062 105.573 1162.72 492.166
317 0 74.2496 14.3166 1063 107.692 1161.78 488.853
318 0 76.155 14.7725 1125 107.876 1161.46 488.42
319 0 79.2162 13.8103 1094 109.963 1161.95 488.608
320 0 82.2418 13.363 1099 111.325 1162.39 487.501
321 0 84.098 14.4831 1218 109.162 1161.99 485.724
322 0 85.235 13.41 1143 113.482 1161.5 484.709
323 0 87.1856 14.039 1224 112.654 1161.86 483.937
324 0 91.1979 13.6516 1245 114.676 1162.24 479.218
325 1 48.0329 12.5539 603 111.395 1162.86 502.164
326 0 51.0781 12.6081 644 110.292 1163.48 502.284
327 0 52.046 11.8741 618 113.06 1163.74 502.487
328 0 55.1177 14.0245 773 107.132 1163.91 501.212
329 0 52.0534 12.5832 655 111.093 1163.17 501.076
330 0 53.0513 13.6472 724 108.717 1162.23 499.884
331 0 55.091 13.7227 756 108.243 1161.75 499.407
332 0 57.1182 14.2336 813 107.914 1161.4 498.569
333 0 59.0978 12.6908 750 111.887 1161.45 497.221
334 0 59.1243 12.4314 735 112.839 1162.2 496.139
335 0 64.1174 13.678 877 109.257 1161.39 495.132
336 0 66.1431 14.6198 967 108.218 1162 494.214
337 0 67.279 13.719 923 111.437 1161.74 491.889
338 0 69.1023 12.6479 874 112.985 1161.8 495.589
339 0 71.0709 13.2684 943 112.568 1162.1 494.006
340 0 74.0697 12.7583 945 115.592 1162.42 491.12
341 0 76.2284 13.3677 1019 116.273 1161.71 488.699
342 0 80.1316 14.2016 1138 113.893 1161.85 487.094
343 0 81.0979 14.0694 1141 115.539 1161.41 487.328
344 0 84.2324 14.3294 1207 116.258 1162.02 484.626
345 0 87.16 13.263 1156 119.605 1162.36 484.853
346 0 90.2796 14.0453 1268 119.566 1162.48 481.826
347 0 93.1991 13.5624 1264 123.952 1163.15 481.829
348 0 97.19 14.3328 1393 120.739 1163.18 479.914
349 0 99.1253 13.5182 1340 123.91 1163.57 475.613
350 0 105.128 14.0114 1473 120.683 1163.24 477.411
351 1 54.165 12.3512 669 121.616 1162.25 498.447
352 0 57.0991 13.713 783 117.544 1162.92 499.429
353 0 59.1388 13.5782 803 119.509 1163.16 499.601
354 0 59.1975 13.4972 799 119.62 1162.69 498.429
355 0 62.0857 14.0612 873 117.254 1163.02 498.115
356 0 62.2217 13.8215 860 120.151 1162.99 495.949
357 0 66.1818 12.7527 844 121.444 1163.32 496.027
358 0 68.1471 13.2948 906 120.169 1162.71 494.609
359 0 70.1076 13.5506 950 121.449 1162.82 492.548
360 0 73.0794 14.2448 1041 118.09 1162.58 493.232
361 0 75.1756 13.5682 1020 119.485 1162.34 491.717
362 0 75.1593 12.9458 973 122.594 1162.25 489.675
363 0 78.1092 13.6476 1066 120.508 1162.62 487.755
364 0 82.121 13.4436 1104 120.053 1162.2 488.332
365 0 82.1715 12.6078 1036 122.696 1161.75 485.528
366 0 85.1877 13.2883 1132 116.499 1162.32 486.596
367 0 89.2821 13.5189 1207 114.437 1162.46 485.81
368 0 92.2587 14.7195 1358 112.772 1163.24 482.171
369 1 49.2557 11.1256 548 115.527 1163.61 503.951
370 0 47.2879 11.2291 531 119.064 1164.91 500.603
371 0 51.1066 13.2468 677 115.38 1162.54 501.871
372 0 53.0846 12.7909 679 115.513 1162.27 500.261
373 0 54.1002 13.0314 705 113.468 1162.28 501.769
374 0 54.0681 13.557 733 113.928 1162.1 499.724
375 0 56.1175 12.2956 690 116.659 1162.52 498.917
376 0 60.1141 12.8589 773 114.173 1162.76 498.153
377 0 62.0639 14.5012 900 109.602 1162.56 495.81
378 0 64.1249 13.2398 849 110.962 1163.12 496.968
379 0 65.065 12.6796 825 111.135 1163.61 497.255
380 0 65.0616 13.2336 861 111.915 1163.71 495.648
381 0 67.2176 13.5084 908 111.336 1163.6 496.575
382 0 70.2271 13.8835 975 113.17 1164.8 493.269
383 0 71.192 13.2599 944 115.373 1164.97 493.2
384 0 76.1421 14.0395 1069 111.826 1165.15 491.924
385 0 76.136 12.8454 978 116.787 1165.16 491.264
386 0 78.1211 13.0951 1023 117.343 1165.25 489.22
387 0 81.1764 13.871 1126 114.745 1164.69 488.86
388 0 83.1594 14.0333 1167 117.219 1164.92 484.774
389 0 86.2201 13.6743 1179 116.872 1165.06 486.728
390 0 88.0767 14.1468 1246 116.762 1164.23 483.283
391 0 89.0505 13.1162 1168 119.208 1165.01 482.982
392 0 92.1241 13.7749 1269 117.203 1164.53 481.642
393 0 95.0957 14.1436 1345 116.839 1164.38 480.807
394 0 98.1645 13.8237 1357 116.73 1164.46 479.907
395 0 101.204 13.369 1353 117.227 1164.6 478.582
396 0 104.171 14.8602 1548 115.181 1164.63 473.953
397 0 108.292 12.7433 1380 117.467 1163.51 475.706
398 0 112.214 14.4634 1623 110.963 1163.34 471.395
399 0 119.368 13.6468 1629 110.303 1164.5 468.52
400 1 63.1479 13.0804 826 104.169 1165.5 494.677
401 0 64.0947 12.2631 786 107.491 1165.19 495.061
402 0 65.2059 13.3577 871 103.444 1165.09 494.255
403 0 68.3352 13.1118 896 102.994 1165.7 495.488
404 0 69.0755 12.1461 839 103.945 1164.89 493.906
405 0 71.1279 13.4546 957 103.26 1165.21 490.669
406 0 74.1237 12.4926 926 102.069 1165.5 491.834
407 0 77.1969 12.6948 980 101.805 1165.57 488.571
408 0 79.1521 12.2296 968 102.542 1166.04 488.049
409 0 82.1117 13.2015 1084 99.7906 1165.74 487.276
410 0 87.147 13.1272 1144 98.6661 1165.31 484.405
411 0 88.1534 12.9887 1145 99.8524 1165.35 482.497
412 0 91.1288 11.983 1092 100.976 1165.04 480.814
413 0 95.1435 11.9714 1139 100.072 1164.79 479.946
414 0 101.289 13.6343 1381 101.76 1164.51 477.258
415 0 103.287 13.1768 1361 103.12 1165.32 474.613
416 1 56.0902 10.4831 588 100.063 1165.69 500.094
417 0 59.0705 11.901 703 97.2973 1166.12 499.644
418 0 56.0907 10.3582 581 94.6954 1165.27 500.356
419 0 60.1069 11.8123 710 92.6648 1164.65 498.989
420 0 61.0768 10.495 641 95.6505 1165.09 497.574
421 0 64.0636 11.0983 711 94.7862 1165.67 497.512
422 0 64.1313 10.0263 643 96.028 1165.63 496.728
423 0 67.08 11.8217 793 93.4578 1165.15 493.904
424 0 69.188 9.09117 629 96.4308 1165.21 498.192
425 0 70.0987 10.6136 744 98.6519 1165.7 493.761
426 0 75.164 11.7476 883 95.9434 1166.42 491.719
427 0 76.0462 11.8218 899 96.0545 1166.05 491.582
428 0 77.1462 11.5625 892 97.7758 1165.85 488.905
429 0 83.1932 11.9361 993 98.2377 1165.97 488.606
430 0 84.1035 11.2956 950 100.049 1165.71 485.474
431 0 87.2159 12.75 1112 98.3786 1165.94 482.318
432 0 90.1875 11.2987 1019 100.468 1165.46 485.472
433 0 93.1886 11.6538 1086 101.409 1165.34 481.361
434 0 96.2436 10.6085 1021 103.135 1165.64 480.119
435 1 52.0314 9.82099 511 103.213 1165.89 502.503
436 0 54.0153 11.7189 633 96.9937 1165.31 501.142
437 0 58.0752 12.0189 698 101.868 1165.97 499.242
438 0 56.0977 12.7278 714 96.5294 1165.78 499.892
439 0 58.0421 12.422 721 98.2926 1165.55 498.816
440 0 60.0981 11.7807 708 98.9845 1166.23 497.631
441 0 61.0704 11.4786 701 100.616 1165.96 497.214
442 0 63.0979 11.8229 746 100.362 1165.82 494.084
443 0 66.2005 12.1147 802 99.3204 1165.7 496.892
444 0 67.2443 12.5364 843 100.129 1165.75 493.878
445 0 68.2084 11.8314 807 102.774 1165.67 494.611
446 0 71.238 12.9846 925 101.371 1165.13 490.435
447 0 72.1101 11.8291 853 104.533 1165.43 491.022
448 0 78.1259 12.1599 950 103.166 1165.34 490.02
449 0 81.2891 12.9292 1051 102.668 1165.05 487.307
450 0 84.2573 14.337 1208 101.036 1165.1 484.813
451 0 87.2861 13.1178 1145 104.198 1165.18 483.696
452 0 90.2766 13.0377 1177 104.398 1164.75 482.619
453 1 48.1592 11.3997 549 106.04 1165.32 503.306
454 0 51.1423 11.8493 606 104.937 1165.69 504.021
455 0 50.0645 12.0245 602 107.093 1165.03 501.738
456 0 53.2993 11.9514 637 106.804 1164.44 501.673
457 0 53.3578 14.2622 761 102.879 1164.38 502.601
458 0 56.3254 14.5228 818 102.381 1164.14 500.577
459 0 57.1733 12.4359 711 106.724 1163.85 500.118
460 0 57.2236 12.4424 712 107.662 1163.62 499.614
461 0 60.125 13.1227 789 106.035 1163.37 498.459
462 0 63.2948 13.4608 852 104.392 1163.94 498.515
463 0 64.2236 14.5118 932 102.918 1164.78 495.573
464 0 64.2196 13.1268 843 106.399 1164.57 491.995
465 0 68.4654 14.197 972 103.078 1165.19 492.979
466 0 69.3808 13.3322 925 105.71 1164.99 491.32
467 0 70.384 13.0711 920 106.235 1164.45 491.239
468 0 75.4501 13.3333 1006 104.761 1164.62 490.122
469 0 77.3004 13.7774 1065 104.423 1164.78 488.842
470 0 80.6333 14.2373 1148 103.867 1164.79 487.647
471 0 82.4016 13.7255 1131 105.431 1164.51 485.525
472 0 84.6426 13.4802 1141 105.897 1164.1 482.055
473 0 88.4455 13.4772 1192 106.325 1164.78 481.695
474 0 90.4914 13.3162 1205 105.945 1164.26 480.858
475 0 92.2519 12.7152 1173 101.296 1163.46 482.554
476 0 94.1303 11.2185 1056 104.563 1163.02 478.94
477 0 98.2011 12.3929 1217 102.253 1163.29 478.921
478 0 102.213 12.2391 1251 102.179 1163.48 477.495
479 1 54.1688 11.7226 635 98.3433 1163.86 496.918
480 0 57.3064 11.7264 672 98.3631 1164.35 495.604
481 0 58.0858 11.4658 666 98.033 1163.61 497.405
482 0 59.0622 11.8011 697 97.2568 1163.37 497.062
483 0 61.1637 11.5755 708 97.4153 1163.87 496.01
484 0 63.2135 11.3741 719 97.5633 1164.46 494.573
485 0 65.1046 11.013 717 97.9763 1164.05 493.75
486 0 69.1493 12.5236 866 95.306 1163.95 492.546
487 0 72.1058 12.4678 899 95.6085 1164 491.756
488 0 72.2294 11.6988 845 98.0805 1163.59 490.641
489 0 76.1445 11.8196 900 97.3789 1164.16 490.157
490 0 80.1825 11.6734 936 97.9274 1163.58 486.419
491 0 84.1803 12.8058 1078 96.9842 1163.95 486.34
492 0 86.1533 12.8028 1103 99.7063 1164.6 482.773
493 0 90.3221 12.1897 1101 103.529 1163.67 483.274
494 0 95.1453 13.39 1274 101.91 1164.76 479.986
495 0 98.4048 12.9364 1273 104.424 1163.8 476.889
496 1 47.3536 11.5303 546 104.962 1163.82 499.178
497 0 49.3092 14.0947 695 101.364 1164.42 496.121
498 0 51.3441 13.0102 668 104.09 1164.45 498.458
499 0 53.0566 11.9118 632 107.828 1166.03 499.753
500 0 55.119 13.5888 749 106.75 1166.18 498.569
501 0 56.0734 13.3932 751 109.075 1166.06 498.036
502 0 60.0397 13.9075 835 108.596 1165.95 497.351
503 0 61.1102 13.5002 825 110.715 1166.37 496.748
504 0 62.0879 13.0943 813 112.625 1166.93 495.554
505 0 63.051 13.5287 853 112.577 1166.49 494.212
506 0 64.1571 13.1552 844 114.248 1166.39 494.769
507 0 69.0692 14.8691 1027 109.62 1166.63 492.931
508 0 71.0285 15.1066 1073 108.842 1166.11 492.363
509 0 71.0322 13.9092 988 113.842 1165.48 491.66
510 0 72.0967 13.3155 960 117.057 1165.38 488.406
511 0 74.114 14.1674 1050 114.844 1165.13 487.433
512 0 79.6288 14.8564 1183 114.307 1164.05 486.432
513 0 82.4648 14.0424 1158 115.978 1163.91 486.253
514 0 83.4397 13.5427 1130 117.058 1164.54 481.176
515 0 83.2693 13.3903 1115 120.145 1164.1 480.452
516 0 88.5703 13.4018 1187 119.719 1164.36 478.761
517 0 91.5112 12.8837 1179 121.332 1164.06 477.748
518 1 43.2695 10.5617 457 120.453 1164.51 499.293
519 0 49.199 12.419 611 119.191 1164.28 501.902
520 0 52.3155 13.9347 729 109.503 1163.62 501.185
521 0 52.1389 12.927 674 111.355 1162.84 501.482
522 0 55.1463 12.6028 695 109.612 1162.68 500.918
523 0 55.1599 12.9623 715 108.329 1162.83 500.334
524 0 60.1334 13.0044 782 106.435 1163.39 500.598
525 0 61.1487 13.3609 817 105.029 1163.34 498.365
526 0 63.1129 12.9292 816 105.745 1163.06 497.445
527 0 66.1329 13.3973 886 104.62 1162.86 495.722
528 0 68.1223 12.4335 847 104.841 1162.89 495.581
529 0 69.0889 14.1267 976 101.384 1163.39 493.115
530 0 71.0862 12.098 860 105.271 1163.92 492.32
531 0 73.1485 13.083 957 103.423 1163.75 492.626
532 0 77.1202 14.1208 1089 101.076 1163.62 490.812
533 0 79.077 12.8735 1018 103.569 1163.72 488.595
534 0 80.1696 12.6482 1014 104.323 1163.31 484.789
535 0 84.1339 10.9468 921 104.213 1163.43 483.773
536 0 88.2289 12.3429 1089 100.826 1163.61 482.353
537 0 91.2898 13.3531 1219 99.306 1163.09 480.719
538 0 93.1505 12.9575 1207 99.2991 1163.62 477.338
539 0 99.1231 12.0759 1197 99.9407 1163.72 476.686
540 0 100.137 10.9949 1101 102.603 1163.73 475.876
541 0 104.16 11.828 1232 101.017 1163.71 474.806
542 1 55.1044 11.9954 661 93.4539 1163.84 498.054
543 0 56.1694 13.1388 738 96.9472 1164.24 498.989
544 0 58.1507 12.2784 714 95.1036 1164.09 499.143
545 0 58.1569 12.0364 700 96.16 1164.02 496.96
546 0 62.393 12.9021 805 93.9901 1164.53 497.277
547 0 65.1433 11.4977 749 95.9332 1163.91 496.18
548 0 68.1204 12.4339 847 94.3695 1163.96 493.256
549 0 70.0645 12.2459 858 94.6772 1165.29 490.649
550 0 72.096 13.5514 977 92.8035 1164.6 491.881
551 0 75.0583 12.2971 923 95.8191 1164.25 489.886
552 0 76.1172 11.8896 905 96.6232 1164.88 488.483
553 0 80.1988 11.7583 943 97.369 1164.92 484.926
554 0 81.1715 11.6174 943 98.6575 1164.58 484.944
555 0 85.0697 13.2362 1126 95.8037 1164.7 483.852
556 0 88.0923 12.6004 1110 98.8568 1165.47 482.333
557 0 90.0623 12.4247 1119 101.855 1164.96 479.912
558 0 94.1329 12.0255 1132 101.944 1165.23 479.663
559 0 97.1008 12.2965 1194 103.449 1165.35 480.087
560 1 50.1593 10.4268 523 100.654 1165.79 502.996
561 0 55.0844 12.7804 704 95.2145 1165.24 501.298
562 0 53.0687 12.0787 641 97.3354 1165.28 502.413
563 0 53.1361 11.9693 636 103.431 1164.21 501.503
564 0 55.1278 11.8815 655 103.95 1164.21 502.118
565 0 57.2698 12.5895 721 103.25 1164.31 499.865
566 0 58.1797 11.6535 678 106.056 1164.33 498.239
567 0 62.2673 13.3457 831 102.792 1163.77 497.531
568 0 65.2052 12.729 830 103.501 1164 496.17
569 0 67.1477 12.4055 833 104.914 1163.81 494.484
570 0 69.2753 12.3276 854 105.513 1164.28 494.143
571 0 71.1736 12.2236 870 106.625 1164.03 493.16
572 0 73.4021 12.4656 915 107.622 1164.33 490.996
573 0 78.2828 12.276 961 108.024 1164.65 487.268
574 0 78.1226 13.274 1037 106.677 1164.21 486.598
575 0 82.1848 13.0073 1069 106.889 1164.53 488.372
576 0 86.1984 14.4898 1249 104.337 1165.03 485.212
577 0 87.5019 13.0283 1140 107.384 1164.58 483.968
578 0 88.3508 12.4391 1099 110.845 1164.27 482.662
579 0 95.5776 14.1874 1356 106.92 1164.93 479.802
580 0 95.1958 13.4565 1281 104.692 1164.06 475.706
581 0 97.2031 14.0736 1368 104.204 1163.83 472.946
582 0 100.087 11.9097 1192 105.914 1164.31 472.81
583 0 107.271 14.5986 1566 102.34 1164.53 467.669
584 0 108.246 12.2776 1329 108.284 1165.2 463.102
585 1 58.1144 9.91149 576 104.406 1164 492.438
586 0 59.0947 10.7285 634 105.61 1164.27 490.812
587 0 64.0747 11.6739 748 97.1698 1164.93 492.68
588 0 65.0712 11.0802 721 98.9168 1165.13 492.207
589 0 67.0499 11.4989 771 97.9896 1165.26 490.001
590 0 71.1063 12.1508 864 97.2465 1164.6 487.653
591 0 72.084 12.0692 870 99.1621 1164.44 485.962
592 0 74.1266 11.0757 821 99.9099 1164.2 486.348
593 0 77.0973 10.8824 839 100.286 1164.33 485.161
594 0 81.0858 11.9873 972 98.5525 1164.46 484.86
595 0 81.1139 11.6256 943 101.459 1164.06 482.54
596 0 85.0715 13.4593 1145 98.8349 1163.55 481.196
597 0 84.0951 10.9876 924 104.662 1163.76 479.698
598 0 89.2563 12.5257 1118 103.123 1164.3 476.396
599 0 92.1564 13.6181 1255 101.136 1163.77 476.955
600 0 95.1795 13.6059 1295 102.073 1164.13 474.08
601 0 98.1555 11.9199 1170 105.196 1164.86 472.448
602 0 103.112 12.5882 1298 115.999 1164.09 476.995
603 1 56.3608 10.8054 609 112.1 1165.84 499.557
604 0 57.2689 12.1008 693 109.583 1165.74 497.046
605 0 55.0307 9.4311 519 103.405 1163.28 492.655
606 0 59.0247 11.2326 663 105.811 1162.21 491.498
607 0 57.0227 9.73296 555 111.362 1162.64 487.623
608 0 62.1063 9.83797 611 108.732 1162.97 491.645
609 0 64.102 11.5597 741 105.385 1163.32 490.958
610 0 68.0782 11.7218 798 105.578 1162.73 489.294
611 0 69.0404 11.9495 825 106.559 1163.08 487.348
612 0 72.0943 11.374 820 107.399 1162.98 488.879
613 0 74.0637 11.7061 867 106.018 1163.44 487.429
614 0 78.1041 12.8931 1007 104.999 1163.91 485.811
615 0 80.1505 12.8883 1033 105.854 1163.89 483.939
616 0 80.273 11.9467 959 109.107 1163.89 480.92
617 0 84.1601 12.7257 1071 107.298 1163.43 481.004
618 0 86.1524 12.6868 1093 109.208 1163.55 479.524
619 0 90.2165 13.0131 1174 106.945 1163.49 479.395
620 0 94.2327 12.6495 1192 107.596 1164.23 479.766
621 0 96.1616 13.2797 1277 105.106 1165.19 478.059
622 0 98.3533 12.6788 1247 108.585 1164.67 473.844
623 1 51.0991 10.4894 536 100.491 1163.92 498.687
624 0 55.2428 12.0197 664 112.113 1164.39 502.703
625 0 57.0617 13.2839 758 102.72 1163.91 501.401
626 0 57.0242 12.9594 739 108.932 1166.27 500.631
627 0 58.0681 13.5014 784 107.751 1166.4 499.916
628 0 58.081 13.0335 757 110.172 1166.82 499.481
629 0 62.0275 12.8814 799 109.587 1166.25 497.825
630 0 64.0575 13.8313 886 106.347 1166.16 497.413
631 0 66.1241 13.4444 889 107.25 1165.99 495.756
632 0 68.1296 14.0468 957 105.879 1165.34 495.683
633 0 67.2059 12.7965 860 111.359 1165.37 493.521
634 0 69.1638 12.0728 835 113.247 1165.11 494.714
635 0 74.1839 14.2753 1059 107.6 1165.39 490.829
636 0 76.215 13.4619 1026 118.484 1164.9 489.476
637 0 79.243 13.3009 1054 117.713 1164.8 490.525
638 0 80.1885 12.084 969 122.658 1164.72 489.367
639 0 81.3461 13.4487 1094 119.219 1165.37 488.849
640 0 86.208 13.131 1132 120.451 1165.4 485.256
641 0 89.2761 14.4272 1288 117.342 1165.65 485.022
642 0 89.2205 13.2032 1178 122.508 1164.7 482.821
643 0 93.1695 12.6436 1178 123.402 1164.6 483.012
644 0 97.2829 14.6583 1426 118.288 1164.7 482.757
645 0 100.24 13.1983 1323 122.318 1165.37 478.386
646 0 105.305 13.5321 1425 120.568 1165.24 479.291
647 1 52.135 11.0482 576 122.521 1166.4 501.641
648 0 53.0427 12.1223 643 118.235 1165.83 501.715
649 0 55.0815 12.0912 666 118.838 1165.18 501.212
650 0 55.1122 11.7034 645 122.42 1164.79 499.65
651 0 60.071 13.2843 798 116.896 1166.09 499.935
652 0 61.1039 13.2234 808 118.405 1166.23 497.49
653 0 64.0815 14.6844 941 112.696 1166.22 497.19
654 0 67.1443 13.0316 875 119.013 1166.59 494.657
655 0 68.1438 14.0878 960 117.296 1166.23 494.245
656 0 69.0495 13.4396 928 119.61 1165.95 492.682
657 0 71.0579 12.6376 898 121.269 1166.49 492.129
658 0 76.1319 13.2008 1005 117.833 1166.11 492.396
659 0 76.0638 14.1197 1074 117.02 1166.09 489.642
660 0 78.0944 13.6501 1066 118.51 1166.2 488.801
661 0 80.1073 14.1186 1131 117.219 1166.05 488.965
662 0 85.2085 14.7168 1254 115.681 1165.9 485.959
663 0 86.1672 14.1585 1220 117.402 1166.25 486.42
664 0 88.1108 13.0404 1149 120.011 1166.55 484.481
665 0 88.1923 13.2211 1166 116.111 1166.58 483.085
666 0 91.148 12.9679 1182 116.805 1166.47 482.59
667 0 95.1152 13.4889 1283 114.853 1166.44 482.194
668 0 97.1799 13.2641 1289 116.242 1166.41 480.527
669 0 100.198 13.4234 1345 115.309 1165.68 479.813
670 0 104.335 14.2138 1483 115.127 1165.13 475.407
671 0 107.252 13.706 1470 116.022 1164.96 477.116
672 1 61.1119 10.3908 635 117.431 1166.04 497.706
673 0 63.1259 11.6117 733 113.572 1165.77 495.966
674 0 66.1517 14.3156 947 108.394 1165.58 496.512
675 0 67.2247 13.4921 907 111.784 1166.09 493.469
676 0 69.3064 12.7117 881 115.401 1166.04 492.201
677 0 71.3681 12.4145 886 115.749 1166.22 492.907
678 0 73.411 12.2734 901 116.403 1166.36 490.544
679 0 74.3526 13.3553 993 115.134 1166.04 489.84
680 0 79.3066 13.328 1057 114.581 1166.33 489.265
681 0 82.2433 13.6546 1123 113.997 1165.19 487.836
682 0 84.3522 14.2498 1202 114.675 1164.92 483.895
683 0 85.216 12.7793 1089 118.234 1164.97 485.171
684 0 91.3 14.644 1337 113.193 1165.15 483.257
685 0 93.1994 13.5516 1263 116.794 1165.04 483.043
686 0 95.3365 12.9541 1235 119.639 1165.01 480.113
687 0 97.3756 13.299 1295 119.69 1164.39 475.796
688 0 102.36 14.2829 1462 116.447 1164.32 476.134
689 1 54.106 10.6642 577 109.355 1164.97 501.6
690 0 57.213 11.1513 638 107.35 1162.79 499.27
691 0 57.0872 12.0167 686 115.392 1165.78 498.395
692 0 59.1243 11.7718 696 115.997 1165.56 497.545
693 0 63.1439 13.4296 848 110.409 1165.79 498.033
694 0 64.0891 13.4032 859 110.661 1165.36 495.622
695 0 65.1293 11.6691 760 114.409 1165.26 495.267
696 0 68.0728 12.1781 829 112.882 1165.15 494.355
697 0 70.0468 12.3632 866 112.207 1165.05 491.614
698 0 74.0549 13.6115 1008 107.989 1165.46 493.457
699 0 76.0993 13.8372 1053 107.415 1165.69 490.446
700 0 79.0709 13.2919 1051 108.624 1165.72 491.081
701 0 80.0545 13.7906 1104 107.286 1165.81 487.96
702 0 83.1578 14.0937 1172 104.358 1165.08 488.124
703 1 43.009 9.09112 391 111.312 1165.43 507.785
704 0 44.0544 11.0318 486 107.593 1164.66 505.539
705 0 45.4258 11.5793 526 107.378 1163.87 498.698
706 0 46.1659 11.502 531 91.7533 1163.68 500.537
707 0 48.1776 11.0632 533 92.6961 1164.21 500.871
708 0 48.0692 10.4433 502 94.4303 1162.97 498.207
709 0 51.1185 11.2679 576 103.755 1162.15 496.458
710 0 52.0901 10.1171 527 106.239 1162.01 496.288
711 0 51.1018 10.0192 512 106.49 1162.87 495.186
712 0 55.0553 11.2796 621 103.713 1162.21 493.955
713 0 58.0981 10.947 636 104.03 1162.56 494.825
714 0 59.0741 10.563 624 106.256 1162.85 493.377
715 0 62.1028 11.8835 738 103.069 1162.74 492.39
716 0 61.0656 11.0373 674 106.553 1162.89 490.552
717 0 64.0498 11.9595 766 104.124 1162.94 491.185
718 0 67.0619 11.4223 766 105.091 1163.22 490.389
719 0 67.085 12.5214 840 105.232 1163.19 488.344
720 0 70.0546 12.3903 868 105.787 1162.66 486.833
721 0 72.1096 11.1636 805 109.211 1163.18 485.383
722 0 77.1432 12.6388 975 110.386 1163.58 486.216
723 0 79.1099 12.0845 956 111.833 1162.7 486.411
724 0 82.1121 13.0675 1073 111.636 1162.59 483.07
725 0 83.1101 10.829 900 117.823 1162.32 482.4
726 0 90.0628 14.4344 1300 110.591 1162.44 482.72
727 0 92.0766 14.9441 1376 108.78 1162.88 481.809
728 0 94.0387 14.1325 1329 112.925 1162.47 479.521
729 0 97.0873 14.6363 1421 113.032 1162.93 477.937
730 0 99.113 12.8843 1277 117.44 1162.7 476.94
731 0 105.143 14.1712 1490 113.965 1162.92 474.771
732 1 54.0519 10.4899 567 114.728 1165.9 502.998
733 0 56.0361 13.0095 729 110.192 1165.29 499.255
734 0 58.1468 13.0016 756 109.837 1166.02 499.228
735 0 60.1939 11.9946 722 112.181 1166.18 499.737
736 0 62.2933 12.4733 777 111.26 1165.46 498.259
737 0 64.2577 12.1698 782 111.96 1165.2 496.339
738 0 65.0846 13.0446 849 110.675 1165.56 493.771
739 0 66.2072 12.4458 824 111.978 1165.89 495.632
740 0 69.1763 12.2874 850 111.711 1165.76 494.182
741 0 73.226 13.6017 996 108.887 1165.77 492.837
742 0 74.2754 13.4903 1002 109.497 1166.29 492.534
743 0 76.2274 13.0006 991 111.731 1165.55 489.917
744 0 77.4371 13.0816 1013 111.104 1165.8 489.985
745 0 79.2969 12.0686 957 113.476 1166.01 487.807
746 0 82.4802 14.4398 1191 109.624 1166.1 483.115
747 0 84.5154 12.2345 1034 114.071 1165.91 482.719
748 0 87.3569 12.6493 1105 112.881 1164.8 484.935
749 0 91.542 12.781 1170 112.465 1164.66 481.761
750 0 93.4415 13.5272 1264 111.586 1164.69 479.502
751 0 97.6613 13.3932 1308 110.891 1164.55 476.965
752 0 100.604 13.5979 1368 111.145 1164.56 473.785
753 0 103.179 13.4911 1392 105.33 1163.5 477.764
754 0 104.15 11.5891 1207 109.83 1163.81 473.033
755 1 51.2598 10.437 535 102.693 1164.32 499.684
756 0 56.3476 13.0086 733 97.5484 1164.33 497.798
757 0 56.544 11.2479 636 102.983 1164.7 496.844
758 0 59.0599 12.5296 740 99.5338 1164.68 498.099
759 0 59.1314 12.4976 739 99.9405 1164.23 496.341
760 0 61.1396 12.1362 742 99.5216 1164.35 496.191
761 0 65.1151 12.8695 838 98.4368 1164.8 494.406
762 0 63.2975 11.4697 726 102.72 1164.5 494.227
763 0 67.1592 11.6738 784 101.273 1164.83 494.434
764 0 70.101 11.9542 838 100.722 1164.99 492.545
765 0 73.1911 12.3102 901 101.754 1165.1 490.827
766 0 74.232 12.4879 927 102.033 1164.95 488.834
767 0 77.1737 11.5195 889 104.412 1164.2 488.394
768 0 79.1499 12.0531 954 103.666 1165.06 489.473
769 0 82.1075 11.2414 923 106.392 1164.34 486.117
770 0 86.1249 13.1785 1135 102.895 1165.41 484.289
771 0 89.1703 12.4032 1106 103.259 1165.01 485.154
772 0 90.2441 13.1865 1190 104.275 1165.15 481.003
773 0 95.1169 11.8906 1131 107.622 1164.62 479.301
774 0 100.135 12.3533 1237 108.833 1166.38 478.964
775 0 101.184 11.2666 1140 111.181 1165.93 477.894
776 0 105.093 11.5326 1212 110.695 1165.69 472.79
777 0 109.081 11.0285 1203 111.835 1165.58 472.431
778 1 57.0599 11.0761 632 105.804 1166.03 499.717
779 0 59.0471 11.6348 687 103.624 1165.79 498.352
780 0 60.0551 11.3396 681 106.658 1165.89 498.367
781 0 63.0837 11.9048 751 104.889 1165.63 494.987
782 0 66.1506 13.2425 876 101.32 1165.43 494.366
783 0 67.1024 12.9653 870 102.899 1165.88 492.662
784 0 71.0782 12.7606 907 102.549 1166.32 491.662
785 0 73.0635 13.2624 969 102.864 1165.98 490.58
786 0 75.1073 12.6219 948 103.444 1166.72 491.072
787 0 80.1189 13.3302 1068 78.0571 1166.16 489.312
788 0 80.0912 12.4233 995 105.524 1166.1 488.284
789 0 80.0383 11.582 927 108.98 1166.02 486.127
790 0 87.1475 13.2993 1159 104.26 1165.59 485.469
791 0 89.2122 13.0924 1168 105.212 1165.37 483.119
792 1 47.3458 10.5606 500 108.642 1162.8 500.86
793 0 44.2506 10.0564 445 98.0584 1163.73 496.751
794 0 48.1218 10.0994 486 93.7119 1163.01 497.786
795 0 48.0538 11.0293 530 92.2038 1163.36 497.251
796 0 50.0431 10.7307 537 91.0894 1162.85 494.993
797 0 51.1619 10.3397 529 93.2798 1163.19 496.229
798 0 54.0568 11.4139 617 91.1021 1163.52 494.66
799 0 53.1109 10.7134 569 94.9227 1163.69 496.822
800 0 53.1571 11.7012 622 94.2894 1163.87 492.275
801 0 57.1042 8.68587 496 98.4859 1163.15 491.534
802 0 59.1109 10.3534 612 96.2075 1163.07 492.894
803 0 61.1042 11.2431 687 97.0015 1163.02 489.747
804 0 63.0529 10.1978 643 99.5303 1162.97 489.737
805 0 64.1263 9.32535 598 101.478 1162.77 489.537
806 0 66.047 9.43268 623 101.465 1163.17 488.194
807 0 70.1277 10.5094 737 100.495 1163.28 487.733
808 0 72.0806 9.55874 689 103.12 1163.66 485.403
809 0 77.2276 11.2654 870 99.9483 1163.79 482.73
810 0 81.1527 11.6817 948 99.1825 1163.14 483.665
811 0 82.0625 11.6131 953 100.676 1164.05 482.134
812 1 41.1983 10.7286 442 93.3484 1162.99 502.781
813 0 43.1355 11.4986 496 100.534 1163.85 503.034
814 0 45.0545 10.9423 493 104.888 1161.64 500.578
815 0 46.0199 11.6689 537 103.903 1161.63 499.447
816 0 45.0361 11.4353 515 107.588 1161.72 497.926
817 0 50.0389 12.0906 605 104.732 1161.93 499.795
818 0 49.0589 9.82493 482 110.365 1161.24 500.531
819 0 51.0782 12.6081 644 106.7 1161.63 498.804
820 0 53.0345 12.2562 650 107.075 1162.19 497.375
821 0 54.0218 12.4764 674 107.171 1161.9 496.705
822 0 55.0228 12.8492 707 106.331 1162.48 497.011
823 0 57.0188 13.364 762 105.39 1162.6 495.99
824 0 60.0509 12.2563 736 107.27 1162.65 494.992
825 0 62.0438 12.6846 787 107.522 1162.91 493.335
826 0 62.0388 12.3149 764 111.175 1162.38 491.842
827 0 64.0494 12.1 775 112.343 1162.46 491.03
828 0 64.0771 10.5966 679 115.994 1162.94 489.286
829 0 68.0583 11.3726 774 113.739 1162.98 489.472
830 0 67.05 10.3356 693 117.987 1162.21 486.022
831 0 73.0656 12.1535 888 112.324 1161.77 488.828
832 0 76.1586 11.3579 865 115.563 1162.4 485.264
833 0 77.0575 10.849 836 117.667 1162.33 483.255
834 0 82.1935 11.8501 974 113.207 1162.49 482.309
835 0 84.1051 12.7816 1075 105.833 1162.36 482.407
836 1 41.1993 11.7478 484 99.6178 1162.91 505.054
837 0 44.0671 10.8244 477 96.4172 1162.79 502.159
838 0 46.0374 12.0988 557 94.5781 1162.68 501.966
839 0 46.1086 12.1019 558 94.681 1162.94 502.009
840 0 46.0628 12.0705 556 96.0486 1162.83 501.626
841 0 49.0558 11.966 587 96.0375 1163.09 499.503
842 0 50.1157 12.3714 620 95.8129 1162.67 500.4
843 0 52.0585 10.9876 572 97.3951 1162.86 499.766
844 0 53.0456 11.9897 636 95.6195 1163.2 497.915
845 0 57.0824 11.7024 668 95.7455 1162.96 498.171
846 0 54.1509 9.86134 534 100.079 1163.1 496.552
847 0 57.3213 12.9271 741 95.1404 1163.6 493.444
848 0 59.2145 13.3413 790 95.0038 1163.32 494.286
849 0 61.1371 11.6623 713 97.2342 1163.12 493.684
850 0 61.2422 12.5077 766 96.5875 1164.05 492.291
851 0 65.214 12.6967 828 95.8502 1163.09 492.208
852 0 66.2438 12.6502 838 97.2494 1164.17 488.95
853 0 68.2418 11.5765 790 99.5886 1164.63 485.243
854 0 72.1737 12.9826 937 97.3554 1164.38 485.711
855 0 76.0889 12.5642 956 98.1308 1163.67 485.21
856 0 76.2046 12.1777 928 100.524 1164.29 480.901
857 1 39.2472 10.1918 400 96.7325 1163.39 504.34
858 0 42.2042 9.45404 399 99.6266 1163.52 503.421
859 0 44.1879 12.7863 565 105.6 1163.56 503.621
860 0 46.1071 13.7506 634 103.126 1162.61 504.393
861 0 48.1337 12.7561 614 105.044 1162.64 505.49
862 0 49.0504 11.9673 587 109.07 1163.16 502.494
863 0 51.1188 13.6936 700 104.83 1162.71 502.559
864 0 52.053 13.7168 714 106.272 1164.04 502.459
865 0 53.087 13.3931 711 108.394 1163.45 500.045
866 0 53.0975 12.6183 670 112.358 1164.18 501.997
867 0 56.1584 13.0524 733 109.73 1164.92 502.506
868 0 58.0878 13.6173 791 109.02 1164.39 501.578
869 0 57.0609 12.2501 699 113.144 1163.94 499.629
870 0 60.0354 13.0257 782 112.014 1163.9 498.606
871 0 63.089 13.5047 852 110.972 1163.38 496.878
872 0 63.0781 12.3022 776 115.487 1163.27 496.581
873 0 66.0777 12.1675 804 116.172 1163.46 495.211
874 0 67.0752 12.3742 830 117.587 1163.03 494.513
875 0 71.1014 13.0237 926 113.698 1163.97 493.844
876 0 73.1262 12.1024 885 116.851 1163.35 491.88
877 1 39.0125 10.894 425 116.092 1162.81 508.76
878 0 41.0259 13.2355 543 109.501 1163.33 508.101
879 0 42.0612 13.2902 559 108.508 1163.62 508.571
880 0 43.0997 12.7379 549 110.051 1164.25 508.73
881 0 42.1322 12.3896 522 113.245 1164.59 509.057
882 0 46.0662 12.7642 588 111.105 1163.99 507.061
883 0 47.0407 13.2651 624 110.671 1163.24 505.22
884 0 47.0445 13.264 624 110.479 1163.3 507.099
885 0 49.0469 14.5983 716 107.372 1163.35 503.901
886 0 49.0273 13.4619 660 112.011 1163.43 503.208
887 0 49.0398 12.9283 634 114.484 1163.45 501.959
888 0 50.0532 12.8264 642 117.407 1164.25 502.657
889 0 54.0607 13.4108 725 113.87 1162.57 501.223
890 0 56.1732 13.583 763 112.63 1162.5 500.839
891 0 56.0813 13.1595 738 116.484 1163.41 499.682
892 0 58.0489 13.1441 763 117.499 1162.65 498.764
893 0 62.2439 13.0133 810 118.264 1162.88 497.873
894 0 64.112 13.726 880 116.335 1163.41 496.369
895 0 64.1566 13.4047 860 119.005 1163.98 496.899
896 0 67.0811 14.2216 954 118.316 1163.6 493.6
897 0 71.1447 14.5759 1037 117.616 1163.61 493.719
898 0 74.1914 13.7213 1018 121.308 1164.24 490.694
899 0 76.181 13.5861 1035 121.534 1163.47 492.057
900 0 78.1034 12.4963 976 124.961 1163.7 492.039
901 0 82.1129 14.0173 1151 122.919 1163.79 489.185
902 0 86.0941 14.7397 1269 122.098 1163.69 486.133
903 1 47.0469 12.4344 585 126.067 1162.83 505.976
904 0 47.1155 12.4163 585 124.181 1163 504.814
905 0 50.1267 14.3636 720 114.957 1163.85 503.797
906 0 53.0544 14.5322 771 113.837 1163.93 504.97
907 0 52.0513 13.4867 702 117.936 1163.83 504.403
908 0 53.0745 13.3963 711 119.101 1163.82 504.347
909 0 54.1162 13.508 731 120.851 1163.94 501.145
910 0 56.0475 13.8097 774 117.194 1164.34 500.161
911 0 59.1243 14.1059 834 115.241 1163.79 500.079
912 0 61.1568 14.6345 895 115.289 1163.5 497.44
913 0 62.1117 13.8943 863 116.721 1163.59 497.993
914 0 65.1113 14.2372 927 116.233 1163.71 497.257
915 0 67.1732 13.9341 936 115.334 1163.65 496.029
916 0 68.1831 13.5811 926 116.105 1163.85 494.917
917 0 72.1715 13.4956 974 115.5 1163.56 492.369
918 0 74.2039 14.1232 1048 115.498 1163.34 490.08
919 0 78.0918 13.2792 1037 115.862 1163.12 491.081
920 0 82.1125 14.1148 1159 114.651 1164.11 488.122
921 0 84.1184 13.695 1152 116.879 1163.74 486.64
922 1 40.0446 12.0116 481 116.497 1162.82 507.27
923 0 42.0277 12.0159 505 115.721 1162.47 506.642
924 0 44.1994 12.6698 560 115.012 1165.76 505.632
925 0 46.0955 12.6694 584 114.664 1163.19 506.087
926 0 48.1836 12.9297 623 120.963 1163.84 504.597
927 0 49.231 13.0203 641 121.276 1163.21 503.446
928 0 51.1741 13.7374 703 119.269 1163.83 502.622
929 0 53.2576 12.4114 661 122.189 1164.05 502.269
930 0 54.2138 13.3176 722 120.277 1163.71 502.436
931 0 56.145 13.4651 756 119.817 1164.22 502.081
932 0 57.1415 13.0028 743 121.958 1163.8 501.289
933 0 61.2012 13.3821 819 119.584 1164.18 500.335
934 0 59.1528 13.6426 807 121.016 1163.84 498.945
935 0 61.1787 12.8476 786 123.065 1164.13 496.989
936 0 66.085 13.9971 925 118.251 1164.46 496.395
937 0 67.2368 13.4748 906 119.89 1164.09 495.161
938 0 70.1774 13.4801 946 118.492 1163.7 495.537
939 0 72.2311 13.7475 993 118.64 1164.2 491.834
940 0 74.3056 14.5346 1080 115.861 1164.35 490.454
941 0 77.2249 13.7909 1065 116.718 1164.01 490.977
942 0 79.1748 13.9817 1107 113.406 1164.1 488.181
943 0 82.1148 13.7247 1127 113.988 1163.44 485.62
944 0 84.0809 12.7496 1072 115.146 1163.99 488.196
945 0 87.1905 13.1551 1147 115.396 1163.94 484.745
946 0 91.1898 13.9599 1273 112.94 1164.17 482.819
947 1 45.0388 11.2348 506 116.603 1164.44 506.085
948 0 48.3427 12.9906 628 112.841 1165.68 504.659
949 0 48.3159 12.7494 616 114.068 1165.61 504.346
950 0 50.1522 12.3225 618 114.495 1165.5 503.183
951 0 52.3073 13.0383 682 113.163 1165.09 502.065
952 0 54.2485 12.922 701 112.787 1164.81 501.148
953 0 54.18 13.8612 751 112.598 1164.17 499.198
954 0 57.1695 13.1888 754 112.462 1164.35 499.996
955 0 58.3964 13.1515 768 112.283 1165.14 499.656
956 0 61.3085 14.109 865 110.171 1165.1 497.646
957 0 63.3984 14.5272 921 109.218 1166.22 495.331
958 0 66.2498 14.0076 928 109.612 1165.61 495.303
959 0 64.1521 12.0495 773 109.088 1165.28 496.247
960 0 68.1259 12.3007 838 106.216 1165.44 494.777
961 0 71.0612 12.0741 858 106.153 1163.79 491.569
962 0 74.1975 12.5745 933 104.595 1163.89 491.247
963 0 77.1177 11.9687 923 105.661 1164.26 490.477
964 0 78.1914 11.1905 875 107.622 1163.92 489.538
965 0 78.3239 10.2778 805 109.666 1163.53 488.068
966 1 42.0201 12.3274 518 105.766 1162.85 503.4
967 0 45.1148 11.2602 508 107.47 1162.67 503.969
968 0 47.2016 12.7326 601 104.261 1163.13 502.015
969 0 46.0799 11.3933 525 105.895 1162.7 504.621
970 0 49.1102 12.1563 597 103.094 1163.04 504.315
971 0 53.0676 14.2083 754 97.8064 1162.77 502.166
972 0 52.1788 12.1889 636 103.509 1162.65 502.797
973 0 52.1696 10.6192 554 107.61 1163.24 504.065
974 0 52.1905 12.8184 669 104.063 1163.04 501.783
975 0 56.0531 13.6299 764 103.596 1163.21 500.36
976 0 58.111 14.2142 826 100.878 1163.77 499.874
977 0 59.1235 12.939 765 104.833 1163.69 496.831
978 0 62.1157 13.1368 816 103.571 1164 496.14
979 0 63.0816 13.11 827 106.149 1163.92 496.172
980 0 68.2809 13.049 891 105.684 1163.41 496.385
981 0 69.25 11.9278 826 109.594 1163.34 494.603
982 0 71.2197 12.8476 915 108.718 1163.42 493.46
983 0 71.2197 12.9037 919 140.322 1162.41 493.452
984 0 78.2019 13.7848 1078 107.28 1163.52 493.185
985 0 79.1721 13.1107 1038 110.214 1163.33 491.846
986 0 83.2254 13.5896 1131 109.385 1163.74 489.924
987 0 85.1834 13.5707 1156 110.13 1163.95 488.857
988 1 47.2708 12.6294 597 115.057 1164.56 506.769
989 0 48.5569 13.6335 662 114.011 1165.13 501.663
990 0 49.1258 13.5774 667 104.598 1164.91 504.541
991 0 51.0847 14.0942 720 104.638 1164.57 504.671
992 0 52.0643 14.29 744 103.657 1164.32 501.754
993 0 54.1438 13.6488 739 104.775 1164.71 501.199
994 0 54.2343 14.0133 760 108.43 1163.93 500.793
995 0 56.16 12.589 707 110.393 1163.8 501.709
996 0 59.0734 13.9487 824 106.214 1164.41 499.928
997 0 61.1945 13.3999 820 106.443 1164.67 498.773
998 0 62.1022 12.2862 763 108.026 1164.2 498.334
999 0 65.0477 13.1903 858 105.957 1164.9 497.479
1000 0 66.1588 12.3944 820 107.37 1164.73 497.563
1001 0 69.2209 13.4352 930 104.411 1164.23 494.974
1002 0 71.1881 12.8111 912 105.538 1164.47 494.423
1003 0 75.2021 13.7629 1035 103.168 1164.52 492.711
1004 0 75.0884 13.4908 1013 103.745 1164.76 491.463
1005 0 79.1977 12.6771 1004 104.615 1164.52 489.048
1006 0 82.1242 13.1265 1078 103.65 1164.31 487.37
1007 0 86.1155 13.1451 1132 102.954 1164.58 486.315
1008 0 88.117 13.3686 1178 103.501 1165.03 484.1
1009 0 93.2448 12.7299 1187 107.978 1165.14 480.5
1010 0 97.1014 14.0884 1368 104.569 1163.51 479.76
1011 1 49.1145 10.9336 537 103.326 1164.06 503.994
1012 0 50.2921 12.328 620 103.665 1165.15 497.184
1013 0 51.3397 12.7192 653 104.824 1164.76 497.518
1014 0 55.089 13.215 728 98.5385 1163.58 501.109
1015 0 56.0983 12.5672 705 99.2567 1164.22 501.018
1016 0 58.1357 12.7288 740 100.816 1163.62 498.191
1017 0 60.1228 14.6034 878 95.9351 1164.31 499.67
1018 0 62.1516 14.0785 875 97.3554 1164.51 496.834
1019 0 64.0858 14.3558 920 96.8196 1164.07 496.534
1020 0 65.112 13.0083 847 100.863 1165.02 495.035
1021 0 67.0933 14.696 986 97.9361 1164.14 493.788
1022 0 67.1253 12.9459 869 101.704 1164.91 493.07
1023 0 72.1931 11.7878 851 103.703 1164.74 492.055
1024 0 74.0943 13.1994 978 101.726 1164.53 492.052
1025 0 76.1789 13.4683 1026 102.01 1165.02 488.159
1026 0 80.0906 13.8343 1108 100.984 1164.43 489.811
1027 0 83.2346 13.9605 1162 101.683 1163.53 487.147
1028 0 84.1521 14.1173 1188 102.702 1164.03 487.785
1029 0 85.123 13.4394 1144 106.23 1164.56 485.119
1030 0 88.1308 15.4997 1366 103.303 1164.53 482.635
1031 0 91.171 13.886 1266 106.481 1164.97 483.258
1032 0 94.208 14.2132 1339 107.239 1164.77 484.565
1033 0 96.2133 14.1457 1361 109.94 1166.02 481.069
1034 0 101.397 14.3496 1455 109.765 1165.69 477.801
1035 0 102.205 14.2557 1457 111.59 1165.39 474.924
1036 1 57.0336 13.5183 771 113.564 1163.47 501.511
1037 0 57.0736 13.8067 788 113.128 1164.2 499.379
1038 0 57.0776 12.2465 699 114.618 1164.41 499.462
1039 0 61.066 13.9194 850 107.384 1164.13 497.666
1040 0 62.0709 15.8367 983 104.385 1163.88 497.19
1041 0 65.0528 15.2645 993 104.959 1163.97 495.468
1042 0 68.1331 15.7339 1072 103.447 1163.64 494.246
1043 0 70.0462 14.2192 996 107.267 1163.68 492.039
1044 0 73.0917 13.8456 1012 106.23 1164.08 491.792
1045 0 74.0896 15.0088 1112 104.912 1164.3 490.799
1046 0 75.0913 14.2626 1071 107.413 1164.13 490.656
1047 0 79.2012 14.7346 1167 105.59 1164.23 487.405
1048 0 81.1658 14.378 1167 107.033 1164.36 488.276
1049 0 85.0964 14.8655 1265 106.131 1163.96 485.712
1050 0 87.1818 15.049 1312 106.546 1164.4 484.841
1051 0 90.0814 13.8541 1248 109.74 1164.07 484.889
1052 0 93.1323 15.3867 1433 107.216 1163.84 481.609
1053 0 96.2781 14.3854 1385 111.401 1164.28 481.264
1054 0 100.159 14.7266 1475 110.143 1163.68 478.687
1055 0 103.22 14.2705 1473 110.693 1163.62 477.931
1056 0 106.312 13.9778 1486 109.267 1163.95 475.717
1057 0 111.372 13.657 1521 107.155 1163.8 475.724
1058 1 57.1062 11.6099 663 104.359 1164.62 500.029
1059 0 58.1042 12.0473 700 108.95 1163.83 498.901
1060 0 61.1546 14.3243 876 107.644 1164.02 496.212
1061 0 63.042 13.2293 834 110.29 1163.18 496.152
1062 0 64.0622 12.0976 775 111.636 1163.01 496.781
1063 0 69.043 14.0782 972 107.269 1163.43 494.124
1064 0 69.0885 14.5466 1005 107.92 1163.96 491.864
1065 0 72.1449 13.9996 1010 108.75 1163.59 492.584
1066 0 72.2181 12.3792 894 104.916 1163.98 491.434
1067 0 75.1611 12.4799 938 104.797 1164.07 491.22
1068 0 76.056 11.5704 880 109.223 1164.17 491.41
1069 0 81.1967 14.6311 1188 103.901 1164.21 488.488
1070 0 82.2028 14.1114 1160 105.16 1164.06 488.34
1071 0 85.2678 13.7918 1176 107.068 1164.62 486.556
1072 0 87.0962 13.6056 1185 108.328 1164.8 483.532
1073 0 91.1299 13.6069 1240 108.11 1164.34 485.027
1074 0 95.2293 13.4412 1280 109.134 1164.61 483.553
1075 1 47.0772 11.4705 540 109.698 1163.91 506.369
1076 0 48.0861 12.3944 596 107.279 1164.29 506.836
1077 0 51.1626 13.115 671 108.739 1165.63 498.149
1078 0 51.1391 13.5122 691 108.936 1165.18 498.637
1079 0 54.0385 14.5452 786 102.626 1163.94 503.093
1080 0 55.0889 12.8519 708 106.949 1163.53 502.959
1081 0 57.1132 12.9392 739 105.892 1164.63 502.161
1082 0 57.1971 13.1825 754 106.849 1164.09 500.895
1083 0 61.1966 14.1675 867 103.943 1164.26 498.582
1084 0 61.2685 12.6982 778 106.837 1163.84 499.228
1085 0 63.2441 13.4242 849 106.503 1164.49 496.803
1086 0 66.1504 14.8147 980 104.854 1164.06 495.005
1087 0 68.1878 12.9349 882 107.635 1164.49 497.037
1088 0 69.0943 13.7204 948 108.425 1163.81 494.18
1089 0 73.2074 13.8374 1013 107.903 1163.61 493.946
1090 0 75.2279 14.3431 1079 107.761 1164.36 490.168
1091 0 77.2308 14.7869 1142 106.952 1164.74 490.157
1092 0 80.2527 14.2425 1143 108.232 1164.42 488.425
1093 0 82.3256 13.7624 1133 110.363 1164.56 486.8
1094 0 86.2649 14.0961 1216 109.85 1164.53 485.114
1095 0 89.384 14.1189 1262 110.429 1163.76 481.75
1096 0 92.5343 13.8435 1281 109.74 1164.46 479.247
1097 1 49.4321 11.45 566 114.376 1164.48 498.928
1098 0 51.3804 13.1178 674 108.57 1165.36 499.353
1099 0 54.2899 12.3411 670 111.264 1163.93 499.581
1100 0 55.2672 12.901 713 109.83 1163.81 499.944
1101 0 58.178 14.4213 839 105.478 1163.82 498.682
1102 0 60.256 13.7082 826 105.745 1163.72 497.875
1103 0 59.0839 13.337 788 107.697 1163.35 496.528
1104 0 64.2034 13.8622 890 105.194 1163.57 496.307
1105 0 66.0967 14.388 951 104.041 1163.4 493.758
1106 0 68.0765 14.1459 963 103.753 1162.68 495.195
1107 0 69.0534 13.6561 943 105.911 1162.88 492.687
1108 0 70.1607 13.9109 976 106.125 1162.9 491.337
1109 0 74.1496 13.6346 1011 105.433 1162.93 490.495
1110 0 76.0848 14.6021 1111 103.668 1162.99 488.833
1111 0 79.178 14.4358 1143 103.619 1162.95 489.046
1112 0 79.1828 14.2834 1131 104.922 1163.37 485.071
1113 0 83.1344 13.1354 1092 105.987 1163.31 487.145
1114 0 83.0887 13.3472 1109 106.572 1163.33 485.057
1115 0 87.1517 13.6773 1192 105.216 1163.93 484.374
1116 1 49.1716 10.9209 537 105.695 1165.01 505.203
1117 0 50.426 13.3265 672 102.116 1165.59 500.065
1118 0 52.2262 12.0246 628 104.801 1165.75 500.935
1119 0 50.1411 12.9634 650 105.432 1165.62 500.351
1120 0 55.2552 13.7001 757 102.645 1164.87 500.532
1121 0 55.1474 12.2218 674 106.304 1165.11 499.536
1122 0 58.3292 13.1838 769 104.459 1165.01 497.787
1123 0 58.183 13.131 764 105.387 1164.07 498.031
1124 0 62.0691 12.8566 798 106.955 1163.08 496.619
1125 0 64.0579 13.9249 892 105.521 1163.68 496.789
1126 0 66.0474 13.5055 892 106.101 1163.84 496.898
1127 0 68.0914 13.2028 899 108.486 1164.05 492.783
1128 0 70.1498 14.0414 985 107.058 1163.79 492.421
1129 0 74.0318 13.197 977 109.005 1163.83 492.009
1130 0 75.1261 12.0997 909 112.541 1163.75 490.443
1131 0 79.1241 14.016 1109 108.79 1163.82 488.84
1132 0 82.0653 14.001 1149 108.844 1163.44 487.436
1133 0 86.1333 14.1873 1222 107.781 1164.02 486.781
1134 0 89.2105 13.328 1189 110.741 1163.84 485.403
1135 1 45.0391 11.3901 513 111.444 1163.4 506.199
1136 0 50.0672 11.0252 552 110.877 1162.73 505.449
1137 0 50.0524 12.2072 611 109.468 1163.88 502.63
1138 0 51.1024 14.7155 752 101.721 1163.74 501.459
1139 0 54.1721 15.3954 834 99.9448 1163.86 501.366
1140 0 53.2248 12.8511 684 106.889 1164.62 502.118
1141 0 56.1198 14.6829 824 102.498 1164.79 498.716
1142 0 59.2405 13.5549 803 105.161 1164.26 498.269
1143 0 58.0714 13.1907 766 106.658 1163.97 499.106
1144 0 62.0947 14.333 890 104.142 1163.9 497.57
1145 0 65.135 14.9075 971 102.857 1163.82 494.281
1146 0 67.1376 13.7181 921 105.506 1163.56 495.713
1147 0 71.2435 15.44 1100 101.634 1164.08 494.725
1148 0 72.2358 13.1514 950 108.421 1163.63 489.063
1149 0 74.0999 14.0891 1044 107.166 1163.38 489.217
1150 0 74.2321 13.4174 996 109.957 1162.88 490.745
1151 0 77.2177 14.1677 1094 109.02 1163.52 487.473
1152 0 80.1447 14.7109 1179 107.727 1163.06 488.16
1153 0 84.4044 13.8855 1172 108.579 1163.77 486.966
1154 0 88.206 14.2394 1256 107.971 1163.57 484.588
1155 0 91.2394 14.6428 1336 107.366 1163.92 483.779
1156 0 94.1891 14.6408 1379 107.613 1164.16 481.937
1157 0 97.1832 13.9942 1360 108.643 1163.73 478.981
1158 1 51.2244 13.4116 687 110.741 1162.84 501.09
1159 0 53.2666 12.9162 688 110.358 1163.4 500.898
1160 0 55.1472 13.2192 729 112.529 1163.43 499.134
1161 0 56.3529 13.1138 739 113.28 1164.51 497.959
1162 0 57.1811 14.7426 843 111.579 1164.13 496.413
1163 0 58.3102 13.1366 766 115.805 1164.25 496.369
1164 0 61.2483 13.7636 843 114.032 1164.7 496.578
1165 0 65.2469 14.3148 934 111.536 1164.72 494.656
1166 0 65.2936 13.2785 867 114.897 1165.5 493.045
1167 0 68.2186 14.4242 984 110.752 1164.7 493.663
1168 0 71.4618 15.113 1080 108.77 1165.09 492.048
1169 0 73.5472 14.0726 1035 110.386 1164.48 491.667
1170 0 76.4293 14.5232 1110 110.198 1164.75 487.822
1171 0 76.2546 12.4976 953 115.804 1164.68 488.389
1172 0 79.5287 13.9447 1109 111.061 1164.35 488.009
1173 0 83.8703 14.2959 1199 106.58 1164.01 485.565
1174 0 84.4701 14.4785 1223 108.11 1164.12 484.681
1175 0 88.5364 13.3053 1178 110.991 1164.43 481.888
1176 1 49.5027 10.9691 543 113.91 1163.31 503.083
1177 0 50.3639 13.1046 660 110.267 1164.02 499.426
1178 0 54.5803 12.6786 692 110.889 1163.6 499.14
1179 0 54.1882 12.4381 674 114.108 1164.49 499.445
1180 0 56.2729 13.0614 735 112.68 1163.93 499.122
1181 0 58.2989 13.6023 793 111.823 1164.28 497.673
1182 0 57.3079 12.9301 741 116.402 1164.3 495.399
1183 0 59.1921 11.3529 672 119.722 1164.12 496.915
1184 0 62.358 13.2301 825 115.84 1163.79 495.732
1185 0 65.2272 14.4265 941 113.097 1164.32 493.732
1186 0 66.2981 12.6248 837 117.984 1164.14 494.042
1187 0 67.1947 13.8255 929 117.24 1164.87 491.145
1188 0 70.3453 13.9171 979 115.818 1164.29 492.418
1189 0 73.4457 13.9287 1023 115.088 1164.38 492.222
1190 0 73.3705 13.4386 986 118.613 1164.12 490.097
1191 0 75.3174 13.5958 1024 118.787 1164.73 486.952
1192 0 78.2894 13.7694 1078 117.506 1164.74 488.138
1193 0 81.6511 13.5577 1107 118.324 1164.79 484.332
1194 0 84.6142 14.832 1255 115.402 1165.21 482.646
1195 0 86.7728 14.2671 1238 117.406 1165.18 480.847
1196 0 89.5299 14.632 1310 117.743 1164.69 477.647
1197 0 93.4686 14.7857 1382 117.457 1165.17 476.093
1198 0 94.454 14.5044 1370 115.33 1164.86 475.696
1199 0 97.1846 12.9033 1254 112.865 1164.46 477.811
1200 0 99.1671 12.968 1286 114.168 1164.24 474.673
1201 0 105.173 14.2622 1500 110.797 1164.36 474.573
1202 0 107.154 14.5958 1564 110.973 1165.17 471.767
1203 0 110.118 13.9305 1534 112.921 1164.88 470.866
1204 0 113.204 14.9554 1693 111.189 1165.01 470.735
1205 0 116.193 13.9767 1624 113.943 1164.59 467.997
1206 0 122.47 14.6893 1799 112.29 1164.67 463.153
1207 0 126.422 15.1477 1915 112.46 1165.2 461.834
1208 0 131.483 14.9601 1967 113.778 1165.22 459.383
1209 0 134.609 13.7658 1853 116.497 1165.28 455.518
1210 1 72.4102 12.3463 894 111.02 1164.22 489.263
1211 0 75.2992 13.1476 990 118.554 1164.03 489.059
1212 0 75.3852 11.7928 889 123.659 1164.35 486.247
1213 0 80.1966 13.1926 1058 121.316 1163.56 487.564
1214 0 84.3784 12.835 1083 122.165 1163.5 487.02
1215 0 85.3574 14.082 1202 121.155 1163.77 484.193
1216 0 87.2849 13.5419 1182 123.198 1163.89 481.63
1217 0 89.3959 13.7926 1233 122.632 1163.77 479.979
1218 0 93.4456 12.5635 1174 123.091 1163.78 483.309
1219 0 96.2375 13.2589 1276 123.005 1163.8 478.001
1220 0 101.477 14.1905 1440 120.499 1163.53 477.703
1221 0 105.332 13.6616 1439 122.047 1164.16 477.249
1222 0 107.406 13.6585 1467 124.07 1163.62 473.147
1223 0 110.37 13.491 1489 125.154 1163.12 472.975
1224 0 115.361 12.9247 1491 125.932 1163.29 470.714
1225 1 62.175 11.5159 716 116.464 1163.42 495.592
1226 0 65.0883 12.6136 821 119.432 1162.79 494.613
1227 0 66.1541 12.6069 834 120.772 1163.18 493.072
1228 0 68.2742 13.065 892 120.111 1163.66 494.672
1229 0 70.1754 13.4948 947 119.696 1163.63 490.464
1230 0 72.211 13.7929 996 116.051 1162.85 490.322
1231 0 74.2128 13.7308 1019 116.035 1162.82 489.926
1232 0 77.2754 14.0407 1085 113.726 1162.84 490.032
1233 0 79.265 13.1206 1040 118.235 1162.69 488.428
1234 0 82.2669 14.0275 1154 117.281 1163.46 486.383
1235 0 83.3891 13.395 1117 120.751 1162.82 486.817
1236 0 87.2178 13.3115 1161 120.698 1163.27 485.21
1237 0 90.271 13.4152 1211 119.675 1162.46 485.04
1238 0 93.2932 13.6237 1271 120.389 1162.79 482.03
1239 0 95.2988 13.1901 1257 121.811 1162.56 482.741
1240 0 98.2463 12.6213 1240 124.488 1161.97 479.944
1241 0 103.342 13.4311 1388 121.148 1162.16 477.59
1242 1 52.2402 11.1983 585 122.238 1162.33 501.212
1243 0 54.1429 10.7493 582 108.201 1163.16 494.12
1244 0 58.0287 11.4598 665 101.672 1162.65 495.689
1245 0 58.2541 12.1193 706 101.354 1162.96 496.737
1246 0 58.178 11.2585 655 103.713 1163.27 495.672
1247 0 61.1168 11.5844 708 103.285 1162.89 494.21
1248 0 62.1853 10.8868 677 103.97 1163.27 493.1
1249 0 65.2919 12.268 801 101.357 1163.85 492.879
1250 0 68.1549 12.4863 851 100.516 1163.61 490.562
1251 0 71.2311 12.5647 895 101.255 1162.41 491.467
1252 0 73.2165 12.3879 907 102.301 1162.85 490.645
1253 0 74.2729 12.3464 917 102.792 1162.79 489.154
1254 0 75.2616 11.6527 877 105.203 1162.97 488.912
1255 0 81.2508 13.1322 1067 100.794 1163.13 488.272
1256 0 82.1639 11.9639 983 103.97 1163.22 485.349
1257 0 87.372 13.185 1152 100.852 1162.95 484.372
1258 0 88.1998 11.712 1033 104.348 1162.42 483.313
1259 0 90.1783 11.8654 1070 105.231 1163.12 481.557
1260 0 94.2804 13.078 1233 102.585 1163.04 479.841
1261 0 96.2176 12.4406 1197 103.67 1163.19 479.835
1262 1 51.0663 10.0654 514 103.753 1162.63 504.305
1263 0 53.1551 11.8709 631 102.691 1163.44 500.998
1264 0 54.2758 12.068 655 102.501 1163.13 500.154
1265 0 52.2147 12.755 666 104.357 1162.84 502.539
1266 0 53.2279 11.4789 611 106.097 1163.22 500.321
1267 0 55.2469 10.5164 581 108 1162.39 502.213
1268 0 59.1045 12.351 730 103.288 1163.11 499.562
1269 0 59.2282 12.0213 712 104.861 1163.12 499.624
1270 0 61.2002 12.9085 790 103.018 1162.61 497.919
1271 0 62.2408 12.05 750 105.373 1162.91 496.952
1272 0 63.1907 12.1062 765 107.035 1163.27 495.204
1273 0 65.208 11.7624 767 107.379 1164 495.016
1274 0 68.245 12.4112 847 105.836 1163.65 494.566
1275 0 70.2995 12.6317 888 106.968 1163.91 490.091
1276 0 73.1998 12.1722 891 108.721 1163.38 489.975
1277 0 76.2305 13.0525 995 107.665 1163.7 488.479
1278 0 79.2318 12.2678 972 110.96 1164.02 487.423
1279 1 42.0721 10.8385 456 108.191 1162.84 505.829
1280 0 45.0294 10.7263 483 108.959 1163.06 506.422
1281 0 46.1571 13.779 636 105.222 1164.15 499.692
1282 0 49.1479 13.3068 654 105.662 1164.55 500.618
1283 0 49.2495 12.0813 595 109.077 1162.73 500.982
1284 0 49.2636 12.7274 627 108.526 1162.62 502.301
1285 0 53.3362 12.1493 648 109.704 1162.7 500.935
1286 0 53.2493 13.1645 701 109.12 1162.95 500.683
1287 0 55.261 12.1786 673 110.814 1162.92 499.911
1288 0 55.2044 11.5933 640 113.608 1163.28 499.645
1289 0 57.1589 14.1185 807 107.716 1163 498.981
1290 0 59.1066 12.6551 748 110.67 1162.75 498.817
1291 0 60.1433 13.1852 793 108.963 1163.25 496.692
1292 0 62.3314 13.1876 822 108.818 1162.87 495.684
1293 0 66.2342 12.9389 857 108.137 1163.26 494.838
1294 0 69.1918 13.412 928 106.573 1163.42 492.469
1295 0 70.128 12.9192 906 108.632 1163.37 491.009
1296 0 74.1247 13.4773 999 107.119 1162.51 490.2
1297 0 75.1262 11.9932 901 111.19 1162.94 489.61
1298 0 78.0322 12.4308 970 110.43 1162.62 488.274
1299 0 81.52 12.8435 1047 106.287 1163.24 481.298
1300 0 83.2141 12.0893 1006 111.31 1162.9 485.164
1301 1 45.1273 9.06324 409 107.311 1162.99 507.545
1302 0 47.2585 11.1091 525 107.029 1162.79 503.589
1303 0 48.1639 10.9003 525 107.893 1162.87 501.51
1304 0 50.2007 12.8285 644 103.427 1163.02 500.259
1305 0 51.1502 13.1182 671 105.928 1163.74 501.23
1306 0 54.2373 12.9616 703 104.367 1162.99 502.304
1307 0 53.2616 12.3353 657 106.647 1162.88 501.137
1308 0 57.273 13.1999 756 103.832 1163.29 500.044
1309 0 56.2609 12.2998 692 106.275 1163.36 500.374
1310 0 60.2388 14.9571 901 100.241 1164.06 497.22
1311 0 62.1838 13.637 848 101.414 1163.74 498.792
1312 0 64.1715 13.4951 866 100.921 1163.96 497.77
1313 0 65.1944 12.9766 846 103.148 1163.76 494.286
1314 0 68.2443 13.3051 908 100.899 1163.92 493.921
1315 0 68.1711 12.1753 830 104.953 1164.09 492.108
1316 0 73.1504 13.4244 982 101.456 1164.35 492.244
1317 0 74.1676 14.1976 1053 98.8044 1163.79 488.465
1318 0 78.2212 14.3184 1120 98.0304 1163.66 488.004
1319 0 79.0993 13.3756 1058 101.887 1163.28 488.823
1320 0 84.2215 13.8207 1164 100.807 1163.63 486.152
1321 0 85.1274 13.3917 1140 104.352 1163.13 485.185
1322 0 89.2307 14.8491 1325 102.492 1163.11 482.71
1323 1 49.052 12.5989 618 97.788 1163.72 505.549
1324 0 49.0596 12.7396 625 98.3952 1163.6 503.376
1325 0 49.0898 10.6947 525 104.116 1163.15 502.419
1326 0 53.2279 12.2117 650 100.672 1163.46 502.268
1327 0 52.1292 12.1045 631 102.778 1163.38 499.986
1328 0 53.2675 12.9347 689 100.819 1163.48 499.161
1329 0 56.1061 13.118 736 100.045 1163.66 500.394
1330 0 59.4148 12.7914 760 100.487 1164.29 498.289
1331 0 58.1729 13.2364 770 101.74 1164.38 497.053
1332 0 60.1696 13.2625 798 102.766 1164.67 496.505
1333 0 63.0988 13.6453 861 104.925 1164.25 497.286
1334 0 65.2063 12.7135 829 107.498 1164.52 493.905
1335 0 67.3896 12.9248 871 107.645 1164.13 491.398
1336 0 69.3138 13.7635 954 106.397 1164.58 489.87
1337 0 71.3123 13.2936 948 108.469 1164.6 487.641
1338 0 74.3773 12.8937 959 108.42 1164.25 486.556
1339 0 76.5978 11.9455 915 110.443 1163.95 486.811
1340 0 79.5226 13.7194 1091 107.188 1164.53 482.349
1341 0 82.5925 12.4103 1025 109.737 1164.6 481.42
1342 0 87.515 14.3404 1255 105.308 1164.46 479.696
1343 0 90.7528 13.1456 1193 107.443 1164.46 479.406
1344 0 93.6623 12.6839 1188 109.951 1164.4 474.03
1345 0 97.405 13.6646 1331 108.267 1164.63 474.823
1346 0 101.509 13.9594 1417 107.774 1164.04 473.091
1347 1 52.2989 11.5299 603 105.468 1164.49 494.585
1348 0 56.5432 12.4683 705 104.211 1163.89 495.652
1349 0 58.1799 11.9457 695 104.463 1163.94 497.668
1350 0 59.2782 12.3317 731 103.7 1163.18 495.815
1351 0 61.1995 12.7615 781 104.919 1163.31 493.739
1352 0 62.199 11.4793 714 106.473 1163.15 497.237
1353 0 65.2137 11.8687 774 107.904 1163.47 494.22
1354 0 67.3657 13.0185 877 106.612 1163.59 492.397
1355 0 70.3146 13.0414 917 106.557 1164.08 488.774
1356 0 73.3007 13.6697 1002 105.879 1163.89 487.537
1357 0 74.4274 12.6835 944 108.244 1164.01 485.042
1358 0 76.5489 12.8284 982 109.26 1163.87 480.823
1359 0 80.384 13.7714 1107 107.389 1163.85 480.644
1360 0 81.3235 13.3049 1082 109.527 1163.6 480.51
1361 0 86.5242 14.1348 1223 107.213 1163.78 479.035
1362 0 89.6189 13.2673 1189 109.664 1163.26 477.103
1363 0 91.786 13.2809 1219 110.072 1162.92 476.573
1364 0 92.5993 13.1966 1222 111.822 1163 473.583
1365 0 98.6486 15.094 1489 107.136 1163.2 471.449
1366 0 98.6268 13.11 1293 111.014 1163.7 472.195
1367 0 106.674 15.449 1648 104.893 1163.7 469.09
1368 0 107.546 14.0683 1513 110.606 1163.64 468.003
1369 1 59.5099 12.4517 741 103.711 1164.09 493.48
1370 0 60.4375 12.939 782 103.962 1163.73 491.243
1371 0 63.2385 11.7808 745 107.444 1163.46 496.283
1372 0 66.2788 12.5228 830 105.682 1163.54 494.493
1373 0 67.2442 12.6405 850 106.231 1164.33 491.532
1374 0 70.3468 12.5947 886 106.262 1164.36 489.448
1375 0 72.1466 12.2112 881 107.533 1164.05 486.872
1376 0 74.2672 12.2127 907 106.763 1164.04 487.035
1377 0 79.4957 13.9882 1112 102.457 1164.56 484.442
1378 0 81.6042 11.7764 961 107.259 1164.1 482.929
1379 0 82.187 12.7514 1048 106.252 1163.88 480.769
1380 0 87.5149 12.4779 1092 107.221 1164.42 480.327
1381 0 90.5141 12.9151 1169 106.263 1164.29 478.369
1382 0 94.6367 12.4476 1178 106.768 1163.96 477.044
1383 0 97.4413 13.0848 1275 107.011 1163.18 473.801
1384 0 98.6303 11.7712 1161 109.382 1163.28 474.207
1385 0 104.644 13.178 1379 106.413 1163.23 471.623
1386 0 107.659 13.4777 1451 106.251 1164.24 469.608
1387 0 111.512 12.5278 1397 107.561 1163.85 468.999
1388 0 114.534 12.7123 1456 108.656 1164.23 466.141
1389 0 117.738 12.7146 1497 109.848 1164.02 461.372
1390 1 62.5947 11.2949 707 107.622 1163.51 490.905
1391 0 65.5245 12.3465 809 106.145 1164.22 491.355
1392 0 67.143 12.4957 839 105.077 1163.55 492.917
1393 0 69.2748 12.0246 833 106.15 1163.96 492.22
1394 0 71.5382 12.2312 875 106.865 1163.58 489.641
1395 0 74.3659 12.062 897 108.387 1163.8 487.33
1396 0 77.3738 12.6916 982 106.699 1163.54 487.82
1397 0 80.489 13.7286 1105 105.598 1163.71 484.69
1398 0 83.6819 13.396 1121 106.491 1162.96 484.023
1399 0 84.7885 12.2894 1042 110.997 1163.59 480.88
1400 0 86.754 12.2646 1064 112.074 1163.47 479.307
1401 0 89.6047 12.2092 1094 112.598 1164.07 476.686
1402 0 92.6244 12.9664 1201 110.946 1163.62 474.574
1403 0 94.5187 12.3891 1171 113.983 1163.54 471.834
1404 0 99.6611 14.0075 1396 110.535 1163.39 471.368
1405 0 101.56 12.308 1250 116.042 1163.21 467.058
1406 0 104.628 12.6926 1328 114.281 1163.4 466.834
1407 0 107.543 11.8557 1275 116.869 1163.04 462.391
1408 0 112.738 11.9392 1346 116.144 1163.36 463.403
1409 0 117.746 12.5949 1483 115.273 1163.51 459.153
1410 1 66.3993 11.6869 776 106.006 1162.99 484.943
1411 0 68.4926 11.7531 805 105.842 1163.15 488.807
1412 0 70.1432 11.1201 780 109.986 1162.38 486.245
1413 0 73.1774 12.3809 906 107.766 1162.28 484.768
1414 0 73.2041 11.5431 845 110.343 1161.97 485.665
1415 0 78.1806 11.7037 915 109.94 1162.75 484.18
1416 0 81.1948 13.4245 1090 105.867 1162.78 482.277
1417 0 83.1924 12.0924 1006 109.475 1162.35 480.502
1418 0 86.2823 11.7869 1017 111.391 1162.36 476.166
1419 0 90.588 10.9728 994 111.489 1161.99 478.021
1420 0 91.4155 11.9673 1094 110.715 1161.49 471.689
1421 0 95.5198 12.1964 1165 110.499 1161.37 470.125
1422 0 97.6948 11.5871 1132 113.015 1161.79 467.901
1423 0 101.627 12.4474 1265 112.14 1162.13 463.964
1424 0 103.609 12.2576 1270 111.502 1162.41 464.333
1425 0 106.475 11.3736 1211 113.865 1162.18 459.217
1426 0 110.55 12.0217 1329 112.003 1162.44 461.812
1427 0 113.447 12.6314 1433 111.276 1162.67 457.722
1428 1 59.2478 10.4645 620 106.824 1162.59 487.227
1429 0 63.1743 11.682 738 106.678 1161.6 489.36
1430 0 63.0797 12.8885 813 99.4121 1162.02 487.363
1431 0 65.1799 11.6907 762 104.297 1161.74 486.759
1432 0 68.1002 12.7019 865 102.16 1162.19 485.125
1433 0 70.1191 12.436 872 103.112 1161.47 483.695
1434 0 73.1065 12.6665 926 103.623 1160.92 481.728
1435 0 75.0626 11.6303 873 111.74 1161.69 480.15
1436 0 77.0372 11.6956 901 111.723 1161.26 480.393
1437 0 80.0698 13.0012 1041 109.869 1161.07 477.515
1438 0 81.1081 12.5511 1018 111.545 1160.98 475.325
1439 0 83.0834 13.0832 1087 109.787 1161 476.148
1440 0 87.066 13.3692 1164 109.225 1161.37 473.368
1441 0 88.1191 13.3569 1177 109.071 1161.26 474.541
1442 0 91.1511 13.4063 1222 108.791 1161.71 470.78
1443 0 95.1196 13.0783 1244 108.814 1161.99 470.189
1444 0 97.1032 13.5629 1317 107.752 1161.97 470.233
1445 0 99.1016 13.0573 1294 109.009 1162.39 469.369
1446 0 101.152 11.1119 1124 105.981 1164.56 472.458
1447 0 107.194 12.454 1335 104.582 1165.47 464.122
1448 1 59.2227 8.86485 525 105.152 1166.23 489.836
1449 0 61.047 10.107 617 100.716 1165.47 492.379
1450 0 63.0437 13.2606 836 99.5969 1166.12 487.175
1451 0 67.1214 13.2298 888 101.868 1166.7 487.419
1452 0 70.0846 12.7703 895 101.863 1166.12 487.379
1453 0 71.1526 12.7191 905 102.508 1166.71 485.898
1454 0 73.2414 12.5339 918 102.996 1166.49 484.948
1455 0 75.1505 12.3619 929 102.721 1165.9 486.037
1456 0 76.224 11.991 914 104.403 1166.45 483.993
1457 0 80.2115 14.2374 1142 99.7049 1165.78 481.411
1458 0 84.2604 13.577 1144 100.261 1166.09 480.327
1459 0 86.2438 13.0908 1129 102.427 1165.89 479.629
1460 0 84.3667 12.8131 1081 104.419 1165.39 477.333
1461 0 89.4058 13.366 1195 102.589 1165.09 480.171
1462 0 93.3315 13.5431 1264 101.324 1165.09 477.446
1463 0 95.4982 14.1783 1354 100.696 1165.06 473.804
1464 0 99.6715 13.5646 1352 101.478 1164.62 470.178
1465 0 102.778 15.3145 1574 97.7414 1164.29 470.659
1466 0 107.548 11.9202 1282 105.622 1164.16 471.567
1467 0 106.121 9.39493 997 104.258 1162.94 471.962
1468 0 110.266 11.2364 1239 100.886 1163.79 470.011
1469 1 211.972 12.5158 2653 111.12 1163.78 415.703
1470 1 119.607 10.9943 1315 101.213 1163.54 464.428
1471 1 65.2724 9.63653 629 95.0127 1163.72 485.838
1472 0 68.4216 10.0699 689 93.4877 1163.9 484.823
1473 0 70.0957 11.0848 777 91.6499 1164.98 486.752
1474 0 74.154 12.1369 900 89.4778 1164.75 486.114
1475 0 78.3015 12.0432 943 97.4592 1162.78 486.023
1476 0 80.2475 10.829 869 100.594 1162.79 483.435
1477 0 79.3451 11.2546 893 104.577 1162.83 481.433
1478 0 83.5138 11.4951 960 103.252 1162.96 483.149
1479 0 85.353 11.224 958 104.431 1162.94 479.563
1480 0 87.3604 12.4999 1092 102.314 1163.48 479.658
1481 0 91.4969 12.4813 1142 103.4 1163.52 476.631
1482 0 93.4749 11.5111 1076 105.145 1163.97 478.881
1483 0 98.3593 12.9423 1273 102.4 1164.01 477.837
1484 0 101.581 12.2464 1244 103.493 1164.28 474.73
1485 0 105.785 11.7597 1244 104.917 1164.54 473.088
1486 1 61.5127 12.1276 746 96.6327 1165.94 495.145
1487 0 61.5786 11.8548 730 99.0466 1165.55 493.19
1488 0 63.2258 13.175 833 89.383 1165.72 484.739
1489 0 65.1404 11.9434 778 97.9833 1166.98 491.862
1490 0 67.0973 12.236 821 98.4507 1166.72 491.112
1491 0 67.0637 11.4518 768 102.1 1166.6 490.512
1492 0 68.0431 12.4627 848 100.706 1166.52 490.567
1493 0 70.123 13.4621 944 101.914 1165.88 487.514
1494 0 72.1373 12.5178 903 104.447 1166.14 488.295
1495 0 73.1271 14.1398 1034 103.078 1165.86 486.282
1496 0 77.2042 13.1988 1019 104.376 1165.88 487.273
1497 0 76.1256 13.6616 1040 106.246 1166.08 483.122
1498 0 79.0602 12.092 956 109.576 1166.32 486.176
1499 0 81.0925 13.2811 1077 108.807 1165.94 484.02
1500 0 85.0676 12.7663 1086 109.314 1165.97 484.547
1501 0 87.1525 13.4362 1171 109.723 1164.98 481.007
1502 0 90.0682 13.5564 1221 109.397 1165.46 482.297
1503 0 94.167 14.1982 1337 108.327 1164.59 478.938
1504 0 95.2117 13.0971 1247 104.652 1164.84 477.732
1505 0 97.1967 14.4347 1403 104.597 1165.13 474.538
1506 0 98.0908 12.8758 1263 110.425 1164.67 476.331
1507 1 50.0279 10.0944 505 115.04 1165.8 497.255
1508 0 53.0253 11.1268 590 114.517 1165.81 496.919
1509 0 54.1787 12.3665 670 113.716 1162.47 497.255
1510 0 53.2352 12.1536 647 118.96 1163.05 495.138
1511 0 54.2643 11.1676 606 120.342 1163.18 495.952
1512 0 58.2766 12.4063 723 115.528 1163.06 494.62
1513 0 59.2425 12.5417 743 114.283 1162.56 493.525
1514 0 60.1759 13.6267 820 109.537 1162.38 495.578
1515 0 60.0799 11.0852 666 104.419 1162.56 494.848
1516 0 63.1463 11.5446 729 101.428 1161.62 494.211
1517 0 66.178 12.5873 833 99.2773 1162.56 491.562
1518 0 67.1389 12.0794 811 99.7744 1162.19 491.57
1519 0 70.2713 11.9821 842 99.171 1162.09 490.381
1520 0 70.1986 11.9945 842 100.613 1162.61 490.862
1521 0 73.1731 11.138 815 102.537 1162.61 488.259
1522 0 73.1267 11.7467 859 102.418 1161.99 486.896
1523 0 75.1194 12.0076 902 103.411 1162.84 488.698
1524 0 78.1547 12.9871 1015 102.042 1163.27 488.421
1525 0 80.1963 11.3098 907 106.234 1163.38 488.24
1526 0 82.213 13.1853 1084 104.199 1163.62 484.901
1527 0 85.272 12.853 1096 106.558 1163.2 481.803
1528 0 87.169 12.4471 1085 108.667 1162.81 481.802
1529 1 48.0895 11.4162 549 106.031 1162.36 500.293
1530 0 50.0862 11.2805 565 106.873 1161.92 500.862
1531 0 51.1029 11.5845 592 107.644 1162.39 500.676
1532 0 52.0796 13.2489 690 105.761 1162.49 500.974
1533 0 53.0842 12.9417 687 108.924 1162.33 500.541
1534 0 51.0735 11.2974 577 118.269 1161.94 499.908
1535 0 57.0971 12.6451 722 111.137 1161.42 498.13
1536 0 58.1974 13.6948 797 109.695 1161.95 498.522
1537 0 60.0996 13.5442 814 110.748 1161.99 495.957
1538 0 60.1683 13.0467 785 112.555 1161.61 496.753
1539 0 64.0328 12.7591 817 112.586 1162.14 496.858
1540 0 63.1079 13.3898 845 113.639 1161.76 494.817
1541 0 65.1509 12.3252 803 115.386 1162.01 496.075
1542 0 69.156 14.0841 974 112.196 1161.72 493.955
1543 0 69.1657 13.7351 950 113.701 1161.48 491.525
1544 0 71.2502 13.9228 992 113.368 1162.21 491.458
1545 0 73.2939 13.3026 975 115.401 1161.83 491.384
1546 0 77.2177 13.844 1069 113.777 1161.54 490.46
1547 0 77.2223 13.8691 1071 114.379 1162.02 489.895
1548 0 81.2935 15.0689 1225 112.514 1161.41 486.224
1549 0 83.4621 13.9704 1166 119.783 1161.43 485.291
1550 0 87.4405 14.9702 1309 116.469 1161.77 481.159
1551 0 90.3953 14.503 1311 115.593 1161.68 479.674
1552 0 94.4313 14.9209 1409 109.538 1161.28 480.901
1553 1 50.1319 12.0682 605 108.195 1163.3 500.977
1554 0 50.1565 11.6037 582 110.359 1162.63 502.995
1555 0 53.1506 13.1701 700 108.024 1161.63 499.214
1556 0 53.065 12.7391 676 107.351 1161.53 500.361
1557 0 54.0663 12.5217 677 107.877 1161.14 500.396
1558 0 57.1003 13.9054 794 104.741 1161.71 498.98
1559 0 59.1106 14.1599 837 103.964 1161.88 497.602
1560 0 62.0402 14.0393 871 103.481 1161.62 497.615
1561 0 62.0417 13.4909 837 105.029 1162.31 497.98
1562 0 63.179 13.1056 828 106.466 1161.56 495.097
1563 0 66.1252 12.8695 851 105.979 1161.61 493.87
1564 0 69.1044 13.7328 949 104.463 1162.12 491.698
1565 0 71.0988 13.1085 932 105.317 1162.01 492.315
1566 0 74.1169 13.4382 996 105.017 1161.63 488.547
1567 0 78.0934 14.2266 1111 102.661 1161.66 488.611
1568 0 78.1512 12.5398 980 106.353 1161.69 486.08
1569 0 82.1952 13.9668 1148 103.084 1161.93 484.294
1570 0 85.1807 14.1229 1203 102.387 1161.66 482.389
1571 0 87.1909 13.3844 1167 103.75 1160.98 484.921
1572 0 89.1719 13.8384 1234 104.013 1160.58 482.355
1573 0 93.1247 13.6376 1270 104.204 1161.26 481.033
1574 0 97.2764 14.0116 1363 102.768 1161.11 479.844
1575 0 99.1368 13.668 1355 103.707 1160.95 477.813
1576 1 54.0896 12.165 658 102.729 1160.63 498.251
1577 0 59.0891 13.6235 805 97.9528 1160.16 496.528
1578 0 58.1102 13.0614 759 100.955 1159.81 497.154
1579 0 61.0831 13.277 811 100.491 1160.23 495.423
1580 0 63.0902 14.7408 930 97.9559 1159.77 493.362
1581 0 63.082 13.0465 823 102.61 1160.43 492.113
1582 0 67.1358 13.9121 934 101.192 1160.25 490.662
1583 0 70.1293 14.1881 995 100.488 1160.6 490.442
1584 0 73.1734 14.5955 1068 99.8464 1159.34 489.51
1585 0 75.2076 13.1503 989 103.296 1160 486.219
1586 0 78.1779 14.0705 1100 100.91 1160.74 486.935
1587 0 78.2307 13.5752 1062 104.783 1160.9 484.858
1588 0 81.1963 13.8307 1123 105.025 1161.07 484.509
1589 0 85.3369 14.6244 1248 103.722 1160.55 483.138
1590 0 85.2387 14.4887 1235 106.019 1160.38 481.338
1591 0 89.212 14.2918 1275 106.562 1160.45 481.147
1592 0 91.1799 13.8408 1262 106.911 1161.72 481.686
1593 0 95.1404 14.2106 1352 107.97 1161.68 481.069
1594 0 97.2367 13.6368 1326 110.574 1161.93 477.333
1595 1 52.1437 10.3943 542 116.304 1161.37 498.068
1596 0 54.1897 12.77 692 101.986 1162.05 492.656
1597 0 57.1476 12.424 710 99.3141 1160.93 490.728
1598 0 58.0895 11.9127 692 100.714 1161.03 491.055
1599 0 63.0821 15.2024 959 103.104 1161.55 496.66
1600 0 65.2045 13.3273 869 107.934 1161.14 494.221
1601 0 67.1616 14.2492 957 107.253 1160.67 494.067
1602 0 68.0892 14.6426 997 108.177 1161.36 492.719
1603 0 69.1396 14.1598 979 110.874 1161.05 491.084
1604 0 73.0851 13.7374 1004 112.411 1160.83 488.773
1605 0 75.1008 12.8095 962 114.281 1160.64 491.457
1606 0 77.2014 13.7433 1061 113.871 1161.34 488.25
1607 0 80.265 15.0751 1210 110.488 1162.41 487.149
1608 0 82.331 13.7494 1132 114.042 1162.81 483.154
1609 0 85.4862 14.9849 1281 111.661 1163.07 481.964
1610 0 89.292 14.7382 1316 112.244 1162.72 480.674
1611 0 91.4447 14.3037 1308 115.357 1162.18 478.035
1612 0 90.1256 13.5256 1219 113.751 1162.11 472.588
1613 0 95.157 13.3464 1270 112.172 1161.61 474.425
1614 0 99.1702 14.3188 1420 109.854 1161.24 472.292
1615 1 57.0905 11.1752 638 106.241 1160.94 494.812
1616 0 56.0587 8.81219 494 109.82 1160.3 494.98
1617 0 59.1489 10.8878 644 104.649 1161.97 491.174
1618 0 63.1394 13.6365 861 103.554 1161.41 492.884
1619 0 66.0993 15.1136 999 102.623 1160.44 492.043
1620 0 68.187 13.5216 922 106.213 1160.35 493.102
1621 0 70.1135 13.1644 923 106.859 1160.83 490.451
1622 0 70.0931 12.5833 882 110.556 1160.65 488.375
1623 0 75.1913 13.991 1052 106.76 1160.8 487.688
1624 0 78.1395 15.2548 1192 104.375 1160.31 487.021
1625 0 80.1386 13.2645 1063 109.238 1159.67 486.593
1626 0 84.1325 15.3805 1294 105.726 1159.71 484.846
1627 0 84.0896 13.0337 1096 111.805 1160.34 484.037
1628 0 87.1396 13.9661 1217 110.298 1160.26 481.959
1629 0 91.1286 14.7045 1340 108.482 1160.1 478.91
1630 0 94.1381 15.4666 1456 107.24 1160.16 478.78
1631 0 96.1041 14.8173 1424 109.489 1159.97 477.062
1632 0 101.242 15.9519 1615 106.73 1160.34 475.733
1633 0 102.308 14.8669 1521 109.585 1160.02 475.095
1634 0 105.267 14.6295 1540 110.535 1160.02 472.824
1635 0 107.224 14.8754 1595 110.309 1160.69 472.774
1636 0 110.282 14.9435 1648 110.765 1161.19 468.887
1637 0 114.177 13.5929 1552 113.875 1160.86 467.166
1638 0 117.212 14.3586 1683 112.518 1161.37 465.818
1639 0 120.195 15.3167 1841 111.077 1160.69 462.527
1640 0 125.164 14.3811 1800 111.926 1160.73 464.013
1641 0 127.198 13.9625 1776 114.975 1160.95 459.787
1642 0 133.253 14.8889 1984 112.404 1161.32 459.569
1643 0 139.167 15.5568 2165 111.417 1161.01 455.709
1644 0 142.18 13.8135 1964 115.205 1161.12 453.7
1645 0 146.287 13.7264 2008 114.285 1160.59 452.15
1646 0 150.143 14.5195 2180 117.154 1160.08 447.851
1647 0 156.46 14.5724 2280 97.7219 1161.55 439.542
1648 0 159.448 14.1363 2254 110.691 1161.68 435.972
1649 0 165.837 15.1052 2505 110.17 1161.88 435.324
1650 0 166.367 14.0352 2335 114.264 1161.79 426.672
1651 0 170.663 12.7561 2177 118.141 1161.91 428.281
1652 0 176.476 13.9566 2463 118.176 1161.7 423.524
1653 0 184.664 13.8251 2553 118.617 1161.46 423.694
1654 0 186.521 13.9662 2605 121.996 1161.97 416.549
1655 0 195.607 15.1068 2955 121.934 1161.55 414.073
1656 0 201.494 17.0129 3428 113.851 1162.44 414.431
1657 0 209.588 14.6526 3071 120.692 1161.57 409.061
1658 0 217.624 15.5268 3379 120.351 1161.98 400.901
1659 0 222.531 14.4564 3217 124.869 1161.79 399.43
1660 0 230.501 15.0846 3477 126.374 1161.86 396.694
1661 0 238.435 14.4652 3449 129.516 1162.12 388.1
1662 0 244.455 14.3953 3519 130.877 1161.77 384.841
1663 1 256.282 13.9729 3581 131.967 1160.73 383.923
1664 0 266.384 14.8057 3944 129.94 1160.56 376.218
1665 1 276.683 16.0798 4449 129.544 1160.64 367.966
1666 0 287.401 15.6541 4499 130.52 1161.15 364.351
1667 1 88.1701 11.5685 1020 112.122 1161.31 469.512
1668 0 94.0753 13.2022 1242 115.641 1160.95 471.591
1669 0 98.3284 12.4684 1226 117.159 1161.13 474.742
1670 0 103.329 13.0361 1347 122.404 1161.36 471.538
1671 0 106.385 12.5487 1335 124.052 1160.5 467.971
1672 0 112.357 12.4425 1398 122.616 1160.87 467.665
1673 0 116.393 13.5317 1575 119.865 1160.54 465.42
1674 0 120.234 13.7316 1651 120.828 1161.35 462.477
1675 0 125.502 13.6093 1708 120.707 1160.85 458.678
1676 1 67.1881 10.6715 717 120.623 1160.17 489.35
1677 0 71.1096 12.6987 903 116.105 1160.86 488.478
1678 0 71.1113 11.2218 798 111.924 1163.26 488.564
1679 0 74.2231 11.681 867 110.054 1162.74 481.358
1680 0 77.0324 11.2161 864 111.113 1163.66 484.45
1681 0 78.1484 10.4545 817 113.463 1162.81 483.323
1682 0 84.0915 12.1653 1023 107.419 1163.06 484.003
1683 0 86.1317 11.8539 1021 107.074 1162.67 483.255
1684 0 91.2169 12.706 1159 104.398 1162.62 480.809
1685 0 95.1404 12.0033 1142 105.121 1162.77 481.625
1686 0 98.2736 12.2719 1206 104.727 1162.87 479.205
1687 0 99.1902 12.471 1237 105.013 1163.13 474.757
1688 1 55.0405 10.3379 569 105.373 1163.81 497.896
1689 0 59.0654 12.2915 726 101.391 1163.94 496.28
1690 0 59.075 12.1202 716 102.049 1163.64 497.709
1691 0 63.1103 10.9966 694 105.455 1164.29 494.562
1692 0 61.0677 11.823 722 103.044 1163.92 494.385
1693 0 64.1361 11.4912 737 103.421 1163.72 492.999
1694 0 66.2084 12.7778 846 101.778 1163.69 488.715
1695 0 66.2314 12.1393 804 103.275 1163.53 489.633
1696 0 68.2169 10.452 713 106.645 1163.51 489.902
1697 0 69.2425 11.337 785 103.894 1162.9 487.786
1698 0 73.1765 11.9984 878 102.294 1163.3 487.893
1699 0 74.2256 11.0743 822 104.549 1163.53 488.264
1700 0 77.1821 12.1012 934 103.137 1163.67 484.648
1701 0 82.1391 12.4423 1022 100.861 1163.61 483.416
1702 0 84.2666 13.5048 1138 99.254 1163.45 481.622
1703 0 87.2405 12.4484 1086 100.299 1163.66 482.115
1704 0 89.4172 12.7492 1140 100.087 1162.31 480.99
1705 0 91.2267 13.2527 1209 96.4475 1162.58 476.85
1706 0 94.3476 12.6129 1190 97.8445 1162.55 474.427
1707 0 99.2477 13.8341 1373 94.2462 1162.93 476.694
1708 0 102.229 12.4035 1268 97.7926 1162.69 473.468
1709 0 102.314 11.8849 1216 99.4153 1161.73 473.091
1710 0 106.22 11.5421 1226 99.7137 1161.75 472.949
1711 0 113.244 12.5393 1420 97.3451 1161.69 470.864
1712 0 114.287 12.5999 1440 98.1931 1161.79 467.965
1713 1 64.0307 12.6033 807 96.0929 1163.41 491.291
1714 0 64.246 11.3315 728 99.4918 1162.87 488.971
1715 0 68.1167 12.596 858 94.6678 1162.95 491.179
1716 0 68.3719 12.0664 825 98.9927 1159.5 489.072
1717 0 71.4762 12.4797 892 98.2007 1159.83 485.907
1718 0 73.3723 11.98 879 98.3663 1159.66 484.943
1719 0 76.3099 12.9603 989 96.5865 1158.56 485.519
1720 0 78.3843 12.5025 980 97.2694 1159.38 484.968
1721 0 78.4006 13.1249 1029 97.9427 1159.02 483.335
1722 0 82.3085 13.0728 1076 98.3467 1159.81 481.03
1723 0 86.3447 12.6238 1090 97.9688 1159.77 480.802
1724 0 87.2536 12.6872 1107 98.5185 1159.55 480.209
1725 0 92.3981 12.3379 1140 98.7649 1159.71 477.536
1726 0 95.3982 12.4216 1185 98.4785 1159.18 475.687
1727 0 94.3717 11.815 1115 100.176 1159.18 471.819
1728 0 99.3695 13.5253 1344 96.0618 1159.33 474.165
1729 0 102.415 12.2736 1257 98.9141 1159.93 469.701
1730 0 106.406 12.4241 1322 98.6044 1159.76 466.275
1731 0 109.498 13.1235 1437 96.961 1160.73 467.779
1732 1 60.1427 10.9739 660 94.2439 1160.82 495.802
1733 0 61.1338 11.1722 683 94.1376 1163.19 493.713
1734 0 62.0909 11.0805 688 93.7035 1163.49 493.092
1735 0 66.0296 10.5559 697 96.6743 1163.28 490.74
1736 0 69.1209 12.9049 892 91.0572 1163.09 492.083
1737 0 69.1187 12.6304 873 93.0779 1162.83 488.121
1738 0 71.0681 11.7352 834 93.8022 1163.01 489.084
1739 0 75.0422 12.8061 961 90.5411 1162.92 490.126
1740 0 77.1868 12.3467 953 92.9654 1162.91 484.608
1741 0 79.1301 12.8523 1017 93.4041 1162.36 484.635
1742 0 82.1181 12.8717 1057 92.982 1162.92 485.913
1743 0 84.1682 12.7364 1072 93.8731 1162.78 484.232
1744 0 87.2025 12.7519 1112 94.7095 1162.53 482.462
1745 0 92.3256 12.8567 1187 94.2435 1162.36 480.394
1746 0 94.0816 14.6256 1376 91.8634 1161.92 478.601
1747 0 98.2312 13.8347 1359 93.6041 1161.9 477.511
1748 0 99.2358 13.4931 1339 95.699 1161.84 473.275
1749 0 104.239 15.052 1569 92.3397 1161.6 473.908
1750 0 106.179 14.5509 1545 93.9994 1162.49 471.871
1751 0 108.25 15.5196 1680 92.1762 1161.61 473.636
1752 0 112.181 13.7723 1545 96.2615 1161.61 469.18
1753 1 59.2296 10.2989 610 99.623 1160.7 494.72
1754 0 64.4891 11.6764 753 95.5458 1160.72 491.657
1755 0 66.4368 12.8543 854 93.6522 1161.17 491.608
1756 0 67.4507 13.6099 918 93.61 1161.07 487.822
1757 0 69.4276 11.8829 825 97.7648 1160.88 490.19
1758 0 73.3797 13.0417 957 94.9603 1161.37 489.665
1759 0 72.4857 13.0371 945 97.1164 1161.1 487.423
1760 0 76.3748 13.7218 1048 95.313 1160.45 488.67
1761 0 79.4295 12.7031 1009 98.6105 1160.83 484.626
1762 0 80.3157 13.7707 1106 96.6501 1160.63 485.644
1763 0 83.4398 12.5959 1051 98.6575 1161.03 484.891
1764 0 85.2486 13.49 1150 98.0748 1160.7 483.212
1765 0 88.3396 11.9312 1054 101.343 1161.03 480.25
1766 0 92.2937 12.3519 1140 101.301 1160.89 477.744
1767 0 96.373 12.3479 1190 101.131 1161.23 476.814
1768 0 96.2739 12.5579 1209 103.064 1161.3 475.88
1769 0 102.489 13.1623 1349 101.474 1161.12 476.536
1770 1 56.1209 10.6734 599 99.4591 1160.77 498.898
1771 0 54.1795 10.133 549 104.923 1160.18 498.062
1772 0 59.2149 12.767 756 98.1442 1160.85 495.907
1773 0 62.3999 12.9487 808 100.837 1160.62 495.675
1774 0 63.2968 14.1081 893 99.3796 1160.84 494.905
1775 0 63.4867 14.0659 893 101.311 1160.39 493.994
1776 0 65.3372 13.4227 877 102.919 1160.62 493.848
1777 0 65.3972 12.9363 846 104.738 1160.17 493.891
1778 0 68.3516 13.1526 899 104.095 1159.86 493.13
1779 0 69.4646 12.3516 858 106.726 1160.22 491.422
1780 0 74.4274 13.1941 982 104.076 1160.5 490.563
1781 0 76.4024 15.0911 1153 100.598 1160.49 490.264
1782 0 77.3932 14.0581 1088 104.069 1161.8 487.599
1783 0 77.5566 14.1832 1100 105.404 1160.9 487.749
1784 0 82.462 16.0438 1323 100.745 1161.47 486.597
1785 0 83.7814 14.311 1199 105.666 1161.4 484.947
1786 0 85.4886 14.8792 1272 106.22 1161.67 481.387
1787 0 89.3445 13.2073 1180 109.21 1161.66 480.112
1788 0 92.4972 13.795 1276 105.999 1161.1 481.422
1789 0 96.8216 14.8211 1435 103.546 1160.99 480.413
1790 0 99.6531 15.3031 1525 102.437 1161.95 475.609
1791 0 101.522 14.0955 1431 105.335 1161.83 474.96
1792 0 103.186 13.2963 1372 107.8 1161.36 471.627
1793 0 107.765 13.548 1460 106.39 1161.78 470.791
1794 0 110.794 14.0983 1562 103.775 1161.18 469.061
1795 0 114.679 14.6932 1685 103.269 1160.97 467.666
1796 0 114.289 13.2646 1516 102.953 1160.94 459.061
1797 1 60.1887 12.9925 782 98.6893 1161.97 490.202
1798 0 62.3936 12.9661 809 99.1224 1161.49 487.922
1799 0 63.0917 12.9494 817 99.8886 1160.99 488.213
1800 0 65.1192 12.3466 804 99.796 1160.87 490.522
1801 0 67.3298 12.1492 818 102.4 1161.22 487.932
1802 0 71.4017 11.7644 840 103.824 1161.15 485.444
1803 0 71.2812 11.6721 832 104.486 1161.07 485.734
1804 0 74.4815 12.5132 932 103.211 1161.32 483.563
1805 0 78.2176 12.8488 1005 102.534 1160.76 483.117
1806 0 80.4079 12.2998 989 104.156 1161.14 481.185
1807 0 80.149 12.4269 996 105.978 1161.47 479.889
1808 0 86.1551 14.4275 1243 103.195 1161.48 478.911
1809 0 87.3058 13.9166 1215 105.033 1161.19 477.272
1810 0 89.2616 13.9366 1244 105.227 1161.35 474.316
1811 0 94.19 13.4409 1266 105.397 1161.35 475.2
1812 0 93.248 13.759 1283 106.157 1160.08 473.634
1813 0 96.1223 14.5752 1401 104.814 1160.02 474.248
1814 0 98.1843 13.8209 1357 105.882 1160.36 468.861
1815 0 100.232 13.788 1382 105.535 1160.37 469.647
1816 0 104.269 13.3692 1394 107.071 1160.15 466.478
1817 0 108.199 14.9354 1616 102.734 1160.6 468.225
1818 0 111.192 12.9326 1438 108.1 1160.79 467.363
1819 0 113.204 13.4713 1525 106.738 1160.2 461.644
1820 0 117.239 12.0182 1409 108.78 1161.1 457.021
1821 1 69.2768 9.74352 675 97.8578 1161.41 489.184
1822 0 71.1814 12.4049 883 96.3647 1161.47 484.894
1823 0 72.0564 11.3939 821 101.914 1160.51 481.58
1824 0 77.1482 11.3677 877 100.537 1160.48 482.964
1825 0 78.1445 11.5555 903 99.0155 1160.4 479.77
1826 0 82.2483 12.6811 1043 98.8782 1160.33 478.752
1827 0 84.1398 12.1108 1019 99.9539 1160.39 478.054
1828 0 86.2415 11.2127 967 103.142 1160.88 476.521
1829 0 87.186 12.6855 1106 101.505 1160.59 477.16
1830 0 90.1535 12.7006 1145 102.715 1160.52 475.281
1831 0 92.2581 10.7524 992 106.785 1161.44 473.79
1832 0 95.2178 12.7497 1214 103.573 1161.19 473.872
1833 0 98.225 10.8526 1066 108.102 1160.59 471.445
1834 0 102.322 11.2781 1154 108.254 1160.99 471.046
1835 0 106.427 11.8109 1257 108.267 1160.2 468.241
1836 0 112.33 12.8016 1438 102.947 1160.95 469.764
1837 1 61.2089 11.8447 725 101.699 1159.25 494.652
1838 0 63.2198 11.5312 729 104.081 1159.71 494.705
1839 0 64.1796 13.1662 845 101.191 1160.14 491.685
1840 0 67.146 13.6419 916 100.475 1159.92 490.563
1841 0 68.1701 12.3368 841 103.36 1159.78 489.756
1842 0 71.1622 12.2115 869 103.724 1159.68 487.619
1843 0 74.1768 13.2926 986 102.342 1159.71 488.469
1844 0 73.2324 12.3989 908 105.087 1160.12 486.559
1845 0 78.185 13.3146 1041 103.166 1159.46 486.022
1846 0 80.1411 13.4638 1079 103.165 1160.11 483.135
1847 0 81.232 12.2242 993 105.504 1160.1 484.526
1848 0 85.2194 12.9431 1103 104.721 1160.08 481.791
1849 0 86.288 12.5278 1081 105.907 1160.17 481.561
1850 0 91.1536 13.8448 1262 102.675 1159.7 479.234
1851 0 94.1647 13.2003 1243 103.69 1160.78 477.529
1852 0 95.3013 11.8256 1127 107.376 1159.72 480.778
1853 0 97.2905 11.0597 1076 111.322 1160.45 477.162
1854 0 101.091 12.9289 1307 109.601 1160.3 474.001
1855 0 103.197 12.7813 1319 108.516 1160.82 475.311
1856 0 108.22 13.3155 1441 107.398 1160.83 475.797
1857 0 112.272 12.9595 1455 108.918 1160.69 473.847
1858 0 116.167 14.2897 1660 105.408 1159.81 468.789
1859 1 66.086 12.514 827 107.029 1159.98 492.868
1860 0 67.023 12.727 853 107.21 1159.21 489.812
1861 0 68.1999 12.698 866 110.279 1160.03 489.448
1862 0 70.3495 12.2958 865 113.16 1160.91 487.054
1863 0 75.0757 13.8527 1040 107.005 1161.72 488.514
1864 0 77.0909 12.7901 986 109.238 1162.76 486.556
1865 0 80.1139 13.6805 1096 107.668 1162.16 484.914
1866 0 84.1135 15.2413 1282 102.619 1162.53 484.007
1867 0 84.1394 14.5948 1228 104.609 1162.15 482.079
1868 0 87.1069 15.2801 1331 104.97 1161.64 482.686
1869 0 90.1222 14.7799 1332 106.128 1161.78 480.426
1870 0 90.1158 13.5936 1225 109.626 1161.63 480.382
1871 0 94.157 16.0477 1511 104.543 1160.82 476.612
1872 0 98.2738 14.5614 1431 107.244 1161.12 477.46
1873 0 99.2456 15.1543 1504 106.628 1161.31 476.156
1874 0 102.216 14.4889 1481 108.573 1160.38 473.935
1875 0 104.156 14.5359 1514 109.114 1160.78 473.248
1876 0 109.199 15.4671 1689 106.858 1160.68 473.113
1877 0 110.319 14.6122 1612 110.203 1160.48 469.12
1878 0 115.215 12.7153 1465 114.69 1161.4 470.831
1879 1 64.2045 13.3947 860 111.515 1162.58 494.801
1880 0 64.0554 15.1431 970 109.787 1161.73 492.214
1881 0 66.1745 13.8271 915 113.866 1162.25 490.773
1882 0 69.0995 14.3416 991 112.014 1162.51 490.11
1883 0 70.239 14.1517 994 112.284 1161.85 488.323
1884 0 73.1296 14.2897 1045 112.158 1161.29 487.726
1885 0 74.2707 13.2892 987 115.484 1161.21 486.617
1886 0 77.25 14.2265 1099 113.727 1159.98 481.389
1887 0 83.1951 16.2149 1349 106.884 1160 481.128
1888 0 84.2381 14.2691 1202 111.191 1160.1 479.972
1889 0 87.3174 15.2547 1332 109.893 1160.09 477.442
1890 0 89.2993 14.2106 1269 110.268 1160.45 477.626
1891 0 91.2141 13.9781 1275 111.684 1160.29 476.133
1892 0 91.2216 13.966 1274 154.783 1160.29 476.002
1893 0 97.2049 14.9067 1449 112.13 1161 471.934
1894 0 100.203 14.5605 1459 113.155 1161.2 469.823
1895 0 104.316 15.7886 1647 110.503 1160.39 468.346
1896 0 107.46 15.7827 1696 110.433 1160.68 468.221
1897 0 109.454 14.3713 1573 114.748 1160.53 465.872
1898 0 113.195 14.3027 1619 114.153 1160.77 463.416
1899 0 116.389 14.022 1632 114.739 1160.28 463.229
1900 0 121.185 13.8466 1678 115.491 1160.68 461.063
1901 0 122.314 14.0294 1716 116.034 1160.88 456.318
1902 1 70.0775 10.8737 762 110.24 1160.51 484.768
1903 0 75.1322 13.0437 980 111.707 1159.15 485.394
1904 0 75.092 13.7431 1032 114.428 1159.86 485.104
1905 0 79.1754 14.6005 1156 111.117 1160.06 483.165
1906 0 81.083 14.6023 1184 111.064 1159.78 480.488
1907 0 83.1338 14.3383 1192 111.188 1159.98 479.699
1908 0 85.2739 13.486 1150 111.347 1160.74 478.995
1909 0 87.1596 13.4925 1176 110.718 1159.85 479.388
1910 0 91.1452 13.9448 1271 109.39 1159.68 476.448
1911 0 92.1798 13.3435 1230 112.307 1159.83 475.55
1912 0 95.092 13.9234 1324 113.976 1160.52 473.897
1913 0 97.1938 14.1264 1373 113.899 1161.58 474.324
1914 0 103.201 15.62 1612 109.808 1161.26 473.221
1915 0 105.091 14.8252 1558 113.375 1161.3 469.825
1916 0 108.082 14.7018 1589 114.115 1161.19 468.101
1917 0 113.14 13.1961 1493 118.148 1161.48 464.581
1918 0 116.195 13.6064 1581 117.562 1162.36 466.008
1919 0 120.149 13.4999 1622 118.853 1162.27 462.985
1920 0 125.182 14.8343 1857 116.338 1161.96 460.499
1921 0 129.271 14.4347 1866 117.974 1161.79 457.613
1922 0 132.156 14.1273 1867 121.458 1162.8 454.79
1923 0 136.223 14.3221 1951 122.365 1162.98 452.269
1924 0 141.19 14.5902 2060 122.185 1163.24 449.716
1925 0 147.237 14.9487 2201 121.682 1162.18 446.569
1926 0 151.209 15.5811 2356 120.899 1162.53 445.019
1927 0 155.267 14.8776 2310 123.741 1162.44 441.778
1928 0 161.182 14.6915 2368 124.541 1162.19 439.733
1929 0 167.204 15.191 2540 125.264 1162.74 434.463
1930 0 172.236 15.1827 2615 125.322 1162.6 435.042
1931 0 176.258 15.6872 2765 127.453 1162.37 428.637
1932 0 182.165 14.41 2625 130.013 1161.95 429.64
1933 0 187.211 14.2993 2677 135.757 1161.91 425.705
1934 0 192.299 14.4983 2788 136.796 1161.77 423.693
1935 0 200.349 15.5628 3118 133.776 1161.27 420.84
1936 0 208.333 16.1616 3367 133.94 1160.65 415.649
1937 0 213.519 14.2235 3037 140.059 1160.61 412.806
1938 0 220.738 14.1571 3125 142.027 1161.64 404.999
1939 0 227.761 13.7776 3138 144.052 1161.83 403.275
1940 1 177.378 12.8201 2274 135.444 1161.4 431.365
1941 0 181.676 12.2085 2218 142.113 1161.51 422.241
1942 0 188.438 13.4633 2537 141.002 1161.5 421.845
1943 0 196.55 14.2152 2794 139.872 1161.87 415.546
1944 0 203.456 13.3395 2714 145.015 1161.39 411.622
1945 0 209.47 13.7776 2886 145.835 1161.55 409.505
1946 0 216.474 13.7014 2966 146.011 1161.7 404.762
1947 0 223.441 13.4264 3000 147.468 1161.7 401.953
1948 0 234.494 14.1667 3322 144.717 1161.78 399.961
1949 1 62.178 8.31484 517 117.758 1162.55 489.315
1950 0 69.3098 10.4891 727 112.906 1161.76 488.318
1951 0 69.2035 10.8232 749 120.35 1161.8 485.041
1952 0 71.2101 11.5012 819 117.862 1158.85 487.861
1953 0 69.2064 9.40665 651 125.731 1159.45 484.962
1954 0 75.223 11.0737 833 120.043 1159.81 485.884
1955 0 79.2551 11.0908 879 118.439 1159.7 486.379
1956 0 76.1626 6.63055 505 119.16 1162.39 489.253
1957 0 78.0882 9.19474 718 115.79 1162.34 485.558
1958 0 81.2434 10.2655 834 111.454 1161.4 484.854
1959 0 82.1669 9.359 769 114.005 1162.22 481.456
1960 0 85.14 9.12615 777 113.918 1162.03 483.248
1961 0 88.1383 8.41858 742 112.691 1160.57 479.644
1962 0 93.2337 10.6507 993 109.354 1160.11 478.804
1963 0 96.2687 11.1459 1073 106.909 1160.32 479.527
1964 1 56.0811 10.4313 585 104.403 1162.32 494.25
1965 0 56.1204 10.3706 582 104.802 1162.51 494.062
1966 0 58.0568 8.95674 520 106.387 1162.44 493.106
1967 0 62.1086 10.5299 654 103.636 1162.91 480.11
1968 0 64.1478 10.9279 701 107.375 1163.32 486.034
1969 0 64.1353 11.2419 721 114.682 1162.58 488.037
1970 0 68.2222 11.3893 777 112.394 1161.55 488.1
1971 0 71.2083 11.8526 844 110.63 1161.75 487.857
1972 0 72.1611 11.5713 835 109.589 1162.4 488.211
1973 0 74.2004 10.1212 751 112.413 1162.08 485.197
1974 0 76.2155 11.9792 913 107.589 1162.65 486.984
1975 0 77.2195 11.1112 858 110.145 1163.14 484.788
1976 0 81.2135 12.3994 1007 106.638 1162.49 484.906
1977 0 83.191 12.3812 1030 105.896 1162.42 483.084
1978 0 84.1772 12.735 1072 105.769 1162.66 483.118
1979 0 87.2694 13.7391 1199 104.723 1163.14 480.615
1980 0 90.6169 13.0991 1187 106.667 1162.31 479.793
1981 0 91.5369 12.8801 1179 109.218 1162.42 474.595
1982 0 91.4148 11.7268 1072 112.272 1161.19 476.611
1983 0 94.4977 11.9791 1132 112.409 1161.16 477.314
1984 0 98.5555 12.4498 1227 108.529 1161.23 478.778
1985 0 101.548 13.048 1325 109.125 1160.95 474.84
1986 0 103.419 12.928 1337 109.785 1161.2 470.826
1987 0 108.535 13.498 1465 108.033 1161.07 469.973
1988 0 110.56 13.7844 1524 107.331 1161.03 470.614
1989 1 199.972 12.3217 2464 110.028 1161.07 429.256
1990 1 116.53 13.4558 1568 106.075 1161.39 467.231
1991 0 117.454 12.6688 1488 109.825 1161.15 463.07
1992 0 122.509 13.599 1666 106.022 1161.04 466.208
1993 0 125.496 13.4028 1682 107.454 1160.78 462.98
1994 0 126.267 13.0279 1645 109.81 1159.77 457.582
1995 0 132.356 13.3503 1767 108.627 1160.37 457.523
1996 0 136.515 14.5918 1992 108.253 1160.84 456.681
1997 0 138.419 14.4994 2007 109.471 1160.95 453.738
1998 0 142.653 13.4102 1913 111.796 1161.02 450.229
1999 0 149.71 14.0739 2107 109.699 1160.73 449.057
2000 0 154.372 14.7955 2284 108.686 1160.85 447.229
2001 0 155.545 13.7773 2143 112.56 1160.94 441.378
2002 0 161.683 14.9675 2420 110.582 1160.52 440.01
2003 0 163.527 15.2085 2487 110.502 1161.02 443.092
2004 0 169.626 14.0957 2391 106.855 1160.76 441.491
2005 0 171.62 13.8387 2375 108.935 1160.8 434.453
2006 0 177.416 14.0179 2487 108.682 1161.49 434.094
2007 0 178.569 14.213 2538 111.848 1160.87 436.425
2008 0 184.315 14.497 2672 110.66 1160.12 432.753
2009 0 188.589 14.6933 2771 110.678 1160.12 426.497
2010 0 191.393 13.7309 2628 114.004 1160.23 424.621
2011 0 197.445 14.5205 2867 112.746 1160.52 422.015
2012 0 199.599 14.9099 2976 112.981 1160.5 420.439
2013 0 206.57 15.4911 3200 112.879 1160.78 416.856
2014 0 210.611 16.3239 3438 112.74 1160.34 411.781
2015 1 267.516 24.948 6674 83.6107 1159.75 378.17
2016 0 271.858 18.7855 5107 95.4715 1159.82 383.631
2017 0 266.289 23.6623 6301 87.8626 1159.67 372.018
2018 0 257.073 24.0477 6182 91.7549 1159.54 379.818
2019 0 263.188 24.3628 6412 92.5636 1159.64 372.758
2020 0 259.776 20.9758 5449 104.097 1159.92 371.252
2021 0 260.549 21.5507 5615 103.945 1160.4 374.911
2022 0 262.598 20.0306 5260 109.526 1160.17 370.864
2023 0 262.633 15.4626 4061 123.847 1160.69 377.072
2024 0 269.631 16.3445 4407 121.821 1159.95 383.567
2025 0 271.654 16.4768 4476 122.653 1160.37 384.068
2026 0 274.738 15.2072 4178 126.114 1160.55 375.981
2027 0 282.625 18.1017 5116 117.407 1160.34 379.702
2028 0 287.737 15.8374 4557 124.456 1160.87 373.479
2029 0 295.68 16.7208 4944 122.325 1160.29 372.967
2030 0 299.561 16.1169 4828 125.469 1160.43 369.816
2031 0 306.478 16.4873 5053 126.67 1160.76 367.061
2032 0 311.525 16.5926 5169 127.036 1160.63 362.478
2033 0 318.715 16.1304 5141 128.813 1160.47 360.662
2034 0 324.443 17.0507 5532 126.192 1160.33 355.93
2035 0 330.447 18.1754 6006 124.274 1159.68 349.797
2036 0 334.495 17.5967 5886 127.229 1159.86 355.173
2037 0 341.582 17.5653 6000 128.542 1160.13 343.237
2038 0 348.565 16.8376 5869 131.709 1160.03 341.81
2039 0 355.491 17.0975 6078 132.517 1160.5 338.657
2040 0 362.482 16.6932 6051 136.097 1160.15 336.542
2041 0 369.676 16.6173 6143 137.53 1160.53 333.601
2042 0 373.476 16.3277 6098 139.511 1160.11 331.69
2043 0 382.661 17.0098 6509 139.345 1160.86 324.654
2044 0 389.753 17.6009 6860 138.492 1160.52 324.127
2045 0 396.803 17.4822 6937 139.719 1160.79 322.439
2046 0 398.629 15.4354 6153 148.419 1161.24 314.421
2047 0 410.137 17.6283 7230 146.172 1160.95 310.138
2048 0 415.443 16.5462 6874 150.482 1161.52 306.813
2049 0 418.536 17.0523 7137 150.477 1161.49 305.444
2050 0 422.447 17.2803 7300 151.691 1161.52 306.015
2051 0 426.584 16.4071 6999 156.686 1161.85 299.429
2052 0 427.853 16.3514 6996 158.411 1161.58 293.98
2053 0 426.634 15.9176 6791 162.234 1161.61 291.045
2054 0 431.753 16.3241 7048 162.436 1161.53 290.381
2055 0 425.425 16.1956 6890 164.646 1161.49 285.797
2056 0 427.392 15.8636 6780 165.966 1161.51 290.138
2057 0 436.511 17.2115 7513 161.923 1161.69 287.237
2058 0 436.742 16.7605 7320 166.391 1161.59 288.515
2059 0 429.279 15.0858 6476 172.995 1161.49 294.471
2060 0 431.434 16.4382 7092 168.603 1162.12 292.403
2061 0 431.434 16.4382 7092 160.76 1162.12 292.19
2062 0 430.68 17.5281 7549 167.247 1161.95 293.004
2063 0 360.874 16.3492 5900 171.879 1161.75 272.698
