time division length width area intensity CMx CMy
0 0 39.0174 12.4816 487 131.758 1245.22 497.353
1 0 43.2301 13.671 591 134.516 1245.21 495.499
2 0 44.1059 12.1299 535 141.14 1244.57 495.222
3 0 44.159 12.5456 554 142.43 1244.8 494.347
4 0 46.1646 12.8453 593 140.782 1244.67 494.342
5 0 47.1838 13.458 635 136.493 1245.5 494.373
6 0 48.241 12.3132 594 140.924 1245.36 493.872
7 0 48.1112 12.0138 578 142.374 1244.92 493.595
8 0 50.2063 13.9226 699 134.853 1245.73 493.011
9 0 52.1205 14.1595 738 134.011 1245 493.252
10 0 51.1543 13.0194 666 139.327 1244.69 493.093
11 0 51.1449 13.5106 691 139.528 1244.73 492.287
12 0 54.1333 12.6539 685 141.728 1244.52 491.845
13 0 55.1141 13.6444 752 138.584 1243.88 490.507
14 0 56.1304 14.0031 786 136.163 1244.59 492.872
15 0 56.0553 13.451 754 140.481 1244.14 492.402
16 0 59.1586 13.6751 809 136.959 1243.9 493.057
17 0 59.1825 13.1289 777 140.188 1243.9 491.054
18 0 59.1049 13.5522 801 139.221 1244.12 489.913
19 0 62.1341 14.4848 900 134.668 1243.59 490.754
20 0 63.0954 14.5653 919 135.28 1243.82 488.329
21 0 66.1168 13.2342 875 137.366 1243.89 489.839
22 0 68.1275 13.6509 930 135.715 1243.19 488.37
23 0 71.174 15.2162 1083 130.392 1243.16 487.124
24 0 72.1118 15.5037 1118 131.649 1242.75 486.673
25 0 74.1973 13.6663 1014 133.559 1242.52 486.089
26 0 75.1122 13.9391 1047 133.826 1243.14 485.037
27 0 80.1137 14.6292 1172 129.779 1243.1 483.952
28 1 40.151 12.8764 517 131.584 1243.84 501.971
29 0 42.0147 12.0196 505 134.075 1244.44 502.109
30 0 45.0562 12.0516 543 133.989 1244.16 501.35
31 0 44.0737 12.706 560 132.586 1243.36 501.136
32 0 46.1075 12.948 597 133.95 1242.71 500.332
33 0 47.0788 13.7854 649 122.462 1244.02 501.063
34 0 46.0607 12.3098 567 127.434 1243.81 501.411
35 0 49.1401 13.1868 648 123.076 1244.16 500.077
36 0 48.0454 12.8004 615 125.468 1243.78 500.611
37 0 50.0733 13.7199 687 122.151 1243.39 498.78
38 0 51.0229 14.0329 716 121.842 1242.85 498
39 0 53.0559 13.024 691 125.821 1242.54 497.165
40 0 54.1369 12.6531 685 124.445 1243.11 499.152
41 0 55.0746 13.9266 767 122.119 1242.74 496.111
42 0 59.012 14.5903 861 119.338 1242.38 495.258
43 0 60.1508 13.1503 791 126.941 1242.07 494.532
44 0 61.0772 14.9483 913 122.915 1242.15 493.746
45 0 63.0278 12.9784 818 127.707 1242.35 493.746
46 0 66.0277 14.3576 948 124.268 1241.95 492.093
47 0 69.1172 13.3107 920 127.217 1242.62 491.625
48 0 71.1068 14.7384 1048 123.027 1242.45 490.477
49 0 74.3047 13.983 1039 124.683 1242.03 489.46
50 0 76.2488 14.2166 1084 126.219 1241.93 488.933
51 0 77.15 14.569 1124 126.569 1241.37 487.036
52 0 78.1332 14.0657 1099 127.037 1241.11 485.64
53 0 83.1698 14.7169 1224 123.269 1241.48 484.962
54 0 85.1646 14.5835 1242 120.958 1242.02 482.441
55 0 90.0877 14.2084 1280 120.43 1241.75 483.109
56 0 93.0852 15.3408 1428 119.887 1241.37 480.574
57 1 48.0791 12.1882 586 124.848 1241.78 503.891
58 0 49.1107 13.1132 644 120.984 1242 502.387
59 0 51.078 13.6066 695 120.435 1242.34 500.591
60 0 51.0537 12.9276 660 124.005 1242.3 500.029
61 0 54.0993 13.9004 752 119.701 1241.7 501.505
62 0 56.1126 14.257 800 118.822 1241.43 499.948
63 0 57.0925 13.4168 766 120.089 1241.28 499.675
64 0 60.1007 13.7436 826 118.703 1241.5 498.278
65 0 62.1238 14.9701 930 116.162 1241.41 496.374
66 0 64.2744 13.1623 846 120.959 1240.97 494.186
67 0 64.2744 13.1779 847 161.153 1240.96 494.214
68 0 68.1161 14.0789 959 117.713 1240.68 492.974
69 0 72.1117 13.7148 989 119.529 1240.86 491.196
70 0 73.1485 15.1063 1105 118.447 1240.32 490.473
71 0 77.246 14.1625 1094 121.292 1240.55 489.096
72 0 81.1715 14.0074 1137 119.307 1240.88 486.619
73 0 83.1727 13.9228 1158 119.875 1240.78 485.358
74 0 86.1147 15.1658 1306 116.534 1241.31 485.77
75 0 87.174 13.9032 1212 121.092 1240.66 483.849
76 0 90.2141 13.2795 1198 121.153 1240.82 483.001
77 0 96.1519 14.4043 1385 118.49 1240.96 479.898
78 1 49.0355 13.1741 646 116.927 1241.47 501.667
79 0 51.0718 13.7649 703 115.398 1241.16 501.771
80 0 53.029 13.4078 711 115.895 1242.09 501.842
81 0 55.0708 13.4554 741 115.671 1241.9 499.641
82 0 56.0346 15.2763 856 110.001 1241.39 498.674
83 0 57.0936 14.2398 813 112.301 1241.63 499.455
84 0 59.0549 14.2748 843 113.367 1241.44 498.878
85 0 63.0565 14.7487 930 110.906 1242 497.557
86 0 63.0213 13.9159 877 114.506 1240.75 495.603
87 0 65.1103 14.3602 935 113.438 1240.86 494.301
88 0 66.0585 14.1693 936 117.335 1240.58 492.449
89 0 68.15 14.1746 966 115.374 1239.96 491.29
90 0 72.0826 14.5805 1051 114.154 1239.94 492.245
91 0 74.1098 13.8848 1029 116.849 1240.04 492.701
92 0 76.2159 14.249 1086 116.054 1239.67 490.391
93 0 80.1797 14.455 1159 116.347 1239.78 489.534
94 0 82.2037 14.5857 1199 116.991 1239.53 488.769
95 0 84.1773 14.6239 1231 117.699 1239.77 487.023
96 0 88.1389 14.7494 1300 117.32 1239.47 484.927
97 0 90.1466 14.665 1322 118.182 1239.48 483.311
98 0 91.2444 13.6666 1247 122.399 1238.9 481.205
99 0 94.2756 13.7575 1297 122.163 1239.22 480.386
100 0 98.2245 14.2022 1395 121.393 1239.06 478.454
101 0 104.197 14.6357 1525 117.542 1238.62 478.906
102 1 54.1472 11.875 643 118.865 1239.43 500.594
103 0 55.0742 10.9489 603 115.498 1239.13 495.207
104 0 56.0423 11.9731 671 108.621 1239.59 495.7
105 0 60.1063 13.0436 784 114.045 1240.99 497.295
106 0 61.1738 13.8131 845 111.054 1240.84 496.26
107 0 64.093 14.557 933 108.062 1240.28 496.403
108 0 65.0691 14.2464 927 109.755 1240.49 494.512
109 0 68.136 13.341 909 111.062 1240.22 495.288
110 0 70.0662 13.5015 946 111.105 1239.98 493.384
111 0 73.2152 13.7403 1006 110.818 1240.22 491.916
112 0 74.0906 13.227 980 112.849 1239.92 491.672
113 0 77.1673 13.0496 1007 115.103 1240.09 487.761
114 0 81.1467 13.7036 1112 113.862 1239.73 488.348
115 0 83.2335 14.7657 1229 111.606 1239.77 486.153
116 0 86.2132 13.9538 1203 113.668 1239.13 484.173
117 0 87.2336 13.4466 1173 114.07 1239.29 484.197
118 0 91.1222 13.5423 1234 112.245 1239.69 481.954
119 0 94.212 13.4166 1264 109.696 1239.44 480.775
120 0 98.2592 13.9631 1372 110.031 1239.23 476.823
121 1 55.1135 12.7192 701 109.949 1240.64 500.957
122 0 55.1241 12.3358 680 112.684 1239.64 499.709
123 0 55.098 12.1965 672 105.863 1239.59 495.496
124 0 57.0877 12.2443 699 106.25 1240.14 494.391
125 0 59.0567 11.6498 688 107.422 1240.3 492.75
126 0 60.1065 11.9122 716 107.21 1239.35 492.74
127 0 64.066 11.9408 765 107.06 1239.62 491.672
128 0 63.111 13.5476 855 112.171 1238.46 494.192
129 0 68.1608 14.187 967 109.232 1238.83 493.66
130 0 69.2824 12.5284 868 113.021 1238.84 494.607
131 0 72.3349 12.9398 936 112.92 1238.47 491.376
132 0 74.2869 13.9325 1035 111.665 1238.63 489.244
133 0 77.2738 13.6527 1055 112.392 1238.69 487.799
134 0 81.1878 14.3125 1162 111.206 1238.63 485.139
135 0 82.1959 14.5019 1192 111.2 1239.06 484.123
136 0 87.3698 13.7462 1201 112.282 1238.93 485.126
137 0 89.5514 14.3493 1285 113.729 1239.5 480.157
138 0 92.5545 14.7049 1361 112.392 1239.75 479.378
139 1 45.3685 10.4698 475 106.164 1238.87 499.042
140 0 47.3335 11.3239 536 106.39 1238.81 498.899
141 0 50.0809 11.4615 574 110.96 1238.3 502.625
142 0 49.1844 10.7554 529 115.781 1238.49 500.401
143 0 51.1551 12.1005 619 106.26 1239.9 500.414
144 0 54.0821 11.2422 608 106.735 1240.59 501.38
145 0 54.1321 11.8229 640 109.667 1240.86 499.767
146 0 56.0779 12.5896 706 108.275 1241.26 498.993
147 0 60.1052 12.7942 769 108.049 1240.5 496.977
148 0 62.1102 13.2184 821 107.999 1240.57 495.836
149 0 64.0726 12.6575 811 109.216 1240.86 495.647
150 0 65.1407 11.882 774 111.807 1240.76 494.545
151 0 69.0823 14.4031 995 106.246 1241.01 492.194
152 0 73.22 13.835 1013 107.102 1240.68 491.7
153 0 75.0957 14.5281 1091 106.775 1241.03 490.08
154 0 76.132 12.3338 939 112.462 1241.18 490.39
155 0 81.1723 13.4652 1093 110.694 1240.71 485.698
156 1 42.0322 10.7299 451 115.171 1241.55 506.355
157 0 43.0254 11.5978 499 106.878 1240.39 505.256
158 0 42.0376 11.5849 487 110.32 1238.32 505.893
159 0 42.0782 11.5975 488 110.33 1238.52 506.871
160 0 43.1805 11.3477 490 111.486 1238.91 504.243
161 0 47.0732 12.215 575 107.012 1238.56 504.697
162 0 47.0887 12.3809 583 107.636 1239.02 504.758
163 0 49.063 12.433 610 108.298 1239.07 503.015
164 0 49.0375 12.4802 612 109.708 1238.79 501.01
165 0 55.049 13.2064 727 104.536 1238.87 500.835
166 0 53.2202 11.4618 610 110.282 1238.63 501.793
167 0 56.111 11.1743 627 110.193 1238.53 500.608
168 0 57.1312 14.1779 810 104.794 1238.71 498.269
169 0 57.084 12.7882 730 109.795 1238.38 497.974
170 0 60.1378 13.3194 801 107.836 1238.11 495.732
171 0 62.0715 12.6145 783 109.464 1238.24 494.562
172 0 64.0593 12.707 814 108.946 1238.3 495.312
173 0 67.1158 14.3334 962 105.166 1238.55 494.193
174 0 68.1462 13.1922 899 108.486 1238.68 493.673
175 0 72.1318 13.309 960 107.644 1239.72 491.705
176 0 74.1417 13.9193 1032 106.812 1239.9 489.839
177 0 75.1319 13.1103 985 110.317 1239.76 487.736
178 1 36.0057 9.97064 359 114.482 1240.71 508.833
179 0 38.0877 11.0009 419 118.969 1239.96 505.566
180 0 43.0887 11.9753 516 113.76 1238.69 506.548
181 0 40.0768 11.8273 474 118.667 1239.72 506.053
182 0 43.0895 12.1375 523 118.39 1240.2 503.153
183 0 45.0592 13.4268 605 114.807 1239.69 504.835
184 0 45.0158 13.5508 610 116.085 1239.63 503.689
185 0 47.0374 13.6912 644 115.137 1240.06 503.096
186 0 48.0644 13.6692 657 115.685 1240.02 503.114
187 0 48.0435 12.9882 624 119.314 1240.22 502.705
188 0 52.08 13.7289 715 116.032 1240.17 502.113
189 0 52.0722 13.5581 706 117.745 1239.7 500.908
190 0 52.0794 13.8058 719 118.866 1239.17 498.914
191 0 52.0727 12.9242 673 120.296 1239.71 500.614
192 0 56.0839 13.6581 766 117.157 1239.78 497.903
193 0 58.033 13.9231 808 116.58 1240.29 496.842
194 0 58.0437 12.8179 744 119.039 1240.47 497.948
195 0 59.0299 12.9934 767 119.511 1240.48 495.801
196 0 64.06 12.6132 808 117.744 1240.65 495.478
197 0 64.067 12.9084 827 118.456 1239.97 493.375
198 0 66.0866 13.1948 872 116.826 1240.82 492.641
199 0 68.1289 13.1809 898 115.334 1240.46 493.101
200 0 68.076 13.0002 885 116.432 1240.27 491.58
201 0 70.0358 13.2789 930 116.461 1239.77 489.862
202 0 75.0798 14.105 1059 113.039 1239.81 488.576
203 0 75.0783 12.6535 950 117.237 1240.07 486.52
204 0 77.053 12.9132 995 114.752 1240.02 488.451
205 0 81.0562 13.0157 1055 113.398 1239.74 485.63
206 0 84.181 12.2712 1033 114.357 1239.57 486.773
207 0 84.181 12.1405 1022 150.979 1239.6 486.807
208 0 87.1332 12.6358 1101 112.926 1239.36 482.592
209 0 90.0995 11.3874 1026 114.337 1239.25 480.623
210 0 94.2407 12.8501 1211 111.143 1238.63 479.007
211 0 94.1372 11.4939 1082 113.227 1239.05 479.274
212 0 100.174 12.618 1264 110.278 1239.19 477.608
213 0 102.275 12.525 1281 111.842 1238.83 474.856
214 0 105.359 12.3103 1297 113.313 1239.39 473.574
215 0 110.298 13.3547 1473 111.755 1238.81 470.466
216 1 62.1192 13.136 816 109.098 1239.23 494.179
217 0 64.1403 13.4549 863 108.862 1238.77 493.612
218 0 65.1659 13.0743 852 110.066 1238.74 492.377
219 0 67.4123 12.0305 811 113.162 1238.46 490.171
220 0 70.2494 12.1567 854 105.548 1238.53 486.879
221 0 72.2471 12.7894 924 105.989 1238.75 483.894
222 0 74.3267 12.5123 930 109.816 1238.77 482.378
223 0 76.3571 13.3321 1018 110.555 1238.8 480.069
224 0 80.2224 12.2534 983 112.966 1238.45 478.465
225 0 83.2035 13.1485 1094 110.828 1238.86 478.76
226 0 86.1596 12.8947 1111 113.232 1239.17 475.861
227 0 88.2365 13.3052 1174 112.662 1238.53 475.417
228 1 45.0379 10.0804 454 109.137 1240 499.35
229 0 51.0444 10.677 545 104.233 1239.78 499.683
230 0 49.1296 10.8896 535 102.153 1238.4 498.892
231 0 50.1333 10.3125 517 102.456 1238.73 498.48
232 0 52.1375 11.0861 578 100.953 1238.46 499.626
233 0 54.1011 10.4249 564 102.605 1238.73 497.363
234 0 54.1875 11.1834 606 103.33 1238.92 493.208
235 0 60.1913 13.3906 806 108.576 1238.21 498.012
236 0 60.1416 11.1736 672 114.674 1237.74 496.741
237 0 63.0816 12.7454 804 109.445 1238.11 495.452
238 0 66.114 13.1591 870 107.015 1238.11 496.008
239 0 68.069 13.5745 924 107.99 1236.89 491.076
240 0 71.0552 14.1299 1004 105.662 1237.25 493.27
241 0 72.0424 11.8819 856 112.891 1237.09 489.431
242 0 75.061 13.6822 1027 108.811 1236.98 487.475
243 0 79.0446 13.233 1046 107.885 1236.97 486.907
244 0 81.119 11.5509 937 107.896 1237.3 489.636
245 0 85.1533 13.3054 1133 104.923 1237.1 486.339
246 0 87.2222 13.4713 1175 104.654 1237.23 482.647
247 1 48.0793 11.5434 555 107.623 1237.75 501.162
248 0 50.2047 13.1661 661 101.74 1237.7 503.33
249 0 51.1217 12.5974 644 100.582 1238.22 500.373
250 0 55.0712 14.0001 771 98.7095 1237.54 499.947
251 0 53.067 11.2122 595 106.965 1237.81 500.834
252 0 55.1582 11.7299 647 105.575 1238.15 498.881
253 0 57.0393 12.1145 691 105.203 1236.98 497.517
254 0 58.1141 12.7164 739 105.203 1236.91 496.595
255 0 58.1089 11.5301 670 108.734 1237.49 496.658
256 0 62.1122 13.3468 829 103.967 1237.43 495.409
257 0 63.044 12.0551 760 107.282 1237.41 494.595
258 0 67.1141 11.6816 784 107.198 1237.69 495.236
259 0 70.1868 12.3955 870 106.215 1237.37 492.402
260 0 70.2918 12.3627 869 107.725 1237.65 491.191
261 0 74.129 11.9386 885 108.481 1237.72 490.342
262 0 77.2754 12.9666 1002 106.542 1237.97 487.15
263 0 79.2197 12.4211 984 107.351 1237.45 489.61
264 0 82.1101 13.0922 1075 107.816 1237.7 485.499
265 0 84.2507 12.9495 1091 109.128 1237.64 483.34
266 0 89.3435 12.4799 1115 110.352 1237.43 483.059
267 1 46.1375 11.4007 526 112.627 1237.78 502.876
268 0 46.1261 11.3385 523 113.061 1237.26 503.507
269 0 49.0794 12.2658 602 109.618 1237.6 502.831
270 0 49.0898 11.9169 585 110.617 1237.22 502.749
271 0 50.0475 12.7479 638 109.022 1237.15 500.461
272 0 53.0398 12.8017 679 108.119 1236.65 499.617
273 0 54.0596 12.9857 702 107.405 1237.45 498.57
274 0 55.1087 12.2122 673 110.062 1237.34 498.721
275 0 58.0392 12.7328 739 108.363 1237.96 498.009
276 0 59.1287 12.329 729 108.812 1237.86 497.239
277 0 62.1703 12.514 778 107.938 1238.52 496.14
278 0 63.0611 12.8447 810 106.926 1238.54 495.294
279 0 65.2528 13.2408 864 105.384 1238.03 496.469
280 0 66.1197 13.2033 873 107.124 1237.38 493.286
281 0 70.211 14.4137 1012 103.369 1237.98 492.038
282 0 73.4254 13.8372 1016 103.035 1238.57 492.787
283 0 74.5623 13.0763 975 105.949 1238.95 490.493
284 0 77.4981 13.5745 1052 105.012 1239.01 489.236
285 0 80.5577 13.1831 1062 106.675 1239.05 485.47
286 0 81.2675 12.5635 1021 101.267 1238.27 482.248
287 0 86.4815 12.8698 1113 101.159 1238.75 479.034
288 0 89.3157 13.4243 1199 99.9575 1238.93 479.563
289 1 48.2114 11.097 535 94.3065 1240.15 498.88
290 0 50.0431 11.1304 557 91.3501 1239.86 500.921
291 0 52.0553 11.6799 608 98.9868 1238.49 502.541
292 0 52.0643 12.1196 631 101.013 1237.77 502.385
293 0 54.2241 11.8951 645 101.295 1237.63 500.784
294 0 57.1573 12.8417 734 98.97 1237.45 501.238
295 0 57.1762 11.8056 675 101.745 1237.61 499.993
296 0 60.1545 12.4845 751 100.15 1237.2 500.292
297 0 61.1115 13.1563 804 100.4 1237.55 496.641
298 0 63.16 13.3312 842 100.747 1237.85 496.189
299 0 65.15 13.6608 890 99.8315 1237.42 496.496
300 0 66.2041 12.3708 819 102.403 1237.32 495.452
301 0 68.2535 13.5524 925 100.243 1237.28 494.129
302 0 71.1183 12.2191 869 101.52 1237.29 492.967
303 0 75.0931 13.663 1026 97.9298 1236.91 493.493
304 0 76.0503 12.6101 959 101.15 1236.31 491.284
305 0 78.0734 12.8981 1007 101.488 1236.95 488.175
306 0 80.1349 11.8425 949 102.22 1237.04 487.739
307 0 84.2127 12.1241 1021 101.794 1237.6 485.188
308 0 90.1563 13.6873 1234 98.611 1236.95 485.074
309 0 91.0866 14.2063 1294 98.4985 1236.87 483.571
310 0 95.1329 13.1605 1252 100.443 1237.16 479.82
311 0 95.1511 12.8427 1222 100.673 1236.95 479.944
312 1 53.0499 13.2517 703 97.074 1236.49 500.075
313 0 56.1307 14.5909 819 93.3052 1236.54 500.26
314 0 53.0442 11.6129 616 105.073 1237.08 499.328
315 0 58.0652 13.0371 757 101.312 1236.84 498.552
316 0 59.1073 13.9238 823 99.113 1237.41 497.829
317 0 59.1088 12.8915 762 100.045 1236.85 499.538
318 0 61.1605 12.9005 789 102.516 1236.4 495.776
319 0 64.1079 12.9625 831 101.365 1236.88 495.333
320 0 66.0725 12.9252 854 100.731 1237.2 495.878
321 0 70.0482 13.9047 974 98.9066 1237.2 494.26
322 0 69.0451 13.6288 941 101.909 1236.52 491.813
323 0 73.1457 13.6577 999 101.476 1236.84 490.066
324 0 75.2843 13.6151 1025 101.948 1238.86 488.266
325 0 77.3937 13.3086 1030 103.154 1238.78 486.504
326 0 81.276 13.5095 1098 101.943 1239.05 486.218
327 0 82.2928 12.3948 1020 105.032 1239.03 484.219
328 0 87.2188 13.4833 1176 102.562 1239.25 481.312
329 1 45.0875 10.5794 477 99.566 1240.65 503.277
330 0 46.0279 10.4719 482 101.635 1239.92 503.471
331 0 49.0674 11.7797 578 100.806 1239.54 502.948
332 0 51.1665 12.7232 651 99.0246 1240.2 501.508
333 0 52.0357 11.4729 597 101.844 1239.78 502.404
334 0 54.0665 12.947 700 97.7414 1240.33 501.544
335 0 56.0442 12.6864 711 97.7384 1239.55 501.307
336 0 57.1037 12.1008 691 100.483 1240.23 498.931
337 0 55.0827 11.4192 629 103.591 1239.7 498.388
338 0 60.0767 12.2676 737 100.851 1239.74 497.349
339 0 60.0846 12.8319 771 99.035 1240.04 498.394
340 0 63.04 13.3725 843 99.1506 1239.99 495.879
341 0 64.0426 13.7877 883 99 1239.44 494.408
342 0 66.1208 12.4167 821 101.695 1239.69 495.324
343 0 69.0396 12.4566 860 102.549 1236.5 493.259
344 0 71.0376 11.8388 841 104.35 1236.98 492.26
345 0 74.0451 14.005 1037 100.182 1237.3 491.029
346 0 75.116 13.9385 1047 101.628 1237.14 489.405
347 0 76.0577 12.8718 979 104.227 1237.84 489.707
348 0 79.0244 13.2238 1045 103.099 1237.96 488.884
349 0 82.1171 14.2114 1167 101.596 1238.21 486.247
350 0 85.0329 14.2415 1211 101.932 1237.95 485.564
351 0 86.0626 14.2222 1224 103.118 1237.85 483.387
352 0 87.2079 12.1549 1060 107.453 1238.57 482.747
353 0 90.0431 12.7272 1146 106.996 1238.59 482.443
354 0 94.1533 13.3931 1261 104.709 1238.05 479.843
355 0 97.2268 14.2553 1386 102.997 1238.55 478.379
356 0 100.287 14.7875 1483 102.32 1238.33 477.744
357 0 103.21 15.1827 1567 101.24 1238.69 475.576
358 0 104.242 14.5431 1516 103.679 1238.31 471.911
359 0 108.488 14.5823 1582 103.582 1238.64 473.722
360 0 109.162 13.109 1431 106.913 1237.92 468.041
361 0 115.364 15.3687 1773 100.865 1237.87 469.043
362 0 117.332 14.0882 1653 103.901 1237.72 467.855
363 0 119.448 13.5373 1617 104.887 1238.18 464.119
364 0 126.267 14.0179 1770 102.569 1237.66 463.911
365 0 128.326 12.7799 1640 103.869 1237.55 459.469
366 0 136.523 14.2467 1945 100.185 1237.63 458.03
367 1 77.2602 12.0114 928 95.8976 1237.55 491.881
368 0 79.1945 12.5009 990 97.496 1238.19 488.75
369 0 79.0941 10.7846 853 93.1067 1240.18 489.251
370 0 86.1524 13.244 1141 87.9229 1240.67 487.796
371 0 86.183 13.4017 1155 89.4606 1240.22 484.927
372 0 88.0903 11.545 1017 92.1731 1240.04 485.271
373 0 90.1258 11.5616 1042 91.8983 1238.82 484.574
374 0 96.1194 14.5236 1396 86.9799 1238.7 481.428
375 0 99.2047 13.3965 1329 90.003 1239.05 480.877
376 0 103.309 12.177 1258 92.4269 1239.18 480.189
377 0 102.17 11.2949 1154 97.3432 1239.08 476.979
378 0 108.174 12.822 1387 93.7952 1239.55 475.526
379 0 113.267 13.4461 1523 93.1543 1239.69 473.876
380 1 59.2545 11.4759 680 94.4985 1240.42 498.409
381 0 60.3811 11.6427 703 94.9474 1240.59 494.89
382 0 61.3479 11.932 732 93.9686 1240.64 493.238
383 0 65.488 14.0942 923 90.9653 1240.51 492.86
384 0 66.2088 11.7054 775 93.8761 1239.29 493.881
385 0 69.0749 12.4647 861 92.4866 1238.71 494.642
386 0 70.1596 13.1842 925 92.1168 1238.98 492.15
387 0 71.2728 12.8941 919 92.6583 1238.61 491.912
388 0 75.215 12.8299 965 93.7461 1238.88 491.32
389 0 77.1342 13.3663 1031 93.2648 1239.16 489.113
390 0 79.134 12.9906 1028 94.7753 1238.38 487.366
391 0 84.4202 14.3923 1215 91.4955 1239.25 486.568
392 0 85.3508 14.4463 1233 91.4493 1239.12 486.903
393 0 87.2179 13.2656 1157 94.8583 1239.13 482.42
394 0 90.1278 12.7486 1149 93.9225 1239.05 481.214
395 0 93.185 12.0298 1121 98.1267 1239.09 483.478
396 1 46.019 11.8212 544 92.9099 1238.29 502.706
397 0 49.3136 12.0656 595 90.9815 1239.24 503.02
398 0 51.1516 12.3163 630 89.9349 1237.46 504.01
399 0 51.0571 12.3391 630 90.881 1238.35 502.948
400 0 53.0968 12.7126 675 90.1096 1238.4 501.415
401 0 54.0897 14.3096 774 87.8165 1238.48 500.12
402 0 55.1033 12.6127 695 91.1396 1238.64 500.437
403 0 57.0953 12.3127 703 94.7141 1241.12 502.125
404 0 58.1342 13.4172 780 93.8705 1240.66 497.762
405 0 59.1074 12.6719 749 94.8838 1240.54 501.342
406 0 59.2459 11.5789 686 98.7347 1241.46 498.646
407 0 63.2358 13.3627 845 95.7444 1241.53 496.781
408 0 66.1601 12.0465 797 98.4279 1241.95 497.644
409 0 66.1912 12.6754 839 98.8844 1241.74 495.59
410 0 67.1346 11.9759 804 100.863 1241.45 495.107
411 0 70.1806 12.2826 862 101.956 1241.37 493.336
412 0 74.1683 14.7772 1096 97.552 1240.92 491.074
413 0 77.1091 13.8764 1070 99.7374 1240.9 491.736
414 0 77.0977 14.2287 1097 100.807 1240.77 489.551
415 0 79.18 12.5158 991 105.014 1241.62 490.448
416 0 84.2531 14.6582 1235 101.21 1240.58 487.033
417 0 86.1929 14.8736 1282 100.238 1240.98 487.892
418 0 87.1591 13.4123 1169 104.476 1241.04 485.766
419 0 90.1299 13.2143 1191 105.984 1240.38 485.602
420 1 47.0104 13.3375 627 104.085 1241.87 505.166
421 0 49.1034 13.1763 647 105.815 1241.97 504.904
422 0 51.0562 13.064 667 104.997 1242.35 504.339
423 0 53.1562 14.3916 765 99.1882 1241.92 502.706
424 0 53.1474 14.4127 766 101.62 1241.49 501.976
425 0 56.0773 13.5527 760 103.342 1241.46 501.964
426 0 56.1408 13.5196 759 104.503 1242.41 502.212
427 0 58.1134 13.3532 776 105.87 1241.66 501.767
428 0 61.0749 15.1453 925 102.851 1241.49 500.494
429 0 62.1676 13.9784 869 107.625 1241.44 498.959
430 0 63.1458 14.3636 907 108.15 1241.13 498.187
431 0 65.1551 13.4909 879 110.826 1241.53 498.444
432 0 70.1895 14.817 1040 107.841 1240.83 496.267
433 0 70.1257 14.1175 990 111.78 1240.65 495.501
434 0 71.2016 13.8059 983 113.412 1240.99 494.409
435 0 77.1035 15.2004 1172 110.214 1240.63 492.213
436 0 78.2017 14.5393 1137 112.94 1240.6 491.799
437 0 81.1848 14.6702 1191 112.674 1240.46 491.082
438 0 82.129 14.7695 1213 114.556 1240.77 488.547
439 1 42.2836 11.754 497 120.461 1241 508.002
440 0 44.0354 11.786 519 121.185 1241.68 508.046
441 0 46.1195 12.4893 576 112.189 1239.21 507.236
442 0 48.1122 12.9489 623 109.992 1239.43 505.982
443 0 51.2239 13.6265 698 108.403 1239.16 505.074
444 0 51.1773 13.8538 709 109.13 1239.38 504.385
445 0 48.109 11.4532 551 116.23 1239.37 506.109
446 0 51.2153 12.8673 659 111.756 1238.99 504.566
447 0 54.0385 12.6576 684 110.702 1239.03 504.722
448 0 55.1599 13.1436 725 110.519 1239.08 504.708
449 0 56.0421 12.5798 705 113.201 1238.98 502.645
450 0 61.0356 13.6805 835 110.498 1239.17 499.844
451 0 61.1718 12.8817 788 112.612 1239.09 500.27
452 0 64.0488 12.9589 830 111.834 1238.85 499.089
453 0 65.1017 12.9029 840 111.717 1239.25 498.471
454 0 67.0915 13.7871 925 110.031 1239.76 496.386
455 0 67.045 12.4842 837 114.196 1238.78 496.234
456 0 70.021 12.8104 897 113.764 1239.25 495.328
457 0 73.0862 13.7919 1008 111.692 1238.63 493.272
458 0 74.0411 12.5606 930 114.523 1238.57 492.987
459 0 77.097 12.374 954 113.682 1239.08 492.466
460 0 82.0873 13.778 1131 110.996 1239.1 489.463
461 0 82.2004 12.9805 1067 111.711 1238.82 488.903
462 0 85.212 13.5662 1156 110.359 1239.2 486.743
463 0 90.223 13.522 1220 109.298 1240.36 485.732
464 1 48.0832 13.0815 629 104.448 1239.03 506.48
465 0 51.0667 13.2376 676 105.206 1239.93 504.651
466 0 50.1151 11.7529 589 109.494 1241.87 506.304
467 0 52.1679 13.0923 683 106.807 1241.11 505.223
468 0 54.0876 12.868 696 107.444 1241.07 503.688
469 0 55.058 12.4596 686 108.328 1241.29 502.962
470 0 59.1759 13.0459 772 105.488 1241.22 502.013
471 0 59.1422 13.2224 782 106.653 1241.04 501.691
472 0 61.0744 11.8871 726 109.415 1240.63 498.924
473 0 65.2241 13.1393 857 107.628 1241.27 498.121
474 0 67.1331 12.572 844 110.225 1240.97 495.934
475 0 70.1711 12.4268 872 109.567 1241.24 496.577
476 0 73.1074 13.3639 977 106.047 1240.64 493.672
477 0 76.1374 13.7646 1048 104.566 1240.94 493.966
478 0 78.2118 13.1821 1031 106.647 1240.87 490.591
479 0 81.2166 13.15 1068 106.356 1240.87 488.926
480 0 84.1307 12.6232 1062 106.798 1241.16 488.718
481 0 85.1972 10.9511 933 110.284 1240.46 488.929
482 0 88.2649 12.8817 1137 106.478 1240.39 486.507
483 0 94.2266 12.194 1149 108.468 1240.81 483.694
484 0 96.1714 10.918 1050 111.288 1241.31 483.118
485 1 49.0552 12.1904 598 105.062 1241.92 504.988
486 0 51.1819 13.1687 674 102.543 1241.42 502.58
487 0 53.2631 13.2362 705 101.133 1241.6 503.916
488 0 52.1142 11.4748 598 106.09 1241.24 502.905
489 0 56.1893 14.3088 804 98.408 1241.33 501.206
490 0 57.19 13.0267 745 100.984 1240.58 500.399
491 0 58.0688 12.778 742 101.115 1241.04 499.933
492 0 62.2142 13.6625 850 98.8694 1241.36 498.128
493 0 63.3049 13.3323 844 99.4988 1240.89 499.113
494 0 61.176 10.9847 672 104.902 1241.62 499.074
495 0 65.2117 12.3137 803 102.194 1241.44 496.781
496 0 69.1995 13.7718 953 99.043 1241.11 494.533
497 0 71.0922 13.4473 956 99.8818 1241.5 493.844
498 0 74.1837 12.4286 922 101.749 1241.42 493.274
499 0 75.1146 13.4727 1012 101.07 1241.44 490.441
500 0 78.0949 12.0494 941 105.322 1241.41 491.107
501 0 83.0992 13.3094 1106 103.567 1241.26 490.681
502 0 85.1159 12.8061 1090 107.317 1241.21 487.655
503 0 87.2268 13.7114 1196 107.37 1241.6 484.057
504 0 89.1127 12.8265 1143 109.91 1242.01 483.295
505 0 93.1596 12.7308 1186 110.709 1242.23 481.852
506 1 49.1338 11.8656 583 113.108 1242.09 502.684
507 0 52.0395 12.3176 641 112.406 1242.34 503.95
508 0 51.1241 13.2423 677 105.638 1241.08 504.253
509 0 52.1287 13.3708 697 105.89 1240.78 504.092
510 0 55.0993 12.3595 681 107.329 1241.74 501.89
511 0 58.0845 12.9983 755 104.74 1241.98 501.483
512 0 60.0976 12.5463 754 106.206 1241.86 499.841
513 0 59.1613 12.1532 719 108.622 1241.86 499.06
514 0 61.129 11.8111 722 108.954 1242.42 499.914
515 0 67.05 12.9157 866 107.039 1241.91 497.208
516 0 68.0846 12.2054 831 109.863 1242.16 497.22
517 0 69.0823 12.2028 843 111.811 1241.61 494.355
518 0 74.0531 13.0042 963 109.901 1241.75 493.715
519 0 77.0536 13.5879 1047 109.406 1241.79 493.334
520 0 79.1489 13.5315 1071 110.941 1241.83 490.96
521 0 82.089 13.3026 1092 111.501 1241.19 489.39
522 0 83.1158 11.8991 989 114.826 1241.03 489.148
523 0 89.1809 13.9043 1240 107.325 1241.14 487.423
524 0 91.248 13.5017 1232 111.628 1241.08 486.146
525 1 48.2212 12.7122 613 111.519 1240.46 506.227
526 0 46.2037 12.2718 567 116.31 1239.95 504.811
527 0 50.0305 12.6123 631 113.688 1241.63 505.664
528 0 51.0255 12.9935 663 112.37 1241.53 504.953
529 0 52.1349 13.6185 710 110.221 1241.85 505.551
530 0 50.118 12.9694 650 107.775 1241.03 505.922
531 0 51.1678 11.9411 611 109.352 1241.53 504.93
532 0 51.0991 11.1157 568 111.956 1241.42 505.315
533 0 57.2243 13.3684 765 106.702 1241.4 503.273
534 0 58.3036 13.0867 763 106.089 1241.11 504.845
535 0 59.1123 12.5693 743 110.563 1240.56 501.577
536 0 61.2423 12.2954 753 109.888 1240.71 502.371
537 0 63.2911 13.2562 839 109.548 1240.02 499.383
538 0 66.1701 14.2058 940 107.572 1240.45 497.849
539 0 65.2272 11.7589 767 114.884 1240.51 497.402
540 0 70.2749 12.9634 911 111.319 1240.42 497.454
541 0 72.219 12.6975 917 113.088 1240.46 495.411
542 0 77.3172 13.0631 1010 110.023 1240.72 496.588
543 0 82.2067 13.8188 1136 108.298 1241.54 493.066
544 0 83.2135 12.7023 1057 111.774 1241.31 490.574
545 0 86.202 13.1436 1133 111.135 1241.32 489.004
546 1 44.1607 11.6393 514 114.763 1242.45 509.054
547 0 45.1247 12.9419 584 113.664 1241.66 507.873
548 0 46.2182 12.2679 567 117.79 1241.69 505.312
549 0 47.0983 12.6756 597 101.868 1242.87 507.298
550 0 49.034 12.8278 629 101.846 1242.02 505.256
551 0 49.1595 12.5306 616 106.114 1241.25 506.995
552 0 51.1952 12.7356 652 103.886 1241.89 504.339
553 0 52.155 11.3316 591 106.036 1241.8 505.907
554 0 53.0986 12.505 664 105.56 1241.31 503.813
555 0 54.1276 11.9902 649 105.559 1241.39 504.105
556 0 56.2724 12.9904 731 104.964 1241.93 501.997
557 0 59.4322 12.9223 768 103.509 1241.31 501.173
558 0 60.1608 11.8017 710 105.365 1241.72 501.206
559 0 63.1195 12.7377 804 103.343 1241.78 501.233
560 0 64.2303 12.6109 810 105.415 1242.06 498.762
561 0 68.3712 12.1981 834 105.21 1241.78 499.309
562 0 71.3513 13.4826 962 103.662 1241.37 496.091
563 0 73.0828 14.3946 1052 106.605 1239.4 493.27
564 0 77.1387 13.7933 1064 107.885 1239.64 491.571
565 0 79.0858 12.8089 1013 110.532 1239.53 492.101
566 0 81.0747 13.5307 1097 108.708 1239.55 489.312
567 1 42.0601 11.8164 497 109.179 1239.1 508.547
568 0 44.0942 12.9269 570 106.991 1239.39 507.228
569 0 46.149 13.4564 621 106.006 1239.81 506.593
570 0 49.3511 12.867 635 107.367 1240.05 504.682
571 0 47.0566 12.3043 579 109.784 1239.83 506.185
572 0 52.1491 12.2342 638 109.481 1240.35 506.455
573 0 51.2158 12.6328 647 110.156 1240.87 504.241
574 0 53.0973 13.3152 707 109.962 1240.32 504.519
575 0 56.156 13.142 738 109.726 1240.61 503.995
576 0 56.0954 13.1562 738 110.94 1240.67 503.729
577 0 59.1115 13.4492 795 108.901 1239.69 502.804
578 0 60.0968 12.8959 775 111.461 1239.79 500.963
579 0 64.0842 14.0128 898 107.747 1239.91 499.795
580 0 67.0526 14.3022 959 107.374 1239.87 498.758
581 0 66.1582 13.377 885 111.245 1239.61 498.61
582 0 68.0475 12.3002 837 113.16 1239.77 497.3
583 0 73.106 12.9948 950 111.831 1241.05 495.452
584 0 73.0901 12.3273 901 113.691 1241.68 494.394
585 0 79.1291 14.2552 1128 109.301 1241.07 491.831
586 0 81.1256 14.5084 1177 108.704 1241.28 491.867
587 1 40.0776 11.4777 460 116.059 1242.25 509.178
588 0 42.2485 12.4975 528 113.564 1242.45 509.75
589 0 44.0129 12.1555 535 111.471 1242.63 509.755
590 0 47.22 14.7183 695 105.518 1241.57 508
591 0 46.1709 13.3417 616 111.813 1241.58 508.117
592 0 45.0656 12.3598 557 115.512 1241.31 507.657
593 0 48.1803 13.3872 645 112.611 1241.21 505.45
594 0 52.0948 13.5906 708 110.049 1241.08 506.042
595 0 51.0835 13.3115 680 112.25 1241.14 506.368
596 0 53.0976 12.6183 670 115.909 1240.37 504.428
597 0 54.0928 13.8096 747 113.561 1240.63 503.703
598 0 57.0855 13.8389 790 112.43 1241.06 502.625
599 0 58.2491 12.9616 755 113.049 1240.79 502.695
600 0 61.1014 14.2386 870 111.652 1240.96 499.121
601 0 61.3246 12.6703 777 115.632 1241.64 499.596
602 0 64.0993 13.6975 878 114.055 1241.16 498.552
603 0 66.1771 12.7385 843 115.986 1241.01 497.738
604 0 68.1823 12.7892 872 116.352 1240.45 496.914
605 0 71.2515 12.9401 922 115.847 1240.63 496.177
606 0 73.1386 13.9051 1017 116.03 1240.08 493.393
607 0 74.2061 13.8668 1029 116.866 1240.62 492.814
608 0 80.1798 14.4176 1156 114.996 1240.7 492.959
609 0 81.2139 14.1478 1149 117.848 1240.9 491.535
610 0 85.1748 15.2158 1296 115.193 1240.46 488.28
611 0 88.1603 14.2581 1257 117.59 1241.18 486.81
612 0 90.1861 14.3148 1291 118.486 1240.97 484.59
613 0 94.193 13.9819 1317 118.723 1241.2 484.768
614 0 98.1532 13.8457 1359 120.286 1241.61 483.338
615 0 102.242 14.7297 1506 118.778 1241.37 482.608
616 1 52.196 12.568 656 118.948 1242.04 506.061
617 0 51.2474 11.864 608 123.234 1241.56 504.125
618 0 53.3554 13.2883 709 119.52 1241.38 502.495
619 0 56.3237 15.1091 851 116.113 1240.19 501.233
620 0 59.2743 14.1883 841 117.285 1240.76 502.493
621 0 60.2916 14.6123 881 117.297 1241.04 500.093
622 0 64.3878 14.7543 950 120.703 1240.63 500.248
623 0 63.5429 14.683 933 124.049 1240.3 499.101
624 0 66.3954 14.3383 952 125.271 1240.39 496.539
625 0 68.071 13.7503 936 122.993 1240.52 496.581
626 0 72.1339 13.8215 997 121.993 1240.75 495.081
627 0 73.0699 12.6728 926 125.533 1241.01 494.181
628 0 76.0974 14.1792 1079 123.551 1241.44 491.861
629 0 79.0833 13.3404 1055 127.644 1241.03 490.303
630 0 84.1667 15.4931 1304 120.123 1241.19 489.318
631 0 86.2016 14.0601 1212 124.939 1241.15 488.927
632 0 87.2112 13.5304 1180 129.301 1240.57 486.623
633 1 39.3225 10.8589 427 130.796 1241.35 509.389
634 0 43.0836 12.9748 559 124.256 1240.67 508.744
635 0 45.185 14.1861 641 123.084 1241.03 506.724
636 0 43.069 12.5845 542 134.487 1241.18 506.841
637 0 45.1405 13.0925 591 132.015 1240.9 507.863
638 0 48.1505 14.0393 676 129.272 1240.72 505.799
639 0 49.1223 13.0084 639 131.698 1241.32 505.243
640 0 50.2244 12.2052 613 131.949 1241.7 506.114
641 0 52.2616 13.4707 704 129.354 1241.64 503.246
642 0 53.3658 14.335 765 126.448 1240.82 503.251
643 0 56.3756 12.9843 732 127.454 1241.06 501.835
644 0 58.1399 14.0867 819 123.132 1240.94 501.514
645 0 60.1819 13.2764 799 126.038 1241.52 500.75
646 0 61.2361 13.7174 840 125.762 1241.2 499.12
647 0 63.177 14.5148 917 122.967 1240.63 498.659
648 0 65.2529 12.5358 818 128.346 1240.62 498.749
649 0 70.1512 14.8964 1045 121.948 1240.1 496.936
650 0 70.0758 14.0847 987 126.036 1240.59 495.091
651 0 72.1803 15.0872 1089 122.273 1240.81 494.744
652 0 75.1741 14.4199 1084 123.712 1241.04 491.995
653 0 77.0915 14.3207 1104 123.664 1241.01 491.433
654 0 79.143 14.8086 1172 125.585 1241.31 488.636
655 0 81.2398 13.8479 1125 127.229 1241.03 489.67
656 0 84.3011 14.1635 1194 125.404 1240.76 488.685
657 1 41.1917 10.1719 419 128.726 1241.91 509.773
658 0 42.1039 13.1342 553 122.284 1241.29 507.982
659 0 45.1802 11.6423 526 124.935 1241.52 507.728
660 0 46.1177 12.4898 576 123.109 1241.38 506.354
661 0 48.0924 12.9334 622 121.645 1240.96 504.495
662 0 50.028 14.4719 724 116.331 1240.89 503.543
663 0 52.1123 13.8931 724 116.778 1240.64 503.09
664 0 53.0943 13.3159 707 115.699 1240.91 502.781
665 0 53.1616 12.904 686 116.188 1241.39 501.12
666 0 56.1521 14.1758 796 111.822 1241.38 500.518
667 0 57.1137 14.3573 820 112.521 1241.17 498.544
668 0 59.2625 13.0437 773 115.561 1241.18 497.599
669 0 62.4205 14.0338 876 113.599 1240.62 495.63
670 0 62.3265 13.6218 849 116.472 1240.21 491.836
671 0 64.2584 14.0682 904 116.144 1239.97 490.42
672 0 66.4032 13.7644 914 117.691 1240.21 489.812
673 0 68.4844 14.6311 1002 116.314 1239.52 489.205
674 0 72.744 15.6164 1136 113.857 1240.1 487.867
675 0 72.5131 14.3284 1039 118.953 1240.19 485.284
676 0 76.7863 13.3357 1024 120.779 1240.2 486.263
677 0 79.4348 14.301 1136 117.197 1240.37 485.613
678 0 81.7502 14.2997 1169 117.124 1240.5 482.505
679 0 85.649 14.7696 1265 114.809 1240.36 481.696
680 0 89.694 14.215 1275 115.85 1240.42 479.225
681 1 46.1797 12.5813 581 118.053 1239.2 501.816
682 0 45.2119 13.293 601 121.067 1239.27 499.153
683 0 48.2375 14.1798 684 117.167 1239.42 498.711
684 0 47.1578 13.0837 617 120.016 1239.65 499.545
685 0 49.4145 12.6279 624 122.147 1239.49 497.277
686 0 52.3365 12.7636 668 121.946 1239.58 495.509
687 0 55.4121 13.5169 749 117.748 1239.21 496.136
688 0 56.2899 13.9457 785 120.183 1239.27 492.389
689 0 57.4394 13.2313 760 122.62 1239.3 492.632
690 0 61.4626 13.5204 831 121.262 1239.12 490.357
691 0 63.4294 14.0629 892 120.806 1239.69 490.081
692 0 65.3753 13.8584 906 121.23 1239.52 489.676
693 0 67.4813 13.8409 934 122.718 1239.79 488.077
694 0 69.4128 12.3464 857 127.833 1239.42 486.144
695 0 74.3122 13.7393 1021 122.466 1239.31 486.235
696 0 76.3142 14.021 1070 123.147 1239.03 483.529
697 0 79.2818 12.8529 1019 125.82 1238.96 482.528
698 0 82.3372 13.2382 1090 124.473 1239.15 481.495
699 0 86.4591 13.6018 1176 122.486 1239.25 479.464
700 1 43.2645 10.6092 459 119.658 1238.93 501.898
701 0 47.2258 12.2603 579 115.199 1238.83 502.069
702 0 48.1933 11.2256 541 112.843 1238.9 500.516
703 0 51.2708 11.5465 592 111.662 1239.36 501.27
704 0 51.3075 12.4348 638 110.466 1239.58 500.368
705 0 52.3294 10.8161 566 113.719 1239.65 499.081
706 0 56.2846 11.3886 641 110.939 1239.93 499.484
707 0 58.3329 12.1372 708 108.551 1240.5 500.9
708 0 59.2468 11.6462 690 112.061 1239.92 498.496
709 0 61.3875 11.3378 696 111.273 1240.13 499.293
710 0 63.2443 11.9853 758 111.85 1239.85 497.166
711 0 66.3188 11.4899 762 112.667 1240.75 496.735
712 0 67.2047 11.2046 753 115.189 1239.86 493.829
713 0 67.1742 10.9417 735 116.031 1240.24 494.931
714 0 70.38 10.2302 720 118.226 1240.49 492.938
715 0 73.3378 11.522 845 113.915 1240.32 493.852
716 0 76.4467 11.8645 907 118.519 1240.49 492.796
717 0 79.2347 12.6712 1004 114.188 1240.92 488.591
718 0 83.0896 12.9258 1074 113.306 1241.56 487.894
719 0 84.2254 12.3478 1040 117.004 1241.6 487.036
720 1 40.0595 9.53583 382 113.576 1241.68 509.351
721 0 44.0925 10.9996 485 110.196 1242.08 507.592
722 0 45.1425 10.2786 464 112.688 1241.27 509.056
723 0 46.0283 11.4712 528 111.163 1241.74 506.239
724 0 49.1807 11.9559 588 108.165 1238.94 503.417
725 0 50.1667 12.3987 622 107.762 1238.89 505.478
726 0 51.0668 12.4543 636 108.668 1238.92 503.47
727 0 53.073 13.0198 691 106.282 1239.35 503.67
728 0 53.0629 12.5323 665 107.725 1238.96 502.97
729 0 56.0735 13.3396 748 105.449 1239.28 503.4
730 0 58.1829 11.6873 680 107.919 1239.13 500.579
731 0 60.1252 13.6881 823 105.578 1239.31 499.226
732 0 62.2324 12.2605 763 107.067 1239.39 499.017
733 0 64.0905 13.3717 857 104.898 1239.69 496.978
734 0 66.0339 12.7965 845 104.515 1241.44 498.077
735 0 67.1346 12.4377 835 109.137 1239.7 498.449
736 0 69.2761 11.5913 803 110.793 1238.39 497.487
737 0 70.2159 11.5501 811 110.742 1238.58 493.699
738 0 75.1662 12.5455 943 108.764 1239.18 493.224
739 0 77.1727 11.8695 916 110.541 1239.82 491.588
740 0 81.2035 11.3049 918 109.35 1239.3 492.509
741 0 84.2037 13.2061 1112 107.279 1239.33 487.34
742 1 46.0708 10.766 496 118.252 1239.47 507.308
743 0 48.1402 11.7573 566 119.011 1239.01 505.253
744 0 48.0828 10.8563 522 108.971 1239.28 501.948
745 0 48.203 10.767 519 100.636 1241.6 502.014
746 0 50.1868 9.70375 487 102.854 1242.05 500.949
747 0 52.0862 11.865 618 98.0971 1241.74 499.646
748 0 53.0929 11.3386 602 99.887 1241.26 498.731
749 0 54.222 8.90782 483 103.797 1241.45 499.244
750 0 55.1638 9.39022 518 104.43 1241.32 496.83
751 0 59.1332 11.4656 678 100.195 1241.42 495.394
752 0 60.1845 11.3651 684 99.421 1241.48 496.17
753 0 62.176 11.5479 718 99.5655 1241.28 494.086
754 0 64.1587 11.0819 711 99.6582 1241.71 495.841
755 0 68.165 11.6042 791 97.7434 1241.32 494.338
756 0 68.1203 11.9494 814 97.7789 1241.6 491.322
757 0 72.2694 11.6785 844 98.686 1241.96 490.045
758 0 74.0525 10.7356 795 100.483 1242.01 489.346
759 0 77.2107 10.6073 819 99.7204 1241.98 489.05
760 0 80.0784 11.6885 936 98.5459 1241.1 486.774
761 1 41.0993 9.7812 402 95.4378 1242.34 505.97
762 0 43.0744 10.5399 454 95.4383 1241.84 505.187
763 0 44.1255 10.6061 468 95.9402 1241.29 504.989
764 0 46.3911 12.179 565 105.312 1239.87 502.099
765 0 47.1983 11.9496 564 106.61 1240.01 500.443
766 0 51.0544 13.6521 697 110.971 1238.6 504.535
767 0 51.1064 12.6012 644 115.604 1238.68 503.41
768 0 54.0473 12.6001 681 114.877 1238.53 503.885
769 0 53.0335 12.5015 663 109.241 1239.78 503.86
770 0 52.082 10.8867 567 114.4 1243.23 505.086
771 0 55.0626 12.4586 686 109.821 1243.14 504.048
772 0 59.1683 12.5574 743 108.861 1243.08 501.182
773 0 57.0896 12.4366 710 111.015 1243.06 502.646
774 0 58.0844 11.5177 669 112.531 1243.07 503.087
775 0 60.0983 11.1318 669 113.543 1242.63 500.288
776 0 64.0619 12.6752 812 108.373 1242.29 499.107
777 0 68.1538 13 886 108.093 1242.23 498.35
778 0 70.065 13.4304 941 107.357 1242.53 496.72
779 0 73.0915 12.7101 929 107.801 1242.33 496.309
780 0 76.1485 13.6181 1037 106.249 1241.86 494.398
781 0 77.085 13.2711 1023 108.361 1241.49 491.19
782 0 80.1221 13.2173 1059 106.762 1241.38 492.361
783 0 85.0999 12.832 1092 105.807 1241.6 489.536
784 0 87.1017 12.3074 1072 106.318 1242.03 490.073
785 1 45.0203 12.1945 549 104.55 1241.96 509.94
786 0 48.0657 12.0668 580 105.734 1242.49 506.633
787 0 51.159 14.8166 758 73.5 1241.8 508.219
788 0 50.1513 12.5421 629 104.542 1241.41 505.614
789 0 54.3431 13.0467 709 101.817 1241.49 504.781
790 0 54.1874 13.9147 754 101.714 1241.19 502.983
791 0 56.2517 13.0663 735 102.842 1241.01 502.336
792 0 56.329 13.3501 752 103.594 1240.61 500.939
793 0 58.2716 13.2311 771 102.462 1240.95 501.707
794 0 60.1781 12.463 750 104.208 1241.04 500.696
795 0 64.1374 13.2528 850 102.632 1241 498.694
796 0 65.2199 13.2628 865 102.371 1240.66 496.832
797 0 67.2418 13.4291 903 102.2 1240.9 497.884
798 0 70.2845 16.4617 1157 96.7761 1240.55 494.621
799 0 72.2051 13.3924 967 104.099 1240.68 494.426
800 0 73.2483 13.4884 988 104.287 1240.81 493.099
801 0 76.2457 13.6926 1044 104.148 1240.25 492.966
802 0 80.2502 13.9314 1118 103.989 1240.35 491.24
803 0 83.2139 14.0962 1173 104.57 1240.37 488.775
804 1 42.0826 10.7408 452 113.726 1241.23 510.343
805 0 43.1705 11.8599 512 113.127 1240.69 509.898
806 0 45.0512 13.1184 591 111.496 1241.25 508.734
807 0 47.0623 12.7703 601 115.208 1241.28 507.561
808 0 46.0336 12.5778 579 117.706 1241.48 506.782
809 0 49.0664 13.1658 646 115.508 1241.7 505.923
810 0 51.1173 13.4788 689 114.549 1241.3 504.917
811 0 50.1079 12.952 649 117.18 1242.23 504.72
812 0 53.0733 13.3023 706 116.629 1241.35 503.409
813 0 54.1609 13.4968 731 116.762 1241.41 502.766
814 0 58.1112 14.369 835 113.207 1241.16 503.317
815 0 59.3048 13.692 812 116.754 1240.14 500.246
816 0 59.3599 14.8248 880 115.56 1240.28 499.009
817 0 62.3176 13.8805 865 117.328 1240.39 498.223
818 0 63.2816 13.6216 862 117.673 1239.67 498.239
819 0 67.5521 12.8789 870 120.083 1240.05 498.005
820 0 65.318 12.0947 790 124.235 1240.53 495.677
821 0 70.3164 13.0695 919 119.758 1240.14 495.835
822 0 72.3367 13.7828 997 118.701 1240.55 493.237
823 0 76.3358 13.9646 1066 117.311 1240.73 491.898
824 0 79.2435 14.8277 1175 115.198 1240.85 490.541
825 0 80.3607 12.867 1034 119.372 1241.2 490.62
826 0 85.4013 13.6298 1164 117.251 1240.52 488.27
827 0 88.3322 14.5021 1281 115.117 1240.55 487.209
828 1 42.0236 10.3275 434 118.431 1242.59 509.32
829 0 46.0161 11.8002 543 113.088 1242.31 508.886
830 0 47.0293 12.8218 603 110.7 1241.7 506.032
831 0 48.0506 12.2371 588 111.801 1241.2 507.602
832 0 49.1029 12.6876 623 111.645 1240.92 505.798
833 0 50.0677 12.4232 622 112.317 1241.79 505.465
834 0 50.0801 12.7596 639 112.875 1241.88 503.898
835 0 53.033 12.9354 686 110.595 1241.45 503.764
836 0 54.0215 11.8842 642 111.329 1240.75 504.41
837 0 57.0865 13.3482 762 107.867 1241.4 501.613
838 0 57.1033 12.311 703 111.021 1241.02 500.916
839 0 59.1774 12.8765 762 109.308 1241.28 499.352
840 0 62.0534 13.5528 841 106.3 1241.14 499.25
841 0 62.2195 14.047 874 101.267 1241.31 499.957
842 0 61.1662 11.248 688 108.356 1240.94 499.349
843 0 66.1877 13.1444 870 102.851 1240.82 497.501
844 0 68.1611 14.2457 971 101.048 1240.74 495.032
845 0 68.2819 11.6576 796 106.516 1240.8 497.313
846 0 72.1765 13.8965 1003 101.973 1240.73 493.22
847 0 75.183 12.9285 972 103.727 1240.89 494.579
848 0 79.1288 13.6613 1081 102.442 1240.44 491.687
849 0 79.1799 12.0106 951 107.038 1240.14 489.2
850 0 85.2027 13.4151 1143 102.59 1240.93 487.056
851 0 85.2478 13.537 1154 103.527 1239.94 485.71
852 0 91.2443 13.5351 1235 104.055 1240.59 484.091
853 0 92.2586 13.3971 1236 104.862 1240.62 481.781
854 1 50.1207 12.6295 633 99.2607 1241.71 504.444
855 0 49.3202 12.8142 632 102.187 1241.35 500.997
856 0 53.1842 13.3498 710 98.3296 1241.54 503.332
857 0 57.03 13.2036 753 97.6162 1241.21 502.467
858 0 57.1799 12.8367 734 99.9877 1241.47 501.775
859 0 59.0887 14.0298 829 98.1737 1241.16 500.466
860 0 60.1357 13.9185 837 100.162 1240.94 498.164
861 0 62.1726 13.3338 829 101.608 1240.96 497.797
862 0 65.2105 13.6634 891 103.16 1241.34 495.854
863 0 66.1974 14.2302 942 102.199 1241.12 493.953
864 0 70.0988 13.752 964 102.925 1241.72 496.179
865 0 70.0985 13.0959 918 107.488 1241.57 493.81
866 0 73.1508 13.356 977 108.406 1241.55 493.816
867 0 76.2772 13.5558 1034 106.981 1242.29 492.232
868 0 78.1155 13.7617 1075 107.598 1242.18 489.747
869 0 82.1373 13.5383 1112 107.111 1242.43 489.18
870 0 85.2203 14.0577 1198 106.566 1242.13 487.966
871 0 85.2103 12.9679 1105 111.356 1242.08 486.147
872 0 90.0646 13.7124 1235 112.083 1241.87 484.018
873 1 46.1645 11.0691 511 118.632 1242.66 505.272
874 0 47.065 11.1548 525 111.522 1241.94 502.417
875 0 45.1001 10.0443 453 111.565 1241.51 495.252
876 0 49.3366 10.925 539 101.772 1240.3 500.996
877 0 51.1254 11.7163 599 99.7095 1240.17 499.947
878 0 51.2711 10.0837 517 102.429 1240.62 500.422
879 0 54.123 11.6586 631 100.685 1240.03 497.837
880 0 55.1819 10.2751 567 103.677 1240 495.713
881 0 55.313 11.6971 647 102.493 1240.97 494.821
882 0 59.2975 11.5351 684 100.846 1240.58 494.925
883 0 59.4046 10.8746 646 102.834 1240.46 493.864
884 0 62.2698 12.5743 783 98.9732 1240.36 491.88
885 0 66.2918 12.3695 820 98.2549 1240.99 491.75
886 0 66.244 11.5633 766 101.322 1240.77 491.014
887 0 70.1183 10.9672 769 102.359 1241.68 489.984
888 0 70.1993 10.3562 727 104.53 1241.45 489.242
889 0 77.1692 13.2047 1019 96.9617 1240.55 489.229
890 0 77.1801 10.7411 829 100.277 1240.6 486.374
891 0 82.2129 11.9081 979 98.2268 1241.46 486.642
892 0 84.1573 11.4547 964 99.4969 1240.75 484.095
893 0 86.1793 12.4508 1073 98.4194 1241 481.608
894 1 46.0946 10.1747 469 95.0405 1242.45 503.337
895 0 48.0462 11.5722 556 97.563 1243.09 503.576
896 0 49.2971 12.09 596 95.807 1241.05 503.587
897 0 51.1251 13.0269 666 94.7853 1242.35 502.296
898 0 52.1369 12.0069 626 96.7971 1243.07 502.072
899 0 55.3742 12.5871 697 94.911 1241.98 500.758
900 0 57.095 12.8558 734 94.4959 1242.24 501.354
901 0 56.2899 12.0093 676 97.3373 1242.16 500.377
902 0 58.1894 13.0264 758 95.3048 1241.74 499.652
903 0 61.2098 12.3346 755 96.7828 1241.38 497.515
904 0 62.2306 12.5983 784 97.1722 1241.21 495.73
905 0 64.3027 12.5034 804 96.0224 1241.85 497.213
906 0 67.1744 12.7727 858 95.3194 1241.03 496.138
907 0 69.2085 13.5822 940 94.4638 1241.26 495.442
908 0 72.2699 13.3804 967 95.4819 1241.14 491.372
909 0 75.2119 13.0963 985 96.9959 1241.38 490.632
910 0 79.2423 14.4367 1144 92.4388 1241.82 490.873
911 0 80.1692 13.8582 1111 94.1863 1241.47 490.804
912 0 83.1606 13.4198 1116 96.9068 1240.87 487.39
913 0 85.22 14.398 1227 95.6006 1241.04 485.464
914 0 88.3106 14.3018 1263 98.1457 1241.33 484.94
915 0 91.3114 12.5724 1148 100.666 1241.24 483.333
916 0 93.372 13.141 1227 100.937 1241.22 480.117
917 0 97.1952 14.0748 1368 98.712 1241.45 480.176
918 0 99.1432 13.5763 1346 101.574 1240.98 478.105
919 0 104.306 14.5053 1513 99.0879 1240.65 478.065
920 0 106.34 14.3689 1528 100.267 1241.4 475.511
921 0 108.548 14.132 1534 101.701 1240.94 473.917
922 0 112.234 13.3828 1502 102.714 1241.09 475.612
923 0 115.253 13.6308 1571 103.995 1240.64 470.208
924 0 120.224 13.5497 1629 102.913 1241.27 470.117
925 0 124.311 14.4235 1793 102.006 1241.47 466.444
926 0 127.288 13.2456 1686 105.393 1241.2 464.435
927 0 132.368 13.7419 1819 104.443 1240.56 466.288
928 0 136.554 15.9278 2175 100.85 1241.11 461.338
929 0 141.394 15.623 2209 100.431 1241.44 455.244
930 0 147.322 15.0079 2211 101.801 1241.08 453.207
931 0 150.353 14.2797 2147 104.259 1241.53 453.047
932 0 155.38 14.1717 2202 105.204 1241.03 451.109
933 0 161.312 14.3139 2309 104.928 1241.5 448.435
934 0 167.389 14.756 2470 104.357 1241.28 443.828
935 0 173.473 14.8035 2568 104.204 1241.52 441.895
936 0 178.482 15.9176 2841 102.212 1241.83 437.414
937 0 185.521 14.3164 2656 106.123 1241.48 434.606
938 0 189.437 14.7542 2795 106.242 1240.71 432.192
939 0 196.381 15.2713 2999 105.14 1241.2 428.197
940 0 203.44 16.2898 3314 102.519 1241.43 428.214
941 1 146.38 12.2558 1794 105.619 1241.01 459.581
942 0 151.498 11.5447 1749 108.328 1241.35 456.935
943 0 156.283 13.0084 2033 108.02 1240.78 449.713
944 0 162.383 13.579 2205 108.273 1241.17 443.498
945 0 168.612 14.732 2484 105.825 1241.08 440.476
946 0 173.4 13.6217 2362 107.204 1241.29 439.591
947 0 181.338 13.9629 2532 106.749 1241.33 436.141
948 0 187.653 13.5996 2552 107.877 1241.73 432.433
949 0 192.543 13.7268 2643 107.417 1241.22 429.957
950 0 200.581 13.7052 2749 108.029 1241.1 428.39
951 0 206.715 13.3856 2767 109.014 1240.77 425.93
952 0 216.598 14.6585 3175 107.923 1240.25 422.126
953 1 160.364 12.1661 1951 107.624 1239.74 451.833
954 0 166.517 14.0346 2337 105.288 1239.91 441.939
955 0 171.613 13.3323 2288 107.555 1240.09 438.786
956 0 177.463 12.5547 2228 109.36 1239.96 436.419
957 0 181.628 12.944 2351 109.226 1240.91 434.04
958 0 188.532 13.3664 2520 109.27 1240.51 431.982
959 0 195.546 14.8098 2896 107.184 1240.23 423.343
960 0 201.406 14.4434 2909 109.263 1240.21 420.207
961 0 208.475 13.9777 2914 110.307 1240.18 419.205
962 0 215.53 13.9378 3004 110.807 1241.24 412.947
963 0 219.541 13.4599 2955 111.655 1241.42 412.003
964 0 227.694 13.5665 3089 110.521 1240.75 407.777
965 0 237.722 15.1353 3598 107.45 1240.28 399.99
966 1 62.206 11.4298 711 101.006 1240.83 487.447
967 0 63.0531 12.0851 762 100.53 1242.73 491.236
968 0 67.3114 12.2713 826 96.0847 1241.79 497.507
969 0 68.1667 11.7506 801 98.4906 1241.4 493.72
970 0 71.4578 12.3989 886 97.5971 1241.36 492.751
971 0 71.4848 12.0165 859 99.6088 1240.63 491.712
972 0 78.2554 12.1525 951 92.1178 1240.96 489.747
973 0 79.3438 11.6077 921 92.7568 1240.8 491.546
974 0 82.3838 11.495 947 94.1901 1240.64 488.162
975 0 83.2103 11.1765 930 96.2989 1240.71 485.543
976 0 86.2882 10.8242 934 97.3383 1241.27 486.534
977 0 90.2266 12.7346 1149 93.5796 1241.01 485.251
978 1 48.0592 12.1101 582 95.2406 1242.39 502.215
979 0 50.1212 11.3724 570 100.3 1242.52 503.691
980 0 48.0598 11.5481 555 97.2324 1242.51 503.659
981 0 50.0614 11.0264 552 99.6775 1241.83 503.478
982 0 52.103 11.2853 588 98.8878 1242.27 502.992
983 0 52.103 11.2086 584 136.043 1242.24 503.017
984 0 54.1329 11.9521 647 99.3385 1242.53 500.179
985 0 56.312 12.6794 714 97.3235 1242.23 498.85
986 0 59.2632 12.2167 724 97.6796 1242.37 498.561
987 0 61.2005 14.1502 866 94.4261 1242.68 498.425
988 0 61.2034 12.9078 790 98.9633 1242.77 498.148
989 0 65.1781 14.0231 914 95.581 1242.22 497.625
990 0 66.2297 11.8376 784 100.987 1242.19 497.806
991 0 67.1228 13.1699 884 100.498 1242.71 494.725
992 0 69.2055 14.0451 972 99.0134 1242.28 494.029
993 0 73.2016 13.7702 1008 98.6875 1242.82 493.146
994 0 75.1882 14.3906 1082 98.8115 1241.95 492.049
995 0 78.245 13.6111 1065 100.382 1241.31 491.713
996 0 81.255 13.5745 1103 101.137 1242.51 488.469
997 0 84.2073 13.4193 1130 102.395 1242.7 486.232
998 1 46.0147 12.496 575 102.925 1242.84 506.769
999 0 47.0672 13.1727 620 103.334 1243.4 504.858
1000 0 47.0453 12.9662 610 107.297 1240.45 504.961
1001 0 46.048 13.2036 608 101.339 1241.96 506.553
1002 0 49.1077 12.7068 624 101.527 1243.01 504.364
1003 0 47.0191 12.0802 568 105.903 1241.69 504.91
1004 0 52.176 12.9945 678 102.096 1242.87 503.711
1005 0 52.1331 13.6574 712 102.454 1242.19 501.664
1006 0 53.2622 13.5556 722 103.025 1242.19 503.252
1007 0 55.2 14.7101 812 101.528 1241.96 502.236
1008 0 53.1431 13.1908 701 107.837 1242.26 499.663
1009 0 54.1312 12.7653 691 108.993 1242.49 501.651
1010 0 57.1541 14.1197 807 106.648 1242.01 499.351
1011 0 60.2775 14.3835 867 105.232 1242.27 499.247
1012 0 61.1179 14.333 876 106.057 1242.49 496.868
1013 0 62.129 13.3754 831 109.998 1242.12 496.505
1014 0 65.0606 15.1858 988 105.012 1241.39 495.539
1015 0 69.1606 15.7026 1086 102.894 1242.01 494.821
1016 0 68.1042 13.1269 894 110.974 1241.51 495.003
1017 0 72.1776 13.924 1005 109.805 1241.99 492.513
1018 0 72.1748 13.495 974 112.544 1242.22 490.881
1019 0 76.1712 14.8087 1128 108.88 1241.6 492.34
1020 0 77.1993 14.6633 1132 112.659 1242.35 488.739
1021 0 80.1079 15.2794 1224 111.271 1241.32 487.538
1022 0 83.1465 14.5646 1211 112.667 1242.18 484.964
1023 0 87.1964 16.1704 1410 108.324 1241.63 482.802
1024 0 90.1088 15.1151 1362 112.052 1241.28 482.991
1025 0 93.1445 15.4921 1443 111.833 1241.92 479.658
1026 1 49.1228 11.3593 558 114.043 1242.14 500.754
1027 0 49.1194 11.6451 572 103.306 1240.95 501.208
1028 0 50.2612 12.6937 638 99.2132 1240.44 498.431
1029 0 50.2473 11.3439 570 103.349 1241 496.446
1030 0 54.1918 13.0278 706 99.8244 1241.05 498.18
1031 0 54.1633 12.2961 666 101.254 1241.37 498.512
1032 0 56.2983 12.0963 681 103.189 1241.2 496.834
1033 0 57.1059 12.3105 703 105.068 1242.24 495.014
1034 0 59.1759 12.9783 768 103.634 1241.86 494.884
1035 0 61.2202 13.819 846 102.008 1241.45 493.911
1036 0 63.1617 12.8401 811 103.98 1241.17 494.586
1037 0 65.3008 13.3689 873 102.67 1241.48 492.338
1038 0 68.2856 13.8243 944 102.247 1241.7 491.274
1039 0 71.2108 13.6496 972 102.687 1241.22 490.368
1040 0 73.3344 12.7089 932 104.398 1240.85 487.365
1041 0 75.1301 12.5249 941 104.333 1241.18 487.778
1042 0 77.1989 13.8344 1068 102.805 1240.65 485.643
1043 0 78.2202 13.5004 1056 104.959 1240.57 483.342
1044 0 83.1983 13.4979 1123 108.645 1240.13 481.673
1045 0 86.074 12.315 1060 110.625 1240.29 480.285
1046 0 90.2397 12.4668 1125 109.122 1240.36 481.222
1047 0 95.1824 14.0152 1334 105.142 1240.04 478.816
1048 1 48.0817 11.8756 571 98.4729 1240.52 501.205
1049 0 51.1896 12.0728 618 103.063 1239.57 503.235
1050 0 54.108 12.2533 663 102.425 1239.47 501.323
1051 0 54.1637 13.5884 736 101.629 1239.53 500.52
1052 0 55.0864 12.4169 684 104.019 1239.21 501.184
1053 0 59.126 13.4628 796 99.6457 1239.61 500.833
1054 0 59.0963 13.0127 769 100.979 1239.44 499.848
1055 0 62.0765 13.0323 809 99.403 1239.35 498.958
1056 0 62.1439 12.6802 788 98.7805 1239.49 496.786
1057 0 65.0505 13.3127 866 97.7852 1239.32 493.622
1058 0 67.1199 11.7104 786 100.398 1241.73 495.443
1059 0 68.1988 11.8917 811 101.094 1241.79 494.053
1060 0 69.1426 11.4835 794 102.156 1242.1 493.596
1061 0 73.1718 12.8875 943 98.0244 1241.39 493.043
1062 0 75.1075 12.8749 967 99.2771 1240.99 489.367
1063 0 76.2058 11.9545 911 101.227 1241.56 489.911
1064 0 79.2381 11.8125 936 102.348 1241.82 489.355
1065 0 82.1854 11.8999 978 103.868 1241.12 485.408
1066 0 86.2128 12.7475 1099 101.742 1241.14 488.036
1067 0 86.1938 12.6691 1092 103.552 1241.3 484.116
1068 0 90.1986 12.7164 1147 104.275 1241.26 481.901
1069 0 91.1796 11.5048 1049 107.831 1241.02 478.63
1070 0 95.1891 12.0707 1149 107.116 1240.82 479.99
1071 1 52.0581 10.1041 526 102.274 1242.24 503.268
1072 0 53.1125 10.5248 559 103.338 1242.16 500.122
1073 0 57.3021 11.8844 681 100.991 1240.41 497.865
1074 0 56.2948 12.0437 678 100.792 1239.87 495.608
1075 0 59.1535 12.4591 737 99.1995 1241.98 498.361
1076 0 56.1479 12.3958 696 101.644 1241.97 496.898
1077 0 61.0585 11.6282 710 102.515 1241.49 495.67
1078 0 63.3038 12.4163 786 101.344 1241.31 493.365
1079 0 65.1636 12.2614 799 100.049 1241.75 494.392
1080 0 68.1803 11.7189 799 101.877 1241.21 494.075
1081 0 69.2968 13.2185 916 100.388 1242.13 491.759
1082 0 72.2971 13.2509 958 100.134 1241.58 491.731
1083 0 75.1785 12.6499 951 101.963 1241.66 487.83
1084 0 75.1146 12.3411 927 102.324 1241.44 487.625
1085 0 78.158 13.1145 1025 101.023 1241.88 484.965
1086 0 82.155 12.6346 1038 101.701 1241.49 484.714
1087 0 85.2243 12.2618 1045 113.301 1241.25 481.306
1088 0 88.4422 13.1611 1164 111.595 1240.77 481.489
1089 0 91.3431 14.3306 1309 109.666 1240.44 480.202
1090 0 95.2448 14.006 1334 109.601 1240.95 478.639
1091 0 96.3454 12.86 1239 112.717 1241.27 479.771
1092 0 100.324 13.7055 1375 111.665 1240.77 474.074
1093 0 105.392 13.7676 1451 110.833 1240.87 473.015
1094 0 108.412 14.3342 1554 110.084 1240.62 469.763
1095 1 56.5019 12.0527 681 107.128 1240.25 497.388
1096 0 56.5499 12.4138 702 96.5214 1239.46 491.825
1097 0 58.2014 12.8863 750 94.1733 1241.23 496.515
1098 0 60.1915 11.4302 688 96.2747 1242.06 497.179
1099 0 62.2965 11.8466 738 95.7818 1241.93 495.369
1100 0 64.2788 12.7414 819 94.0818 1241.74 494.15
1101 0 68.1914 13.0662 891 92.9966 1241.8 492.854
1102 0 69.215 13.3786 926 92.73 1241.56 492.838
1103 0 70.1848 12.4813 876 95.3459 1241.65 490.515
1104 0 71.2398 11.749 837 96.0693 1241.87 492.967
1105 0 76.2196 12.9363 986 94.4239 1241.57 486.957
1106 0 79.1643 12.2025 966 95.5041 1241.22 489.619
1107 0 82.144 14.012 1151 93.5456 1241.34 484.816
1108 0 86.268 13.8406 1194 93.1893 1241.3 487.893
1109 0 88.1618 14.1331 1246 93.0778 1241.37 485.362
1110 0 89.1304 12.7341 1135 97.3251 1241.32 482.696
1111 0 92.1238 12.6569 1166 97.0729 1241.17 483.313
1112 0 97.1837 14.5601 1415 97.6014 1241.37 481.78
1113 0 99.2363 13.9969 1389 100.025 1241.49 481.95
1114 0 100.293 12.7326 1277 103.911 1241.72 478.831
1115 0 101.195 12.6587 1281 105.877 1242.24 478.562
1116 1 56.0437 11.3126 634 106.894 1242.16 501.15
1117 0 56.1486 13.0903 735 101.532 1241.69 500.976
1118 0 58.0988 11.7903 685 105.739 1242.13 498.707
1119 0 61.3031 13.9308 854 101.398 1241.52 496.998
1120 0 62.3769 12.2321 763 106.54 1241.28 495.397
1121 0 63.2253 13.7761 871 104.421 1241.6 493.37
1122 0 68.3714 13.1049 896 103.881 1241.95 494.266
1123 0 67.4506 13.9658 942 105.034 1241.46 491.218
1124 0 71.4204 12.7134 908 107.841 1241.79 491.874
1125 0 71.3224 13.0674 932 108.694 1242.52 492.648
1126 0 72.3868 11.9773 867 112.43 1242.63 490.866
1127 0 76.3995 13.3901 1023 109.18 1242.76 490.312
1128 0 79.4159 13.5993 1080 109.689 1242.36 487.134
1129 0 80.3526 13.167 1058 112.141 1242.39 487.424
1130 0 85.3283 13.8524 1182 110.386 1242.06 485.431
1131 0 86.2755 13.3062 1148 112.749 1242.03 485.128
1132 0 91.3657 14.2942 1306 109.874 1241.64 481.829
1133 0 92.3839 14.364 1327 109.577 1242.29 481.53
1134 0 94.222 13.6911 1290 107.957 1242.09 478.884
1135 0 98.3062 13.4071 1318 108.782 1241.6 481.087
1136 0 101.185 15.1208 1530 106.518 1240.84 478.951
1137 1 57.1489 12.2837 702 110.957 1243.2 499.142
1138 0 57.1441 12.7572 729 110.564 1242.25 497.678
1139 0 58.2174 12.7797 744 111.247 1242.17 497.292
1140 0 60.0485 11.9736 719 113.321 1243.03 499.523
1141 0 63.0322 12.6285 796 110.804 1243.33 497.089
1142 0 66.0445 12.643 835 110.921 1242.95 496.556
1143 0 65.0607 12.9418 842 111.683 1242.77 495.653
1144 0 68.0235 13.2748 903 111.584 1242.85 493.112
1145 0 69.03 13.5883 938 110.186 1242.52 495.11
1146 0 72.0674 13.9314 1004 110.602 1242.29 491.618
1147 0 75.1725 12.5179 941 112.617 1242.39 493.36
1148 0 77.0594 13.7686 1061 111.634 1241.92 489.976
1149 0 78.1272 13.3244 1041 114.595 1241.89 486.859
1150 0 80.1367 13.2024 1058 115.076 1241.36 487.756
1151 0 84.0966 14.1147 1187 112.683 1241.77 487.07
1152 0 86.0659 14.21 1223 113.159 1241.04 483.834
1153 0 89.2008 13.7779 1229 114.484 1241.75 482.291
1154 0 95.2463 13.8378 1318 113.379 1241.22 483.252
1155 0 95.2038 13.5919 1294 114.82 1241.54 479.617
1156 1 51.0546 11.7913 602 111.884 1242.62 503.714
1157 0 50.1095 11.415 572 107.198 1242.32 502.264
1158 0 54.2521 12.4788 677 105.668 1239.26 500.01
1159 0 56.1504 12.983 729 103.653 1240.74 502.228
1160 0 56.0408 12.1697 682 112.963 1242.12 500.83
1161 0 59.1484 12.9336 765 113.043 1242.29 497.682
1162 0 60.0652 12.6363 759 116.635 1241.62 497.763
1163 0 61.1009 11.9147 728 118.008 1241.88 496.609
1164 0 66.0307 13.3574 882 113.35 1242.23 496.204
1165 0 66.1511 12.6075 834 116.115 1242.15 495.17
1166 0 68.1365 12.6364 861 116.664 1243.06 492.258
1167 0 71.0922 13.8693 986 112.117 1242.36 492.723
1168 0 72.0349 13.0631 941 115.826 1242.63 490.762
1169 0 74.0918 13.2403 981 115.444 1242.12 489.384
1170 0 76.0729 12.7378 969 116.254 1242.29 489.756
1171 0 79.0964 13.3002 1052 115.269 1242.39 487.665
1172 0 82.112 13.8713 1139 112.73 1241.66 487.63
1173 0 86.1387 13.2345 1140 113.132 1241.55 488.573
1174 0 86.25 12.9855 1120 115.911 1241.38 485.171
1175 0 88.3024 13.4991 1192 115.596 1241.32 483.057
1176 0 91.3645 14.2616 1303 112.566 1240.42 483.81
1177 0 92.2674 13.1574 1214 116.617 1240.81 479.675
1178 0 96.2684 13.1404 1265 116.591 1240.29 478.892
1179 0 99.2846 12.4591 1237 118.152 1240.9 478.188
1180 1 52.0587 10.8723 566 115.733 1242.34 501.837
1181 0 52.2476 12.0006 627 113.061 1240.59 496.026
1182 0 55.2372 12.8174 708 103.199 1239.83 496.377
1183 0 55.0449 13.0076 716 101.494 1239.38 498.73
1184 0 56.0458 11.5263 646 105.738 1238.95 498.602
1185 0 59.0903 12.1001 715 105.021 1239.42 495.373
1186 0 62.1378 12.3757 769 103.341 1239.42 496.787
1187 0 63.2535 12.1732 770 106.071 1240.2 492.978
1188 0 65.2316 13.3064 868 104.604 1239.74 491.548
1189 0 69.2356 13.9379 965 102.007 1239.75 492.994
1190 0 71.2323 13.2805 946 105.178 1239.54 490.299
1191 0 73.1625 13.3812 979 104.048 1240.07 490.352
1192 0 76.2572 12.6021 961 105.235 1240.1 489.392
1193 0 79.2982 12.6106 1000 106.292 1240.18 487.621
1194 0 82.1367 13.1975 1084 104.815 1240.39 486.896
1195 0 83.2136 13.0748 1088 112.152 1239.94 486.515
1196 0 87.2453 14.3847 1255 110.197 1239.4 484.855
1197 0 88.1842 13.2677 1170 113.869 1239.83 483.432
1198 0 92.4385 13.2196 1222 113.981 1239.17 483.029
1199 0 94.3217 13.4009 1264 114.946 1238.86 481.258
1200 0 98.4481 13.9667 1375 115.204 1238.94 479.548
1201 0 101.341 12.374 1254 124.97 1239.4 478.23
1202 0 103.223 12.9719 1339 124.743 1239.69 476.198
1203 0 110.384 11.5959 1280 113.623 1240.44 474.452
1204 0 112.589 10.5073 1183 119.201 1240.64 467.586
1205 0 115.57 12.0014 1387 119.632 1239.58 473.37
1206 0 118.531 14.1145 1673 116.766 1239.84 469.209
1207 0 127.747 13.0962 1673 118.345 1240.08 470.097
1208 0 125.444 12.6989 1593 122.263 1240.08 465.648
1209 0 126.364 13.1445 1661 117.613 1240.2 467.17
1210 1 70.172 13.3102 934 114.529 1238.35 493.031
1211 0 69.3409 12.0564 836 117.568 1238.59 494.287
1212 0 74.3471 13.1142 975 113.741 1239.14 492.208
1213 0 76.2816 13.0176 993 114.153 1239.2 490.614
1214 0 77.3459 12.7221 984 114.506 1239.76 489.662
1215 0 80.4583 12.3542 994 115.028 1239.77 488.669
1216 0 83.3763 12.6655 1056 113.844 1239.91 486.67
1217 0 85.4636 12.087 1033 114.851 1239.62 484.274
1218 0 89.3488 13.1283 1173 111.278 1239.87 482.879
1219 0 93.4232 13.1124 1225 112.696 1239.71 482.008
1220 0 97.5823 13.4963 1317 111.905 1239.4 480.754
1221 0 98.5313 12.7269 1254 114.151 1240.12 477.189
1222 0 102.116 11.9374 1219 107.706 1240.27 476.748
1223 1 54.1128 10.0716 545 102.791 1237.83 502.939
1224 0 58.0829 12.706 738 104.497 1237.96 497.43
1225 0 58.1337 11.1467 648 115.347 1238.62 498.881
1226 0 60.2858 12.59 759 107.933 1238.81 500.671
1227 0 60.1466 11.2226 675 113.046 1238.72 498.773
1228 0 62.0724 12.1954 757 111.851 1238.81 497.729
1229 0 66.1595 12.8024 847 107.842 1239.03 495.826
1230 0 69.2986 13.7521 953 103.784 1238.79 497.366
1231 0 72.22 13.4312 970 105.643 1238.34 493.631
1232 0 74.1319 12.7206 943 106.954 1238.08 493.17
1233 0 77.1606 12.8952 995 109.893 1237.9 490.597
1234 0 80.1921 13.343 1070 110.587 1238.48 488.977
1235 0 80.3191 13.0604 1049 112.499 1237.96 488.4
1236 0 83.1807 13.8373 1151 111.188 1238.41 484.682
1237 0 88.1273 13.7528 1212 110.524 1238.07 486.75
1238 1 45.1271 12.4316 561 111.321 1238.18 505.649
1239 0 46.3743 12.3129 571 109.11 1238.99 506.862
1240 0 49.0397 12.2758 602 111.563 1237.6 505.502
1241 0 50.1477 11.9846 601 111.396 1237.77 504.632
1242 0 51.0737 13.1966 674 109.632 1237.89 503.993
1243 0 53.1422 14.0002 744 107.32 1238.09 502.316
1244 0 52.0563 12.3904 645 114.662 1236.9 501.454
1245 0 55.0666 12.6937 699 111.993 1237.37 502.755
1246 0 55.0864 12.1264 668 114.281 1237.5 502.551
1247 0 58.0271 12.5459 728 113.264 1237.18 500.644
1248 0 59.1379 12.3779 732 114.061 1237.53 498.99
1249 0 63.1154 13.8477 874 108.842 1238.17 497.698
1250 0 60.0313 12.6268 758 114.149 1237.77 497.298
1251 0 66.3546 14.1814 941 107.412 1237.71 495.338
1252 0 65.2048 13.4346 876 111.479 1238.02 494.672
1253 0 68.3732 13.1631 900 109.443 1238.11 493.857
1254 0 70.2773 13.2617 932 109.725 1238.27 492.323
1255 0 73.2262 12.2634 898 110.878 1238.41 491.532
1256 0 76.2935 13.9068 1061 107.18 1238.71 488.814
1257 0 78.3686 13.4237 1052 108.064 1238.21 488.006
1258 0 81.2548 13.4515 1093 106.648 1237.57 487.573
1259 0 85.3365 14.3081 1221 105.404 1238.23 485.523
1260 0 86.2479 13.4496 1160 107.336 1237.92 485.822
1261 0 90.3819 13.4983 1220 106.816 1238.1 482.657
1262 0 93.3251 15.0656 1406 103.333 1238.72 481.402
1263 0 97.3259 13.7682 1340 106.583 1238.17 480.829
1264 0 98.5978 13.4689 1328 107.922 1238.82 476.845
1265 0 101.401 12.6725 1285 109.404 1238.46 478.703
1266 1 57.2972 12.2345 701 106.971 1238.71 498.369
1267 0 60.4963 12.7942 774 106.233 1239.66 494.88
1268 0 60.0555 12.4552 748 107.715 1237.74 496.61
1269 0 62.0317 12.7838 793 107.275 1237.96 495.808
1270 0 65.072 13.5235 880 103.708 1237.34 497.589
1271 0 66.0583 11.5353 762 109.085 1237.55 494.534
1272 0 68.135 11.7267 799 108.272 1237.8 493.916
1273 0 71.065 13.157 935 105.683 1238.53 491.434
1274 0 72.1004 12.4965 901 107.024 1237.92 491.301
1275 0 77.1604 13.1803 1017 104.361 1238.19 490.577
1276 0 78.1524 11.9126 931 108.477 1237.68 489.86
1277 0 82.0833 12.9503 1063 106.096 1237.81 487.198
1278 0 83.114 14.2936 1188 103.353 1238.06 485.87
1279 0 87.1053 13.8683 1208 104.268 1237.98 484.824
1280 0 88.1491 13.9196 1227 104.986 1237.77 484.613
1281 0 91.1425 13.2869 1211 107.086 1237.68 481.185
1282 0 95.1788 12.6079 1200 108.593 1238.04 481.721
1283 0 100.148 13.9094 1393 105.913 1237.78 478.356
1284 0 101.133 13.2005 1335 107.741 1237.82 479.087
1285 0 104.201 12.7638 1330 109.9 1237.97 475.025
1286 0 107.179 12.9689 1390 107.74 1238.09 475.608
1287 1 55.171 11.8541 654 107.488 1239.1 499.963
1288 0 56.2111 11.3323 637 96.3626 1240.46 493.799
1289 0 57.3068 9.99881 573 96.7714 1239.45 493.857
1290 0 59.1918 12.0625 714 93.7941 1239.28 493.133
1291 0 59.2922 10.541 625 96.8784 1240.93 494.632
1292 0 64.2088 11.1511 716 94.2919 1239.74 493.56
1293 0 67.238 11.7047 787 95.3736 1239.27 489.986
1294 0 67.2791 11.3111 761 99.1892 1239.28 488.777
1295 0 68.2508 10.5347 719 101.843 1239.47 488.049
1296 0 69.3019 11.082 768 101.143 1239.34 486.072
1297 0 73.2746 12.2143 895 98.3832 1239.81 485.629
1298 0 77.3463 12.4246 961 97.5369 1239.73 484.995
1299 0 78.2335 12.1687 952 100.07 1240.01 483.33
1300 0 81.2761 12.4514 1012 100.541 1240.19 484.191
1301 0 83.2778 12.4283 1035 100.033 1240.41 484.872
1302 0 87.2394 11.9212 1040 101.913 1240.15 482.505
1303 0 88.2505 12.2039 1077 104.569 1240.12 485.186
1304 0 93.2618 14.3038 1334 100.035 1240.81 482.734
1305 0 96.2075 13.2526 1275 104.419 1241.01 481.389
1306 0 96.3085 12.543 1208 108.096 1240.29 479.731
1307 0 102.32 13.5359 1385 105.11 1239.7 479.359
1308 0 104.419 14.643 1529 103.175 1239.67 479.402
1309 0 108.369 13.6293 1477 105.904 1238.62 473.997
1310 0 112.427 12.586 1415 108.746 1239.27 472.607
1311 0 114.424 12.6023 1442 108.363 1239.06 474.242
1312 0 117.441 13.7175 1611 107.032 1239.08 466.549
1313 1 62.1232 12.942 804 108.425 1238.43 494.499
1314 0 62.0941 12.7709 793 108.707 1238.45 494.985
1315 0 64.1662 13.3715 858 107.232 1238.9 493.166
1316 0 65.2287 12.0959 789 109.19 1238.99 492.371
1317 0 68.2628 13.5799 927 105.65 1239.05 491.056
1318 0 73.204 14.8626 1088 104.568 1239.05 492.948
1319 0 75.1396 13.5614 1019 108.941 1238.74 491.502
1320 0 74.1061 13.4267 995 110.63 1238.99 491.455
1321 0 78.3001 13.6782 1071 110.669 1238.56 489.636
1322 0 80.2654 14.9255 1198 108.616 1238.46 487.888
1323 0 83.2648 13.4631 1121 112.517 1238.9 488.23
1324 0 86.3881 14.1339 1221 110.413 1238.91 488.566
1325 0 89.4147 15.1765 1357 109.71 1239.05 483.234
1326 0 93.2868 13.8176 1289 113.435 1238.95 479.713
1327 0 94.4919 13.2075 1248 116.828 1238.5 481.793
1328 0 98.3693 14.9335 1469 112.453 1238.32 479.879
1329 1 51.4385 11.2367 578 115.085 1238.91 502.893
1330 0 53.2265 11.498 612 104.387 1239.07 496.81
1331 0 54.3124 11.5075 625 104.779 1239.41 496.005
1332 0 54.1551 12.7412 690 100.451 1240.49 496.646
1333 0 55.1211 11.4112 629 103.973 1240.35 497.461
1334 0 56.079 12.0901 678 102.799 1240.31 496.047
1335 0 60.0878 11.3667 683 103.675 1239.95 494.776
1336 0 62.1177 11.2367 698 103.466 1240.33 495.428
1337 0 64.1322 11.6946 750 102.573 1240.32 495.825
1338 0 64.1166 11.2763 723 103.515 1239.98 492.719
1339 0 68.1548 12.7944 872 101.631 1239.3 490.547
1340 0 70.136 12.6326 886 101.916 1239.9 489.026
1341 0 73.1325 12.5389 917 101.207 1240.16 489.596
1342 0 76.2244 10.2067 778 105.481 1239.8 485.895
1343 0 79.2331 12.987 1029 100.647 1239.89 483.404
1344 0 82.1526 12.1238 996 102.46 1240.29 485.169
1345 0 85.1053 12.2907 1046 103.31 1240.51 482.576
1346 0 89.1713 12.3134 1098 103.736 1239.94 482.767
1347 0 90.1673 11.7892 1063 105.073 1240.52 481.532
1348 0 92.0977 11.4987 1059 106.309 1240.01 478.593
1349 0 97.2311 12.9485 1259 103.688 1240.51 476.084
1350 0 101.093 13.0177 1316 103.303 1240.81 476.577
1351 0 105.198 12.3671 1301 105.012 1240.86 476.929
1352 1 56.035 12.0104 673 102.736 1241.18 501.205
1353 0 57.1137 12.5714 718 100.521 1240.3 498.237
1354 0 60.0757 13.433 807 115.52 1241.52 500.028
1355 0 63.0948 14.2642 900 112.477 1241.79 497.356
1356 0 66.0683 14.3185 946 111.872 1241.47 496.895
1357 0 66.095 12.9511 856 115.773 1241.65 496.468
1358 0 67.1791 14.2604 958 113.115 1241.5 494.902
1359 0 69.1294 13.1493 909 115.889 1241.34 493.089
1360 0 70.1406 12.3609 867 118.74 1241.25 492.352
1361 0 74.1242 13.9091 1031 114.505 1241.38 490.004
1362 0 78.1031 13.7126 1071 112.829 1240.88 490.962
1363 0 78.1828 14.0696 1100 113.849 1240.48 487.87
1364 0 83.0842 13.384 1112 114.139 1240.71 488.42
1365 0 85.1132 13.5467 1153 114.24 1240.63 485.784
1366 0 90.1259 13.459 1213 112.289 1241.2 484.314
1367 0 92.1746 14.3206 1320 111.765 1240.93 482.734
1368 1 45.0931 13.3945 604 113.28 1241.25 504.442
1369 0 48.2895 13.1498 635 113.37 1240.77 503.874
1370 0 48.1948 11.744 566 109.723 1239.07 498.68
1371 0 49.1934 12.522 616 103.901 1239.49 499.435
1372 0 50.2269 12.1847 612 105.887 1239.4 498.418
1373 0 53.2262 12.7005 676 105.753 1239.83 496.351
1374 0 53.1426 12.5135 665 107.289 1239.95 497.529
1375 0 55.3078 14.2476 788 107.984 1239.95 499.197
1376 0 57.2396 12.9106 739 110.027 1239.72 498.735
1377 0 58.1235 14.0047 814 108.084 1239.92 495.791
1378 0 62.1945 12.8307 798 109.143 1239.66 494.694
1379 0 63.1723 12.5846 795 108.694 1239.49 495.507
1380 0 67.3654 13.0185 877 108.635 1239.92 492.942
1381 0 68.1652 13.9514 951 107.473 1239.8 489.278
1382 0 71.2086 14.7735 1052 105.901 1239.51 488.533
1383 0 74.2368 14.2247 1056 107.437 1238.73 486.696
1384 0 75.3789 14.3276 1080 107.592 1238.97 485.344
1385 0 80.3293 13.6065 1093 107.953 1238.84 484.909
1386 0 79.2431 13.528 1072 109.271 1239.86 483.113
1387 0 86.4567 14.782 1278 105.513 1239.3 479.817
1388 0 89.3593 15.3985 1376 103.741 1239.63 478.254
1389 0 92.3443 15.1931 1403 105.012 1239.38 477.301
1390 1 44.3105 13.4505 596 109.289 1239.62 499.997
1391 0 45.3323 12.64 573 109.705 1240.14 501.349
1392 0 47.1414 14.6792 692 105.377 1239 497.789
1393 0 50.0717 14.0798 705 106.245 1239.12 498.288
1394 0 48.0701 13.5843 653 109.746 1239 497.591
1395 0 52.1067 14.144 737 106.585 1238.94 497.415
1396 0 53.203 14.3037 761 107.152 1238.77 495.929
1397 0 54.121 14.7447 798 106.724 1238.92 495.465
1398 0 58.1455 16.046 933 102.105 1238.1 494.86
1399 0 59.4004 14.6632 871 106.045 1238.78 493.317
1400 0 60.266 14.3365 864 107.484 1238.66 491.777
1401 0 61.2048 14.4433 884 108.049 1239.31 489.415
1402 0 64.3604 14.9471 962 106.231 1238.56 489.358
1403 0 64.1404 14.5462 933 108.607 1238.63 487.727
1404 0 69.3892 14.6276 1015 107.893 1238.23 486.459
1405 0 70.2401 15.0626 1058 107.974 1238.28 484.957
1406 0 71.1691 13.7981 982 111.443 1238.29 482.609
1407 0 74.2021 15.4174 1144 107.399 1237.95 482.91
1408 0 77.3035 14.6953 1136 108.423 1238.17 482.942
1409 0 80.3897 14.4795 1164 109.202 1238.2 482.256
1410 0 82.2907 15.0321 1237 109.22 1237.75 479.443
1411 0 85.3076 14.9811 1278 109.667 1237.84 477.56
1412 0 86.339 15.0685 1301 110.399 1238.37 474.186
1413 0 91.1978 13.7394 1253 112.268 1238.34 475.46
1414 1 48.094 12.3092 592 113.453 1237.59 494.557
1415 0 50.0986 13.8926 696 109.802 1238.18 492.984
1416 0 51.1265 14.1218 722 109.069 1238.02 492.747
1417 0 53.3041 13.5449 722 110.616 1237.68 491.783
1418 0 52.1879 13.4706 703 113.145 1238 489.67
1419 0 57.2085 13.7917 789 110.252 1237.81 488.374
1420 0 59.1718 13.5537 802 111.698 1237.96 486.83
1421 0 60.1979 13.655 822 112.339 1237.75 484.596
1422 0 62.244 13.1097 816 114.717 1238.12 484.737
1423 0 64.181 14.0384 901 113.741 1238.35 482.688
1424 0 68.1102 14.7702 1006 110.149 1238.52 483.983
1425 0 70.3634 14.6383 1030 111.521 1238.3 482.866
1426 0 71.2189 13.0724 931 116.712 1238.67 483.621
1427 0 75.2979 14.4094 1085 113.322 1238.86 483.202
1428 0 77.1127 14.4723 1116 115.014 1239.78 479.798
1429 0 79.3516 12.9802 1030 118.308 1238.78 479.298
1430 0 81.1911 14.8046 1202 115.751 1238.94 477.344
1431 0 84.1777 13.4715 1134 117.787 1238.77 478.654
1432 0 86.2577 13.1467 1134 120.73 1239.06 474.33
1433 0 91.15 14.3061 1304 118.469 1238.41 474.126
1434 0 91.2992 14.3375 1309 119.756 1238.06 472.949
1435 0 96.2108 15.2582 1468 117.845 1238.97 472.004
1436 0 100.228 14.0979 1413 120.975 1238.47 469.662
1437 0 102.247 14.2693 1459 121.772 1238.3 468.089
1438 0 107.409 14.4308 1550 120.585 1238.17 467.074
1439 0 110.379 14.2419 1572 120.277 1238.17 467.266
1440 0 113.567 13.71 1557 122.827 1238.55 464.25
1441 0 119.523 14.6917 1756 120.149 1238.42 461.03
1442 0 122.58 13.7461 1685 123.425 1238.96 458.031
1443 0 126.486 13.6221 1723 124.53 1239.22 455.641
1444 0 133.599 14.9327 1995 121.895 1239.08 454.27
1445 0 137.568 14.6618 2017 123.538 1239.49 452.754
1446 1 82.2292 10.3613 852 120.507 1239.72 484.648
1447 0 87.2499 12.0229 1049 119.804 1239.55 482.576
1448 0 88.2605 11.4207 1008 122.785 1239.63 478.922
1449 0 92.1075 12.4528 1147 118.451 1241.28 476.129
1450 0 93.2425 11.9473 1114 119.935 1239.73 477.085
1451 0 98.2366 12.8058 1258 116.274 1240.12 476.121
1452 0 101.353 12.639 1281 116.03 1239.7 472.218
1453 0 104.167 11.6832 1217 115.936 1240.54 471.443
1454 0 108.218 11.8002 1277 114.511 1239.66 468.419
1455 0 111.319 12.5136 1393 111.919 1239.46 466.635
1456 0 116.242 11.4674 1333 112.914 1240.22 466.383
1457 0 121.342 11.2657 1367 113.425 1239.89 462.036
1458 0 126.433 11.3261 1432 111.258 1240.3 463.684
1459 0 130.437 12.4505 1624 109.83 1240.24 459.73
1460 1 71.1261 9.60267 683 101.837 1239.47 492.518
1461 0 75.3808 10.2546 773 100.806 1239.46 490.517
1462 0 77.3689 11.4258 884 99.3937 1239.81 487.187
1463 0 79.2605 11.3424 899 99.8042 1240.1 485.62
1464 0 81.2739 10.1632 826 102.031 1239.72 484.455
1465 0 85.2532 9.71225 828 101.99 1239.57 481.569
1466 0 86.2928 10.221 882 100.712 1239.68 485.392
1467 0 92.2497 11.4906 1060 99.6981 1239.52 479.095
1468 0 93.1127 9.37574 873 103.089 1240.27 479.032
1469 0 96.2563 9.1007 876 102.565 1240.04 479.096
1470 0 100.369 8.91709 895 103.798 1240.29 476.057
1471 0 105.415 9.89419 1043 103.05 1240.36 473.771
1472 0 108.297 9.42779 1021 104.776 1240.51 468.115
1473 0 113.584 11.0755 1258 101.41 1240.19 469.466
1474 0 116.749 10.9552 1279 102.803 1239.73 464.871
1475 0 119.508 10.4428 1248 103.589 1239.62 465.986
1476 0 125.662 9.76429 1227 102.542 1239.59 465.874
1477 0 129.676 9.6548 1252 104.531 1239.84 460.354
1478 0 135.624 9.17978 1245 103.186 1239.75 460.302
1479 0 140.701 10.1634 1430 102.875 1239.53 450.012
1480 0 146.486 11.2912 1654 101.862 1240.05 450.701
1481 0 152.594 12.3006 1877 99.3372 1240.07 452.397
1482 1 81.4778 9.65907 787 101.975 1240.91 482.3
1483 0 84.711 11.3681 963 99.7487 1240.85 480.911
1484 0 88.6802 12.5507 1113 97.2785 1240.92 481.058
1485 0 92.5146 12.2683 1135 101.374 1240.91 482.384
1486 0 93.5621 12.0027 1123 103.778 1240.71 481.578
1487 0 94.4288 12.4327 1174 106.465 1240.4 479.617
1488 0 97.5631 11.695 1141 109.699 1239.31 472.55
1489 0 103.877 13.9877 1453 103.084 1239.53 473.895
1490 0 104.919 12.4286 1304 108.285 1239.42 470.071
1491 0 109.487 13.0883 1433 107.101 1239.42 471.731
1492 0 111.702 13.6077 1520 107.855 1239.13 465.208
1493 1 57.6575 11.8111 681 103.612 1239.17 494.49
1494 0 59.2457 11.6802 692 104.198 1240.44 499.512
1495 0 62.3138 12.5975 785 104.228 1240.25 497.651
1496 0 63.4364 12.217 775 106.902 1239.8 494.68
1497 0 63.4449 10.6234 674 113.338 1240.27 494.387
1498 0 67.448 12.2761 828 108.399 1240.75 493.938
1499 0 69.4917 12.1741 846 110.647 1240.06 490.273
1500 0 71.5188 11.885 850 111.014 1240.59 491.038
1501 0 72.3846 11.2593 815 112.945 1240.45 491.775
1502 0 74.4295 12.5757 936 111.049 1240.48 488.337
1503 0 76.5767 11.557 885 113.61 1239.62 486.772
1504 0 79.6639 12.603 1004 104.653 1240.1 485.764
1505 0 80.5058 11.8749 956 108.156 1240.52 484.101
1506 0 81.5139 13.0039 1060 107.02 1240.09 484.324
1507 0 80.5486 11.9555 963 112.977 1240.72 483.604
1508 0 82.8214 13.0643 1082 112.712 1240.75 480.885
1509 0 85.5122 13.5887 1162 112.796 1240.02 481.281
1510 0 85.8794 13.2861 1141 115.687 1240.27 478.92
1511 0 89.6067 12.7781 1145 114.427 1240.55 478.88
1512 1 49.3346 9.36463 462 109.734 1241.06 500.431
1513 0 50.5331 11.2204 567 104.781 1240.53 501.189
1514 0 52.4673 10.883 571 104.161 1240.01 498.662
1515 0 54.2662 11.72 636 100.849 1241.32 499.821
1516 0 56.3585 12.7931 721 100.749 1238.5 499.1
1517 0 57.1341 12.6894 725 98.8138 1238.71 498.374
1518 0 57.1871 11.8558 678 100.215 1238.19 498.273
1519 0 59.1594 12.8466 760 97.421 1238.08 498.618
1520 0 62.0614 12.3104 764 99.2055 1238.37 495.919
1521 0 60.1789 11.6154 699 101.233 1239.09 499.27
1522 0 63.1811 10.3354 653 104.014 1237.57 496.703
1523 0 66.1582 12.2736 812 100.363 1238.89 496.536
1524 0 67.1777 11.7598 790 103.846 1238.39 493.781
1525 0 69.2362 11.5113 797 104.094 1238.92 494.378
1526 0 71.2294 10.5013 748 105.844 1238.86 489.152
1527 0 73.3316 11.1821 820 107.557 1238.65 488.605
1528 0 74.2206 11.3176 840 108.533 1238.22 488.512
1529 1 41.0782 9.59145 394 108.553 1237.95 506.629
1530 0 42.2083 10.922 461 108.469 1237.53 504.119
1531 0 45.2155 12.2745 555 105.396 1237.86 503.216
1532 0 46.2458 11.4389 529 108.611 1238.4 504.783
1533 0 47.0426 11.734 552 109.101 1238.17 504.522
1534 0 45.0584 12.5837 567 117.007 1238.01 504.018
1535 0 50.1188 12.5502 629 109.949 1237.58 502.817
1536 0 52.0781 11.4444 596 111.755 1237.72 503.44
1537 0 53.0688 13.5296 718 108.166 1238.19 500.882
1538 0 53.068 12.305 653 112.645 1237.79 502.387
1539 0 54.07 11.781 637 114.075 1238.31 501.37
1540 0 56.0547 12.2559 687 114.106 1238.05 499.226
1541 0 59.1239 12.5161 740 113.382 1238.24 499.373
1542 0 59.1461 11.8013 698 116.735 1237.84 501.178
1543 0 61.2453 11.903 729 116.682 1237.68 498.527
1544 0 63.1275 13.3539 843 112.769 1238.38 497.189
1545 0 66.0952 13.299 879 113.661 1238.15 497.53
1546 0 65.1871 12.3951 808 117.473 1237.75 497.682
1547 0 68.1804 12.7456 869 115.593 1238.19 496.896
1548 0 69.2099 13.5241 936 114.63 1237.4 494.875
1549 0 73.1544 13.4783 986 113.696 1237.83 493.996
1550 0 74.3191 13.3075 989 115.595 1237.77 491.714
1551 0 78.2629 13.4035 1049 114.698 1238.12 490.802
1552 0 79.2914 13.1666 1044 115.472 1237.31 489.508
1553 0 84.2503 13.8278 1165 117.038 1238.42 485.506
1554 0 83.3129 11.9789 998 123.94 1237.83 483.728
1555 0 90.3966 13.4961 1220 117.607 1238.21 483.946
1556 1 171.583 13.0783 2244 118.559 1237.32 449.772
1557 1 95.2082 13.9589 1329 117.676 1237.61 479.638
1558 1 52.1195 10.9556 571 114.583 1239.32 503.979
1559 0 54.0916 12.0721 653 114.386 1239.44 499.836
1560 0 55.1221 13.2615 731 118.653 1239.41 498.601
1561 0 57.3085 12.7381 730 112.742 1236.92 499.037
1562 0 59.1996 13.1251 777 112.745 1236.57 497.698
1563 0 62.3078 13.2568 826 110.712 1236.65 496.34
1564 0 64.2615 13.0405 838 110.723 1237.47 496.981
1565 0 66.1698 13.7978 913 108.769 1237.47 495.838
1566 0 66.1147 13.3405 882 110.963 1237.62 494.511
1567 0 68.1265 12.9318 881 111.818 1237.36 492.883
1568 0 71.1785 13.9649 994 109.333 1237.35 492.646
1569 0 74.4025 13.3194 991 109.957 1237.21 489.841
1570 0 77.2102 15.3089 1182 105.036 1237.12 487.814
1571 0 78.2408 13.1773 1031 111.513 1236.35 487.743
1572 0 80.2043 13.4531 1079 111.449 1235.89 485.918
1573 0 82.2534 13.3855 1101 111.877 1236.51 484.717
1574 0 84.1914 13.6 1145 110.846 1236.25 484.072
1575 0 86.1917 13.3075 1147 111.784 1236.27 481.665
1576 0 91.2242 14.1958 1295 109.042 1236.87 479.059
1577 0 93.237 14.919 1391 107.798 1236.39 478.58
1578 0 94.2901 13.257 1250 113.226 1236.11 477.543
1579 0 97.1533 13.8853 1349 111.824 1236.43 476.427
1580 0 99.1543 13.7261 1361 113.065 1235.92 474.18
1581 0 104.222 14.4115 1502 110.768 1236.51 471.703
1582 0 107.118 13.4992 1446 112.355 1236.49 471.528
1583 0 110.289 14.2897 1576 110.056 1236.71 469.728
1584 0 115.267 14.3494 1654 110.208 1235.49 465.634
1585 1 62.0729 11.5832 719 110.088 1235.29 493.253
1586 0 67.1167 12.9774 871 104.854 1235.94 492.041
1587 0 69.045 12.2674 847 106.018 1236.15 490.862
1588 0 71.0887 12.1538 864 115.912 1235.89 489.1
1589 0 74.0183 12.8482 951 115.106 1235.21 487.481
1590 0 77.0938 13.4901 1040 111.149 1235.01 488.058
1591 0 80.1744 12.7971 1026 113.367 1235.16 485.414
1592 0 83.0712 13.4222 1115 111.838 1235.24 483.807
1593 0 84.0526 12.2899 1033 115.085 1235.56 482.569
1594 0 88.0735 13.0573 1150 112.319 1235.78 482.175
1595 0 90.1867 12.1082 1092 108.31 1238.39 481.43
1596 0 93.1975 13.0798 1219 106.28 1238.63 480.322
1597 0 94.2331 11.705 1103 110.348 1237.71 479.834
1598 0 96.1779 11.5099 1107 113.252 1237.63 473.557
1599 0 101.214 13.1306 1329 109.815 1238.16 474.249
1600 0 105.235 12.3153 1296 111.118 1238.77 471.53
1601 0 108.221 12.0124 1300 110.942 1238.23 472.278
1602 1 60.1931 10.9813 661 104.947 1240.24 493.818
1603 0 64.2041 12.2578 787 102.834 1239.46 494.679
1604 0 66.2622 13.4013 888 100.559 1238.99 492.258
1605 0 68.2819 13.5321 924 100.662 1238.76 492.723
1606 0 69.2284 12.7549 883 103.182 1239.16 492.307
1607 0 71.2634 12.1381 865 105.869 1239.88 488.262
1608 0 75.1961 12.9262 972 103.286 1239.22 489.86
1609 0 77.2517 12.6988 981 104.26 1239.2 488.774
1610 0 79.3268 13.7406 1090 102.894 1238.88 486.444
1611 0 81.2797 13.3736 1087 104.172 1238.61 487.284
1612 0 83.254 13.7291 1143 105.834 1239.28 482.369
1613 0 85.2775 13.028 1111 107.64 1238.67 482.222
1614 0 87.2943 12.7729 1115 108.838 1238.32 482.016
1615 0 89.3931 12.6408 1130 110.249 1238.52 479.285
1616 0 93.2693 13.5629 1265 108.749 1237.78 475.909
1617 0 97.2885 14.3594 1397 107.001 1238.9 475.462
1618 0 98.3368 11.9691 1177 113.093 1239.25 476.172
1619 0 102.315 12.7254 1302 111.63 1238.26 474.604
1620 1 57.1084 10.839 619 108.738 1239.87 499.145
1621 0 59.0856 11.6949 691 107.902 1240.62 495.372
1622 0 60.1206 12.6579 761 109.965 1240.3 493.953
1623 0 61.0979 11.3097 691 113.368 1240.35 493.647
1624 0 63.0465 12.7049 801 110.335 1239.66 493.065
1625 0 64.1041 11.2941 724 113.855 1239.09 492.054
1626 0 67.1303 10.9935 738 114.646 1239.19 492.007
1627 0 70.104 13.48 945 107.532 1239.86 490.798
1628 0 71.0472 12.2313 869 110.731 1239.78 489.969
1629 0 72.1066 11.8852 857 111.233 1239.61 488.321
1630 0 75.0981 12.9564 973 108.832 1239.51 485.123
1631 0 77.1707 12.116 935 111.421 1239.31 483.897
1632 0 78.1198 11.9048 930 112.292 1239.61 483.715
1633 0 82.1131 11.7277 963 112.732 1239.15 482.089
1634 0 86.1515 14.1611 1220 106.093 1238.96 483.047
1635 0 87.1465 12.6683 1104 111.102 1239.42 480.331
1636 0 89.3181 13.0992 1170 110.425 1239.61 479.982
1637 0 92.2108 13.5234 1247 110.077 1239.5 477.39
1638 0 95.2756 12.805 1220 111.675 1239.99 477.533
1639 0 98.1815 11.9473 1173 114.529 1239.23 476.068
1640 0 100.41 11.3933 1144 116.924 1238.97 472.543
1641 0 103.233 13.3968 1383 113.625 1238.8 472.576
1642 0 109.379 13.1103 1434 112.897 1239.23 471.732
1643 1 58.5936 11.5712 678 109.586 1238.23 495.409
1644 0 57.4247 10.7445 617 103.191 1239.15 495.434
1645 0 62.1772 12.0945 752 98.0359 1239.66 494.945
1646 0 61.1562 12.231 748 101.684 1239.29 494.279
1647 0 63.2635 12.361 782 86.8376 1239.68 490.41
1648 0 66.1148 12.1455 803 98.3375 1239.61 490.923
1649 0 68.1691 12.5717 857 97.1704 1239.76 490.62
1650 0 68.1549 11.8407 807 98.8798 1239.87 490.633
1651 0 72.2208 13.6387 985 95.066 1239.75 488.067
1652 0 75.2604 12.3704 931 97.1912 1239.4 488.027
1653 0 77.2088 13.4959 1042 95.477 1238.96 485.06
1654 0 78.133 11.3012 883 100.434 1239.46 486.635
1655 0 81.1614 13.0974 1063 97.2173 1238.8 484.269
1656 0 83.1638 12.6978 1056 99.2301 1239.53 484.574
1657 0 85.1636 12.9163 1100 98.5791 1238.61 486.287
1658 0 87.1455 12.4963 1089 100.643 1238.99 484.354
1659 0 89.2947 11.5236 1029 103.261 1238.71 480.043
1660 0 90.2029 11.7624 1061 104.041 1238.74 478.072
1661 0 95.3111 13.3668 1274 100.35 1238.8 477.932
1662 0 97.2522 12.5961 1225 102.451 1238.53 478.148
1663 0 98.2799 12.9731 1275 103.901 1238.28 475.646
1664 0 102.539 12.5221 1284 105.484 1237.54 477.181
1665 0 105.304 12.5067 1317 107.897 1237.44 473.309
1666 0 108.237 12.8052 1386 107.996 1237.68 470.961
1667 0 110.219 11.1233 1226 111.794 1238.07 469.528
1668 0 114.373 12.2407 1400 110.171 1237.54 466.481
1669 0 120.411 13.3792 1611 107.865 1237.83 465.312
1670 0 123.264 12.745 1571 110.054 1238.09 466.572
1671 0 124.312 11.8411 1472 114.083 1237.83 464.463
1672 0 129.294 11.9882 1550 112.475 1238.23 463.503
1673 0 132.398 13.5425 1793 109.77 1237.98 461.02
1674 0 137.395 13.705 1883 110.695 1238.58 456.95
1675 0 142.405 14.1639 2017 109.962 1238.68 455.743
1676 0 145.294 12.2923 1786 113.847 1237.68 454.357
1677 0 153.441 14.1879 2177 110.415 1238.31 448.407
1678 0 156.343 13.7966 2157 112.089 1238.09 449.772
1679 0 162.329 13.0045 2111 113.731 1237.27 447.104
1680 0 165.441 12.9956 2150 114.407 1238.03 444.664
1681 0 172.548 13.1442 2268 113.383 1236.8 437.268
1682 0 177.444 14.4383 2562 110.217 1236.55 437.255
1683 0 185.428 13.5686 2516 112.108 1236.15 432.645
1684 0 189.573 13.657 2589 111.201 1236.11 433.435
1685 0 196.44 14.101 2770 109.286 1236.19 431.954
1686 0 204.537 13.6259 2787 109.661 1236.44 420.439
1687 1 154.219 12.6249 1947 108.034 1236.57 448.899
1688 0 159.379 13.8977 2215 102.933 1236.67 442.471
1689 0 161.376 12.5855 2031 101.795 1238.36 442.038
1690 0 167.364 12.428 2080 101.134 1237.38 441.043
1691 0 172.187 11.7721 2027 102.409 1237.62 438.231
1692 0 180.405 11.8566 2139 102.122 1237.48 435.002
1693 0 187.526 11.897 2231 101.804 1237.19 436.544
1694 0 191.424 11.2368 2151 104.804 1237.15 429.768
1695 0 199.287 11.5763 2307 104.42 1236.79 424.172
1696 0 206.34 11.3793 2348 104.644 1236.91 424.272
1697 0 212.436 11.9801 2545 109.538 1237.75 414.067
1698 0 222.706 12.1955 2716 107.702 1237.43 410.16
1699 1 58.1445 8.65087 503 95.4254 1237.95 486.008
1700 0 65.4146 11.4348 748 99.9158 1239.87 492.508
1701 0 68.2669 12.2607 837 91.2855 1239.41 492.973
1702 0 69.1422 10.3699 717 94.5774 1239.92 491.672
1703 0 72.1061 10.9006 786 92.8053 1240.06 490.766
1704 0 73.2295 11.4162 836 93.079 1238.74 490.072
1705 0 74.1105 11.3479 841 99.8014 1239.59 485.461
1706 0 78.2043 11.9559 935 98.5925 1239.52 486.213
1707 0 81.1429 12.25 994 98.4346 1239.7 485.568
1708 0 80.3377 11.1654 897 102.825 1238.3 482.524
1709 0 80.0738 10.2406 820 95.3427 1237.96 473.277
1710 0 82.2887 9.5882 789 96.6464 1237.72 471.957
1711 0 88.325 10.2236 903 94.9048 1235.3 474.051
1712 0 92.1928 10.3262 952 96.6912 1234.82 471.851
1713 0 94.4036 11.6309 1098 96.908 1238.36 478.254
1714 0 97.0968 13.7389 1334 99.7571 1237.3 480.768
1715 0 101.207 12.9537 1311 100.411 1237.95 477.475
1716 1 49.0233 10.5664 518 98.2317 1233.83 499.49
1717 0 49.0956 10.3268 507 99.5799 1234.55 492.497
1718 0 52.0788 11.2138 584 99.4366 1233.79 495.127
1719 0 53.2256 11.4231 608 101.306 1233.3 492.041
1720 0 53.2136 11.4445 609 101.335 1234.07 494.814
1721 0 57.1895 11.2083 641 101.087 1233.42 493.555
1722 0 56.1664 11.3947 640 102.981 1234.34 493.853
1723 0 59.0849 11.7458 694 101.127 1234.31 491.362
1724 0 60.1589 13.3812 805 97.6186 1234.48 495.016
1725 0 61.1389 11.8419 724 102.598 1234.22 492.508
1726 0 65.1386 12.2815 800 101.098 1233.86 492.1
1727 0 64.0842 10.9387 701 105.466 1234.15 493.083
1728 0 67.1087 11.2206 753 104.764 1234.45 491.938
1729 0 69.1513 13.0583 903 101.538 1234.9 489.952
1730 0 69.1234 12.4705 862 103.393 1234.71 486.773
1731 0 73.0827 13.0127 951 100.69 1235.21 488.547
1732 0 73.1457 11.4976 841 105.101 1234.83 485.725
1733 0 75.0966 12.9034 969 101.715 1234.82 487.067
1734 0 78.2017 13.3245 1042 100.627 1234.85 486.677
1735 0 80.2098 12.8164 1028 104.234 1234.9 482.348
1736 0 81.1806 13.5254 1098 101.939 1234.98 483.043
1737 0 82.1418 12.1984 1002 105.004 1234.77 480.345
1738 1 44.0583 11.8479 522 99.546 1235.07 501.213
1739 0 46.1961 12.4902 577 97.6187 1237.54 502.211
1740 0 47.3857 12.24 580 91.2879 1235.6 500.25
1741 0 46.0764 11.9584 551 93.392 1234.53 501.534
1742 0 50.051 12.767 639 90.1988 1235.22 502.214
1743 0 52.087 13.0935 682 89.3827 1235.32 501.757
1744 0 51.1394 12.3193 630 92.1 1235.21 501.305
1745 0 53.1392 12.5708 668 92.3174 1234.96 497.973
1746 0 55.1725 12.7418 703 90.6871 1234.56 500.351
1747 0 56.0495 12.7566 715 91.5357 1234.67 497.07
1748 0 56.0685 12.7879 717 92.9038 1234.72 495.972
1749 0 60.1358 13.8852 835 88.909 1234.74 497.625
1750 0 63.0718 14.2853 901 88.495 1235.52 496.309
1751 0 61.0755 12.2308 747 94.6171 1234.87 495.203
1752 0 62.1549 14.126 878 91.6538 1234.94 494.532
1753 0 65.1091 13.6694 890 92.6124 1234.64 493.746
1754 0 64.1316 12.2093 783 96.7791 1235.46 491.322
1755 0 68.1942 12.9043 880 94.817 1235.84 490.688
1756 0 71.0736 13.8167 982 92.8656 1235.44 490.098
1757 0 71.0905 13.6446 970 94.1814 1235.39 488.808
1758 0 75.1511 13.4795 1013 93.3722 1236.01 487.522
1759 0 77.1069 14.2659 1100 93.0791 1235.69 485.296
1760 0 79.0973 13.1863 1043 95.978 1235.14 485.075
1761 0 82.1135 14.005 1150 95.2539 1235.25 482.843
1762 0 84.0851 13.4031 1127 95.8216 1235.2 485.211
1763 0 86.1524 13.8011 1189 97.5862 1235.73 483.949
1764 0 89.2573 14.0381 1253 101.061 1235.62 481.218
1765 0 92.1605 14.6375 1349 101.52 1235.69 479.592
1766 0 96.1485 14.2592 1371 103.082 1235.43 478.631
1767 0 98.142 14.1326 1387 103.867 1235.98 477.18
1768 0 101.144 14.4447 1461 103.29 1236.03 474.08
1769 0 106.065 13.8029 1464 104.333 1235.8 475.054
1770 0 108.162 14.8759 1609 102.323 1236.41 472.965
1771 0 111.069 14.8557 1650 104.107 1235.77 468.819
1772 0 115.207 14.2266 1639 104.168 1236.22 468.775
1773 1 64.0831 11.0638 709 104.219 1236.12 495.904
1774 0 64.2237 11.7558 755 91.0649 1238.08 490.469
1775 0 65.3069 12.3264 805 91.0845 1237.3 487.429
1776 0 67.3119 12.7318 857 90.9078 1237.45 488.524
1777 0 70.257 12.7389 895 91.0503 1237.02 488.597
1778 0 70.4042 12.0021 845 97.0864 1235.96 485.422
1779 0 72.2677 13.0487 943 96.071 1236.29 484.133
1780 0 77.2445 12.454 962 96.1299 1236.71 484.13
1781 0 78.2362 12.5134 979 97.6078 1236.44 481.024
1782 0 83.2832 12.9558 1079 96.4903 1237.64 480.44
1783 0 84.2892 12.8605 1084 96.8072 1237.21 482.618
1784 0 86.2215 11.6328 1003 99.7557 1237.6 480.266
1785 0 88.2756 11.8832 1049 100.231 1237.36 477.815
1786 0 89.3132 13.3015 1188 99.1044 1236.83 474.455
1787 0 93.2658 14.078 1313 96.7959 1236.92 473.511
1788 0 98.3819 12.2279 1203 98.9884 1236.39 471.576
1789 0 100.366 14.3376 1439 95.7276 1236.41 470.62
1790 0 100.419 11.6014 1165 101.645 1236.74 464.738
1791 0 107.27 11.485 1232 100.93 1236.86 468.128
1792 0 111.297 13.2259 1472 97.409 1236.64 465.96
1793 1 60.1414 10.0762 606 95.3036 1238.46 496.02
1794 0 61.0935 11.8179 722 97.6371 1238.6 495.929
1795 0 64.0662 12.7212 815 96.5865 1238.89 494.082
1796 0 65.1793 12.6574 825 102.512 1239.16 492.042
1797 0 68.048 13.6521 929 99.3768 1239.62 493.025
1798 0 70.1877 12.2671 861 103.702 1239.31 490.398
1799 0 71.1026 13.1641 936 102.324 1238.79 488.794
1800 0 73.1094 12.9258 945 103.37 1238.75 488.772
1801 0 77.0711 13.2735 1023 101.676 1239 488.342
1802 0 77.2042 12.577 971 104.016 1238.8 485.286
1803 0 82.1166 14.2846 1173 99.5414 1238.79 485.311
1804 0 84.1372 13.9653 1175 100.327 1238.9 483.712
1805 0 86.0993 13.647 1175 102.009 1238.41 481.392
1806 0 88.1376 13.8306 1219 101.451 1238.68 481.825
1807 0 90.1935 13.8037 1245 102.774 1238.52 481.159
1808 0 93.3175 12.57 1173 105.547 1238.66 478.164
1809 0 96.2132 14.3847 1384 101.581 1238.5 478.854
1810 0 100.205 14.181 1421 101.498 1238.63 477.386
1811 0 100.305 13.5486 1359 103.4 1238.54 474.183
1812 0 107.202 13.9269 1493 102.397 1238.06 474.036
1813 0 109.221 14.2098 1552 101.623 1237.95 473.388
1814 0 114.263 14.5803 1666 100.297 1238.21 469.684
1815 1 62.1015 12.3668 768 99.7409 1238.9 495.31
1816 0 64.1432 12.5656 806 99.1873 1239.13 491.892
1817 0 66.0466 12.9 852 98.5716 1239.56 491.697
1818 0 67.115 12.8734 864 95.566 1239.28 492.463
1819 0 74.0573 13.9216 1031 92.4064 1238.85 490.815
1820 0 74.1152 14.3695 1065 92.8948 1239.17 488.429
1821 0 75.0674 13.8675 1041 95.0038 1239.07 487.256
1822 0 79.1279 13.8257 1094 94.3748 1239.19 485.564
1823 0 83.1489 13.1692 1095 95.4922 1239.14 484.231
1824 0 84.134 12.908 1086 96.6823 1239.09 483.074
1825 0 88.0853 16.5748 1460 89.389 1238.8 482.968
1826 0 90.0641 13.7791 1241 94.5036 1238.67 481.855
1827 0 94.072 12.7456 1199 95.849 1238.75 482.33
1828 0 95.1372 13.0443 1241 96.8082 1239.2 476.633
1829 0 98.2496 12.8855 1266 96.169 1238.35 478.436
1830 0 103.149 13.4853 1391 94.3674 1238.16 478.462
1831 1 57.1717 13.1883 754 93.8289 1239.67 497.904
1832 0 58.0801 12.6205 733 97.2701 1236.99 498.329
1833 0 57.1367 11.3762 650 100.158 1236.74 497.926
1834 0 62.1591 13.562 843 92.968 1238.99 496.929
1835 0 61.0436 13.1054 800 95.8912 1237.52 496.588
1836 0 64.0712 13.2977 852 95.6808 1239.02 495.29
1837 0 66.1708 14.1603 937 94.9605 1238.41 493.187
1838 0 68.1516 13.1765 898 96.7238 1238.74 491.031
1839 0 67.11 13.0532 876 99.4178 1239.07 492.038
1840 0 73.1623 13.5726 993 97.3162 1238.83 491
1841 0 73.1612 13.9692 1022 98.0421 1238.56 489.922
1842 0 76.1511 12.8823 981 102.175 1238.53 488.327
1843 0 78.1229 13.1075 1024 102.723 1238.67 488.504
1844 0 83.1694 15.4985 1289 97.0714 1238.66 486.262
1845 0 84.0854 13.6409 1147 102.042 1238.14 486.729
1846 0 88.0613 13.536 1192 103.336 1238.65 484.003
1847 0 90.0976 14.1069 1271 104.21 1238.87 482.042
1848 0 93.1073 13.5435 1261 106.082 1238.7 481.861
1849 0 98.1247 14.6854 1441 103.733 1238.67 478.52
1850 0 102.217 14.4105 1473 103.418 1238.09 477.438
1851 1 54.1296 12.2299 662 105.284 1239.21 499.746
1852 0 57.2822 12.7265 729 104.801 1237.72 496.598
1853 0 58.2775 11.7713 686 99.7711 1237.78 495.598
1854 0 60.0389 12.6418 759 107.708 1238.85 498.068
1855 0 59.1004 11.049 653 110.942 1239.03 498.377
1856 0 61.06 12.0046 733 110.939 1238.63 497.589
1857 0 64.112 12.0726 774 109.499 1238.45 497.071
1858 0 66.1036 12.314 814 109.945 1237.79 493.85
1859 0 69.0929 12.968 896 107.883 1238.53 492.239
1860 0 69.0986 11.4329 790 111.575 1237.88 491.858
1861 0 75.0938 13.3833 1005 104.94 1237.91 493.271
1862 0 76.1429 13.3039 1013 107.56 1238.54 490.393
1863 0 77.1503 12.508 965 109.317 1237.59 488.905
1864 0 80.1453 12.2777 984 108.97 1238.29 485.861
1865 0 84.2445 13.722 1156 105.282 1237.88 484.495
1866 0 86.4262 13.1326 1135 105.826 1238.62 483.811
1867 0 88.2491 12.7027 1121 106.633 1238.22 479.955
1868 0 91.2945 13.0238 1189 108.214 1237.66 480.374
1869 0 95.2901 13.0234 1241 108.884 1237.7 478.434
1870 1 53.3484 11.9029 635 111.077 1237.85 497.935
1871 0 52.2649 12.7045 664 110.005 1237.02 494.654
1872 0 55.3067 13.9043 769 100.225 1236.74 493.984
1873 0 55.3572 11.6697 646 104.884 1237.18 494.783
1874 0 54.1056 11.4036 617 104.747 1236.7 498.066
1875 0 57.389 11.9535 686 103.226 1236.83 496.038
1876 0 60.3568 12.2604 740 102.654 1236.68 495.849
1877 0 62.3149 11.8752 740 103.562 1236.23 494.199
1878 0 64.4721 12.9824 837 101.741 1236.88 494.108
1879 0 65.2503 12.2605 800 104.421 1237.64 494.236
1880 0 65.5811 13.1135 860 104.962 1236.53 490.336
1881 0 69.2211 12.135 840 106.56 1236.99 490.508
1882 0 72.2062 13.4476 971 107.599 1237.53 488.062
1883 0 76.2723 13.4256 1024 107.286 1237.13 489.707
1884 0 77.301 13.635 1054 107.622 1236.49 486.566
1885 0 80.4641 13.4967 1086 108.125 1236.38 485.745
1886 0 80.2805 13.9884 1123 109.16 1235.74 482.35
1887 0 85.4277 14.5503 1243 106.618 1235.78 481.033
1888 0 86.4408 14.2757 1234 107.288 1235.95 481.022
1889 0 87.4996 13.0401 1141 111.228 1235.94 479.791
1890 0 92.4901 14.1096 1305 109.668 1236.28 477.907
1891 0 94.5598 13.6104 1287 110.709 1236.06 478.301
1892 0 94.5598 13.6633 1292 141.704 1236.08 478.413
1893 0 99.4506 13.6349 1356 112.742 1236.59 473.869
1894 0 101.704 13.4311 1366 114.241 1236.91 471.974
1895 0 105.553 12.5434 1324 116.461 1236.07 469.971
1896 0 107.361 13.2358 1421 116.139 1236.41 466.392
1897 1 60.4086 11.9519 722 112.048 1236.68 492.612
1898 0 60.1592 10.8047 650 114.423 1236.28 495.569
1899 0 65.063 13.2333 861 108.925 1236.7 493.733
1900 0 66.2691 13.2641 879 108.678 1237.87 493.164
1901 0 68.1393 12.7826 871 111.947 1238.54 490.842
1902 0 71.0754 12.7752 908 112.072 1238.59 488.597
1903 0 72.1272 12.1452 876 113.685 1237.89 486.846
1904 0 75.3069 13.5977 1024 109.862 1237.97 486.371
1905 0 79.1889 13.8908 1100 108.766 1238.21 483.881
1906 0 80.4228 12.8073 1030 111.533 1238.16 482.042
1907 0 85.4987 14.2809 1221 106.629 1238.36 482.098
1908 0 86.3264 12.4991 1079 111.382 1238.87 481.484
1909 0 89.2707 13.319 1189 109.135 1238.01 481.085
1910 0 93.336 14.3139 1336 106.773 1237.88 479.915
1911 0 94.371 13.7118 1294 109.819 1237.92 475.696
1912 0 98.436 13.8669 1365 107.664 1237.72 478.851
1913 0 101.384 13.9963 1419 108.973 1237.77 475.288
1914 0 105.476 13.7187 1447 109.693 1237.87 473.813
1915 0 107.287 14.6337 1570 109.011 1238.16 472.055
1916 1 58.0952 11.7738 684 109.509 1238.64 496.354
1917 0 61.0495 13.4317 820 107.337 1238.36 495.566
1918 0 62.0718 13.4522 835 110.934 1238.52 493.956
1919 0 64.1415 14.2341 913 108.472 1238.29 494.395
1920 0 66.1973 13.3993 887 111.219 1237.84 490.785
1921 0 68.224 14.0127 956 109.712 1237.51 490.402
1922 0 70.2003 13.4472 944 111.685 1237.42 489.738
1923 0 74.3734 15.2205 1132 106.774 1237.48 488.616
1924 0 74.2982 13.2843 987 112.79 1237.76 487.158
1925 0 77.3907 14.0585 1088 111.785 1236.93 485.364
1926 0 81.2625 14.7177 1196 109.994 1237.07 484.862
1927 0 83.3459 13.6539 1138 112.284 1237.04 483.544
1928 0 84.3105 14.2806 1204 112.718 1236.88 480.423
1929 0 90.2855 13.9557 1260 107.531 1237.37 485.156
1930 0 89.6036 12.9794 1163 112.141 1237.33 482.152
1931 0 95.315 14.0062 1335 110.447 1237.21 480.423
1932 0 97.2566 14.8062 1440 109.841 1236.49 477.669
1933 0 99.4557 14.9614 1488 112.799 1236.81 478.293
1934 0 103.309 13.9291 1439 117.686 1236.23 473.172
1935 0 105.429 14.2655 1504 116.586 1236.1 471.557
1936 0 108.455 13.9873 1517 118.318 1236.24 471.413
1937 0 112.403 14.3323 1611 117.467 1235.92 468.98
1938 0 115.3 14.614 1685 117.812 1236.32 467.758
1939 0 119.342 14.7559 1761 117.651 1236.62 467.654
1940 0 123.476 14.0432 1734 120.665 1236.08 466.317
1941 0 127.383 14.2798 1819 121.335 1236.31 458.393
1942 0 133.431 15.2064 2029 119.357 1236.09 457.327
1943 0 135.331 16.0939 2178 119.127 1236.26 456.102
1944 0 142.458 15.3168 2182 120.575 1235.92 456.984
1945 0 145.355 14.9427 2172 123.298 1236.2 453.541
1946 0 149.385 14.8743 2222 123.204 1236.31 450.965
1947 1 85.1886 12.9008 1099 122.328 1236.08 484.08
1948 0 87.1822 13.0531 1138 120.445 1236.31 484.931
1949 0 89.1636 13.0771 1166 121.114 1235.54 482.678
1950 0 94.1662 13.0408 1228 121.166 1235.26 480.794
1951 0 94.1848 12.3162 1160 124.391 1235.01 479.813
1952 0 96.4174 12.9333 1247 125.136 1236.05 476.667
1953 1 185.546 15.4894 2874 127.757 1236.29 430.874
1954 0 191.606 16.0955 3084 127.156 1236.36 424.147
1955 1 103.687 11.5636 1199 129.846 1235.83 471.54
1956 0 110.561 12.3461 1365 127.74 1235.8 473.219
1957 0 112.657 12.5159 1410 127.764 1236.39 471.54
1958 0 117.885 12.8854 1519 128.174 1236.1 466.303
1959 0 121.727 11.9037 1449 127.892 1236.91 464.676
1960 0 123.657 11.6775 1444 128.681 1236.59 465.626
1961 1 71.4018 11.7224 837 119.984 1236.82 489.054
1962 0 74.292 11.7375 872 118.705 1236.41 490.232
1963 0 78.3029 13.2051 1034 116.641 1236.05 487.882
1964 0 77.4247 12.8383 994 117.092 1236.08 491.025
1965 0 80.2929 13.1767 1058 117.35 1236.46 486.849
1966 0 82.4192 12.946 1067 118.149 1236.81 485.186
1967 0 85.5013 14.5261 1242 114.118 1236.57 483.749
1968 0 88.423 13.4015 1185 114.786 1236.61 483.203
1969 0 88.2886 12.6517 1117 117.876 1236.33 475.703
1970 0 90.3822 12.8786 1164 116.651 1235.83 474.114
1971 0 93.2705 13.0695 1219 115.135 1235.81 473.642
1972 0 96.2079 14.0113 1348 112.177 1235.86 474.184
1973 0 101.357 13.7435 1393 111.958 1235.64 468.485
1974 0 103.301 13.2138 1365 113.714 1236.37 466.656
1975 0 104.266 12.9188 1347 113.706 1236.2 466.518
1976 0 108.335 12.8859 1396 112.567 1236.15 466.395
1977 0 110.411 11.7199 1294 115.014 1236.1 461.978
1978 0 116.39 12.2089 1421 112.044 1236.5 460.7
1979 0 121.305 12.5799 1526 110.434 1236.57 455.8
1980 0 128.419 11.8051 1516 110.102 1235.93 453.436
1981 0 130.459 10.8156 1411 112.064 1236.43 451.501
1982 1 70.1506 9.83598 690 102.58 1237.43 486.504
1983 0 74.0595 11.5448 855 99.3661 1237.87 485.191
1984 0 74.1556 11.5568 857 101.452 1237.89 490.246
1985 0 78.1727 11.8328 925 100.879 1237.66 487.069
1986 0 79.1523 11.2315 889 103.199 1238.1 485.711
1987 0 87.1138 12.6042 1098 98.5191 1238.42 485.224
1988 0 87.0763 13.7466 1197 98.6817 1238.16 481.855
1989 0 89.1328 11.0285 983 102.575 1238.22 480.778
1990 0 93.1354 11.7571 1095 102.053 1238.83 480.365
1991 0 95.1019 11.5876 1102 98.3593 1237.94 476.394
1992 0 98.3236 11.7571 1156 97.9602 1237.88 476.928
1993 0 103.142 12.4489 1284 97.5974 1237.2 476.084
1994 0 106.176 13.8072 1466 96.3772 1236.81 470.096
1995 1 57.1129 11.0133 629 96.868 1237.92 494.895
1996 0 60.1799 12.2466 737 103.035 1238.18 495.433
1997 0 64.2969 12.7689 821 101.199 1238.65 495.341
1998 0 66.0599 13.6543 902 96.5477 1238.72 494.707
1999 0 68.0736 13.2357 901 96.7481 1238.43 492.588
2000 0 72.145 13.1263 947 94.4657 1238.04 490.432
2001 0 76.1098 14.2951 1088 92.6075 1238.13 488.671
2002 0 75.1269 12.9248 971 97.5808 1237.72 486.615
2003 0 77.0402 13.0192 1003 98.7557 1238.24 486.015
2004 0 80.1016 13.2082 1058 97.5255 1237.52 483.856
2005 0 87.1385 13.9089 1212 96.9249 1237.65 484.861
2006 0 89.0764 13.5277 1205 99.605 1238.24 483.612
2007 0 89.1657 13.873 1237 99.8836 1237.33 479.506
2008 0 93.2588 13.6287 1271 100.8 1237.44 479.7
2009 0 97.114 13.5614 1317 101.014 1237.08 478.332
2010 0 99.1784 13.9042 1379 99.3437 1237.1 477.142
2011 0 103.175 14.0054 1445 99.4069 1237.21 475.603
2012 0 107.203 15.6058 1673 95.4591 1237.21 471.726
2013 0 108.354 12.653 1371 102.352 1237.56 470.699
2014 1 59.1312 10.0116 592 105.157 1237.78 493.642
2015 0 63.2907 12.5927 797 101.91 1237.36 492.439
2016 0 67.2641 15.0452 1012 96.0405 1235.6 494.852
2017 0 67.272 14.6718 987 99.463 1235.79 491.171
2018 0 68.1514 12.0761 823 104.566 1236.04 490.456
2019 0 72.2216 13.6801 988 100.656 1236.47 491.261
2020 0 73.1433 12.8788 942 104.726 1236.23 489.31
2021 0 74.0619 11.1258 824 107.461 1236.84 487.066
2022 0 79.1301 13.0418 1032 103.704 1236.69 485.395
2023 0 81.0939 12.689 1029 105.45 1237.13 484.297
2024 0 85.1875 14.38 1225 106.037 1237.11 482.789
2025 0 90.1024 15.105 1361 107.545 1237.82 483.509
2026 0 90.0471 13.182 1187 115.094 1238.16 481.635
2027 0 95.0842 14.0823 1339 109.579 1238.08 482.594
2028 0 96.13 13.4817 1296 106.895 1237.33 476.689
2029 0 100.134 14.6105 1463 105.064 1236.61 476.315
2030 0 101.186 13.5987 1376 108.51 1236.76 473.86
2031 0 106.194 13.6731 1452 108.045 1237.33 472.738
2032 0 107.256 13.9107 1492 109.491 1237.32 471.627
2033 0 114.134 14.8509 1695 106.877 1237.33 471.117
2034 1 64.0825 13.6699 876 103.176 1236.56 495.15
2035 0 67.1709 12.1481 816 106.379 1235.48 493.015
2036 0 67.1199 13.3642 897 105.316 1236.26 490.217
2037 0 67.0799 12.3733 830 107.89 1236.2 490.699
2038 0 73.091 13.4353 982 113.501 1235.7 490.596
2039 0 75.1349 13.6688 1027 111.861 1236 490.766
2040 0 75.1144 13.3263 1001 116.093 1235.56 487.424
2041 0 82.0733 14.1581 1162 112.596 1235.77 486.417
2042 0 83.1029 13.6818 1137 113.478 1235.17 486.854
2043 0 87.2051 14.9303 1302 110.469 1235.86 483.791
2044 0 90.2626 14.0811 1271 112.226 1235.23 479.437
2045 0 92.2915 14.1292 1304 113.425 1235.57 479.721
2046 0 95.0434 14.7722 1404 112.029 1236.25 477.449
2047 0 97.2192 13.845 1346 114.571 1235.9 476.357
2048 0 102.073 14.1565 1445 113.462 1236.35 476.199
2049 0 103.096 13.3662 1378 117.08 1236.11 472.06
2050 1 59.1252 13.6152 805 110.918 1236.19 496.042
2051 0 61.2898 12.6448 775 113.49 1236.4 491.474
2052 0 64.1703 13.5265 868 110.361 1236.1 490.501
2053 0 64.2548 14.0223 901 115.752 1235.49 486.245
2054 0 67.1013 12.5333 841 117.605 1235.53 490.113
2055 0 69.1579 15.2549 1055 110.874 1236.17 489.754
2056 0 70.1918 14.2182 998 114.786 1235.72 486.329
2057 0 73.2281 14.5573 1066 112.298 1235.67 484.556
2058 0 76.1838 13.4937 1028 114.819 1235.75 483.482
2059 0 77.2095 14.0786 1087 114.174 1235.69 480.606
2060 0 81.2112 13.8035 1121 113.148 1236.13 481.877
2061 0 80.2166 13.127 1053 150.131 1238.19 480.895
2062 0 85.2248 13.2591 1130 117.406 1236.15 478.429
2064 0 88.3424 13.991 1236 114.155 1236.1 476.773
2065 0 88.3473 13.945 1232 137.744 1235.09 476.834
2066 0 94.198 13.8857 1308 115.333 1236.02 473.717
2067 0 97.2901 13.2388 1288 118.188 1235.99 472.445
2068 0 99.1554 13.9579 1384 116.398 1235.82 472.84
2069 0 104.184 14.8487 1547 113.034 1235.9 471.554
2070 0 112.184 14.6724 1646 112.901 1234.81 470.602
2071 0 113.203 13.6215 1542 118.107 1235.48 465.891
2072 0 116.071 12.4493 1445 119.865 1235.93 463.545
2073 0 121.176 13.9632 1692 117.209 1235.31 460.327
2074 0 125.321 13.5891 1703 117.277 1235.36 461.385
2075 0 131.195 12.7825 1677 119.736 1235.06 458.844
2076 0 135.189 13.9434 1885 116.992 1234.99 457.634
2077 0 140.213 14.0216 1966 116.005 1235.13 448.884
2078 0 145.301 13.2553 1926 117.141 1235.73 450.78
2079 1 79.2008 11.0858 878 116.424 1235.95 472.079
2080 0 79.3435 10.6625 846 118.416 1235.85 467.907
2081 0 79.1585 9.3736 742 121.999 1235.13 464.898
2082 0 86.19 11.2658 971 113.389 1235.11 470.213
2083 0 88.518 11.6022 1027 113.633 1234.79 469.706
2084 0 96.163 11.1269 1070 113.69 1235.25 466.111
2085 0 96.2514 11.6881 1125 114.061 1235.1 462.457
2086 0 99.3335 11.8288 1175 113.627 1235.87 464.374
2087 0 104.239 11.2243 1170 114.683 1235.76 463.902
2088 0 107.238 12.8499 1378 111.624 1235.81 462.378
2089 0 108.149 12.381 1339 113.9 1235.86 460.71
2090 0 112.176 10.9025 1223 120.351 1235.32 453.709
2091 0 111.313 12.2268 1361 118.702 1235.14 453.176
2092 0 113.251 12.0617 1366 119.627 1235.4 450.639
2093 1 124.347 12.5455 1560 116.797 1236.39 450.301
2094 0 124.363 10.6463 1324 122.239 1235.54 447.122
2095 0 128.425 11.6021 1490 119.672 1236.38 444.185
2096 0 135.473 12.5855 1705 116.72 1236.38 445.058
2097 0 138.283 11.4475 1583 120.865 1236.05 440.656
2098 1 83.0883 8.58123 713 109.139 1235.87 471.912
2099 0 84.0769 8.02836 675 107.97 1235.65 471.264
2100 0 86.213 9.98689 861 103.531 1236.78 469.722
2101 0 88.2037 9.38736 828 104.333 1236.73 469.6
2102 0 88.1924 10.9533 966 101.047 1237.21 468.642
2103 0 82.3483 8.99836 741 107.792 1237.02 460.275
2104 0 95.2027 10.0522 957 103.941 1237.55 462.668
2105 0 91.3205 9.91015 905 106.006 1237.25 459.208
2106 0 94.1851 9.54503 899 105.842 1236.79 457.342
2107 0 103.111 9.56252 986 104.604 1237.38 459.376
2108 0 102.27 9.54334 976 107.1 1237.14 455.667
2109 0 110.203 10.3445 1140 104.805 1237.09 456.522
2110 0 114.237 9.69038 1107 106.839 1236.84 454.307
2111 0 114.335 11.7024 1338 105.194 1236.99 451.282
2112 0 122.433 10.5935 1297 106.86 1236.15 452.415
2113 1 81.2054 9.58064 778 104.76 1235.32 489.112
2114 0 80.2506 10.3426 830 101.771 1234.86 484.934
2115 0 80.309 9.63777 774 103.761 1235.26 482.53
2116 0 86.2165 10.3576 893 99.4401 1235.34 483.591
2117 0 87.241 11.153 973 98.4676 1235.53 479.825
2118 0 88.2206 10.4171 919 101.296 1235.98 477.9
2119 0 93.0962 10.9886 1023 109.827 1233.92 477.108
2120 0 97.0936 11.9678 1162 108.598 1233.91 473.249
2121 0 98.0906 11.5404 1132 109.901 1233.59 474.597
2122 0 103.205 11.0072 1136 111.109 1234.11 472.617
2123 0 104.2 12.0154 1252 108.571 1233.85 470.725
2124 0 109.244 11.5155 1258 109.562 1233.62 468.781
2125 0 112.129 11.6206 1303 108.751 1234.94 468.546
2126 0 111.157 8.88835 988 114.998 1234.76 464.821
2127 0 115.233 9.70207 1118 112.566 1234.52 461.392
2128 0 120.197 11.2898 1357 107.732 1234.68 464.316
2129 0 122.292 9.73081 1190 110.784 1235.97 459.255
2130 0 127.452 11.7456 1497 106.33 1235.64 457.811
2131 0 128.524 10.2393 1316 109.493 1235.79 459.492
2132 0 132.586 11.0494 1465 109.771 1235.59 452.66
2133 0 137.664 11.0124 1516 109.416 1235.4 452.366
2134 0 139.558 10.8915 1520 110.911 1235.96 449.307
2135 0 144.619 11.6997 1692 108.991 1236.13 446.554
2136 0 146.705 10.4904 1539 112.151 1236.15 443.424
2137 0 152.725 11.4323 1746 109.923 1235.87 445.024
2138 0 156.738 12.3199 1931 109.586 1235.95 439.059
2139 0 161.815 11.6553 1886 111.03 1235.02 436.596
2140 0 166.831 12.6535 2111 108.511 1236.1 436.1
2141 0 171.02 12.5131 2140 109.759 1235.6 429.555
2142 1 99.352 9.723 966 100.202 1235.85 469.924
2143 0 103.359 10.6329 1099 97.5305 1235.6 472.421
2144 0 104.17 10.8861 1134 99.7002 1235.15 473.362
2145 0 106.16 10.39 1103 102.1 1235.24 471.854
2146 0 110.291 12.0953 1334 100.461 1235.27 467.721
2147 0 111.165 11.7573 1307 103.608 1235.94 464.997
2148 0 116.207 11.514 1338 104.166 1236.1 465.126
2149 0 116.589 11.6306 1356 109.104 1235.49 456.898
2150 0 122.405 12.8998 1579 106.045 1235.96 456.72
2151 0 124.684 12.3272 1537 107.548 1235.71 457.06
2152 0 127.695 11.6606 1489 109.048 1235.87 455.115
2153 0 130.681 12.4961 1633 108.674 1236.08 449.985
2154 0 133.452 12.1991 1628 109.077 1235.87 453.077
2155 0 138.626 12.6311 1751 107.042 1236.63 449.055
2156 0 143.522 12.1306 1741 106.486 1237.05 447.5
2157 0 147.008 12.1354 1784 107.344 1236.52 444.045
2158 0 150.54 11.9437 1798 108.252 1237.1 439.789
2159 1 86.2216 10.763 928 99.7953 1238.06 477.217
2160 0 88.1872 10.3076 909 106.925 1238.35 475.942
2161 0 89.3605 11.1347 995 110.445 1236.1 474.905
2162 0 92.3356 11.025 1018 109.16 1236.8 476.42
2163 0 92.3801 11.6367 1075 108.393 1236.27 471.75
2164 0 92.3581 10.9898 1015 111.027 1236.17 468.439
2165 0 99.3373 13.2377 1315 104.219 1236.57 468.697
2166 0 101.129 12.1627 1230 105.901 1237.38 468.198
2167 0 105.238 12.6761 1334 103.504 1236.88 468.333
2168 0 105.403 12.3241 1299 106.152 1237.54 463.614
2169 0 109.304 12.9181 1412 104.514 1237.41 463.632
2170 0 111.337 12.3948 1380 104.792 1237.29 459.975
2171 0 114.386 12.7201 1455 102.432 1237.7 457.745
2172 0 113.546 13.1753 1496 103.049 1237.36 454.315
2173 0 119.421 13.1384 1569 101.838 1237 452.737
2174 0 120.409 11.9924 1444 104.967 1237.21 452.569
2175 0 124.494 11.848 1475 105.659 1236.8 447.811
2176 0 126.418 11.0032 1391 108.088 1236.75 443.735
2177 0 131.376 13.2521 1741 102.646 1236.5 443.866
2178 0 138.498 13.2781 1839 101.276 1236.63 445.955
2179 0 140.735 12.9535 1823 102.642 1236.68 440.571
2180 0 139.678 11.1972 1564 107.59 1237.03 436.75
2181 0 145.611 12.7119 1851 103.452 1236.59 437.607
2182 0 153.406 12.1638 1866 104.234 1237.09 433.79
2183 0 157.558 13.1951 2079 101.791 1237.19 434.126
2184 0 163.47 14.3819 2351 99.7286 1237.22 429.285
2185 0 171.547 14.8648 2550 97.0074 1237.07 432.989
2186 0 168.479 12.6663 2134 105.142 1237.42 423.651
2187 0 175.454 14.3 2509 101.628 1236.81 425.775
2188 0 182.354 14.0496 2562 103.416 1237.96 416.931
2189 0 190.515 13.9464 2657 102.753 1236.81 413.463
2190 0 195.516 13.4516 2630 104.283 1236.73 414.254
2191 0 195.503 12.6392 2471 108.336 1236.9 406.349
2192 0 207.48 13.129 2724 107.467 1236.79 404.844
2193 0 213.471 15.1028 3224 103.285 1236.45 402.033
2194 0 219.436 13.717 3010 106.425 1235.74 401.25
2195 0 228.533 14.4924 3312 103.17 1236.77 399.123
2196 0 228.366 13.2725 3031 106.436 1236.91 388.699
2197 1 182.509 13.7144 2503 104.806 1236.92 418.304
2198 0 186.431 12.9163 2408 107.391 1237.08 421.319
2199 0 191.442 13.3931 2564 108.533 1236.58 415.068
2200 0 199.312 13.1302 2617 109.003 1237.03 409.279
2201 0 204.258 12.1317 2478 111.367 1236.45 408.765
2202 0 211.278 13.371 2825 109.343 1235.03 402.43
2203 0 219.335 13.6777 3000 107.98 1235.33 401.866
2204 0 223.466 12.7223 2843 108.373 1235.26 398.197
2205 0 227.531 10.8689 2473 111.437 1235.46 402.206
2206 1 177.539 11.4567 2034 105.359 1235.22 424.291
2207 0 183.355 12.424 2278 109.594 1235.17 421.794
2208 0 188.432 14.3235 2699 107.813 1235.14 424.309
2209 0 188.556 13.6034 2565 111.952 1234.33 416.26
2210 0 196.498 12.4581 2448 114.557 1235.01 406.779
2211 0 204.442 13.2312 2705 112.767 1235.12 405.015
2212 0 210.655 13.1115 2762 112.411 1235.88 408.253
2213 0 221.789 13.6977 3038 111.836 1236.22 403.857
2214 0 227.84 14.1547 3225 110.822 1235.99 401.979
2215 0 235.738 13.9307 3284 111.089 1236.05 393.361
2216 1 245.69 12.3123 3025 111.546 1235.74 389.776
2217 0 255.783 12.3151 3150 113.438 1235.71 387.96
2218 0 265.494 12.7423 3383 110.782 1235.46 385.629
2219 0 270.993 13.79 3737 110.052 1235.77 379.375
2220 1 63.2458 11.0521 699 98.7554 1235.79 491.609
2221 0 65.3921 10.9188 714 99.0644 1236.94 490.161
2222 0 67.4234 12.1026 816 97.3995 1237.38 490.31
2223 0 69.2084 10.5623 731 101.635 1236.11 489.456
2224 0 72.1006 11.4562 826 99.9467 1239.18 486.643
2225 0 76.1002 12.1025 921 98.0858 1238.74 489.068
2226 0 77.1613 12.4674 962 98.7412 1239.08 484.653
2227 0 76.1197 11.8366 901 101.147 1239.28 484.736
2228 0 79.2311 12.066 956 100.881 1238.84 482.441
2229 0 81.1972 12.1679 988 100.45 1238.49 484.748
2230 0 84.2329 11.9193 1004 102.052 1238.37 480.763
2231 0 86.1285 12.5278 1079 101.25 1238.03 482.907
2232 0 89.1661 13.2562 1182 100.357 1238.44 481.42
2233 0 92.2065 15.0857 1391 96.5255 1238.18 479.158
2234 0 94.2361 13.2433 1248 101.46 1238.23 478.353
2235 0 95.1979 13.3616 1272 102.255 1238.34 478.586
2236 0 97.1695 13.0802 1271 103.81 1238.59 477.552
2237 0 100.278 12.9041 1294 104.856 1237.64 475.442
2238 0 104.198 13.436 1400 103.606 1237.99 474.061
2239 0 108.188 13.4304 1453 102.659 1238.5 473.372
2240 1 62.0354 11.1066 689 102.12 1238.91 493.598
2241 0 63.0489 10.9597 691 99.5427 1239.2 492.204
2242 0 64.0352 11.4468 733 97.2374 1234.19 490.308
2243 0 67.0568 12.5565 842 92.2197 1233.87 491.375
2244 0 67.0898 11.3132 759 95.6126 1237.14 493.557
2245 0 70.2125 11.2088 787 95.3024 1238.79 493.818
2246 0 71.1337 13.0459 928 93.555 1238.62 488.844
2247 0 72.1333 11.6728 842 97.7292 1238.62 490.796
2248 0 75.1379 12.6168 948 93.962 1238.74 492.019
2249 0 77.1811 12.4772 963 96.2451 1238.58 488.309
2250 0 80.147 13.2631 1063 94.6124 1238.92 487.875
2251 0 80.1139 12.3574 990 97.2111 1238.67 487.587
2252 0 83.1346 11.7159 974 97.7269 1238.03 488.313
2253 0 86.2304 13.8582 1195 94.3389 1237.63 484.867
2254 0 85.0885 12.9747 1104 98.0353 1238.44 482.784
2255 0 89.0872 13.6271 1214 97.229 1238.32 480.722
2256 0 92.2517 13.0296 1202 99.1706 1237.72 480.149
2257 0 93.205 13.2396 1234 100.3 1238.22 479.159
2258 0 97.1458 14.226 1382 97.1932 1237.74 481.428
2259 0 99.1849 13.5504 1344 98.965 1237.8 482.981
2260 0 101.149 13.6531 1381 99.9566 1238.07 478.364
2261 0 104.353 13.9239 1453 100.041 1237.68 478.357
2262 0 105.273 12.9758 1366 102.228 1237.66 481.02
2263 0 109.209 14.2296 1554 100.352 1236.65 475.882
2264 0 114.146 14.5778 1664 98.8534 1235.94 477.448
2265 0 113.202 13.3655 1513 105.203 1236.44 477.605
2266 0 115.202 13.5848 1565 105.11 1235.92 478.459
2267 0 122.205 13.5674 1658 104.103 1235.71 477.202
2268 0 123.233 13.7951 1700 103.629 1235.25 475.211
2269 0 129.234 14.8955 1925 100.71 1234.81 473.428
2270 0 135.21 14.7474 1994 100.203 1234.75 475.571
2271 1 75.3198 12.4801 940 107.623 1234.31 499.766
2272 0 77.3367 12.9951 1005 98.2876 1233.23 495.869
2273 0 79.3432 12.49 991 106.056 1232.49 495.164
2274 0 81.3659 12.8063 1042 105.86 1232.8 494.58
2275 0 85.2952 13.1895 1125 104.974 1232.55 492.824
2276 0 85.4586 12.0877 1033 109.304 1231.88 490.419
2277 0 87.3108 12.7819 1116 108.456 1230.87 488.715
2278 0 90.39 13.1762 1191 107.303 1231.5 489.137
2279 0 93.282 13.3573 1246 107.68 1231.24 485.954
2280 0 95.4314 13.0775 1248 109.67 1230.44 485.752
2281 0 100.285 12.8533 1289 108.106 1230.48 483.725
2282 0 103.228 14.1434 1460 105.551 1230.3 482.648
2283 0 105.229 13.8936 1462 105.516 1230.53 482.47
2284 0 106.244 13.8361 1470 106.144 1230.96 482.881
2285 0 109.247 14.5725 1592 105.742 1229.72 479.082
2286 0 112.378 14.2377 1600 105.791 1230.46 476.783
2287 0 113.321 13.1485 1490 109.754 1230.65 477.262
2288 0 121.356 14.099 1711 106.475 1230.23 474.318
2289 0 126.31 15.169 1916 101.925 1229.51 476.416
2290 0 127.369 13.457 1714 105.687 1231.01 475.289
2291 1 75.0822 11.907 894 108.198 1231.67 501.689
2292 0 80.1402 13.1519 1054 105.115 1230.65 500.181
2293 0 81.2216 11.0316 896 100.251 1229.13 499.364
2294 0 82.2542 12.3398 1015 97.7862 1230.46 495.381
2295 0 89.1645 14.849 1324 91.8572 1230.02 495.027
2296 0 92.2826 13.632 1258 93.942 1230.22 495.971
2297 0 93.2401 13.106 1222 92.8764 1231.18 491.464
2298 0 97.2449 12.9775 1262 94.3534 1230.76 489.803
2299 0 100.379 12.8114 1286 94.9059 1230.4 490.529
2300 0 102.448 12.992 1331 96.5755 1230.34 482.216
2301 0 107.394 13.8555 1488 95.5121 1230.53 482.655
2302 0 112.279 13.6892 1537 95.7228 1230.64 480.44
2303 0 112.404 12.4017 1394 100.969 1230.05 480.274
2304 0 117.308 14.1338 1658 98.9608 1229.91 480.496
2305 0 121.305 13.8577 1681 101.264 1230.06 476.472
2306 1 69.3962 12.3062 854 99.8044 1229.53 504.504
2307 0 71.1913 12.6982 904 99.812 1229.73 505.512
2308 0 72.2839 14.2632 1031 99.4937 1229.91 500.221
2309 0 75.1459 14.9176 1121 97.9224 1229.31 496.743
2310 0 79.1538 14.3518 1136 99.2104 1228.89 496.974
2311 0 82.081 14.7415 1210 97.9008 1229.18 495.689
2312 0 82.1615 12.8406 1055 102.534 1228.91 496.797
2313 0 86.1489 13.349 1150 100.859 1229.66 494.732
2314 0 89.2562 13.4444 1200 101.098 1230.07 495.027
2315 0 92.3412 15.1395 1398 99.5694 1229.68 489.547
2316 0 92.2398 13.118 1210 104.536 1229.69 489.861
2317 0 97.1616 14.2855 1388 101.607 1229.82 487.978
2318 0 99.1214 13.771 1365 103.317 1229.68 486.086
2319 0 101.204 13.547 1371 104.889 1229.33 486.257
2320 0 105.174 14.0434 1477 106.144 1230.13 484.622
2321 0 108.205 14.0197 1517 105.916 1230.4 482.26
2322 0 111.306 14.3299 1595 104.355 1230.26 481.151
2323 0 112.343 14.5181 1631 105.49 1230.94 481.551
2324 0 116.268 14.7332 1713 102.834 1230.59 478.785
2325 0 117.262 12.5872 1476 109.055 1232.19 479.194
2326 0 124.259 15.0734 1873 102.666 1231.2 477.298
2327 0 125.358 14.3908 1804 104.82 1231.06 472.027
2328 0 128.243 13.7707 1766 107.673 1230.91 467.674
2329 0 133.48 13.4776 1799 107.98 1231.13 467.591
2330 0 139.484 14.4891 2021 105.388 1230.89 465.24
2331 1 79.3048 13.3157 1056 105.95 1231.36 495.893
2332 0 80.3315 13.5314 1087 107.753 1231.47 492.027
2333 0 84.3945 14.5981 1232 103.17 1231.16 494.121
2334 0 83.4084 13.8955 1159 106.949 1230.98 492.034
2335 0 87.2671 14.9312 1303 103.84 1231.59 490.401
2336 0 88.354 13.3327 1178 109.253 1231.59 488.682
2337 0 90.2265 12.9895 1172 112.433 1232.3 486.045
2338 0 92.395 12.6522 1169 113.109 1232.34 484.518
2339 0 95.2621 12.5128 1192 114.138 1232.14 484.087
2340 0 98.344 13.2087 1299 112.905 1232.52 480.998
2341 0 104.35 12.8318 1339 112.892 1232.28 480.152
2342 0 103.182 12.6766 1308 113.071 1232.38 473.783
2343 0 108.315 12.4267 1346 114.074 1232.48 470.443
2344 0 111.402 12.7915 1425 112.279 1232.75 471.215
2345 0 114.295 13.4651 1539 112.545 1233.03 467.985
2346 0 117.247 13.4503 1577 113.062 1232.99 465.701
2347 0 124.21 13.7912 1713 111.109 1232.32 464.855
2348 0 126.293 13.0173 1644 113.31 1233.16 463.964
2349 1 73.2284 12.1811 892 110.146 1234.02 487.504
2350 0 74.1247 12.0742 895 108.407 1233.33 483.315
2351 0 79.0875 13.2891 1051 111.872 1234.66 487.408
2352 0 81.1689 13.9462 1132 111.231 1235.34 485.125
2353 0 84.1185 14.4201 1213 111.197 1235.41 480.979
2354 0 86.0723 14.6621 1262 111.141 1235.48 481.129
2355 0 90.0831 14.3201 1290 111.855 1235.18 479.895
2356 0 92.1299 14.1865 1307 114.172 1234.81 475.378
2357 0 93.0785 13.537 1260 110.195 1234.72 480.018
2358 0 97.1313 14.2282 1382 109.965 1234.76 475.267
2359 0 99.1204 14.0637 1394 111.168 1234.72 474.493
2360 0 103.142 13.6899 1412 112.64 1235.03 471.994
2361 0 103.196 14.3223 1478 113.16 1235.06 469.773
2362 0 107.208 13.4412 1441 116.375 1234.6 466.729
2363 0 111.332 14.1559 1576 115.388 1233.77 469.157
2364 0 116.442 15.0118 1748 113.654 1234.26 465.621
2365 0 118.435 14.7422 1746 116.355 1234.61 459.494
2366 0 123.382 13.3164 1643 118.117 1234.85 461.89
2367 0 128.635 14.7083 1892 117.111 1234.17 455.992
2368 0 134.417 14.7005 1976 114.847 1234.17 453.836
2369 1 75.463 14.3249 1081 115.686 1234.28 484.824
2370 0 78.4322 14.7898 1160 116.176 1234.57 483.959
2371 0 79.448 13.6693 1086 120.291 1234.43 482.891
2372 0 80.7205 14.1476 1142 119.27 1234.44 482.601
2373 0 85.3934 13.8887 1186 119.485 1234.93 479.806
2374 0 87.6363 14.2064 1245 118.454 1234.62 477.667
2375 0 89.3596 14.2682 1275 118.169 1234.81 474.096
2376 0 92.5922 14.4505 1338 117.438 1235.22 474.215
2377 0 94.391 14.8001 1397 114.008 1234.44 470.359
2378 0 98.5495 14.9874 1477 113.561 1235.06 467.729
2379 0 100.529 14.7719 1485 111.532 1235.69 469.364
2380 0 102.414 14.2364 1458 113.706 1235.07 468.318
2381 0 104.375 13.8922 1450 116.272 1235.72 463.229
2382 0 110.451 13.6713 1510 114.91 1235.12 463.466
2383 0 116.407 15.5231 1807 108.985 1235.25 462.154
2384 0 119.571 14.2175 1700 113.163 1235.28 459.372
2385 1 62.1769 12.77 794 115.684 1235.66 484.984
2386 0 67.1402 13.4644 904 112.787 1235.97 483.286
2387 0 70.2845 13.3742 940 109.624 1234.83 482.503
2388 0 72.5979 13.6505 991 116.56 1235.91 484.734
2389 0 74.5354 13.0274 971 117.955 1236.1 483.671
2390 0 78.5142 13.5644 1065 117.324 1236.33 479.986
2391 0 78.4612 14.2363 1117 116.027 1236.38 479.424
2392 0 80.7991 12.9704 1048 119.848 1236.17 475.783
2393 0 82.8079 13.5736 1124 119.064 1235.95 476.093
2394 0 87.833 13.6509 1199 118.063 1235.99 473.627
2395 0 89.7128 13.3203 1195 119.846 1235.88 472.551
2396 0 92.5741 14.5829 1350 117.718 1236.15 469.751
2397 0 96.6335 13.1528 1271 120.533 1235.9 469.151
2398 0 97.7116 13.7445 1343 118.475 1235.96 468.353
2399 0 101.729 12.7692 1299 119.657 1235.95 466.863
2400 0 103.743 13.8323 1435 117.768 1235.52 464.011
2401 0 108.644 13.6133 1479 115.406 1235.31 463.982
2402 0 112.57 14.2845 1608 112.955 1235.32 462.773
2403 0 114.799 12.5263 1438 115.124 1235.7 463.708
2404 0 120.492 13.8682 1671 111.27 1235.06 459.697
2405 0 125.737 13.3294 1676 109.825 1235.37 455.44
2406 1 70.4681 12.5021 881 112.817 1235.18 481.715
2407 0 72.4916 12.5946 913 113.142 1235.09 478.177
2408 0 76.2881 12.9247 986 110.345 1235.5 478.566
2409 0 79.5117 12.8031 1018 110.313 1235.41 476.359
2410 0 81.5171 13.0402 1063 110.004 1235.64 476.352
2411 0 82.5628 14.4738 1195 107.514 1235.73 473.749
2412 0 85.3911 13.9593 1192 108.909 1235.66 473.2
2413 0 84.5082 12.1763 1029 115.104 1235.75 470.762
2414 0 92.4526 13.8666 1282 109.706 1235.62 467.736
2415 0 95.5038 14.4811 1383 108.145 1235.38 469.704
2416 0 98.2834 14.7227 1447 109.417 1235.2 466.158
2417 0 100.333 14.9004 1495 109.872 1235.3 465.963
2418 0 103.419 14.156 1464 112.283 1235.05 463.689
2419 0 105.38 14.3671 1514 110.83 1234.89 465.419
2420 0 109.447 14.2261 1557 111.473 1234.99 461.794
2421 0 112.491 13.9212 1566 112.847 1235.38 460.353
2422 0 118.401 14.5691 1725 109.667 1234.77 455.937
2423 0 120.345 13.5112 1626 112.966 1235.24 457.533
2424 0 124.516 14.6648 1826 109.728 1234.82 453.913
2425 0 128.376 13.8811 1782 112.122 1235.06 451.384
2426 1 76.2997 12.0577 920 115.882 1235.55 477.671
2427 0 78.3192 14.8239 1161 110.5 1234.99 476.017
2428 0 80.4098 13.3317 1072 114.86 1235.64 475.815
2429 0 84.3248 13.9105 1173 113.664 1234.89 472.83
2430 0 86.3794 14.2164 1228 113.641 1235.37 471.682
2431 0 89.2831 13.5412 1209 116.434 1235.51 469.677
2432 0 92.2818 14.1631 1307 113.977 1235.81 469.265
2433 0 95.2928 13.044 1243 117.027 1235.35 467.995
2434 0 97.1819 13.0889 1272 118.461 1235.08 465.153
2435 0 100.334 13.8638 1391 116.606 1235.19 464.135
2436 0 106.218 14.3478 1524 115.569 1234.8 462.156
2437 0 108.239 14.1724 1534 116.034 1235.76 461.683
2438 0 113.425 14.1415 1604 116.288 1235.35 459.485
2439 0 114.24 13.7254 1568 118.737 1234.66 456.382
2440 0 119.292 13.6723 1631 119.55 1235.2 455.51
2441 0 120.198 13.5859 1633 121.63 1234.74 453.527
2442 0 121.343 13.2023 1602 124.361 1234.55 452.13
2443 0 128.291 13.3446 1712 123.221 1234.95 450.573
2444 0 134.447 13.8865 1867 120.544 1234.56 450.57
2445 0 137.461 13.2328 1819 124.33 1235.02 445.481
2446 1 78.1211 11.5718 904 126.131 1234.96 472.017
2447 0 84.1358 12.5036 1052 121.305 1234.75 473.961
2448 0 83.1088 11.7677 978 126.066 1235.12 468.328
2449 0 87.1504 12.1743 1061 123.746 1234.87 468.478
2450 0 91.1614 11.1999 1021 125.119 1235.54 468.902
2451 0 94.1509 13.1597 1239 119.89 1236.43 468.069
2452 0 96.1815 12.7467 1226 122.326 1236.53 463.028
2453 0 100.244 11.5319 1156 125.47 1236.47 458.915
2454 0 103.22 12.362 1276 122.141 1236.97 458.679
2455 0 104.31 13.4311 1401 120.011 1237 457.51
2456 0 110.184 12.352 1361 121.641 1236.76 457.528
2457 0 113.166 12.7158 1439 120.337 1236.61 456.37
2458 0 112.192 11.3912 1278 126.415 1236.51 448.738
2459 0 114.191 12.8118 1463 123.537 1236.34 451.736
2460 0 119.164 11.6227 1385 126.858 1236.57 446.375
2461 0 127.182 12.7141 1617 122.549 1236.2 445.747
2462 0 124.272 12.0622 1499 126.231 1236.06 440.475
2463 0 130.329 14.6399 1908 119.027 1235.79 439.131
2464 0 134.283 12.3768 1662 124.06 1236.31 439.828
2465 0 145.305 12.6011 1831 118.639 1235.96 436.427
2466 1 84.1153 8.72612 734 108.663 1234.79 469.941
2467 0 92.2679 11.976 1105 107.161 1234.39 473.271
2468 0 94.2638 11.9558 1127 109.188 1234.83 470.115
2469 0 95.1272 11.7211 1115 109.642 1234.55 471.265
2470 0 98.1733 11.7344 1152 108.106 1234.2 472.449
2471 0 100.136 11.5344 1155 110.471 1234.15 468.308
2472 0 105.096 12.2174 1284 106.759 1234.76 468.304
2473 0 107.171 11.197 1200 109.13 1234.17 466.328
2474 0 108.159 11.1318 1204 110.57 1234.38 464.469
2475 0 111.331 11.3625 1265 110.19 1234.32 461.798
2476 0 118.185 13.0812 1546 105.803 1234.84 460.179
2477 0 120.192 12.3885 1489 107.523 1235.03 458.712
2478 0 124.195 12.5529 1559 106.709 1234.99 457.708
2479 0 125.152 11.8496 1483 109.944 1234.95 456.168
2480 0 130.162 12.4384 1619 109.209 1235.48 452.207
2481 0 133.129 12.1311 1615 109.677 1234.9 453.956
2482 0 138.211 12.3724 1710 110.237 1234.8 450.625
2483 0 144.18 12.4566 1796 109.078 1234.56 449.581
2484 0 148.155 13.4926 1999 107.926 1235.37 446.907
2485 0 152.238 12.4673 1898 114.367 1236.26 439.985
2486 1 90.2913 9.92344 896 108.934 1236.79 472.102
2487 0 95.3306 11.35 1082 105.97 1237.08 470.435
2488 0 99.367 12.006 1193 104.624 1236.56 469.837
2489 0 101.217 11.915 1206 105.857 1237.04 466.706
2490 0 105.395 11.8981 1254 106.136 1235.06 468.505
2491 0 103.319 11.2758 1165 109.804 1234.79 466.6
2492 0 105.287 10.4381 1099 113.466 1235.02 462.834
2493 0 110.377 11.5513 1275 110.595 1235.23 463.642
2494 0 113.41 12.1065 1373 110.385 1234.72 459.401
2495 0 117.566 12.8183 1507 108.406 1234.55 457.721
2496 0 115.763 10.6079 1228 115.733 1235.4 453.636
2497 0 120.561 12.2179 1473 111.131 1235.05 449.151
2498 0 118.592 11.5776 1373 114.832 1234.91 440.352
2499 0 126.639 11.4735 1453 114.509 1235.12 444.535
2500 0 131.404 12.6633 1664 112.255 1234.84 439.572
2501 0 134.618 13.9654 1880 110.28 1235.16 438.655
2502 0 139.553 11.888 1659 116.099 1234.62 437.899
2503 0 143.622 11.8993 1709 117.793 1234.73 432.821
2504 0 146.674 12.5994 1848 118.367 1234.75 428.693
2505 0 153.502 13.0357 2001 118.17 1235.38 424.711
2506 1 72.2111 8.41975 608 108.939 1236.13 475.855
2507 0 74.2411 7.69116 571 102.042 1234.83 469.821
2508 0 78.257 9.8266 769 95.9194 1235.59 475.273
2509 0 81.2317 10.1808 827 98.5345 1237.06 479.376
2510 0 82.1264 9.33927 767 100.859 1237.36 478.559
2511 0 85.348 10.838 925 99.4876 1237.27 477.342
2512 0 87.2803 11.2855 985 99.1269 1237.33 476.518
2513 0 89.5467 11.7927 1056 99.4782 1237.5 476.14
2514 0 90.351 10.4371 943 104.516 1237.07 473.784
2515 0 93.2578 11.9454 1114 101.407 1237.44 475.037
2516 0 96.3762 11.424 1101 104.533 1236.78 470.761
2517 0 97.2975 10.7197 1043 108.616 1236.88 466.547
2518 0 101.324 10.7773 1092 108.3 1236.88 467.169
2519 0 104.223 11.7729 1227 106.303 1237.13 465.695
2520 0 105.463 12.0043 1266 108.664 1236.31 466.271
2521 0 107.458 10.9717 1179 113.738 1236.4 465.645
2522 0 109.424 10.4456 1143 114.145 1236.23 465.964
2523 0 113.448 11.0182 1250 115.348 1235.69 460.146
2524 0 117.574 12.4602 1465 113.537 1235.11 456.216
2525 0 119.798 13.1305 1573 114.189 1234.86 453.266
2526 0 122.553 13.4636 1650 113.794 1234.98 454.332
2527 0 126.578 12.5298 1586 116.451 1235.27 451.736
2528 0 130.612 13.2683 1733 115.173 1235.56 450.469
2529 0 131.585 12.9118 1699 118.107 1235.1 448.686
2530 0 134.508 11.977 1611 122.083 1235.61 446.669
2531 0 137.6 13.045 1795 121.28 1235.74 441.909
2532 0 142.503 12.5331 1786 122.551 1235.44 442.082
2533 0 142.546 13.0063 1854 123.982 1235.68 437.66
2534 0 145.458 13.1378 1911 123.924 1235.96 437.877
2535 0 153.599 14.0756 2162 121.238 1236.33 435.188
2536 0 160.733 16.1323 2593 114.772 1235.61 423.821
2537 0 160.364 13.432 2154 125.206 1235.86 430.006
2538 0 169.388 18.2303 3088 109.089 1235.95 419.238
2539 0 164.514 13.2208 2175 126.958 1235.61 420.357
2540 0 172.53 13.36 2305 124.467 1236.04 419.482
2541 0 173.505 12.2878 2132 127.618 1236.47 418.469
2542 0 178.433 12.1446 2167 127.093 1236.26 415.615
2543 0 184.568 13.4909 2490 122.81 1236.21 417.517
2544 0 192.63 14.6032 2813 118.973 1236.56 412.717
2545 0 196.394 13.8293 2716 121.195 1236.51 412.914
2546 0 202.696 14.6278 2965 119.313 1236.55 410.374
2547 0 207.462 14.2147 2949 121.794 1236.77 403.289
2548 0 213.553 14.2681 3047 121.295 1236.57 400.536
2549 0 220.746 14.4464 3189 120.22 1237.03 398.776
2550 0 226.685 12.7622 2893 124.657 1236.21 388.706
2551 0 234.552 14.0822 3303 121.881 1235.96 387.046
2552 0 242.791 14.4816 3516 123.452 1236.51 384.76
2553 1 297.064 14.0071 4161 121.55 1236.94 360.597
2554 1 185.546 9.82505 1823 124.155 1236.86 413.83
2555 0 193.531 12.5871 2436 116.97 1236.4 413.725
2556 0 196.442 11.1127 2183 122.198 1237.51 403.549
2557 0 204.364 12.0422 2461 119.685 1236.22 404.314
2558 0 210.505 12.6125 2655 118.383 1236.85 400.255
2559 1 28.1712 5.04061 142 91.2535 1233.83 497.613
2560 0 24.0168 5.45453 131 87.6489 1233.11 503.573
2561 0 26.0269 8.79858 229 83.3668 1233.58 501.349
2562 0 24.1241 4.55976 110 87.9091 1234.07 503.018
2563 0 19.0031 6.05164 115 85.6087 1232.9 504.713
2564 0 22.0157 4.99644 110 85.6455 1233.03 505.2
2565 0 21.0142 5.13937 108 85.1759 1233.76 504.157
2566 0 20.0113 6.5463 131 84.4656 1232.82 502.992
2567 0 21.0498 5.60576 118 85.7542 1232.71 502.797
2568 0 18.002 5.38829 97 83.2887 1233.33 505.464
2569 0 23.0295 5.3844 124 81.7984 1233.37 503.863
2570 0 15.0144 6.26064 94 80.0638 1232.45 506.862
2571 0 23.0235 4.77772 110 83.7 1233.28 504.3
2572 0 21.0037 5.23718 110 81.4273 1234.41 507.9
2573 0 22.0282 5.35678 118 83.7542 1234.14 503.492
2574 0 21.0278 6.61031 139 80.2662 1234.19 507.496
2575 0 20.006 5.54834 111 81.2252 1234.05 506.541
2576 0 16.044 4.98628 80 82.1625 1234.74 505.412
2577 1 192.704 11.3387 2185 99.5419 1235.99 418.721
2578 0 199.576 11.4593 2287 99.6506 1235.31 414.621
2579 0 202.559 11.7053 2371 99.919 1235.62 408.51
2580 0 209.653 11.9388 2503 99.2517 1236.12 408.022
2581 0 215.831 12.3708 2670 98.261 1235.59 410.922
2582 0 221.694 12.0617 2674 100.891 1235.26 397.081
2583 0 228.858 12.2871 2812 100.355 1235.81 397.383
2584 0 235.763 12.5126 2950 100.113 1235.83 388.886
2585 0 240.941 12.472 3005 100.773 1234.64 384.841
2586 0 248.076 13.383 3320 99.3446 1235.14 382.691
2587 0 256.353 13.0133 3336 100.815 1234.76 377.321
2588 0 264.926 14.3247 3795 97.4767 1235.71 374.542
2589 0 274.325 14.1985 3895 98.5248 1235.74 365.368
2590 1 207.145 10.1378 2100 95.1924 1235.98 403.697
2591 0 212.036 9.47008 2008 98.4303 1236.14 403.116
2592 0 221.194 12.5817 2783 92.2494 1235.86 407.018
2593 0 224.932 11.19 2517 99 1235.38 393.378
2594 0 234.178 12.4905 2925 96.4581 1235.83 392.042
2595 0 238.953 12.6552 3024 96.4901 1236.07 389.673
2596 0 244.023 10.7039 2612 102.085 1235.53 381.208
2597 0 254.168 12.1022 3076 100.757 1236.29 380.351
2598 0 261.205 13.0664 3413 100.375 1236.01 379.2
2599 0 268.024 12.7041 3405 101.139 1236.48 376.469
2600 0 274.104 10.8937 2986 105.494 1236.17 364.197
2601 0 283.96 15.1395 4299 94.2852 1236.38 362.813
2602 0 290.718 14.619 4250 94.0904 1236.6 362.742
2603 0 297.976 14.8703 4431 95.3503 1236.16 349.733
2604 0 307.975 15.2545 4698 94.5862 1236.68 344.926
2605 1 244.354 11.3769 2780 95.4313 1236.2 388.466
2606 0 246.871 11.7268 2895 98.2259 1236.19 382.784
2607 0 254.83 12.526 3192 97.3957 1236.27 380.616
2608 0 260.66 12.6371 3294 98.1351 1236.42 376.584
2609 0 270.766 13.1035 3548 97.6615 1236.53 372.141
2610 0 276.645 11.9648 3310 102.136 1236.56 362.87
2611 0 284.631 13.6598 3888 99.6466 1236.87 358.934
2612 0 292.651 13.2752 3885 99.9987 1237.32 361.719
2613 0 298.669 14.3637 4290 98.3434 1237.21 351.796
2614 0 308.419 15.4627 4769 96.51 1237.57 351.942
2615 0 318.488 15.5234 4944 97.2755 1237.78 344.981
2616 0 326.712 16.0417 5241 98.7249 1237.39 338.18
2617 0 333.646 15.3216 5112 101.936 1236.78 336.715
2618 0 345.719 16.3543 5654 99.3482 1237.11 329.656
2619 0 353.712 14.8624 5257 103.099 1237.1 322.701
2620 0 365.008 16.2188 5920 100.774 1237.03 312.893
2621 0 371.758 15.198 5650 104.685 1236.46 313.398
2622 0 377.563 15.0147 5669 108.223 1236.42 280.072
2623 0 390.654 16.7975 6562 103.792 1236.62 290.807
2624 0 395.974 15.5642 6163 108.076 1236.1 287.464
2625 0 408.754 16.68 6818 104.419 1236.37 287.381
