time division length width area intensity CMx CMy
0 0 78.2117 11.4689 897 112.276 1266.52 461.952
1 0 83.2386 12.8186 1067 107.771 1265.59 463.012
2 0 88.4706 14.3211 1267 103.578 1266.14 452.223
3 0 87.2923 10.6997 934 112.383 1266 456.767
4 0 88.4115 10.6434 941 111.153 1266.28 459.92
5 0 92.4298 11.2626 1041 110.58 1265.39 455.297
6 0 96.4791 12.0233 1160 109.396 1266.42 450.753
7 0 99.4613 12.256 1219 108.71 1265.96 453.258
8 1 52.3776 10.4434 547 105.388 1265.59 477.514
9 0 52.3542 11.5368 604 101.75 1265.56 477.238
10 0 54.2272 11.0277 598 102.773 1266.13 477.567
11 0 55.1798 12.8308 708 100.653 1266.73 476.46
12 0 56.2013 11.6723 656 103.297 1268.53 475.657
13 0 57.3892 12.2148 701 102.369 1267.62 477.853
14 0 59.3099 11.9879 711 102.03 1267.79 475.488
15 0 62.2088 13.4708 838 98.6086 1266.83 474.914
16 0 63.4513 10.4174 661 103.539 1267.68 474.399
17 0 64.274 11.2954 726 102.877 1267.59 469.897
18 0 65.3442 13.7732 900 97.7767 1268.18 467.786
19 0 67.3731 11.0727 746 103.94 1267.28 468.304
20 0 70.1873 12.9653 910 99.8593 1268.3 465.223
21 0 71.4735 12.2563 876 101.354 1267.87 468.675
22 0 73.4595 12.9868 954 100.658 1267.89 465.677
23 0 75.3356 11.7607 886 104.074 1267.04 464.12
24 0 77.3568 12.3066 952 103.603 1267.56 462.341
25 0 79.3167 14.6754 1164 99.0902 1268.15 461.485
26 0 80.2887 11.6704 937 107.213 1267.92 458.115
27 0 84.3698 13.2749 1120 103.137 1268.01 458.403
28 0 85.3755 11.9824 1023 106.145 1267.95 458.142
29 0 88.3118 11.3801 1005 107.706 1267.93 455.788
30 0 93.3817 12.8291 1198 104.875 1268.65 453.199
31 0 96.3109 12.9269 1245 104.51 1268.99 454.214
32 0 99.104 12.0883 1198 99.4775 1268.73 453.982
33 0 102.352 11.1575 1142 102.276 1268.5 449.109
34 0 106.169 12.5083 1328 97.988 1268.23 451.582
35 0 106.177 12.5074 1328 116.933 1267.24 451.593
36 1 58.2597 10.2644 598 101.726 1267.41 471.876
37 0 59.2292 12.3588 732 97.9495 1267.61 469.93
38 0 64.1532 11.4102 732 102.713 1267.91 467.332
39 0 64.2309 11.4431 735 104.165 1267.37 465.335
40 0 66.1636 11.925 789 102.752 1267.37 465.549
41 0 71.2924 13.4236 957 99.2351 1267.93 465.114
42 0 72.3911 11.8661 859 103.292 1267.8 465.945
43 0 72.3901 11.7972 854 105.063 1267.01 462.451
44 0 76.3942 13.2209 1010 101.494 1267.43 460.668
45 0 77.556 12.5974 977 104.414 1268.28 460.567
46 0 78.5451 12.2605 963 106.007 1267.22 461.112
47 0 82.6061 12.7594 1054 105.235 1268.07 459.403
48 0 85.4876 12.5866 1076 105.527 1267.27 457.625
49 0 86.3585 11.6723 1008 101.469 1267.82 457.554
50 0 90.3152 11.9913 1083 100.175 1266.46 456.95
51 0 92.2582 11.5979 1070 100.906 1267.34 455.173
52 0 94.166 10.7045 1008 101.616 1266.46 455.39
53 0 99.3284 12.2019 1212 99.2219 1267.2 455.208
54 0 101.305 11.7467 1190 100.946 1266.76 453.064
55 0 105.216 11.9753 1260 101.66 1266.76 449.391
56 1 54.089 10.0205 542 101.773 1267.65 478.085
57 0 57.1788 11.91 681 101.626 1267.63 477.602
58 0 59.2142 12.2943 728 107.521 1268.23 471.613
59 0 62.1992 13.5532 843 103.932 1267.77 474.921
60 0 66.1279 13.2017 873 103.869 1267.78 472.837
61 0 66.2415 13.0734 866 106.139 1267.96 470.054
62 0 67.2049 13.1836 886 106.439 1267.78 468.791
63 0 71.4012 13.2211 944 106.714 1268.58 466.141
64 0 70.3837 13.0428 918 107.614 1267.87 467.905
65 0 69.3918 11.817 820 143.401 1266.75 465.943
66 0 74.5127 12.2798 915 111.933 1267.75 456.625
67 0 79.3476 12.9935 1031 109.055 1267.87 460.022
68 0 80.5761 12.9071 1040 110.643 1268.95 460.312
69 0 83.3187 12.9743 1081 107.442 1268.29 459.713
70 0 83.2332 11.3056 941 109.9 1268.99 451.752
71 0 89.2918 11.972 1069 105.179 1268 455.166
72 0 91.4056 12.4391 1137 104.832 1267.35 451.628
73 0 92.4584 11.4971 1063 106.333 1267.4 451.128
74 0 96.3042 12.1594 1171 103.725 1268.81 454.16
75 0 98.452 13.3771 1317 101.169 1267.91 454.102
76 0 101.363 10.7633 1091 104.775 1268.51 454.83
77 0 105.364 11.5789 1220 102.846 1267.56 451.271
78 0 109.442 10.8459 1187 103.655 1268.13 449.809
79 0 112.49 9.81425 1104 105.898 1267.84 446.413
80 1 60.1179 10.5459 634 100.909 1268.51 473.756
81 0 64.2509 12.3422 793 106.102 1268.12 470.851
82 0 65.2379 12.4161 810 109.496 1268.42 463.383
83 0 69.1874 13.196 913 107.115 1268.48 453.623
84 0 72.1096 12.3839 893 108.045 1268.51 454.184
85 0 71.2775 11.9393 851 110.036 1268.8 450.016
86 0 76.189 12.3377 940 107.826 1267.4 442.63
87 0 78.3224 12.5635 984 108.295 1267.01 442.484
88 0 80.1405 12.7401 1021 107.226 1267.68 444.026
89 0 81.2062 11.9572 971 109.252 1267.98 444.812
90 0 84.2897 12.8248 1081 100.958 1268.77 446.9
91 0 85.113 10.2922 876 103.808 1268.85 447.895
92 0 89.2708 11.818 1055 99.5384 1268.75 450.702
93 0 93.2544 11.2381 1048 98.4771 1267.35 455.298
94 0 96.2214 10.85 1044 98.4224 1268.19 455.852
95 1 53.0415 9.23806 490 95.8837 1269.25 479.351
96 0 55.0321 10.9936 605 92.8545 1268.24 480.261
97 0 57.0397 11.5709 660 101.43 1267.71 469.253
98 0 59.1405 11.5995 686 99.5889 1267.18 464.876
99 0 61.0736 11.216 685 102.145 1266.57 466.702
100 0 62.0622 12.133 753 90.8938 1267.2 469.421
101 0 64.1057 12.1674 780 91.4872 1266.18 469.123
102 0 65.1317 12.0372 784 91.3163 1265.91 470.684
103 0 66.1938 11.9195 789 92.1521 1265.9 469.122
104 0 71.1907 12.1645 866 90.1663 1266.58 468.927
105 0 70.0896 11.5994 813 93.1943 1265.91 455.768
106 0 74.0956 12.4299 921 91.7242 1266.29 457.481
107 0 76.0449 12.0587 917 92.217 1266.05 459.298
108 0 78.0737 12.2448 956 91.7897 1266.79 460.165
109 0 82.104 12.606 1035 90.3507 1266.53 461.67
110 0 82.0904 11.9624 982 92.9104 1267.01 458.11
111 0 88.1616 14.0764 1241 89.3989 1266.6 448.767
112 0 86.0795 11.5242 992 95.7349 1266.34 449.231
113 0 91.1913 13.1701 1201 92.0699 1265.45 453.983
114 0 95.2237 13.19 1256 91.7834 1266.18 458.216
115 0 98.1103 12.4758 1224 93.3562 1266.27 457.663
116 0 101.192 13.0247 1318 87.9742 1267.15 455.137
117 0 106.243 11.8032 1254 87.5837 1266.59 456.696
118 0 112.183 12.9609 1454 87.0901 1267.43 437.089
119 0 112.148 12.2695 1376 96.1323 1266.23 441.842
120 0 116.133 12.6493 1469 95.3812 1266.72 447.306
121 1 62.0328 11.7841 731 91.7346 1266.31 477.306
122 0 63.0564 11.4977 725 93.0814 1266.44 476.468
123 0 65.051 13.1435 855 90.1251 1267.18 472.361
124 0 69.0389 13.0072 898 89.8174 1266.23 470.184
125 0 67.0514 12.1101 812 92.3202 1266.29 470.255
126 0 73.0301 12.8851 941 88.8905 1267.65 472.914
127 0 75.158 12.2409 920 90.3283 1266.35 467.045
128 0 78.0821 13.2937 1038 87.6628 1266.89 469.224
129 0 78.0543 11.3767 888 91.9651 1265.76 464.637
130 0 82.2353 12.4399 1023 90.8377 1266.33 460.413
131 0 84.3199 12.3577 1042 90.6209 1266.19 458.907
132 0 89.2865 13.1823 1177 89.6253 1266.39 455.172
133 0 91.2552 12.2623 1119 91.2958 1266.12 457.013
134 1 49.2079 10.6284 523 89.2658 1265.84 481.66
135 0 52.0389 11.28 587 88.2198 1266.32 480.17
136 0 53.1085 12.3521 656 86.2424 1266.63 474.916
137 0 56.0308 11.7079 656 88.7165 1266.7 475.236
138 0 55.0666 12.1852 671 88.8465 1266.56 479.355
139 0 57.1314 12.0774 690 90.1812 1266.83 477.445
140 0 58.0871 11.4483 665 92.018 1266.11 470.23
141 0 61.132 14.2151 869 86.2946 1266.62 471.953
142 0 60.0443 11.708 703 91.1878 1266.5 472.343
143 0 63.1696 12.2686 775 89.671 1266.9 473.199
144 0 66.1169 11.888 786 90.514 1266.63 465.173
145 0 68.1312 11.9475 814 90.3219 1266.49 463.205
146 0 69.1064 12.8063 885 89.6723 1266.51 466.881
147 0 74.1761 12.3625 917 88.277 1265.77 467.799
148 0 72.185 11.1103 802 93.101 1266.08 462.252
149 0 79.2506 13.1482 1042 87.952 1266.42 457.275
150 0 82.5113 14.1314 1166 85.2127 1266.35 450.751
151 0 84.2497 14.3977 1213 85.3331 1266.28 452.242
152 0 86.2646 12.4848 1077 88.389 1265.53 451.427
153 0 88.2041 11.394 1005 88.2716 1265.9 450.981
154 1 49.4313 12.4213 614 77.6547 1265.96 480.972
155 0 48.1153 11.4932 553 80.2911 1265.07 478.354
156 0 49.0299 9.74915 478 90.6569 1267.05 481.925
157 0 53.0661 12.0228 638 87.8824 1266.64 478.868
158 0 53.0793 10.9082 579 91.6235 1266.81 477.437
159 0 57.1457 12.6694 724 87.5041 1266.03 468.778
160 0 57.1357 13.3367 762 87.9042 1265.56 469.303
161 0 59.186 12.6719 750 88.188 1265.3 472.216
162 0 58.1991 10.4641 609 92.7323 1265.61 471.624
163 0 62.1661 13.3674 831 86.7641 1266.43 469.767
164 0 61.268 12.0454 738 91 1265.07 467.336
165 0 64.1048 11.606 744 91.2554 1265.94 469.027
166 0 67.2482 12.2829 826 89.7639 1265.66 467.714
167 0 69.1683 11.5371 798 91.1855 1266.27 467.395
168 0 70.3612 14.8377 1044 86.0536 1265.92 467.563
169 0 70.2571 12.8101 900 90.6567 1265.11 464.516
170 0 74.2661 13.2362 983 91.1333 1264.63 462.04
171 0 77.5925 13.3905 1039 90.4687 1265.34 462.828
172 0 78.4483 12.9894 1019 93.4622 1265.6 459.255
173 0 82.4296 13.0293 1074 91.5922 1265.85 459.517
174 0 84.5193 11.8553 1002 90.4162 1265.41 454.749
175 0 88.142 12.4572 1098 90.0446 1265.46 453.76
176 1 50.2594 9.57035 481 89.185 1265.36 476.815
177 0 51.2188 10.1916 522 86.9789 1265.81 478.115
178 0 52.1419 10.3564 540 87.1759 1265.15 479.433
179 0 55.3365 12.3607 684 82.9664 1266 478.329
180 0 57.1196 12.9903 742 92.4555 1266.14 469.598
181 0 56.1814 12.3706 695 96.1094 1265.79 466.987
182 0 57.1737 12.6632 724 96.2528 1266.24 468.164
183 0 60.087 13.6802 822 94.2214 1265.64 469.128
184 0 61.1278 12.4002 758 97.0528 1266.48 470.202
185 0 63.1811 13.2476 837 94.9295 1265.2 471.716
186 0 64.1559 12.4073 796 97.794 1265.11 469.487
187 0 67.1865 14.497 974 94.3306 1265.85 463.933
188 0 69.2829 12.7881 886 96.7822 1265.81 465.253
189 0 71.0797 14.3782 1022 93.4129 1266.15 466.631
190 0 71.0737 12.0438 856 99.5444 1265.76 466.48
191 0 74.1596 12.972 962 97.5364 1265.93 465.842
192 0 80.3103 14.3444 1152 93.0825 1265.47 465.737
193 0 81.2716 15.159 1232 91.9245 1266.01 466.003
194 0 83.1894 13.1868 1097 96.8496 1265.7 450.159
195 0 86.1714 13.7052 1181 96.3971 1266.03 445.936
196 0 91.2848 13.4743 1230 95.6642 1265.1 445.391
197 0 92.1961 13.9594 1287 95.2106 1265.31 443.151
198 0 94.2469 13.0508 1230 96.6496 1265.69 444.254
199 0 99.1559 13.9982 1388 94.7608 1265.08 440.631
200 0 99.2421 13.069 1297 97.185 1265.33 442.9
201 0 104.21 15.1905 1583 92.3285 1265.25 446.072
202 0 106.441 12.9086 1374 97.147 1265.32 445.552
203 1 55.0315 10.703 589 97.4907 1266.27 464.968
204 0 56.0716 10.3082 578 94.7197 1267.01 466.355
205 0 59.0376 10.7559 635 90.8205 1266.67 470.369
206 0 61.1856 11.2772 690 97.5899 1266.21 470.054
207 0 62.0942 14.0915 875 93.7189 1265.81 471.523
208 0 65.1474 14.0911 918 93.3987 1265.46 470.27
209 0 68.2467 12.3962 846 96.3558 1265.99 467.167
210 0 70.1297 14.1737 994 93.3561 1265.34 461.761
211 0 71.15 13.1412 935 96.8952 1266.19 454.518
212 0 76.1028 14.7301 1121 93.9492 1266 453.022
213 0 78.1963 13.0185 1018 97.7721 1266.36 454.389
214 0 78.1285 13.3242 1041 98.2094 1266.33 454.896
215 0 83.2427 14.3556 1195 95.3699 1266.63 446.38
216 0 86.1825 13.9239 1200 93.6408 1266.78 448.672
217 0 89.1501 13.3707 1192 93.8205 1266.43 452.204
218 0 92.3179 13.8976 1283 92.8769 1265.37 456.429
219 0 93.2332 13.6432 1272 93.8475 1266.02 457.109
220 0 99.278 14.3033 1420 90.9408 1265.63 454.951
221 0 99.3411 13.0258 1294 94.8138 1265.81 453.053
222 0 103.137 13.0409 1345 94.4848 1266.69 451.484
223 1 59.0958 12.3528 730 88.2384 1266.47 477.112
224 0 58.2003 13.2302 770 88.9416 1266.09 473.277
225 0 62.1986 12.3797 770 94.5221 1266.4 468.948
226 0 65.1259 13.5584 883 93.5719 1266.16 469.263
227 0 65.1341 12.7276 829 96.1399 1265.89 470.285
228 0 67.0557 13.1234 880 95.6523 1264.67 470.889
229 0 69.0784 13.5209 934 94.167 1264.85 470.967
230 0 72.0974 13.0102 938 95.226 1265.56 464.223
231 0 75.2269 13.1336 988 95.6296 1265.91 459.302
232 0 79.2051 13.181 1044 94.7596 1266.64 457.863
233 0 80.2901 13.7501 1104 93.9375 1266.13 461.3
234 0 82.1922 14.1863 1166 94.2727 1265.69 464.154
235 0 85.2817 13.3323 1137 96.1715 1265.68 455.393
236 0 86.2394 13.335 1150 96.6609 1265.78 449.616
237 0 87.1655 13.5375 1180 98.3797 1265.3 444.042
238 0 89.3086 12.2609 1095 100.479 1265.33 446.52
239 0 96.3564 13.3567 1287 97.5089 1266.27 447.329
240 0 99.1579 11.759 1166 98.1475 1265.69 449.001
241 0 101.257 13.5991 1377 94.0058 1265.82 453.773
242 0 107.244 13.3061 1427 95.1065 1264.26 452.811
243 1 57.0983 9.65002 551 94.9927 1265.81 479.572
244 0 60.142 11.8054 710 89.4958 1266.04 479.213
245 0 61.1625 12.3442 755 88.2331 1266.08 476.134
246 0 63.1058 12.9465 817 93.5924 1265.7 474.644
247 0 65.0837 12.0307 783 95.6373 1265.51 472.58
248 0 68.1684 11.6183 792 96.1755 1265.59 473.307
249 0 68.1007 12.5403 854 96.0726 1265.96 469.581
250 0 71.1538 13.9276 991 93.0918 1266.26 468.632
251 0 74.1096 11.2941 837 89.5699 1266.24 470.829
252 0 78.1099 13.0585 1020 92.0275 1265.4 468.787
253 0 80.0701 13.2259 1059 93.2483 1264.44 466.214
254 0 82.256 13.0203 1071 93.3912 1265.91 466.425
255 0 84.0796 12.0719 1015 94.5665 1265.89 467.209
256 0 86.2179 12.1204 1045 96.1531 1265.88 463.788
257 0 90.2401 13.6192 1229 93.6932 1265.5 461.905
258 0 91.1154 12.1823 1110 95.2081 1265.7 460.578
259 0 95.0703 13.2113 1256 91.5955 1266.15 461.768
260 0 99.0761 13.202 1308 93.4213 1265.23 456.228
261 0 102.13 12.6897 1296 94.6451 1265.94 457.623
262 0 105.127 13.1746 1385 92.9278 1266.45 454.087
263 0 108.095 12.378 1338 93.8356 1266.01 451.408
264 0 111.18 12.5112 1391 94.8821 1264.81 447.912
265 1 61.115 11.2411 687 91.7103 1266.83 474.849
266 0 65.2648 12.1658 794 94.6549 1266.14 471.581
267 0 65.0454 11.7918 767 97.4185 1265.43 468.817
268 0 69.3094 12.134 841 96.7313 1265.51 457.859
269 0 71.2125 12.9331 921 96.1726 1265.44 458.15
270 0 73.4211 12.1627 893 97.3203 1265.86 459.548
271 0 75.2504 13.2624 998 95.0541 1265.31 463.255
272 0 78.2039 14.833 1160 92.6155 1265.52 459.253
273 0 80.2934 13.2888 1067 95.8519 1264.82 458.289
274 0 81.378 13.6278 1109 95.5726 1265.69 463.926
275 0 85.2837 13.5782 1158 93.3601 1265.31 462.039
276 0 87.175 13.7425 1198 91.2579 1265.36 461.851
277 0 91.1834 14.1035 1286 88.1501 1266.39 463.558
278 0 93.1473 13.527 1260 89.3302 1265.61 460.562
279 0 96.1379 12.5757 1209 90.8098 1266 459.727
280 0 97.1794 12.5129 1216 92.7516 1266.07 456.431
281 1 50.1059 9.20052 461 95.7527 1266.82 478.269
282 0 54.0369 11.6032 627 92.5598 1265.84 479.496
283 0 55.1294 11.3188 624 98.9343 1266.59 476.753
284 0 59.0956 13.3343 788 95.4581 1266.7 472.668
285 0 59.0836 11.7461 694 100.007 1265.49 469.52
286 0 60.0701 11.8029 709 101.567 1265.91 469.539
287 0 64.0571 13.1289 841 97.5874 1265.48 473.944
288 0 65.077 13.63 887 96.8083 1265.58 474.09
289 0 68.1314 13.5033 920 98.2315 1266.03 466.649
290 0 69.0756 12.9424 894 99.7081 1265.17 464.886
291 0 72.0852 13.928 1004 97.5319 1266.04 469.923
292 0 75.0861 14.0505 1055 97.4796 1265.92 468.338
293 0 78.0564 12.4525 972 100.493 1264.74 467.666
294 0 78.0851 13.2035 1031 99.5005 1265.5 467.858
295 0 84.0848 13.415 1128 99.8023 1265.5 459.32
296 0 86.1783 12.5438 1081 100.309 1264.86 460.253
297 0 88.1299 14.1723 1249 98.5572 1264.98 458.243
298 0 90.156 12.8666 1160 101.237 1265.47 457.502
299 0 94.2572 12.5402 1182 100.184 1266.55 459.695
300 0 97.1825 13.2328 1286 98.6983 1265.58 457.092
301 0 98.1365 11.8712 1165 100.574 1265.18 454.827
302 0 102.14 12.6395 1291 98.4973 1266.08 454.629
303 1 58.1689 11.7589 684 93.2442 1265.96 475.449
304 0 59.1364 11.2283 664 100.425 1266.62 474.92
305 0 62.0404 13.3461 828 97.3998 1266.12 465.143
306 0 65.1079 13.0399 849 97.8881 1266.61 470.355
307 0 66.0866 12.8165 847 98.2739 1266.4 472.491
308 0 67.0964 13.2496 889 99.0101 1265.8 469.195
309 0 71.0445 12.6822 901 98.6459 1265.87 471.689
310 0 71.1678 12.5197 891 100.074 1266.6 470.561
311 0 74.1371 13.0704 969 99.8937 1266.67 467.957
312 0 77.2096 12.4207 959 100.696 1266.72 462.019
313 0 77.2133 11.4488 884 104.515 1266.72 460.864
314 0 82.1211 12.993 1067 99.88 1266.6 465.502
315 0 83.2213 11.884 989 97.0425 1266.24 464.108
316 0 89.2455 15.1604 1353 95.153 1266.5 458.237
317 0 91.2148 14.4275 1316 97.6185 1266.61 459.928
318 0 92.2028 12.2556 1130 102.105 1267.09 459.014
319 0 96.2927 13.5524 1305 100.449 1267.88 455.68
320 0 101.373 13.3172 1350 101 1267.45 452.093
321 1 51.1144 10.7798 551 98.4682 1267.61 477.201
322 0 54.1426 11.6729 632 101.226 1266.04 476.233
323 0 56.0618 12.504 701 99.9244 1266.42 478.422
324 0 57.0502 14.198 810 98.1716 1267.67 474.115
325 0 59.0734 12.7468 753 101.586 1267.5 473.523
326 0 60.0564 13.9702 839 98.8308 1268.15 476.184
327 0 61.0903 13.2918 812 101.645 1267.25 475.719
328 0 63.0243 12.6142 795 102.679 1268.15 476.269
329 0 63.1478 13.413 847 103.073 1267.15 472.08
330 0 68.1258 13.4457 916 101.56 1268.13 471.396
331 0 68.0873 11.7349 799 106.444 1267.71 469.814
332 0 70.0658 12.7024 890 104.07 1266.91 470.8
333 0 74.1127 13.6819 1014 102.688 1266.62 463.133
334 0 75.1924 14.2967 1075 101.68 1267.69 462.693
335 0 77.1647 13.5554 1046 103.627 1267.95 463.076
336 0 79.0573 12.8388 1015 105.872 1268.13 463.228
337 0 81.1325 14.1743 1150 103.255 1268.13 462.373
338 0 87.1832 15.8287 1380 98.3391 1267.79 460.695
339 0 85.1484 15.6903 1336 99.9873 1268.01 459.331
340 0 89.1652 13.8171 1232 104.843 1266.63 450.228
341 0 91.2159 13.4187 1224 105.892 1266.69 451.709
342 0 94.2081 14.2451 1342 104.411 1266.31 445.329
343 0 98.3733 15.1972 1495 101.315 1266.78 447.965
344 0 102.193 15.9013 1625 99.6492 1267.12 454.263
345 0 102.243 13.8494 1416 105.386 1267.19 452.286
346 0 106.291 15.2976 1626 101.795 1266.15 452.581
347 0 110.281 14.0459 1549 104.52 1266.84 448.901
348 0 114.435 13.9119 1592 104.323 1266.76 449.354
349 0 119.651 14.9268 1786 102.469 1265.87 445.082
350 0 126.354 16.7149 2112 97.0933 1265.89 440.455
351 0 128.214 15.0218 1926 98.703 1266.07 437.174
352 1 74.1748 12.6728 940 95.9755 1267.25 468.834
353 0 75.1608 13.1984 992 95.246 1267.39 470.475
354 0 77.1259 12.7584 984 98.7917 1266.76 459.677
355 0 81.2466 13.9821 1136 96.0599 1266.64 458.251
356 0 82.132 13.3444 1096 97.2354 1267.01 459.508
357 0 84.1559 13.3086 1120 95.5982 1267 464.944
358 0 93.1899 15.6562 1459 89.6648 1267.56 461.509
359 0 95.2024 16.4702 1568 88.8654 1266.77 456.217
360 0 97.1228 16.0827 1562 89.904 1266.56 457.134
361 0 99.3461 14.8572 1476 92.7852 1266.56 453.366
362 0 102.308 13.4496 1376 93.7631 1267.27 454.021
363 0 105.276 13.0039 1369 92.943 1267.14 453.901
364 0 110.308 13.3807 1476 92.853 1267.57 450.494
365 1 62.2007 12.6044 784 87.2398 1267.11 476.147
366 0 61.1237 10.7487 657 92.4094 1267.36 476.399
367 0 66.1137 13.8398 915 89.0372 1266.83 473.558
368 0 67.3651 12.4397 838 90.3998 1266.29 474.936
369 0 69.179 11.5787 801 91.3109 1267.33 472.732
370 0 72.1332 13.9603 1007 87.0149 1267.41 472.95
371 0 74.3555 12.911 960 88.7396 1267.63 471.972
372 0 77.2072 13.6775 1056 87.9754 1267.18 470.152
373 0 78.1786 13.9936 1094 88.0055 1267.43 467.135
374 0 81.1731 13.1694 1069 90.2993 1266.9 465.927
375 0 84.2043 13.4197 1130 89.2611 1267.26 467.896
376 0 87.1121 12.9948 1132 90.3145 1267.62 465.607
377 0 90.2721 14.556 1314 88.207 1267.41 462.657
378 0 90.2978 13.1897 1191 91.178 1267.14 459.005
379 0 95.3326 14.2344 1357 89.7354 1266.67 459.446
380 0 97.1436 13.7734 1338 92.364 1266.88 458.137
381 0 100.214 12.8225 1285 93.5276 1265.96 459.526
382 0 102.24 12.9597 1325 94.4725 1267.14 455.941
383 0 105.243 12.704 1337 95.7651 1266.99 454.639
384 0 111.158 14.7267 1637 92.1668 1266.87 454.065
385 0 115.235 14.6483 1688 92.8608 1266.88 450.629
386 0 117.323 12.9046 1514 97.144 1266.94 449.219
387 0 122.149 14.8015 1808 94.5841 1265.84 447.52
388 0 126.364 14.3396 1812 95.3659 1266.18 442.786
389 0 130.326 14.4024 1877 96.6596 1265.84 441.697
390 1 53.198 9.21088 490 91.202 1266.39 485.843
391 0 57.0689 11.8103 674 89.8309 1266.48 480.714
392 0 57.0741 12.6853 724 91.4102 1267.38 479.681
393 0 61.1652 11.8204 723 95.9364 1266.89 471.965
394 0 62.1263 14.551 904 92.0221 1266.86 467.636
395 0 63.1031 12.7728 806 96.2333 1266.72 466.129
396 0 67.0612 13.7486 922 92.898 1266.84 465.362
397 0 69.1483 12.8564 889 93.369 1267.1 468.994
398 0 70.1252 11.6506 817 95.4749 1266.25 472.214
399 0 75.0902 15.0885 1133 89.2807 1266.3 470.905
400 0 76.2639 13.5451 1033 91.847 1266.38 472.703
401 0 80.196 13.3548 1071 91.5948 1266.2 471.879
402 0 80.196 13.4421 1078 134.456 1266.21 471.798
403 1 44.0994 10.9525 483 90.9462 1267.38 488.557
404 0 45.0541 11.9856 540 91.4593 1267.07 486.511
405 0 50.0992 12.9942 651 89.1459 1267.51 485.382
406 0 48.0615 11.1108 534 97.6479 1266.78 483.316
407 0 53.1119 12.7467 677 96.7194 1265.59 475.024
408 0 54.0662 12.4847 675 101.569 1266.04 475.864
409 0 56.0695 12.8769 722 100.359 1265.84 479.222
410 0 58.0831 13.0675 759 101.451 1266.39 469.493
411 0 60.176 12.6795 763 101.414 1266.04 470.667
412 0 63.1951 11.8997 752 103.285 1265.55 472.336
413 0 62.2086 13.2618 825 102.361 1265.53 469.581
414 0 64.088 14.1368 906 99.7561 1266.83 471.275
415 0 64.1659 12.2807 788 101.135 1266.22 474.777
416 0 67.2635 12.5031 841 102.809 1266.47 475.483
417 0 68.1106 12.4797 850 99.5471 1265.91 473.58
418 0 69.0681 12.104 836 100.407 1264.53 473.366
419 0 75.0645 13.8814 1042 95.3273 1265.36 471.109
420 0 74.0912 12.1202 898 98.461 1265.22 470.9
421 0 79.1181 14.9523 1183 91.9273 1265.95 463.719
422 0 80.2496 12.2368 982 97.6415 1266.21 466.607
423 0 83.2471 12.9254 1076 96.2862 1266.67 462.799
424 1 45.1713 11.7331 530 95.4868 1266.23 482.908
425 0 45.0563 11.6077 523 97.4149 1266.17 480.74
426 0 46.0999 10.9979 507 98.1065 1264.6 483.943
427 0 48.0628 11.9843 576 97.5747 1265.53 481.608
428 0 51.1001 12.6027 644 97.587 1265.32 482.675
429 0 49.0515 11.3758 558 101.608 1266.42 482.862
430 0 53.0659 13.1346 697 98.9139 1266.37 478.611
431 0 53.0523 13.5338 718 98.2772 1266.55 475.237
432 0 52.0276 12.4549 648 103.613 1266.67 472.552
433 0 55.0595 13.1857 726 101.105 1267.51 473.211
434 0 57.1361 12.9865 742 102.772 1265.79 471.616
435 0 58.0553 13.8316 803 101.011 1265.14 471.098
436 0 62.08 13.8531 860 100.872 1265.62 471.956
437 0 64.1419 13.2831 852 102.434 1266.27 470.201
438 0 64.1529 14.1693 909 102.46 1265.89 467.458
439 0 66.1455 13.0016 860 104.701 1265.86 469.406
440 0 71.1721 15.1604 1079 99.683 1266.59 467.778
441 0 74.2376 15.1002 1121 99.0856 1266.15 466.432
442 0 76.1768 13.4687 1026 100.827 1266.18 466.289
443 0 81.2446 15.8534 1288 95.3113 1266.1 461.933
444 0 83.2335 14.5614 1212 97.8729 1266.03 460.842
445 0 85.0819 13.8102 1175 99.6179 1266.21 460.938
446 0 85.1839 13.5472 1154 101.984 1265.04 459.445
447 0 89.27 14.3497 1281 99.5386 1266.03 459.6
448 1 48.1367 12.1737 586 102.787 1266.81 478.341
449 0 50.114 12.7908 641 100.097 1267.13 480.368
450 0 51.0533 13.4565 687 100.546 1265.54 477.38
451 0 54.0786 13.8872 751 98.1252 1266.95 476.092
452 0 53.1007 13.3143 707 101.11 1265.39 475.16
453 0 56.042 12.4371 697 101.35 1266.66 475.326
454 0 59.1675 14.7716 874 95.7986 1265.66 471.838
455 0 63.1721 14.4209 911 95.1745 1266.46 470.382
456 0 63.1183 14.7342 930 95.8258 1265.94 470.423
457 0 63.0565 13.0042 820 101.352 1266.84 470.588
458 0 64.0685 12.5335 803 102.162 1265.38 471.545
459 0 72.1651 15.6447 1129 93.4305 1265.95 468.015
460 0 71.1389 13.818 983 99.9095 1265.26 466.396
461 0 75.0877 12.4122 932 102.265 1264.89 467.668
462 0 76.0891 13.4185 1021 99.9295 1266.23 467.943
463 0 77.0894 13.3481 1029 101.603 1266.11 461.685
464 0 82.1459 14.8638 1221 98.6953 1265.77 462.888
465 0 86.1179 14.6892 1265 98.3399 1265.94 462.836
466 0 88.1803 13.9827 1233 100.866 1265.31 460.778
467 0 93.1158 15.2176 1417 97.8638 1265.08 457.589
468 0 93.134 13.2175 1231 102.6 1265 459.918
469 0 101.158 17.1019 1730 93.7052 1265.14 452.755
470 0 104.206 16.6017 1730 95.2543 1264.98 448.855
471 0 104.153 17.3015 1802 95.1759 1265.75 449.133
472 0 108.256 15.7959 1710 98.1713 1266.25 450.447
473 0 108.247 14.6055 1581 102.633 1265.48 452.843
474 0 112.238 13.5693 1523 105.052 1266.16 447.976
475 0 116.204 15.2834 1776 101.874 1264.79 443.672
476 0 121.359 14.4942 1759 102.986 1264.66 443.679
477 0 127.244 15.2463 1940 100.569 1265 443.391
478 0 131.268 14.2838 1875 103.407 1265.65 439.807
479 0 134.206 13.7326 1843 105.422 1264.7 439.09
480 0 142.325 15.2116 2165 102.658 1265.16 434.259
481 0 149.389 14.894 2225 102.473 1265.79 432.988
482 1 79.0732 12.6971 1004 105.703 1266.45 464.939
483 0 84.1909 14.4434 1216 102.69 1265.21 461.615
484 0 85.0854 14.5736 1240 104.2 1265.11 460.068
485 0 90.3381 14.5454 1314 102.925 1264.42 460.565
486 0 92.2145 14.412 1329 104.677 1263.99 456.198
487 0 94.2445 14.5791 1374 104.523 1264.87 455.653
488 0 101.269 14.3676 1455 104.352 1266.18 451.713
489 0 102.227 14.1744 1449 105.391 1264.88 453.317
490 0 107.189 14.3112 1534 105.425 1264.77 450.961
491 0 111.148 14.7551 1640 105.206 1265.44 446.484
492 0 114.171 13.6637 1560 109.156 1265.06 446.854
493 0 122.298 17.024 2082 100.216 1264.7 439.269
494 1 63.1358 14.0016 884 108.342 1264.77 471.767
495 0 63.1197 12.9912 820 111.022 1265.27 470.52
496 0 67.0877 13.1321 881 111.789 1266.44 468.918
497 0 70.0783 13.9415 977 108.047 1266.03 467.622
498 0 75.1456 14.1326 1062 106.35 1264.99 468.057
499 0 77.0955 15.0852 1163 104.034 1265.53 464.883
500 0 75.1209 13.8177 1038 109.06 1264.87 462.254
501 0 82.1064 14.1524 1162 106.586 1264.95 461.765
502 0 84.0815 16.2461 1366 101.947 1264.61 459.642
503 0 87.2576 13.6263 1189 108.151 1264.97 457.661
504 0 88.093 14.1328 1245 106.949 1265.31 456.13
505 0 91.2348 13.12 1197 107.656 1264.4 457.565
506 0 95.2058 15.2092 1448 103.154 1264.16 452.488
507 1 108.372 16.2126 1757 96.1975 1264.92 446.45
508 1 51.1112 12.7174 650 103.206 1263.97 477.334
509 0 51.0895 13.3296 681 104.151 1264.12 476.214
510 0 55.0998 14.6824 809 100.384 1265.04 473.735
511 0 55.0778 12.673 698 105.085 1264.68 476.36
512 0 61.0824 13.2444 809 101.309 1264.75 472.268
513 0 61.1048 13.0432 797 101.923 1265.3 472.105
514 0 63.0207 13.0592 823 102.663 1265.31 471.514
515 0 65.0633 13.387 871 101.617 1265.83 468.979
516 0 66.1109 13.4017 886 102.104 1265.22 467.042
517 0 71.0293 14.2476 1012 98.7144 1264.16 467.408
518 0 75.1773 14.0734 1058 98.0217 1263.85 466.009
519 0 79.1368 14.7466 1167 95.491 1264.22 462.62
520 0 79.0661 13.8745 1097 98.0711 1264.95 462.119
521 0 81.1594 13.5413 1099 98.2766 1264.64 463.658
522 0 86.1055 14.0293 1208 96.0348 1264.67 461.182
523 0 88.0473 14.4354 1271 96.07 1264.75 456.13
524 0 92.1781 13.5716 1251 96.6611 1264.92 457.875
525 0 97.2612 13.2324 1287 96.0707 1265.01 455.182
526 1 50.1039 13.3523 669 98.0598 1265.65 476.854
527 0 51.0361 11.9915 612 101.062 1265.49 475.879
528 0 53.0568 11.761 624 100.138 1264.19 478.986
529 0 56.0244 14.0117 785 95.372 1264.95 475.67
530 0 56.066 11.2368 630 100.268 1264.74 477.175
531 0 57.1573 12.8242 733 98.3452 1265.28 472.292
532 0 61.0558 12.4804 762 98.857 1264.54 470.22
533 0 61.1506 12.3793 757 99.2497 1265.39 469.869
534 0 64.0896 14.3081 917 95.1178 1264.84 471.01
535 0 66.1724 13.2381 876 98.0537 1265.11 468.043
536 0 68.1149 12.5817 857 99.9078 1265.05 467.856
537 0 72.0774 13.2635 956 97.6485 1265.41 468.759
538 0 74.0598 13.7862 1021 97.8041 1264.27 464.974
539 0 79.1234 14.4963 1147 95.7663 1265.01 464.384
540 0 78.076 13.141 1026 100.06 1264.33 462.588
541 0 83.0721 13.3498 1109 98.5284 1265.21 462.113
542 0 87.1742 13.8688 1209 97.1572 1264.91 464.714
543 0 90.1781 14.3383 1293 97.1237 1264.25 460.787
544 0 92.1745 13.1815 1215 99.3712 1264.94 458.817
545 0 95.188 12.7222 1211 99.7919 1264.02 459.475
546 0 100.214 13.6607 1369 99.3901 1264.15 456.376
547 1 51.0853 12.1561 621 105.804 1266.36 475.147
548 0 54.0372 13.8238 747 102.402 1265.08 475.529
549 0 58.0416 14.0072 813 101.209 1265.44 475.774
550 0 58.0606 14.9671 869 99.9114 1265.07 474.012
551 0 59.0541 14.7153 869 101.098 1265.8 473.468
552 0 60.1002 14.4758 870 101.277 1265.53 475.678
553 0 67.0807 15.8168 1061 95.4383 1265.69 469.041
554 0 70.0814 16.2668 1140 94.1886 1265.57 467.341
555 0 75.1502 18.5495 1394 88.6148 1266.18 464.882
556 0 69.1522 14.3885 995 98.2101 1264.7 465.777
557 0 68.1066 12.9209 880 106.218 1264.66 469.591
558 0 72.1427 13.7228 990 105.142 1265.3 466.545
559 0 72.108 15.6848 1131 95.4483 1266.07 466.906
560 0 72.1019 14.3408 1034 100.682 1266.64 467.221
561 0 71.1326 15.2813 1087 101.348 1265.73 466.731
562 0 73.0595 13.7833 1007 105.301 1265.43 467.785
563 0 71.0641 14.508 1031 107.205 1264.36 464.489
564 0 74.0951 14.2385 1055 108.425 1264.47 466.668
565 0 75.0975 14.4479 1085 107.697 1264.02 467.824
566 0 75.0375 12.2072 916 112.743 1264.63 464.245
567 0 79.0587 14.5841 1153 105.372 1263.87 463.949
568 0 82.0622 12.9536 1063 107.129 1263.66 461.834
569 0 84.0802 14.284 1201 102.907 1264.99 460.131
570 0 86.196 14.3974 1241 101.278 1264.81 458.544
571 0 89.147 14.7285 1313 99.9467 1265.06 455.32
572 0 90.1363 12.6697 1142 103.354 1264.59 456.265
573 0 97.2246 14.1631 1377 98.5316 1265.35 453.778
574 0 99.1404 13.3649 1325 99.9691 1264.18 453.838
575 0 104.181 14.1292 1472 98.8295 1264.44 450.113
576 0 107.135 14.2998 1532 99.0313 1263.25 450.357
577 0 112.246 13.6664 1534 101.158 1264.12 446.576
578 1 59.1473 13.255 784 105.254 1264.36 472.196
579 0 61.0625 13.5271 826 106.508 1264.64 471.87
580 0 62.0615 12.8904 800 110.808 1264.14 471.651
581 0 62.1377 13.3896 832 112.853 1264.22 470.888
582 0 67.1119 14.081 945 112.448 1264.38 469.19
583 0 66.1044 13.6148 900 117.546 1265.82 465.659
584 0 69.1431 13.5227 935 117.028 1263.87 469.12
585 0 70.0807 13.4844 945 121.11 1263.78 465.4
586 0 71.1271 13.4548 957 122.6 1263.44 466.146
587 0 75.0594 13.1496 987 124.165 1264.09 464.009
588 0 80.1559 16.4929 1322 114.474 1263.93 460.281
589 0 80.0735 15.1361 1212 121.968 1263.8 459.552
590 0 78.1058 12.944 1011 132.48 1263.66 459.93
591 0 83.0896 14.3339 1191 128.791 1264.6 456.934
592 0 90.2348 17.3104 1562 118.008 1264.12 452.707
593 0 90.1087 14.6823 1323 128.305 1264.66 455.14
594 0 93.1624 13.9756 1302 131.104 1263.75 452.247
595 0 97.0608 14.3724 1395 129.948 1264.84 452.292
596 0 102.073 14.3622 1466 131.269 1263.08 449.905
597 0 105.159 14.6349 1539 131.553 1263.39 449.02
598 1 54.0725 11.4661 620 137.781 1264.34 473.626
599 0 60.1582 13.2151 795 131.273 1263.49 470.82
600 0 60.2117 13.602 819 128.045 1264.32 470.142
601 0 61.3261 13.4853 827 128.504 1264.04 468.892
602 0 66.2547 13.5839 900 126.119 1264.79 469.37
603 0 64.0973 13.4795 864 129.421 1265.15 467.493
604 0 65.0603 13.5105 879 129.736 1264.6 466.303
605 0 70.133 14.3584 1007 125.844 1263.86 465.561
606 0 73.1924 14.6053 1069 124.976 1264.22 462.698
607 0 73.1202 14.1821 1037 127.637 1264.67 462.226
608 0 76.1667 14.6258 1114 125.491 1264.39 459.65
609 0 79.2442 14.6761 1163 124.619 1265.38 459.396
610 0 84.2326 14.4837 1220 124.347 1264.37 459.403
611 0 88.1805 14.8445 1309 122.842 1264.6 457.061
612 0 89.1358 14.4611 1289 125.357 1264.27 454.182
613 0 93.3685 14.1054 1317 124.368 1264.68 456.224
614 0 95.3761 14.2593 1360 125.4 1263.8 452.383
615 1 50.1025 12.2349 613 126.507 1264.3 474.746
616 0 52.15 14.65 764 121.302 1264.01 473.27
617 0 52.2493 12.5552 656 125.325 1263.71 473.758
618 0 55.0918 13.0328 718 122.947 1263.41 473.327
619 0 58.0279 13.9588 810 119.363 1264.42 472.017
620 0 55.0932 13.3047 733 123.735 1264.12 472.858
621 0 60.0821 13.0155 782 123.488 1264.18 471.271
622 0 60.0992 12.6957 763 124.735 1264.22 468.469
623 0 62.1311 13.3106 827 122.201 1264.07 466.515
624 0 66.1763 13.4036 887 121.277 1263.05 466.552
625 0 70.0572 14.7451 1033 115.173 1263.38 462.66
626 0 73.2118 11.6375 852 122.495 1262.21 463.911
627 0 73.1233 13.4841 986 117.771 1262.45 461.932
628 0 78.0854 15.0732 1177 112.569 1262.39 457.733
629 0 77.1213 13.0703 1008 118.722 1262.63 458.74
630 0 79.1052 14.3353 1134 115.614 1263.6 455.986
631 0 82.0848 12.414 1019 119.995 1263.08 455.74
632 0 84.0434 13.5049 1135 116.708 1262.82 455.5
633 0 87.1072 12.4444 1084 119.226 1262.22 452.438
634 0 90.0641 13.2239 1191 117.008 1263.02 451.086
635 0 97.102 16.2509 1578 107.084 1263.35 445.548
636 0 96.1747 14.0889 1355 113.601 1263.59 444.973
637 0 101.096 14.8274 1499 111.434 1262.99 441.485
638 0 106.26 14.1916 1508 111.578 1263.5 441.285
639 0 110.049 12.5489 1381 114.849 1263.62 439.915
640 1 55.0245 12.2673 675 117.276 1263.19 461.532
641 0 55.0498 13.733 756 113.948 1263.23 461.853
642 0 64.0452 11.4607 734 116.849 1262.51 461.741
643 0 61.0442 12.5483 766 116.932 1262.98 458.446
644 0 66.1238 13.1571 870 113.987 1263.21 455.68
645 0 68.0445 12.8445 874 115.961 1262.95 454.317
646 0 71.1044 12.9387 920 115.788 1263.25 452.768
647 0 72.1059 13.4108 967 115.938 1264.1 450.18
648 0 77.0581 12.8864 993 116.913 1263.68 449.7
649 0 80.0831 12.974 1039 116.665 1264.17 450.234
650 0 80.0334 13.7942 1104 117.035 1263.49 448.724
651 0 83.0713 12.2305 1016 122.551 1263.57 444.42
652 0 89.0981 13.1092 1168 119.581 1263.37 443.511
653 0 92.0782 12.8261 1181 121.362 1263.26 440.945
654 0 96.0741 14.1557 1360 118.641 1263.11 441.279
655 0 98.107 14.0357 1377 119.723 1263.56 440.191
656 0 102.074 12.8143 1308 122.163 1263.5 438.229
657 0 106.035 13.9671 1481 121.747 1263.53 435.885
658 0 109.111 13.7566 1501 123.941 1263.25 435.176
659 0 117.062 13.463 1576 122.941 1262.89 433.107
660 0 123.072 13.8456 1704 121.375 1263.34 432.367
661 0 124.143 14.5316 1804 120.751 1264.09 428.028
662 1 83.0481 6.45409 536 135.646 1263.26 445.937
663 0 73.0869 7.62107 557 135.734 1263.07 446.808
664 0 88.0575 8.90327 784 125.554 1263.01 452.469
665 0 80.124 10.9331 876 126.049 1264.34 446.197
666 0 82.1153 12.4216 1020 122.508 1264.5 446.39
667 0 87.1181 11.9837 1044 122.953 1264.36 445.611
668 0 88.1565 13.5668 1196 120.396 1264.46 443.171
669 0 94.1297 11.5266 1085 125.263 1263.82 443.727
670 0 90.226 12.912 1165 125.774 1263.47 436.981
671 0 98.0915 12.9267 1268 123.494 1264.2 438.915
672 0 98.0939 11.4992 1128 129.145 1264.2 435.036
673 0 105.123 13.565 1426 122.674 1264.5 434.372
674 0 104.145 12.1658 1267 128.89 1264.48 429.428
675 0 110.187 12.388 1365 127.369 1264.25 429.81
676 0 114.117 12.4346 1419 126.693 1263.51 428.573
677 0 118.199 12.8427 1518 124.407 1264.89 427.14
678 0 124.115 11.9244 1480 126.856 1263.6 421.68
679 0 129.159 10.9864 1419 127.409 1263.64 425.453
680 0 136.174 11.243 1531 126.788 1264.34 419.924
681 0 141.21 12.8107 1809 121.939 1264.1 417.959
682 0 147.278 13.1452 1936 120.552 1264.31 413.182
683 0 155.296 12.2218 1898 122.034 1264.89 411.337
684 0 156.188 11.8191 1846 126.128 1263.39 407.207
685 0 165.153 12.7276 2102 122.049 1264.54 403.566
686 1 175.227 12.1899 2136 122.993 1263.7 403.884
687 0 185.287 12.5697 2329 121.783 1263.66 403.119
688 0 194.326 13.1017 2546 122.03 1263.48 398.741
689 0 199.258 12.5415 2499 124.913 1263.7 393.863
690 1 106.148 10.1934 1082 107.256 1264.43 450.844
691 0 111.259 10.7317 1194 114.365 1264.63 447.391
692 0 113.21 9.42494 1067 117.282 1264.82 442.179
693 0 119.337 11.8572 1415 110.533 1264.81 442.58
694 0 115.207 9.79974 1129 115.444 1264.89 435.807
695 0 112.194 10.3571 1162 115.041 1264.6 427.406
696 1 133.304 10.9524 1460 115.156 1263.24 437.769
697 0 136.137 9.90916 1349 112.924 1263.58 431.234
698 0 137.263 10.2577 1408 113.032 1264.09 426.004
699 0 144.32 9.27802 1339 114.854 1265.19 423.664
700 0 144.294 8.3926 1211 119.324 1265.29 414.697
701 1 87.135 9.75498 850 97.7847 1265.12 452.972
702 0 84.0824 9.75233 820 105.088 1265.27 451.268
703 0 91.181 8.28023 755 105.331 1264.26 458.005
704 0 91.1625 9.15947 835 104.444 1264.47 454.889
705 0 97.1792 10.0433 976 101.944 1264.39 453.871
706 0 95.2563 10.0256 955 102.561 1264.55 450.492
707 0 102.124 12.6416 1291 96.5802 1263.75 444.18
708 0 102.095 9.44218 964 103.361 1265.21 443.857
709 0 104.149 7.55646 787 106.625 1264.01 439.799
710 0 109.119 8.70609 950 104.546 1264.77 443.6
711 0 111.139 9.37566 1042 103.891 1264.55 440.898
712 1 60.0871 6.12445 368 93.9185 1264.89 472.894
713 0 66.1645 8.67534 574 88.9024 1265.22 469.713
714 0 69.1205 8.89751 615 87.4878 1265.2 470.179
715 0 68.2793 7.67436 524 101.538 1264.39 466.345
716 0 69.221 8.35007 578 99.1471 1264.13 463.372
717 0 71.1365 8.58912 611 99.2848 1263.5 461.183
718 0 73.3275 10.4054 763 95.2018 1265.04 463.409
719 0 79.1799 8.23442 652 97.9831 1265.44 461.377
720 0 76.1686 9.43959 719 96.0807 1265.55 459.862
721 0 80.1564 10.6167 851 93.7309 1265.31 458.622
722 0 83.2062 9.29018 773 95.207 1265.58 460.281
723 0 85.221 10.4317 889 93.6963 1265.06 461.036
724 0 86.1649 8.68103 748 97.6283 1263.91 455.775
725 0 86.2579 10.886 939 95.5474 1264.26 452.56
726 0 97.2624 11.6797 1136 91.9093 1265.32 454.355
727 0 99.2708 11.8766 1179 91.827 1264.77 452.511
728 0 98.1987 10.601 1041 95.5005 1264.09 449.877
729 0 103.118 10.7935 1113 94.9227 1264.96 451.519
730 0 103.227 11.0824 1144 94.5769 1265.88 446.95
731 0 108.209 10.9325 1183 95.5807 1265.63 444.29
732 0 112.28 10.1086 1135 95.9947 1265.49 448.91
733 0 110.241 9.85112 1086 98.6179 1265.07 441.32
734 0 119.193 11.4352 1363 96.4167 1265.11 443.654
735 0 120.468 12.1194 1460 95.8815 1264.55 444.141
736 0 124.233 11.6877 1452 97.3685 1264.69 441.48
737 0 129.221 11.8557 1532 96.6449 1265.43 440.558
738 0 133.345 11.7364 1565 97.0064 1264.83 437.45
739 0 136.373 11.9892 1635 95.8612 1265.02 437.176
740 0 143.227 13.3913 1918 92.2544 1264.2 437.831
741 0 148.341 13.4285 1992 93.502 1262.89 427.913
742 0 150.329 11.0491 1661 99.0933 1263.09 427.094
743 0 156.421 12.607 1972 97.6815 1262.4 424.183
744 0 159.42 11.9558 1906 99.8143 1262.52 417.391
745 0 166.459 12.6338 2103 98.4099 1262.89 419.051
746 0 170.477 12.1658 2074 100.564 1263.44 416.002
747 0 180.4 13.6973 2471 97.4913 1263.79 416.351
748 0 183.541 13.1142 2407 99.5571 1263.78 412.812
749 0 191.484 14.4921 2775 97.0688 1263.71 410.132
750 0 193.332 12.2173 2362 103.861 1263.54 402.571
751 0 202.377 12.9313 2617 101.995 1263.86 401.486
752 0 210.309 13.7084 2883 98.7648 1263.18 403.307
753 0 215.405 15.2039 3275 95.9252 1263.86 393.703
754 1 59.0828 10.663 630 89.1556 1261.97 479.132
755 0 60.1199 10.0133 602 91.206 1264.74 476.061
756 0 63.0737 11.0506 697 88.8321 1263.17 478.803
757 0 64.0659 11.4101 731 89.2955 1263.14 477.761
758 0 63.1005 11.4262 721 90.8863 1262.9 476.136
759 0 66.0306 10.48 692 135.948 1263.39 473.395
760 0 69.0435 10.7903 745 137 1261.9 474.448
761 0 72.3822 9.35312 677 142.397 1263.55 469.855
762 1 24.1069 7.46674 180 125.272 1262.67 498.289
763 0 27.0673 7.7954 211 129.427 1264.63 487.114
764 0 26.1043 6.97202 182 132.143 1264.01 497.049
765 0 26.0547 6.21769 162 133.753 1264.7 499.802
766 0 27.1059 9.37064 254 132.72 1262.82 497.543
767 0 28.1527 8.73806 246 136.785 1263.5 497.846
768 0 26.1511 7.03604 184 143.228 1263.83 496.842
774 0 440.841 33.8762 14934 222.676 1263.32 262.816
776 0 445.608 36.1372 16103 220.04 1259.82 275.986
777 0 446.481 36.9557 16500 219.441 1259.8 280.31
778 0 446.116 35.9323 16030 223.322 1259.76 275.232
779 0 447.235 36.6564 16394 221.394 1259.81 279.628
780 0 446.54 36.0886 16115 224.687 1259.75 276.799
781 0 445.836 35.9975 16049 226.577 1259.81 276.261
782 0 444.09 33.9278 15067 216.798 1259.86 265.145
783 1 35.1473 11.5229 405 103.114 1263.4 471.151
784 0 37.0475 11.9306 442 102.355 1263.86 474.441
785 0 36.0448 14.1213 509 99.9077 1264.14 471.762
786 0 37.039 12.2843 455 105.27 1263.37 467.807
787 0 36.0657 12.1999 440 108.775 1263.56 473.707
788 0 37.0083 12.6999 470 109.228 1263.45 475.487
789 0 39.0157 12.354 482 109.056 1264.04 477.494
790 0 37.0619 12.6815 470 110.989 1263.95 480.74
791 0 38.0274 13.201 502 108.566 1264.33 483.97
792 0 37.0142 13.4273 497 109.08 1264 485.412
793 0 38.0155 12.8895 490 113.229 1263.99 487.735
794 0 37.0362 12.5013 463 118.991 1263.85 488.518
795 0 38.0368 13.8287 526 114.734 1263.99 491.35
796 0 40.0957 12.5949 505 115.683 1264.2 492.78
797 0 37.0368 12.4201 460 122.243 1263.77 493.424
798 0 39.0099 14.1503 552 115.591 1264.45 493.236
799 0 36.0114 12.8848 464 125.494 1264.42 493.944
800 0 39.0231 13.3511 521 122.328 1263.64 493.075
801 0 38.0178 11.7577 447 132.107 1263.12 493.092
802 0 39.0783 12.5901 492 128.85 1263.03 493.624
803 0 38.0141 13.1004 498 130.606 1263.61 492.719
804 0 40.1123 13.6118 546 128.004 1263.87 493.414
805 0 38.0449 13.6155 518 133.149 1264 492.898
806 0 38.0335 13.4092 510 136.408 1264.49 493.061
807 0 39.0073 12.6899 495 139.871 1263.67 494.376
808 0 41.0385 14.3524 589 132.36 1264.68 493.774
809 0 38.0278 13.569 516 141.062 1264.13 494.725
810 0 38.0254 13.9907 532 142.812 1263.46 493.782
811 0 39.0371 13.5512 529 146.301 1264.12 494.526
812 0 39.0381 13.8839 542 147.506 1263.55 492.913
813 0 39.0364 13.782 538 151.771 1262.29 494.099
814 0 40.15 13.2254 531 153.765 1263.98 494.275
815 0 40.0849 13.7458 551 154.786 1263.2 493.766
816 0 40.0356 13.2132 529 159.779 1263.06 493.826
817 0 41.0712 13.4644 553 159.033 1263.32 493.792
818 0 41.0096 13.8504 568 160.391 1263.74 492.377
819 0 41.0498 12.5945 517 169.723 1262.8 493.236
820 0 41.022 14.6507 601 161.639 1263.87 492.483
821 1 76.1583 8.60051 655 161.598 1263.6 488.522
822 0 77.0685 10.588 816 154.963 1263.36 481.831
823 0 79.0644 11.6867 924 148.488 1263.71 482.418
824 0 78.1581 11.5919 906 152.329 1263.23 479.894
825 0 76.1086 9.2368 703 168.209 1263.33 483.986
826 0 78.2311 11.645 911 156.142 1263.48 481.333
827 0 77.2847 11.1924 865 161.083 1263.65 481.861
828 0 85.1299 13.3678 1138 148.861 1262.62 474.866
829 0 89.2659 15.3474 1370 138.818 1263.67 472.626
830 1 39.3894 14.9532 589 188.818 1263.37 493.677
831 0 40.0637 14.0277 562 179.349 1263.89 494.468
832 0 46.1017 11.0191 508 186.496 1263.16 495.567
833 0 44.3033 15.4616 685 180.851 1264.09 489.947
834 0 44.4254 15.5091 689 180.633 1263.12 491.878
835 0 43.2991 15.2197 659 187.92 1262.26 489.956
836 0 43.4267 15.4743 672 186.007 1262.97 492.981
837 0 44.3756 13.1379 583 190.998 1263.82 494.585
838 0 44.4175 15.3543 682 179.235 1263.75 492.903
839 0 42.3905 13.5644 575 196.263 1263.7 493.8
840 0 43.42 14.9931 651 185.559 1263.92 494.458
841 0 40.5921 14.2146 577 198.64 1263.72 493.293
842 0 41.2423 14.0875 581 193.196 1264.03 493.802
843 0 43.763 14.7613 646 189.299 1263.69 494.074
844 0 41.021 14.3098 587 171.768 1264.55 494.431
845 0 42.5589 14.3566 611 195.031 1264.88 494.015
846 0 42.558 14.1689 603 199.541 1264.98 493.809
847 0 43.5817 14.4556 630 196.232 1264.31 494.271
848 0 40.5416 14.1583 574 204.578 1264.8 494.702
849 0 42.4529 15.688 666 190.381 1263.94 495.459
850 0 42.7446 13.569 580 205.2 1265.19 494.628
851 0 44.8728 14.53 652 197.994 1265.84 493.465
852 0 43.7012 14.9653 654 198.35 1265.3 493.833
853 0 43.8713 15.1808 666 196.964 1265.37 494.857
854 0 45.0383 15.0761 679 197.262 1264.65 494.518
855 0 43.8048 15.1582 664 203.798 1263.93 494.315
856 0 46.9656 14.3935 676 203.53 1264.71 493.651
857 0 48.0017 15.3328 736 196.258 1263.59 493.015
858 0 45.9369 14.5417 668 206.25 1264.13 493.561
859 0 47.1313 15.3825 725 198.726 1263.94 493.396
860 0 44.7517 14.9492 669 199.03 1263.93 494.709
861 0 44.6712 14.4165 644 201.818 1264.44 494.775
862 0 43.6848 15.1311 661 199.826 1264.2 494.769
863 0 44.691 15.1261 676 199.522 1263.61 494.454
864 0 44.6457 14.9175 666 201.185 1263.4 494.024
865 0 43.644 14.3891 628 206.771 1263.65 494.204
866 0 42.6276 14.4742 617 209.945 1263.69 494.206
867 0 43.7668 14.9657 655 204.269 1263.4 494.852
868 0 43.8806 15.132 664 203.623 1264.22 493.872
