time division length width area intensity CMx CMy
0 0 74.237 12.5544 932 124.422 1033.73 457.482
1 0 75.1832 12.6225 949 125.967 1033.98 452.412
2 0 80.0526 13.3912 1072 122.657 1033.49 453.727
3 0 83.2765 11.804 983 126.607 1033.24 450.904
4 0 82.0962 12.0834 992 126.4 1033.34 449.442
5 0 86.0999 12.3229 1061 125.58 1033.05 448.485
6 0 89.1692 12.695 1132 124.178 1033.1 448.406
7 0 90.1794 13.1737 1188 123.04 1033.85 445.588
8 0 94.233 12.9254 1218 123.234 1034.51 444.557
9 0 95.2323 12.1072 1153 126.467 1034.83 440.612
10 0 98.2227 13.3472 1311 123.249 1032.86 442.825
11 0 103.249 13.0558 1348 123.868 1033.35 439.993
12 0 107.287 14.7082 1578 118.143 1035.12 440.215
13 0 110.161 13.7798 1518 120.723 1035.86 439.502
14 0 111.127 13.0841 1454 123.033 1035.52 438.639
15 0 116.206 13.3814 1555 121.16 1035.5 435.318
16 0 119.132 12.8597 1532 120.745 1034.52 430.941
17 0 120.218 12.103 1455 118.392 1035.7 426.572
18 1 64.078 7.95905 510 112.222 1034.93 446.765
19 0 70.0806 10.2454 718 106.125 1034.65 444.908
20 0 74.0675 9.65336 715 105.613 1035.04 447.541
21 0 67.1395 10.4261 700 107.079 1035.6 444.564
22 0 65.0316 9.16477 596 110.93 1035.7 442.012
23 0 71.235 9.64414 687 108.77 1035.12 443.537
24 0 76.2564 10.4778 799 107.713 1034.98 442.573
25 0 75.0506 10.8327 813 109.348 1036 437.989
26 0 83.2324 11.3658 946 107.523 1036.03 439.359
27 0 82.1472 10.6273 873 111.762 1035.57 435.486
28 0 80.1442 10.7806 864 113.696 1036.5 431.983
29 0 88.1481 11.3786 1003 113.117 1036.51 432.496
30 0 88.1287 10.167 896 118.589 1035.85 430.816
31 0 93.1731 10.9044 1016 115.938 1036.17 431.858
32 0 95.2036 12.279 1169 115.165 1035.86 433.193
33 1 105.135 12.7835 1344 118.473 1036.26 435.442
34 0 107.155 11.6933 1253 125.078 1036.24 432.605
35 0 113.274 12.7214 1441 122.32 1036.63 431.872
36 0 115.193 13.1866 1519 123.311 1035.54 429.209
37 0 121.181 12.7991 1551 128.409 1036.02 424.713
38 0 123.348 12.4769 1539 131.043 1035.12 420.976
39 1 63.0996 10.4913 662 121.014 1035.43 445.725
40 0 66.1876 11.2408 744 120.832 1034.78 444.065
41 0 75.1037 12.8622 966 105.27 1035.06 443.965
42 0 74.3653 9.31886 693 118.365 1035.45 443.495
43 0 75.0757 10.576 794 117.071 1035.22 442.237
44 0 78.0292 8.80439 687 122.092 1035.63 440.185
45 0 81.1021 10.6409 863 118.17 1035.59 440.847
46 0 86.1733 11.2216 967 117.48 1035.37 437.876
47 0 87.2215 10.3071 899 120.717 1034.8 435.299
48 0 93.136 11.4027 1062 117.591 1034.84 437.178
49 0 92.2004 10.9978 1014 121.785 1035.16 433.172
50 0 99.0744 11.1532 1105 119.66 1035.25 434.416
51 0 102.099 11.7631 1201 119.362 1034.59 433.14
52 0 104.131 11.3607 1183 121.91 1034.5 435.544
53 0 106.19 11.0933 1178 122.329 1034.83 435.671
54 0 111.125 12.9854 1443 119.083 1035 431.806
55 0 116.206 12.3229 1432 119.839 1035.77 430.286
56 0 120.231 12.6922 1526 119.387 1036.63 427.317
57 0 124.241 12.9265 1606 119.656 1036.22 425.072
58 0 128.188 13.7689 1765 118.471 1036.24 424.177
59 0 131.232 12.9466 1699 120.597 1035.31 420.513
60 0 136.197 12.3204 1678 122.02 1036.01 418.735
61 1 73.2433 9.93947 728 110.33 1035.86 451.915
62 0 76.196 10.5517 804 109.597 1036.43 451.158
63 0 77.1824 10.0671 777 110.523 1035.73 450.533
64 0 80.2014 10.9225 876 109.712 1036.51 448.314
65 0 83.1923 10.3615 862 110.036 1037.19 448.858
66 0 86.217 11.3319 977 108.209 1037.06 447.927
67 0 89.3656 11.9285 1066 107.629 1036.58 443.415
68 0 91.1795 9.98031 910 113.424 1036.1 431.413
69 0 96.1774 12.6121 1213 107.991 1036.47 429.622
70 0 98.1964 11.4159 1121 110.468 1037.05 430.102
71 0 102.198 12.6323 1291 106.431 1037.12 431.991
72 0 102.215 11.1431 1139 110.107 1036.64 439.637
73 0 106.178 11.2358 1193 109.873 1036.42 437.236
74 0 112.235 12.5451 1408 106.315 1035.74 430.879
75 0 111.228 10.3481 1151 112.605 1036.42 435.689
76 0 115.117 11.0409 1271 111.172 1036.53 433.578
77 0 118.149 10.9354 1292 111.605 1036.9 431.94
78 0 122.13 11.6597 1424 110.046 1036.71 429.545
79 0 124.115 11.0543 1372 112.449 1035.89 425.44
80 0 129.404 10.5407 1364 113.301 1035.43 419.298
81 0 134.319 11.577 1555 112.821 1036.5 423.255
82 1 79.1153 9.89694 783 108.52 1036.98 451.387
83 0 78.1481 9.59716 750 114.441 1036.38 447.652
84 0 85.2433 11.954 1019 110.461 1036.77 449.115
85 0 86.2126 11.4716 989 116.682 1036.91 446.644
86 0 89.3269 11.8217 1056 116.581 1036.43 446.164
87 0 91.2642 11.5051 1050 117.735 1037.31 443.322
88 0 95.335 12.1362 1157 116.27 1036.55 440.026
89 0 95.2087 11.6481 1109 118.3 1035.92 440.722
90 0 98.272 11.3766 1118 121.082 1035.71 435.752
91 0 102.428 11.6179 1190 120.029 1035.82 435.447
92 0 105.434 12.0834 1274 118.872 1036.45 437.13
93 0 107.406 11.1819 1201 122.752 1036.16 429.931
94 0 110.091 10.9001 1200 118.184 1034.88 430.878
95 0 113.158 11.6916 1323 116.06 1035.94 431.485
96 0 117.262 11.0265 1293 118.101 1036.05 428.116
97 0 118.096 10.7878 1274 121.221 1035.26 424.226
98 0 124.103 11.6758 1449 118.765 1034.7 426.603
99 0 128.165 12.0002 1538 119.28 1035.07 422.833
100 0 132.139 12.5399 1657 105.369 1035.33 422.252
101 0 134.342 10.905 1465 106.388 1034.89 415.044
102 0 140.252 11.5222 1616 105.48 1034.6 414.542
103 0 149.26 14.0627 2099 72.5774 1034.38 420.343
104 1 81.1024 9.39553 762 94.6286 1034.52 449.638
105 0 85.0875 11.7526 1000 92.682 1034.44 448.572
106 0 87.1377 11.8318 1031 93.1882 1034.22 446.782
107 0 89.1822 11.1233 992 95.6149 1033.62 446.285
108 0 90.0603 11.3146 1019 96.2326 1033 446.471
109 0 96.1255 11.641 1119 95.613 1033.56 445.332
110 0 97.0997 11.7405 1140 96.8298 1033.78 443.054
111 0 100.132 11.7744 1179 99.2477 1034.78 423.792
112 0 102.123 11.3686 1161 101.834 1034.3 421.518
113 0 107.187 11.9884 1285 100.315 1034.49 425.681
114 0 107.275 11.2981 1212 103.691 1033.65 423.427
115 0 110.292 11.4332 1261 103.44 1034.26 425.604
116 0 113.377 11.5808 1313 103.12 1034.06 425.027
117 0 117.257 10.9759 1287 103.841 1033.97 425.936
118 0 122.216 12.5106 1529 101.227 1034.12 427.085
119 0 125.31 12.9759 1626 99.9053 1034.59 425.236
120 0 127.24 11.7102 1490 101.981 1034.61 425.309
121 0 133.163 12.9691 1727 98.9322 1034.49 424.287
122 0 136.25 10.8918 1484 102.725 1034.64 423.001
123 1 78.1968 10.0388 785 95.1936 1034.85 453.85
124 0 81.1854 11.4429 929 93.4672 1034 452.478
125 0 82.1586 11.2952 928 96.3858 1033.59 448.18
126 0 87.1201 12.0064 1046 92.8881 1033.8 448.311
127 0 89.0903 12.695 1131 92.4598 1034.12 445.976
128 0 92.1162 14.4383 1330 89.3459 1034.7 444.443
129 0 95.1354 13.1287 1249 92.2794 1035.1 443.521
130 0 97.3042 12.6922 1235 93.9741 1034.18 439.521
131 0 101.113 11.5613 1169 96.0111 1034.9 443.43
132 0 101.151 10.0543 1017 99.2704 1033.73 443.84
133 0 106.116 12.034 1277 97.5215 1033.87 439.185
134 0 108.291 11.3491 1229 99.3198 1034.03 437.992
135 0 113.323 11.7363 1330 98.8113 1034.02 434.976
136 0 119.179 13.3412 1590 95.2472 1035.37 434.579
137 0 123.144 12.595 1551 98.1979 1034.36 428.279
138 0 128.093 12.3348 1580 98.5652 1034.63 428.29
139 0 133.145 13.3989 1784 97.1037 1035.33 425.135
140 0 138.148 11.5311 1593 100.396 1034.29 425.395
141 0 143.263 12.4247 1780 99.1629 1035.03 420.096
142 1 83.2928 11.1894 932 97.4056 1035.53 444.482
143 0 85.2027 9.61237 819 89.9023 1035.63 440.957
144 0 87.2659 11.9634 1044 87.2653 1035.52 438.151
145 0 93.1147 10.9865 1023 88.5904 1035.42 439.343
146 0 97.2583 9.5416 928 90.8297 1034.71 442.144
147 0 102.14 12.5807 1285 89.3829 1034.43 439.684
148 0 104.152 11.8385 1233 88.3779 1033.79 438.519
149 0 105.122 10.2642 1079 91.8193 1033.96 434.956
150 0 106.137 8.87533 942 95.6189 1033.5 427.978
151 0 114.267 11.6569 1332 90.3348 1034.37 426.335
152 0 115.398 9.02961 1042 97.2322 1034.26 424.608
153 0 120.217 10.8471 1304 94.6741 1033.89 427.469
154 0 125.165 12.3597 1547 92.8158 1034.54 426.732
155 0 127.274 11.6913 1488 95.537 1034.15 423.887
156 0 130.206 11.1055 1446 102.11 1033.56 414.587
157 0 135.175 11.4 1541 101.143 1033.56 419.144
158 0 138.154 10.6692 1474 104.823 1034.12 414.436
159 0 143.162 9.96075 1426 107.006 1033.97 410.478
160 0 147.304 11.1538 1643 106.556 1033.35 405.661
161 1 75.1634 8.06243 606 94.9984 1034.25 438.662
162 0 81.1133 8.58059 696 94.0647 1033.96 436.223
163 0 87.118 9.84871 858 92.0431 1034.26 443.466
164 0 91.1532 9.9064 903 94.0066 1032.83 438.498
165 0 94.1665 9.23896 870 95.5023 1032.59 438.29
166 0 98.1553 10.6362 1044 92.1034 1033.11 444.222
167 0 102.238 11.5124 1177 92.4146 1032.38 439.029
168 0 104.183 11.259 1173 94.1782 1033.16 432.809
169 0 107.187 11.3913 1221 94.0377 1033.1 436.95
170 0 111.152 11.4438 1272 95.2704 1033.49 432.483
171 0 112.17 11.0992 1245 97.4353 1033.01 428.41
172 0 115.169 10.1763 1172 99.122 1033.85 429.817
173 0 118.178 11.2373 1328 99.3276 1033.34 424.54
174 0 122.151 11.3302 1384 100.387 1032.83 425.392
175 1 67.0497 9.23196 619 91.6656 1033.29 458.916
176 0 68.1872 10.2219 697 97.3415 1034.14 454.218
177 0 71.2388 11.4965 819 95.5958 1033.87 451.502
178 0 74.1558 10.1947 756 90.5648 1033.49 455.923
179 0 75.0546 10.6722 801 92.3745 1033.15 455.481
180 0 78.0694 10.8493 847 92.0248 1033.64 451.329
181 0 77.0926 9.61182 741 94.2159 1033.62 448.516
182 0 81.0545 11.1653 905 91.7746 1033.6 447.464
183 0 84.0539 10.0888 848 92.5484 1033.72 446.087
184 0 85.2381 11.3799 970 91.0588 1033.99 447.031
185 0 88.1403 10.1202 892 93.1861 1034.13 447.232
186 0 90.1333 12.9253 1165 89.1133 1034.05 444.746
187 0 93.2166 11.7147 1092 91.4689 1033.64 442.241
188 0 93.1496 10.1128 942 94.5425 1034.12 438.903
189 0 96.3193 12.064 1162 89.9621 1033.85 435.382
190 0 99.106 11.7147 1161 92.7158 1034.24 425.109
191 0 100.14 12.802 1282 91.4282 1033.91 426.318
192 0 103.163 10.8081 1115 95.0439 1034.14 426.167
193 0 108.487 12.6928 1377 91.0995 1033.79 426.755
194 0 109.159 11.9459 1304 93.5031 1033.44 426.875
195 0 112.202 10.7663 1208 99.707 1033.6 429.952
196 0 112.139 9.34555 1048 102.452 1033.92 426.755
197 0 121.326 10.9539 1329 99.8947 1033.17 427.204
198 0 123.223 10.8665 1339 101.417 1034.85 422.045
199 0 128.266 11.0006 1411 100.124 1034.61 423.026
200 1 68.3976 10.5705 723 91.9281 1034.51 442.9
201 0 71.1367 10.6977 761 100.067 1035.86 447.603
202 0 75.0967 12.424 933 96.8242 1035.11 444.827
203 0 75.1366 11.712 880 99.333 1035.49 445.36
204 0 77.1127 11.9695 923 99.5656 1034.99 442.432
205 0 81.1803 12.0473 978 99.0102 1034.81 445.321
206 0 83.1868 11.9971 998 98.9088 1034.54 446.386
207 0 87.1692 12.3209 1074 98.1099 1033.78 448.625
208 0 88.2401 12.0353 1062 100.348 1035.05 443.375
209 0 90.2047 13.6135 1228 98.0358 1034.45 440.405
210 0 93.1955 12.3075 1147 100.946 1035.64 441.721
211 0 97.2156 13.2283 1286 98.93 1034.97 441.202
212 0 96.1438 11.722 1127 103.357 1034.76 439.202
213 0 99.1271 11.914 1181 103.318 1034.27 438.01
214 0 100.071 12.781 1279 105.833 1034.35 429.271
215 0 107.248 13.2869 1425 103.977 1035.53 429.361
216 0 105.19 12.0354 1266 103.857 1035.69 431.953
217 0 109.361 12.4724 1364 102.998 1035.52 428.891
218 0 112.21 12.53 1406 103.691 1034.58 425.278
219 0 119.174 10.2539 1222 107.148 1034.85 424.197
220 0 120.25 12.3326 1483 103.169 1034.37 422.459
221 0 124.154 11.3086 1404 104.323 1033.7 414.476
222 1 74.1313 12.0597 894 96.5045 1033.97 444.301
223 0 74.2954 11.6562 866 98.5139 1034.02 444.23
224 0 78.1148 13.6338 1065 94.5793 1033.92 443.558
225 0 80.1383 12.3037 986 97.1876 1033.4 440.45
226 0 79.2055 11.0725 877 100.438 1033.4 442.584
227 0 85.0555 12.8739 1095 95.19 1033.9 442.715
228 0 86.0628 12.793 1101 95.97 1034.19 439.429
229 0 90.1219 14.3029 1289 93.5345 1033.77 436.144
230 0 90.0596 12.6028 1135 97.6996 1034.04 435.832
231 0 95.0926 13.5131 1285 95.7588 1033.66 434.553
232 0 98.0902 13.3449 1309 97.2345 1033.56 432.46
233 0 104.23 13.2975 1386 96.4856 1034.79 428.714
234 0 104.067 12.5207 1303 98.6838 1034.37 427.555
235 0 108.1 12.618 1364 98.3365 1033.98 426.957
236 0 108.116 12.8104 1385 99.2101 1033.5 425.328
237 0 110.237 11.8563 1307 101.056 1033.97 421.089
238 0 121.208 13.8027 1673 95.2068 1033.85 423.227
239 1 65.0285 10.9644 713 97.5919 1034.02 453.164
240 0 69.142 11.8307 818 97.1027 1033.78 434.939
241 0 70.1339 13.1035 919 94.6507 1034.34 438.52
242 0 69.1961 12.0238 832 96.8714 1035.07 441.351
243 0 74.1183 12.0483 893 95.0403 1035.55 442.927
244 0 75.257 11.6667 878 96.3872 1034.57 438.294
245 0 78.1902 12.3801 968 94.5 1034.82 438.959
246 0 80.1577 12.0512 966 95.2298 1034.19 436.095
247 0 83.1256 12.9683 1078 93.1521 1034.72 440.019
248 0 86.2107 10.9151 941 91.6897 1034.84 445.847
249 0 93.3259 12.8582 1200 88.3108 1034.38 439.895
250 0 91.2783 12.4564 1137 90.3923 1033.77 440.858
251 0 97.2606 13.5204 1315 87.203 1033.96 441.481
252 0 96.1776 12.6017 1212 90.6295 1034.38 438.366
253 0 98.141 12.0031 1178 92.1392 1034.93 433.951
254 0 104.4 13.6494 1425 88.6568 1034.21 431.821
255 0 108.199 11.9687 1295 92.3058 1034.4 428.642
256 0 111.33 13.9136 1549 88.7844 1033.99 428.4
257 0 113.094 13.8469 1566 90.3793 1033.15 424.344
258 1 65.2325 9.53512 622 92.344 1034.12 446.188
259 0 70.1471 11.9891 841 86.7765 1034.44 445.589
260 0 72.3754 11.164 808 88.9171 1033.96 443.02
261 0 77.1368 11.6287 897 90.825 1033.86 428.96
262 0 80.2361 13.0365 1046 87.2304 1033.51 437.4
263 0 79.1577 12.4941 989 89.3832 1033.87 422.729
264 0 83.1147 11.9473 993 89.7573 1034.11 418.241
265 0 85.5315 11.9254 1020 91.1314 1032.94 417.317
266 0 88.2161 12.2427 1080 90.5315 1034.4 417.754
267 0 90.3418 12.8512 1161 89.6021 1034.03 423.288
268 0 92.2502 12.8021 1181 90.8154 1033.49 425.165
269 0 96.2802 14.2293 1370 86.046 1034.15 432.589
270 0 100.497 13.4332 1350 87.6052 1033.8 433.307
271 0 104.362 13.0795 1365 89.1758 1033.36 433.091
272 0 107.467 12.1898 1310 91.3824 1034.02 430.647
273 0 110.582 11.7922 1304 92.5077 1034.37 428.949
274 0 113.488 12.3273 1399 90.6948 1033.92 426.415
275 1 68.3559 9.68461 662 88.5 1034.53 454.216
276 0 65.1873 7.47078 487 87.8439 1034.41 452.222
277 0 69.1336 7.88329 545 85.0367 1035.49 460.319
278 0 78.1688 14.2128 1111 74.297 1034.93 448.412
279 0 78.4494 13.4354 1054 77.7704 1034.74 452.482
280 0 77.4682 10.9335 847 82.4144 1034.84 453.851
281 0 84.2691 15.3318 1292 74.5712 1035.11 444.543
282 0 85.1416 12.673 1079 80.7868 1035.32 444.937
283 0 88.2502 14.4589 1276 78.9592 1035 446.338
284 0 88.3491 11.5338 1019 84.8381 1035.85 445.736
285 0 90.3386 11.8111 1067 86.0469 1035.03 443.772
286 0 92.231 12.4036 1144 86.6084 1034.83 442.738
287 0 93.2266 11.1342 1038 90.2177 1035.41 440.732
288 0 99.2231 13.5855 1348 86.7856 1035.4 438.883
289 0 105.133 12.4033 1304 90.3374 1035.06 440.791
290 0 105.122 11.8719 1248 93.4928 1034.74 435.729
291 0 108.234 12.1958 1320 93.4318 1034.85 436.12
292 0 112.168 12.4278 1394 93.3027 1034.9 436.22
293 0 116.293 13.165 1531 92.8387 1035.08 432.407
294 0 118.178 11.4403 1352 97.0651 1034.48 430.818
295 1 68.1482 9.71412 662 87.423 1035.06 460.245
296 0 69.0853 9.95871 688 92.1933 1034.68 456.376
297 0 72.0808 10.0304 723 87.4592 1034.71 452.093
298 0 77.2367 12.0409 930 84.9043 1035.14 454.733
299 0 78.1145 11.2143 876 87.5171 1034.92 453.424
300 0 79.1948 11.3391 898 89.0189 1035.67 449.806
301 0 84.1166 11.6029 976 88.6578 1034.91 450.95
302 0 87.2894 11.9602 1044 87.864 1035.57 450.779
303 0 88.1428 12.8768 1135 88.1322 1035.45 446.924
304 0 92.242 12.8466 1185 88.8338 1035.46 445.911
305 0 92.2449 11.5237 1063 92.4092 1036.3 443.614
306 0 94.1271 12.1325 1142 92.8686 1035.53 440.633
307 0 97.2441 11.6614 1134 94.4427 1035.28 441.205
308 0 100.208 11.7556 1178 95.9737 1034.73 436.718
309 0 105.318 12.3436 1300 94.3869 1035.25 437.988
310 0 109.177 13.0155 1421 93.2618 1035 435.98
311 0 112.256 12.3201 1383 95.2242 1035.3 432.811
312 0 114.295 12.6078 1441 95.7627 1035.43 427.503
313 0 118.308 12.7042 1503 96.4578 1034.73 425.806
314 1 66.4403 10.6712 709 94.7673 1035.12 453.882
315 0 67.197 11.5184 774 92.9044 1036.54 454.849
316 0 68.0454 11.0661 753 96.2696 1034.96 455.426
317 0 71.1118 12.5577 893 93.3147 1035.09 456.342
318 0 74.2647 12.5766 934 94.0086 1034.2 453.584
319 0 75.1194 11.6215 873 96.9095 1034.56 453.483
320 0 79.2295 13.4546 1066 94.2101 1034.64 450.634
321 0 82.269 12.9575 1066 94.9475 1035.58 450.06
322 0 83.382 11.7771 982 98.5845 1035.13 445.694
323 0 88.3437 13.1532 1162 97.0757 1035.39 443.368
324 0 87.3351 11.0838 968 101.163 1035.05 441.425
325 0 90.2019 12.3833 1117 99.8424 1034.59 435.539
326 0 92.0951 12.2265 1126 100.702 1034.21 428.552
327 0 96.2017 12.505 1203 99.5819 1034.73 432.621
328 0 98.4886 11.9709 1179 100.898 1034.38 430.877
329 0 99.2111 11.9543 1186 100.488 1034.68 433.967
330 0 104.173 12.1913 1270 100.498 1033.67 429.357
331 0 106.19 10.9803 1166 103.416 1035.31 429.441
332 0 111.183 12.331 1371 99.5354 1034.85 426.189
333 1 58.0742 10.8826 632 101.074 1035.17 452.22
334 0 60.0734 10.9699 659 98.6343 1033.71 449.69
335 0 72.1102 12.4393 897 97.9755 1034.37 457.197
336 0 70.185 10.7003 751 104.286 1034.56 452.399
337 0 73.1746 11.2744 825 102.47 1034.76 452.543
338 0 79.1801 13.6524 1081 96.2174 1035.65 452.771
339 0 80.2276 12.3773 993 100.198 1035.27 450.621
340 0 84.3705 14.1637 1195 96.4536 1035.45 449.093
341 0 86.2128 13.4667 1161 98.2558 1035.08 448.218
342 0 87.2628 13.0182 1136 100.795 1035.71 443.265
343 0 91.1985 13.1691 1201 99.5645 1035.68 441.278
344 0 94.3219 12.7648 1204 100.76 1034.54 438.316
345 0 97.2221 14.3589 1396 98.139 1034.75 438.425
346 0 99.196 13.5489 1344 99.8862 1034.62 437.026
347 0 102.214 14.1663 1448 96.9938 1034.33 438.343
348 0 105.246 12.7131 1338 98.8139 1035.28 437.044
349 0 106.294 14.1401 1503 96.6806 1035.33 430.281
350 0 103.148 12.5548 1295 99.393 1035 424.12
351 1 59.0721 10.2586 606 95.0165 1033.84 451.876
352 0 61.0953 11.1465 681 94.6285 1034.85 448.975
353 0 63.0813 11.6992 738 92.8699 1034.73 442.776
354 0 63.1895 10.4448 660 94.8773 1034.96 435.244
355 0 67.0766 10.5104 705 93.8255 1034.61 438.033
356 0 72.1138 10.9965 793 92.4817 1034.79 441.156
357 0 71.0768 10.2424 728 96.3297 1035.05 428.26
358 0 73.1496 11.3329 829 93.6695 1035.1 433.917
359 0 76.1198 12.0468 917 90.7568 1035.08 446.063
360 0 76.0643 10.7146 815 94.2442 1034.3 440.816
361 0 80.1136 9.5115 762 97.5879 1034.89 433.424
362 0 82.0524 12.3092 1010 93.9525 1035.79 430.925
363 0 92.2092 12.374 1141 91.9562 1035.97 432.713
364 0 96.1006 11.6544 1120 94.4661 1035.34 425.289
365 0 97.2164 11.0064 1070 96.5822 1035 424.022
366 0 101.257 11.3967 1154 97.4142 1034.7 422.746
367 0 102.202 12.3089 1258 97.6463 1035.03 415.194
368 0 99.1555 10.5793 1049 102.76 1034.93 412.5
369 0 109.234 11.9011 1300 98.1492 1035.19 419.658
370 0 113.144 12.4619 1410 91.222 1035.71 433.447
371 1 61.1861 9.98593 611 89.3404 1035.03 451.881
372 0 68.1357 10.8754 741 85.6154 1035.46 452.574
373 0 68.0893 10.6625 726 87.3003 1035.41 453.128
374 0 72.0804 10.1137 729 87.9931 1034.64 452.099
375 0 71.0628 11.5109 818 87.9218 1034.59 448.313
376 0 74.1069 11.4024 845 88.032 1034.43 448.419
377 0 78.078 11.7319 916 88.1638 1033.86 444.767
378 0 79.1213 10.7936 854 90.5902 1034.5 444.529
379 0 82.072 11.2097 920 90.0652 1034.77 443.895
380 0 83.104 12.2377 1017 89.4258 1034.02 439.422
381 0 91.0763 12.2974 1120 88.4536 1034.79 441.366
382 0 92.1191 11.5068 1060 90.6774 1034.79 439.206
383 0 95.1247 12.2366 1164 90.7998 1034.31 435.44
384 0 100.2 11.9061 1193 92.0671 1034.36 433.252
385 0 102.135 12.9241 1320 90.8447 1034.14 434.178
386 0 102.149 10.9937 1123 96.0757 1034.45 425.79
387 1 51.1087 9.72438 497 93.2435 1034.3 453.078
388 0 61.1755 9.66073 591 90.6261 1034.07 454.24
389 0 61.1389 9.04498 553 93.8752 1034.12 449.984
390 0 66.1161 10.6479 704 90.1705 1034.11 452.23
391 0 66.0969 10.1518 671 95.7526 1033.99 451.656
392 0 65.0507 9.45416 615 99.6959 1033.93 444.296
393 0 68.2661 10.4005 710 97.438 1034.41 447.477
394 0 75.1094 10.7843 810 91.1864 1034.17 446.915
395 0 75.0719 11.4823 862 90.5023 1033.41 446.68
396 0 74.05 11.4112 845 92.0769 1034.25 444.879
397 1 81.2332 9.58968 779 94.9435 1034.19 441.99
398 0 88.0846 10.9554 965 92.5772 1035.12 443.254
399 0 88.08 11.4328 1007 93.6435 1034.92 442.554
400 0 93.2112 10.8356 1010 94.5495 1034.72 441.596
401 0 94.1121 11.465 1079 95.0686 1034.49 439.458
402 0 96.1755 11.0007 1058 96.4017 1034.48 437.09
403 0 102.144 12.0222 1228 94.6531 1034.07 436.601
404 0 104.314 12.3761 1291 93.5097 1034.38 436.989
405 0 105.14 10.4052 1094 98.1709 1034.37 432.819
406 0 108.121 11.8478 1281 95.879 1034.77 431.181
407 0 110.11 11.2161 1235 97.0243 1033.66 427.547
408 0 116.11 10.5332 1223 96.7621 1034.11 421.907
409 0 120.145 11.9939 1441 95.372 1034.18 425.034
410 1 67.111 9.47684 636 91.4607 1033.92 452.12
411 0 75.1933 10.985 826 96.1078 1033.49 454.575
412 0 75.2249 12.682 954 92.1237 1033.49 454.069
413 0 76.1735 11.3294 863 95.0869 1033.76 453.143
414 0 80.0658 11.0159 882 94.7132 1033.29 452.849
415 0 82.0359 12.0069 985 94.6843 1033.5 449.06
416 0 87.1076 13.1102 1142 92.3345 1033.48 449.865
417 0 89.1278 13.1048 1168 92.399 1033.58 449.616
418 0 91.0609 11.2452 1024 96.3213 1033.33 448.246
419 0 96.0784 12.7188 1222 93.6047 1033.42 443.411
420 0 97.0849 11.4436 1111 97.9982 1034.2 443.089
421 0 104.248 13.1897 1375 93.6844 1033.29 440.3
422 0 109.359 14.6216 1599 91.3959 1033.78 439.513
423 0 109.118 12.6561 1381 100.082 1032.75 438.897
424 0 114.237 12.9205 1476 100.99 1033.21 427.311
425 0 115.224 12.9401 1491 101.81 1033.95 430.516
426 0 119.269 12.367 1475 100.726 1034.06 433.688
427 1 59.0378 9.87503 583 91.3551 1034.49 457.098
428 0 67.2001 9.13689 614 92.0847 1035.35 454.691
429 0 70.0817 10.9872 770 88.4779 1034.81 454.539
430 0 68.0575 9.13933 622 89.8617 1033.96 451.233
431 0 74.1226 11.1977 830 86.4386 1033.69 449.423
432 0 77.1013 10.6613 822 87.618 1033.71 449.4
433 0 77.0899 10.0662 776 89.3389 1034.63 448.835
434 0 82.2508 11.5257 948 86.5032 1034.26 448.09
435 0 85.1811 12.7376 1085 84.435 1034.65 448.339
436 0 88.133 9.3949 828 91.4469 1033.72 445.984
437 0 86.2955 9.78034 844 93.0486 1033.73 442.282
438 0 91.1233 11.2265 1023 91.3304 1033.9 440.283
439 0 92.2602 8.6061 794 96.6801 1033.69 434.234
440 0 98.2112 11.7807 1157 90.3561 1033.96 438.174
441 0 101.169 11.6043 1174 91.2615 1033.67 436.831
442 0 105.196 10.257 1079 93.9602 1034.02 431.961
443 0 108.152 12.6026 1363 90.5679 1033.75 432.913
444 0 114.251 12.5426 1433 89.7188 1033.94 433.339
445 0 115.146 11.1771 1287 92.4771 1033.75 429.92
446 0 119.184 10.8236 1290 93.4008 1034.11 427.437
447 0 125.172 11.2405 1407 97.7448 1032.74 426.817
448 0 126.36 10.9924 1389 93.5256 1033.57 419.276
449 1 71.1214 9.77202 695 91.2173 1033.37 452.142
450 0 72.096 9.73701 702 98.953 1033.54 448.489
451 0 74.1823 9.93498 737 97.4776 1034.2 448.388
452 0 78.0979 11.1911 874 95.5984 1034.03 445.384
453 0 77.2218 10.8907 841 98.1902 1033.62 441.81
454 0 82.1878 11.3034 929 96.7244 1033.51 441.792
455 0 82.1814 13.8839 1141 92.4601 1033.15 441.103
456 0 89.1267 11.0405 984 98.2124 1033.35 437.618
457 0 88.1676 11.9091 1050 97.5257 1033.73 439.418
458 0 92.2007 12.4511 1148 96.9791 1033.89 435.544
459 0 98.4164 11.2786 1110 99.0991 1033.67 434.989
460 0 100.239 10.9638 1099 100.297 1033.83 434.45
461 0 106.287 10.9985 1169 101.426 1033.98 429.027
462 1 115.246 14.699 1694 90.9309 1033.46 423.001
463 0 119.309 16.3609 1952 89.3473 1033.52 423.171
464 0 121.384 16.6991 2027 88.7874 1033.36 423.605
465 0 122.233 14.5787 1782 92.5432 1033.51 422.04
466 0 122.251 12.5398 1533 98.1174 1032.98 422.388
467 0 122.178 11.5324 1409 101.482 1034.19 417.609
468 0 132.317 12.5608 1662 98.0999 1033.87 420.107
469 1 74.1784 10.677 792 91.0101 1034.55 452.212
470 0 78.3611 12.519 981 97.2497 1032.49 452.331
471 0 81.3301 12.4677 1014 99.0306 1032.51 450.845
472 0 85.2708 12.7007 1083 99.4617 1034.15 450.644
473 0 87.3761 12.6465 1105 101.054 1034.73 446.719
474 0 87.402 10.9723 959 105.093 1034.65 446.173
475 0 90.3918 11.4059 1031 105.093 1035.18 445.929
476 0 89.2345 10.2427 914 110.152 1033.95 436.49
477 0 97.4856 12.1249 1182 105.876 1034.35 440.928
478 0 100.367 12.3049 1235 105.976 1034.99 439.138
479 0 103.367 14.0857 1456 101.948 1034.62 442.247
480 0 107.275 12.948 1389 98.5752 1035.12 443.584
481 0 110.214 11.7862 1299 101.4 1034.64 442.049
482 0 108.182 9.51178 1029 108.454 1034.1 433.175
483 0 114.172 10.1251 1156 105.785 1034.43 433.097
484 0 123.407 13.1435 1622 91.9883 1034.98 433.171
485 0 125.257 13.1569 1648 92.6438 1035.81 431.682
486 0 126.262 12.0543 1522 95.7871 1035.64 431.022
487 0 133.391 13.7715 1837 92.4159 1034.75 428.671
488 0 136.271 12.6586 1725 94.8226 1034.62 427.459
489 0 139.228 12.1886 1697 96.5834 1034.27 424.011
490 0 143.12 11.6475 1667 97.5993 1033.08 412.672
491 0 148.229 12.6223 1871 94.7509 1034.43 412.131
492 0 152.355 12.6022 1920 97.2677 1034.24 409.67
493 0 157.103 13.6598 2146 99.6081 1033.99 409.586
494 0 160.118 12.3097 1971 98.9655 1033.42 406.844
495 0 159.302 11.8391 1886 100.601 1033.27 401.339
496 0 164.189 13.6794 2246 101.034 1033.08 402.03
497 0 168.236 12.429 2091 106.076 1033.47 396.576
498 0 174.162 13.7401 2393 108.331 1034.08 390.799
499 0 180.164 12.8383 2313 107.815 1033.5 389.804
500 0 186.278 13.5174 2518 105.946 1034.7 389.297
501 0 194.457 14.4093 2802 102.375 1034.14 381.488
502 0 202.342 13.9022 2813 102.906 1033.12 372.795
503 0 209.252 13.0178 2724 103.851 1033.09 378.267
504 1 145.215 12.2646 1781 107.178 1033.37 403.959
505 0 148.271 11.5194 1708 108.477 1033.23 400.741
506 0 156.275 12.5676 1964 106.597 1032.84 400.574
507 0 162.249 13.054 2118 105.337 1033.56 396.917
508 0 164.32 13.0051 2137 106.677 1032.84 388.324
509 0 174.226 12.5182 2181 107.707 1033.89 381.877
510 0 181.368 12.1631 2206 108.621 1033.06 381.114
511 0 188.449 12.7727 2407 109.015 1032.78 373.138
512 0 192.433 13.5268 2603 106.53 1033.2 378.314
513 0 201.276 13.8467 2787 104.803 1033.27 381.49
514 0 202.334 13.6013 2752 107.554 1032.56 378.876
515 1 162.206 12.3485 2003 106.188 1033.01 399.437
516 0 172.25 13.1901 2272 101.338 1033.71 400.225
517 0 175.253 13.9512 2445 100.414 1033.81 400.266
518 0 181.215 13.5419 2454 100.883 1033.93 398.193
519 0 185.416 11.9623 2218 106.718 1033.91 388.026
520 0 189.173 12.3062 2328 106.117 1033.26 389.537
521 1 166.16 8.4858 1410 109.664 1033.2 407.335
522 0 168.193 8.45458 1422 102.98 1032.98 421.319
523 0 167.141 8.5736 1433 107.973 1032.32 410.349
524 0 168.3 8.3482 1405 108.063 1032.03 410.083
525 0 171.203 12.3246 2110 103.645 1032.49 400.005
526 0 177.248 11.0241 1954 102.577 1033.54 396.209
527 0 184.331 12.152 2240 101.345 1034.35 394.019
528 0 191.389 11.5576 2212 101.019 1033.66 395.212
529 1 59.0455 8.11239 479 91.4551 1033.78 453.672
530 0 68.0289 9.01087 613 88.261 1032.93 455.13
531 0 67.2042 10.0291 674 88.1231 1032.29 453.088
532 0 71.1009 9.26852 659 89.4552 1032.77 454.012
533 0 68.087 9.04724 616 93.1672 1032.68 447.88
534 0 72.2108 10.7325 775 90.0503 1033.45 450.826
535 0 70.144 10.3359 725 92.4483 1033.38 453.324
536 0 74.1945 10.3107 765 86.7503 1033.87 454.671
537 0 78.1481 8.84218 691 90.2533 1033.64 454.245
538 0 81.2325 9.36817 761 88.6229 1034.35 457.455
539 0 83.2183 10.4544 870 93.2264 1034.04 454.974
540 0 85.1226 8.51712 725 92.8359 1033.88 451.166
541 0 89.2116 11.6801 1042 92.3743 1033.54 450.996
542 0 94.1438 12.7677 1202 90.3844 1033.32 447.848
543 0 90.2012 9.25708 835 96.2778 1033.43 438.734
544 0 96.3521 9.4549 911 95.6597 1034.37 440.242
545 0 100.18 10.9103 1093 93.4016 1033.31 444.715
546 0 104.366 11.2968 1179 95.4487 1033.76 441.034
547 0 107.375 12.3679 1328 93.7214 1034.77 439.255
548 0 110.25 12.1905 1344 97.599 1034.56 436.946
549 0 113.172 12.0171 1360 99.2015 1034.09 435.91
550 0 118.13 12.173 1438 99.4604 1034.85 437.759
551 0 119.137 11.1804 1332 102.415 1034.32 433.634
552 0 125.153 12.0892 1513 100.072 1033.89 432.152
553 0 127.272 11.4558 1458 99.845 1034.07 430.317
554 0 131.192 11.5175 1511 100.754 1034.22 425.959
555 0 136.244 12.3675 1685 98.8036 1034.79 424.025
556 0 140.195 10.628 1490 97.5537 1034.83 423.611
557 0 141.398 12.8361 1815 98.4248 1035.15 424.555
558 0 143.247 11.5744 1658 102.91 1033.78 422.796
559 0 145.362 11.8876 1728 96.5961 1034.1 421.665
560 0 146.077 12.4044 1812 97.1882 1033.82 420.745
561 0 145.196 10.7854 1566 104.316 1033.9 420.206
562 0 148.299 13.6481 2024 102.521 1033.6 418.188
563 0 149.349 13.3379 1992 107.395 1033.05 417.872
564 0 150.197 12.4903 1876 110.966 1033.65 418.636
565 0 155.278 13.2923 2064 108.306 1033.22 416.306
566 0 159.204 13.4733 2145 104.191 1034.04 416.563
567 1 93.1735 9.23009 860 99.7988 1033.71 451.252
568 0 95.2405 9.55476 910 95.4209 1033.49 444.286
569 0 101.328 11.1914 1134 92.0802 1033.4 445.742
570 0 104.371 9.30332 971 92.7796 1033.06 446.288
571 0 107.377 10.9521 1176 91.9328 1032.35 441.914
572 0 112.175 12.8282 1439 89.1286 1032.86 431.76
573 0 115.275 11.5724 1334 91.3088 1032.65 429.055
574 0 122.129 13.7395 1678 86.6901 1033.64 428.612
575 0 131.36 14.2129 1867 84.9266 1034.09 427.974
576 0 141.942 17.3522 2463 77.3548 1034.04 421.551
577 0 139.614 15.507 2165 81.2665 1033.31 419.252
578 0 139.302 17.9681 2503 79.7587 1033.39 416.545
579 0 141.264 15.5524 2197 86.2881 1033.25 416.497
580 0 144.328 14.3216 2067 93.506 1033.19 417.195
581 0 146.254 13.2646 1940 97.8835 1032.54 418.584
582 1 73.2932 10.765 789 94.4056 1032.48 461.317
583 0 74.2339 9.6856 719 96.2434 1033.15 459.013
584 0 77.2176 10.9431 845 96.9988 1032.91 456.902
585 0 79.1224 11.4127 903 98.7364 1032.27 456.024
586 0 81.1807 11.2096 910 101.92 1032.09 454.692
587 0 82.0906 10.3544 850 105.967 1032.43 453.416
588 0 85.1544 11.7434 1000 106.242 1032.92 454.928
589 0 85.1545 10.8274 922 113.1 1032.4 451.914
590 0 89.2136 13.0698 1166 109.269 1033.11 453.558
591 0 91.1617 12.3188 1123 114.258 1032.4 449.981
592 0 92.2062 11.9949 1106 117.297 1033.12 450.13
593 0 97.0895 12.3391 1198 117.694 1032.61 447.647
594 0 99.151 12.6373 1253 116.702 1033.16 444.02
595 0 99.2415 12.6963 1260 119.338 1032.7 441.279
596 0 101.185 11.8891 1203 122.633 1033.15 442.021
597 0 106.165 12.9798 1378 121.36 1033.22 441.363
598 0 109.243 12.8247 1401 123.649 1032.57 440.31
599 0 113.158 12.8404 1453 126.246 1032.63 438.602
600 0 114.117 12.1717 1389 130.045 1033.02 437.986
601 0 116.105 11.1192 1291 133.534 1032.82 439.747
602 0 121.087 12.8668 1558 129.539 1033.26 437.065
603 0 123.098 12.4535 1533 131.988 1032.6 433.12
604 0 129.191 11.9746 1547 133.739 1032.19 433.984
605 0 129.172 13.0834 1690 132.198 1033.41 431.805
606 0 134.137 13.024 1747 131.527 1033.43 429.433
607 0 138.078 13.3258 1840 131.308 1033.1 423.789
608 0 144.096 12.5888 1814 132.517 1032.86 422.553
609 1 81.15 10.4991 852 120.259 1034.31 458.522
610 0 85.1494 10.2526 873 117.991 1034.25 453.635
611 0 84.1484 9.82788 827 117.958 1034.07 445.364
612 0 91.108 12.2163 1113 115.8 1034.91 454.199
613 0 94.1696 12.7005 1196 115.733 1034.15 450.402
614 0 97.1277 11.0679 1075 119.169 1034.28 450.473
615 0 100.079 12.0804 1209 117.506 1034 447.943
616 0 103.116 12.1804 1256 117.744 1033.77 444.18
617 0 107.108 12.2587 1313 117.043 1033.7 443.855
618 0 108.123 11.5609 1250 119.378 1033.79 440.489
619 0 113.081 11.5758 1309 120.201 1032.67 439.678
620 0 116.221 12.0891 1405 118.648 1033.24 439.63
621 0 120.191 12.5384 1507 118.218 1033.78 437.478
622 0 123.188 12.2577 1510 119.807 1033.9 434.902
623 0 127.137 12.8916 1639 118.735 1033.4 430.636
624 0 133.138 11.6195 1547 121.437 1033.68 430.92
625 0 137.214 11.9812 1644 120.31 1033.43 428.007
626 1 75.1144 10.3842 780 116.997 1033.46 459.282
627 0 82.1191 11.7756 967 111.776 1033.17 458.637
628 0 83.0816 11.4947 955 116.187 1032.88 454.851
629 0 84.2006 11.9239 1004 114.278 1033.12 455.878
630 0 87.141 12.7954 1115 117.762 1033.14 452.256
631 0 91.1142 12.7313 1160 117.263 1033.14 451.617
632 0 94.0815 11.8195 1112 118.849 1033.62 451.393
633 0 96.2148 12.3474 1188 118.408 1033.95 449.057
634 0 99.1347 12.5385 1243 118.317 1033.28 449.095
635 0 104.129 13.9827 1456 115.016 1033.35 443.972
636 0 104.154 12.5295 1305 119.457 1033.03 442.78
637 0 109.136 12.0859 1319 120.34 1033.57 440.245
638 0 112.196 12.6208 1416 119.085 1032.86 440.04
639 0 118.145 13.2126 1561 116.131 1033.93 435.912
640 0 122.219 12.9603 1584 115.8 1032.83 434.188
641 0 125.181 12.4619 1560 115.638 1032.26 433.204
642 0 132.11 12.1111 1600 108.561 1032.27 434.188
643 1 74.0634 11.0986 822 101.434 1032.31 461.406
644 0 77.1258 11.8637 915 100.47 1032.24 459.926
645 0 79.0827 11.5322 912 101.702 1031.97 458.836
646 0 82.0556 12.8815 1057 100.326 1031.12 458.482
647 0 83.0662 11.2561 935 106.348 1032.36 457.493
648 0 88.1014 12.2586 1080 104.782 1032.39 454.614
649 0 86.1206 11.0078 948 108.92 1032.62 457.372
650 0 92.0654 11.4158 1051 108.428 1032.24 454.842
651 0 93.1178 10.7283 999 109.881 1032.11 456.115
652 0 97.1806 12.1732 1183 109.21 1032.12 452.46
653 0 100.134 12.2636 1228 109.799 1032.28 449.456
654 0 101.302 11.4707 1162 111.111 1033.04 450.379
655 0 104.115 11.4008 1187 111.809 1032.48 448.706
656 0 108.094 11.5085 1244 111.487 1032.78 449.783
657 0 112.267 13.5569 1522 110.931 1032.76 446.175
658 0 116.191 13.5639 1576 113.283 1033.72 439.935
659 0 118.162 12.1105 1431 118.459 1033.32 437.732
660 0 125.309 14.2927 1791 111.169 1033.98 437.248
661 0 128.151 13.843 1774 112.192 1033.37 433.866
662 0 130.228 11.6718 1520 112.176 1033.15 430.522
663 0 136.168 12.4479 1695 110.665 1032.99 429.23
664 0 139.145 12.1312 1688 112.595 1033.76 427.999
665 0 143.148 13.2031 1890 115.57 1033.4 422.72
666 0 148.104 12.0118 1779 126.97 1033.87 422.961
667 0 154.165 13.1612 2029 121.4 1033.77 422.105
668 0 161.227 12.4607 2009 122.421 1033.52 419.836
669 1 85.1067 11.8087 1005 117.486 1034.13 457.093
670 0 88.0568 11.4699 1010 116.574 1034.78 455.147
671 0 93.0711 12.9363 1204 115.433 1034.39 452.136
672 0 96.1163 13.6813 1315 114.374 1034.08 451.379
673 0 100.046 12.5143 1252 118.005 1033.68 450.22
674 0 99.1118 12.9349 1282 119.945 1032.9 447.054
675 0 105.077 13.4758 1416 118.589 1032.6 445.519
676 0 108.264 14.5662 1577 116.673 1033.6 442.316
677 0 109.132 13.6899 1494 119.317 1033.61 443.879
678 0 115.287 13.3059 1534 120.175 1034.23 442.131
679 0 118.262 13.9014 1644 119.973 1033.6 437.904
680 0 121.109 12.8232 1553 124.54 1033.24 437.576
681 0 124.072 14.0564 1744 122.812 1032.63 432.991
682 0 129.1 13.1914 1703 125.307 1032.61 431.042
683 0 132.231 13.3252 1762 126.294 1033.35 427.278
684 0 138.235 13.2528 1832 128.093 1033.32 426.293
685 0 143.264 12.1245 1737 129.903 1032.74 426.537
686 0 148.222 14.006 2076 126.676 1032.89 421.547
687 0 154.156 15.0432 2319 121.924 1032.99 419.878
688 0 158.167 13.6312 2156 125.029 1033.96 419.116
689 0 165.216 13.9333 2302 124.369 1033.48 415.516
690 1 86.2397 12.0362 1038 124.521 1033.13 452.109
691 0 89.1207 13.1731 1174 122.818 1032.72 451.479
692 0 93.188 13.9181 1297 122.103 1032.99 447.219
693 0 95.1287 14.0231 1334 123.84 1032.66 448.442
694 0 99.0842 15.1386 1500 120.213 1033.52 446.895
695 0 103.116 15.4389 1592 117.989 1033.44 443.385
696 0 106.233 14.1105 1499 124.087 1033.82 444.243
697 0 108.19 13.6335 1475 124.761 1033.87 441.663
698 0 111.1 13.8524 1539 124.864 1033.91 439.548
699 0 115.282 14.3908 1659 122.795 1033.92 438.539
700 0 116.078 13.8441 1607 125.821 1033.67 438.673
701 0 119.251 13.1907 1573 127.397 1033.54 436.288
702 0 123.208 12.1907 1502 129.244 1033.51 433.741
703 0 129.227 12.8611 1662 127.011 1033.22 430.468
704 0 134.135 13.5013 1811 124.886 1033.61 424.643
705 1 79.0869 11.8604 938 124.056 1033.63 449.636
706 0 83.0911 12.0229 999 122.924 1034.98 448.606
707 0 85.1 12.9025 1098 120.179 1034.14 446.109
708 0 87.2469 12.0348 1050 123.16 1033.88 444.388
709 0 90.1753 12.3426 1113 122.104 1034.08 445.028
710 0 93.2077 13.6469 1272 122.027 1033.8 441.124
711 0 96.1306 12.4102 1193 124.138 1034.72 440.88
712 0 100.253 13.3363 1337 123.616 1034.86 437.263
713 0 103.184 13.5971 1403 122.003 1035.07 438.897
714 0 111.127 15.4778 1720 114.694 1034.74 435.337
715 0 108.13 13.5393 1464 120.633 1034.34 436.163
716 0 111.23 12.8023 1424 122.371 1034.63 433.153
717 0 116.148 13.6378 1584 119.157 1034.36 431.621
718 0 119.13 12.2975 1465 122.981 1034.49 430.842
719 0 124.206 13.8802 1724 119.387 1034.76 426.437
720 1 57.1156 9.54206 545 105.919 1035.37 461.853
721 0 60.0775 12.4006 745 97.0524 1035.33 462.23
722 0 60.0476 10.4417 627 102.408 1035.56 458.303
723 0 63.0296 10.7727 679 101.274 1035.65 457.11
724 0 63.196 9.88986 625 103.166 1035.22 458.715
725 0 67.1961 10.8488 729 101.359 1035.1 454.829
726 0 69.0955 11.665 806 100.015 1035.48 455.515
727 0 69.2065 11.3862 788 101.805 1034.63 452.579
728 0 75.1181 12.5003 939 97.771 1034.81 449.357
729 0 76.1895 11.642 887 100.802 1034.7 452.384
730 0 78.07 13.3214 1040 98.6577 1034.43 451.981
731 0 79.0331 11.0207 871 103.955 1034.12 451.191
732 0 83.0797 11.9283 991 102.608 1034.92 449.74
733 0 85.0634 12.3908 1054 104.133 1034.18 446.428
734 0 88.0872 12.726 1121 103.822 1034.16 447.058
735 0 90.2132 12.404 1119 105.37 1034.51 445.088
736 0 93.1833 12.7276 1186 106.492 1033.11 441.303
737 0 98.071 13.1843 1293 106.609 1033.49 441.476
738 0 99.1039 13.279 1316 107.873 1033.69 441.637
739 0 103.131 12.1206 1250 112.398 1032.97 441.378
740 0 107.052 13.5448 1450 114.689 1032.69 439.516
741 0 111.134 13.6233 1514 114.41 1033.47 437.136
742 1 61.0515 11.4985 702 114.236 1033.64 462.232
743 0 64.1106 11.8545 760 115.863 1033.49 461.283
744 0 65.1281 12.7441 830 115.39 1034.37 459.855
745 0 66.1588 11.0643 732 118.429 1033.61 457.687
746 0 68.0556 13.2686 903 114.068 1033.53 457.987
747 0 70.1526 13.4849 946 113.433 1033.42 456.863
748 0 70.0323 12.7084 890 116.365 1033.44 455.461
749 0 74.1267 13.342 989 115.112 1033.84 453.089
750 0 76.1032 13.1006 997 114.912 1034.14 453.57
751 0 78.1336 13.8097 1079 113.914 1033.35 449.647
752 0 77.0765 11.547 890 116.724 1033.13 449.938
753 0 82.089 13.0468 1071 113.576 1033.5 449.026
754 0 87.1811 13.1336 1145 113.861 1033.76 447.682
755 0 88.1127 12.4159 1094 117.284 1032.76 447.26
756 0 92.0336 14.071 1295 113.333 1034 447.748
757 0 94.175 14.0377 1322 115.884 1033.73 445.361
758 0 99.1 13.8648 1374 115.575 1033.57 443.221
759 0 102.065 14.1674 1446 114.9 1033.51 441.869
760 0 105.056 13.1358 1380 117.988 1033.49 439.804
761 0 107.096 13.642 1461 118.515 1033.03 437.761
762 0 111.169 14.3655 1597 116.755 1032.33 437.364
763 0 118.193 14.2986 1690 115.569 1032.28 438.167
764 1 58.0969 12.5996 732 107.108 1032.45 465.997
765 0 58.025 11.0814 643 107.89 1032.93 465.213
766 0 61.0823 12.3113 752 101.266 1033.43 463.524
767 0 62.1098 12.4618 774 102.229 1032.64 462.957
768 0 61.1408 10.9747 671 106.542 1033.05 460.642
769 0 63.136 10.7704 680 136.471 1034.07 460.462
770 0 68.0924 12.6005 858 103.508 1033.71 459.103
771 0 70.0885 12.0277 843 105.644 1032.51 459.261
772 0 76.1209 14.293 1088 103.345 1032.75 459.112
773 0 74.0998 12.1998 904 109.129 1032.38 457.842
774 0 79.0782 13.3412 1055 105.909 1033.19 457.004
775 0 81.1784 12.7497 1035 108.23 1032.69 453.497
776 0 83.1701 13.6107 1132 107.34 1033.23 451.587
777 0 86.1603 13.266 1143 107.942 1033.36 451.814
778 0 91.1357 13.5732 1237 112.092 1033.03 450.329
779 0 92.1339 13.7409 1266 112.448 1032.82 448.498
780 0 94.2761 13.6408 1286 112.56 1032.47 446.992
781 0 100.258 14.343 1438 110.9 1031.79 444.637
782 0 102.188 13.9547 1426 111.78 1033.25 443.541
783 0 112.62 16.3026 1836 178.549 1031.75 440.156
784 0 110.549 14.6813 1623 117.056 1031.71 407.937
785 0 110.528 14.2589 1576 119.482 1031.67 410.462
786 0 115.276 14.0966 1625 121.036 1032.06 409.591
787 0 120.151 14.9812 1800 118.72 1031.82 415.076
788 1 64.1847 12.1992 783 118.383 1033.33 446.464
789 0 71.0964 14.3327 1019 107.883 1032.72 448.386
790 0 70.3351 12.9238 909 111.792 1033.68 445.915
791 0 72.3005 13.2364 957 100.672 1033.13 453.359
792 0 74.2958 14.4154 1071 98.2502 1032.71 450.373
793 0 77.4387 14.5276 1125 100.071 1032.33 451.122
794 0 78.1929 14.5921 1141 112.41 1032.46 449.738
795 0 82.125 15.6712 1287 110.415 1031.91 449.624
796 0 83.1126 14.3781 1195 114.928 1032.68 449.438
797 0 87.1773 15.5086 1352 112.363 1033.09 448.16
798 0 89.2253 14.4466 1289 116.51 1032.38 447.355
799 0 90.1681 13.985 1261 118.967 1032.37 446.071
800 0 94.3549 14.5302 1371 118.389 1032.3 446.015
801 0 95.1556 14.8283 1411 118.844 1032.77 445.413
802 0 100.107 15.5434 1556 117.301 1032.13 441.258
803 0 100.107 15.4935 1551 144.346 1031.13 441.211
804 0 105.244 14.0341 1477 121.81 1031.73 438.557
805 0 110.082 14.8344 1633 118.667 1032.19 436.373
806 0 112.132 15.0092 1683 119.933 1032.23 435.627
807 0 115.058 14.4189 1659 121.66 1032.2 434.317
808 0 119.111 13.2985 1584 124.398 1031.58 433.345
809 0 125.192 14.4498 1809 121.022 1031.65 430.39
810 0 130.139 14.7227 1916 119.992 1032.48 426.627
811 0 134.178 14.5106 1947 121.309 1032.5 424.908
812 0 139.168 13.1855 1835 125.168 1032.75 422.214
813 0 146.144 14.2804 2087 122.842 1032.04 419.777
814 0 151.243 14.5726 2204 123.354 1031.85 416.428
815 1 78.164 13.7403 1074 129.245 1032.82 451.49
816 0 81.1424 13.9754 1134 129.223 1032.45 449.93
817 0 82.0707 14.5972 1198 129.468 1031.59 448.443
818 0 85.1095 14.9454 1272 129.244 1032.1 446.791
819 0 88.046 14.1063 1242 132.65 1032.3 446.185
820 0 88.103 13.9723 1231 135.109 1032.13 444.123
821 0 97.0679 15.2368 1479 129.343 1031.68 439.682
822 0 98.1344 14.8164 1454 131.984 1031.87 438.326
823 0 103.18 14.9253 1540 131.583 1031.34 436.527
824 0 106.131 15.0192 1594 131.831 1032.03 434.802
825 0 111.086 14.7994 1644 132.899 1032 431.847
826 0 117.204 14.9057 1747 132.449 1032.01 429.002
827 0 121.191 16.1398 1956 130.712 1032.11 426.327
828 0 126.165 15.9712 2015 130.969 1032.44 427.014
829 0 130.186 15.6162 2033 133.691 1031.34 420.682
830 0 137.351 14.6049 2006 136.111 1032.13 421.367
831 0 142.173 15.5445 2210 134.823 1031.78 416.253
832 0 146.275 15.4367 2258 135.49 1031.85 413.514
833 0 152.225 16.0158 2438 134.304 1032.02 410.806
834 0 156.336 15.1853 2374 137.019 1031.58 409.768
835 0 164.25 16 2628 134.293 1032.08 405.414
836 1 75.0337 12.5943 945 135.35 1031.61 449.599
837 0 76.0682 12.2916 935 138.049 1032.72 448.018
838 0 78.2031 13.3499 1044 135.914 1032.61 447.908
839 0 83.1497 13.0127 1082 137.857 1032.66 443.225
840 0 86.1436 12.0148 1035 139.361 1032.63 441.759
841 0 89.0464 12.3643 1101 138.569 1032.78 438.253
842 0 92.0543 13.416 1235 136.641 1032.27 436
843 0 98.1118 12.4858 1225 138.491 1033.03 434.886
844 0 104.118 12.3418 1285 141.26 1032.85 433.514
845 0 111.084 13.5573 1506 137.697 1033.56 433.354
846 0 115.135 14.1921 1634 136.43 1033.41 433.319
847 0 120.102 14.7125 1767 134.32 1032.95 431.262
848 1 57.071 10.1102 577 115.179 1034.04 464.79
849 0 58.1003 11.0154 640 114.558 1033.88 462.92
850 0 58.1056 9.7753 568 119.187 1033.54 460.944
851 0 64.1083 10.4199 668 117.397 1032.95 460.513
852 0 66.0455 11.9463 789 114.871 1033.17 458.944
853 0 67.0654 10.6911 717 118.672 1032.38 458.354
854 0 67.1274 10.1598 682 122.572 1032.44 455.119
855 0 72.0512 10.7007 771 120.008 1033.6 456.555
856 0 74.1106 10.2414 759 122.26 1032.59 455.823
857 0 76.2355 10.3889 792 121.852 1032.74 454.249
858 0 80.1981 9.95036 798 122.768 1032.41 450.47
859 0 85.2279 11.0879 945 120.67 1032.16 448.638
860 0 87.2246 9.44687 824 123.312 1032.06 445.966
861 1 1 5 5 92.2 1031.6 465.6
862 1 29.0195 6.68515 194 96.4897 1031.67 478.856
863 0 27.036 8.47018 229 96.2183 1031.79 478.716
864 0 25.155 4.25363 107 103.159 1031.47 478.673
865 0 30.091 8.04227 242 98.1033 1032.21 478.512
866 0 32.2112 6.9541 224 100.558 1032.31 481.268
867 0 31.0482 9.40474 292 100.106 1032.14 479.387
868 0 31.0956 10.1622 316 99.5316 1032.33 478.915
869 0 30.0706 8.14749 245 105.486 1032.57 480.118
870 0 32.132 7.93602 255 103.624 1032.79 479.969
871 0 29.0266 8.26827 240 107.554 1033.37 482.192
872 1 123.277 12.2976 1516 136.528 1032.49 434.544
873 0 125.337 11.2177 1406 138.999 1032.06 433.614
874 0 128.213 10.9427 1403 138.041 1032.14 432.843
875 0 133.219 10.9819 1463 136.352 1032.73 428.707
876 1 88.3248 11.0162 973 125.377 1032.36 454.927
877 0 88.2346 10.4041 918 127.703 1033.08 452.204
878 0 91.4414 11.2312 1027 125.823 1032.33 451.411
879 0 94.3351 12.7418 1202 122.82 1031.92 450.561
880 0 97.2535 11.7014 1138 131.813 1032.4 447.819
881 1 33.0141 7.90572 261 115.05 1034.47 481.785
882 0 35.0132 9.65352 338 114.269 1034.59 480.142
883 0 35.03 9.73452 341 114.645 1033.07 480.238
884 0 34.0301 9.84423 335 117.075 1033.27 479.212
885 0 35.051 10.2708 360 114.611 1033.59 480.606
886 0 34.0148 8.67271 295 118.041 1033.72 480.688
887 0 34.0707 9.92055 338 117.006 1033.54 479.473
888 0 35.0757 10.8622 381 115.286 1034.36 479.504
889 0 35.1299 9.36525 329 118.45 1034.6 479.389
890 0 34.0214 10.1113 344 117.744 1034.26 479.407
891 0 35.0147 7.96808 279 122.097 1034.24 479.66
892 0 35.0317 9.87676 346 118.653 1034.16 479.668
893 0 36.014 10.7181 386 115.135 1034.82 478.847
894 0 36.0318 9.85241 355 117.659 1034.51 478.386
895 0 35.0443 9.81614 344 118.36 1034.05 478.907
896 0 36.0216 10.1051 364 118.143 1034.9 478.618
897 0 35.0826 9.5489 335 119.167 1034.34 480.287
898 0 36.0248 9.43795 340 118.576 1033.49 479.509
899 0 37.077 10.222 379 115.193 1033.31 477.884
900 0 37.0504 10.7961 400 114.668 1032.55 479.71
901 0 36.0401 9.37845 338 119.077 1033.53 478.775
902 0 37.1541 10.9005 405 114.37 1033.22 478.158
903 0 38.0524 10.0914 384 116.253 1032.78 478.167
904 0 38.057 10.0376 382 115.741 1033.64 479.029
905 0 37.1076 10.1866 378 116.28 1033.04 479.354
906 0 37.0203 10.5888 392 115.622 1032.6 479.329
907 0 37.0548 10.0392 372 115.621 1033.75 480.237
908 0 37.246 9.55808 356 117.028 1032.05 474.281
909 0 36.048 9.07123 327 115.963 1032.25 478.404
910 0 38.0177 10.2584 390 116.328 1033.28 478.451
911 0 39.0864 11.5897 453 111.382 1033.44 476.629
912 0 36.0344 8.65838 312 121.234 1033.02 478.455
913 0 36.0289 9.88094 356 117.525 1033.24 476.91
914 0 37.1243 10.1281 376 115.29 1033.64 477.758
915 0 36.0258 10.3259 372 115.669 1032.73 478.395
916 0 38.0091 10.9447 416 114.05 1032.99 477.442
917 0 35.0272 8.73606 306 121.118 1032.37 477
918 0 36.0403 8.98994 324 117.37 1031.54 476.207
919 0 38.1789 11.2628 430 111.398 1030.98 473.412
920 0 37.05 10.9042 404 109.77 1031.51 476.834
921 0 39.0348 10.8109 422 111.313 1032.04 476.566
922 0 38.0686 10.0608 383 115.052 1032.91 477.478
923 0 37.0144 9.96911 369 116.84 1032.91 478.393
924 0 38.0084 9.44529 359 117.39 1033.15 478.15
925 0 39.1057 10.4588 409 113.645 1032.79 477.687
926 0 41.0287 11.3092 464 108.399 1032.29 475.244
927 0 40.0859 11.8995 477 110.04 1032.16 475.69
928 0 39.0161 11.303 441 111.619 1032.15 476.918
929 0 41.1151 11.8691 488 107.738 1032.3 476.436
930 0 41.0171 11.0198 452 110.524 1032.96 474.544
931 0 42.0833 11.3822 479 108.568 1032.78 476.612
932 0 40.1459 11.3835 457 110.133 1033.51 476.153
933 0 42.0538 11.1762 470 108.632 1032.98 476.185
934 0 41.029 12.1134 497 107.151 1032.86 477.227
935 0 40.0557 11.1345 446 110.33 1032.88 474.859
936 0 40.0541 11.11 445 123.281 1032.87 474.836
937 0 41.0239 10.8717 446 109.706 1032.41 474.733
938 0 39.0492 10.5252 411 110.55 1032.01 471.674
939 0 40.1256 10.9656 440 108.434 1031.67 472.034
940 0 39.1185 10.481 410 113.568 1033.03 476.52
941 0 39.0344 10.3242 403 113.422 1033.03 477.127
942 0 40.0769 11.5528 463 110.695 1032.51 476.585
943 0 41.007 11.9492 490 106.637 1032.82 476.155
944 0 42.0649 11.6249 489 106.847 1031.91 475.605
945 0 42.033 11.372 478 107.272 1032.16 476.297
946 0 42.0633 11.6729 491 105.978 1032.19 475.79
947 0 43.0607 11.4257 492 106.404 1031.9 474.136
948 0 42.0981 10.9981 463 107.257 1030.87 472.603
949 0 44.2606 12.2231 541 101.786 1032.02 472.567
