time division length width area intensity CMx CMy
0 0 36.0447 13.289 479 118.144 1108.23 484.843
1 0 38.1633 13.4947 515 114.932 1108.73 484.641
2 0 38.2135 13.2414 506 117.043 1108.02 483.666
3 0 38.1163 12.4094 473 120.596 1108.46 483.421
4 0 39.1426 13.668 535 118.413 1108.54 482.338
5 0 41.0939 12.6783 521 118.568 1108.5 483.622
6 0 41.1268 14.0055 576 116.958 1108.54 482.167
7 0 40.094 13.9672 560 118.505 1108.34 481.971
8 0 42.066 13.2173 556 118.725 1108.63 482.91
9 0 44.0803 13.1351 579 117.61 1108.57 481.784
10 0 43.0844 12.4175 535 119.944 1108.31 481.695
11 0 46.116 13.878 640 114.444 1108.56 481.462
12 0 46.1207 13.855 639 115.066 1108.07 481.264
13 0 48.126 13.1114 631 115.84 1108.01 480.534
14 0 49.0921 13.3626 656 114.404 1107.52 481.54
15 0 49.1167 14.4961 712 111.971 1108.27 480.989
16 0 52.1308 14.6938 766 109.55 1107.43 479.948
17 0 53.1454 15.2788 812 107.777 1108.14 478.839
18 0 52.1285 12.5267 653 113.815 1108.22 480.695
19 0 55.0518 13.0423 718 111.319 1107.07 478.989
20 0 55.1254 14.1495 780 109.701 1107.13 478.606
21 0 58.078 13.9468 810 107.759 1107.75 477.959
22 0 60.1094 13.3756 804 108.756 1107.22 477.708
23 0 61.079 13.9819 854 107.802 1107.06 477.403
24 0 64.2136 14.5919 937 106.347 1107.86 475.782
25 0 67.1205 14.6006 980 105.952 1107.54 474.059
26 0 68.1654 14.6409 998 106.864 1107.58 472.575
27 0 69.1449 12.481 863 111.39 1107.08 474.379
28 0 71.1996 12.9916 925 111.132 1107.18 473.465
29 0 74.1479 13.581 1007 110.441 1107.28 471.21
30 0 77.1438 13.6758 1055 108.073 1107.45 472.045
31 0 81.224 14.7001 1194 107.522 1106.69 465.821
32 0 84.1536 13.2615 1116 109.664 1106.87 468.551
33 0 87.1393 14.6776 1279 106.691 1106.88 464.83
34 0 88.1493 12.8986 1137 110.028 1106.72 467.286
35 0 93.0789 12.7419 1186 110.874 1106.33 462.968
36 1 48.0577 14.0456 675 110.887 1106.95 482.459
37 0 50.0453 13.6077 681 109.436 1107.05 483.495
38 0 54.0704 13.6859 740 108.139 1106.72 481.722
39 0 54.0814 13.831 748 108.841 1106.3 480.808
40 0 57.1437 14.8398 848 105.677 1105.79 480.423
41 0 58.021 14.2879 829 106.998 1105.91 479.268
42 0 59.0504 15.4614 913 105.652 1105.79 476.502
43 0 61.1112 13.5 825 103.795 1104.99 479.742
44 0 62.0361 14.9268 926 102.296 1105.25 478.059
45 0 66.0381 15.0822 996 101.719 1105.45 477.642
46 0 69.076 15.2007 1050 101.014 1105.13 477.26
47 0 70.0504 14.9892 1050 102.17 1105.01 476.284
48 0 71.0665 14.0854 1001 104.465 1104.46 475.745
49 0 73.078 14.5872 1066 104.333 1104.39 474.585
50 0 76.0598 13.9101 1058 104.754 1104.61 473.881
51 0 80.0576 15.1891 1216 102.056 1104.87 472.425
52 0 82.1992 13.1753 1083 76.4857 1104.11 475.188
53 0 86.2114 15.056 1298 100.792 1104.7 467.554
54 0 90.1569 15.1846 1369 101.596 1104.1 466.895
55 0 92.2087 14.0876 1299 100.507 1103.88 468.254
56 0 96.1888 14.1285 1359 100.445 1104.59 464.468
57 1 49.0984 11.1205 546 101.685 1104.53 486.8
58 0 53.0913 13.4674 715 96.6587 1104.76 486.07
59 0 54.0188 12.0884 653 100.173 1104.89 484.715
60 0 53.0801 12.2268 649 100.518 1104.66 484.188
61 0 56.0256 13.5295 758 98.595 1104.18 482.751
62 0 59.036 13.0598 771 98.5707 1104.55 482.738
63 0 63.0937 13.583 857 96.2077 1104.6 481.317
64 0 64.0846 13.0765 838 98.1336 1104.07 481.239
65 0 65.0884 13.0284 848 100.199 1103.56 478.06
66 0 69.0817 14.3598 992 97.4698 1104.28 478.819
67 0 71.061 14.6212 1039 98.0895 1104.22 475.095
68 0 74.1534 13.7822 1022 100.097 1104.44 475.066
69 0 77.2029 15.2714 1179 97.7091 1104.1 473.716
70 0 78.0789 14.6647 1145 99.8367 1103.72 473.006
71 0 81.1702 13.8967 1128 103.179 1103.56 471.848
72 0 85.185 14.2161 1211 103.415 1103.72 469.437
73 0 88.1534 13.4765 1188 105.906 1103.3 467.906
74 0 90.1815 14.5484 1312 104.664 1103.64 466.352
75 0 91.1301 13.5191 1232 106.883 1104.08 466.36
76 0 96.1736 14.0475 1351 106.017 1103.34 464.309
77 0 98.2946 13.836 1360 106.221 1104.79 459.992
78 0 101.29 13.2195 1339 106.293 1103.55 461.54
79 0 105.323 14.128 1488 105.668 1104.6 454.255
80 0 110.305 14.5959 1610 103.178 1104.19 455.602
81 1 58.1085 13.4748 783 97.7867 1102.58 484.313
82 0 58.0396 12.009 697 101.187 1102.21 484.415
83 0 61.0318 13.8453 845 96.974 1103.71 482.915
84 0 61.069 13.4274 820 100.52 1102.97 482.31
85 0 63.1176 12.4688 787 97.2389 1104.09 481.822
86 0 63.038 13.5791 856 96.5514 1103.86 478.033
87 0 66.0962 12.5575 830 96.7795 1103.85 481.187
88 0 68.0804 13.7484 936 96.2244 1103.97 479.62
89 0 74.073 12.7712 946 97.0412 1103.42 476.942
90 0 74.083 12.8909 955 98.0586 1103.47 476.279
91 0 76.1067 14.3483 1092 95.652 1103.12 476.937
92 0 79.1111 13.0323 1031 99.2124 1102.93 474.522
93 0 84.1986 15.9148 1340 92.8104 1102.72 475.493
94 0 84.2161 13.9047 1171 97.4808 1103.21 473.704
95 0 89.1475 15.6707 1397 95.0838 1103.06 469.402
96 0 90.1426 13.2568 1195 99.6201 1103.48 471.299
97 0 95.2398 13.6078 1296 98.2755 1103.81 468.869
98 0 97.1969 14.7536 1434 97.5439 1103.73 464.369
99 0 99.1114 12.6323 1252 100.87 1103.81 462.79
100 0 104.12 13.9647 1454 95.8487 1103.62 465.124
101 1 57.0931 13.189 753 92.7769 1104.3 485.081
102 0 58.2172 13.4325 782 91.2123 1104.07 484.017
103 0 59.0746 11.2908 667 93.1064 1103.83 485.637
104 0 61.1225 11.9269 729 92.8656 1103.59 482.994
105 0 59.1955 10.9806 650 96.6015 1103.66 483.465
106 0 60.2072 10.9455 659 95.7921 1103.79 484.352
107 0 65.2331 11.9265 778 94.7211 1103.33 482.503
108 0 68.0743 11.1643 760 93.7276 1103.41 484.443
109 0 69.0423 12.2534 846 95.1099 1103.04 478.014
110 0 72.1584 12.4864 901 94.7691 1102.58 478.089
111 0 73.1353 13.0443 954 95.4528 1103.24 474.244
112 0 77.0907 12.9458 998 95.7275 1102.91 474.483
113 0 78.1786 11.7551 919 98.7835 1102.5 472.852
114 0 83.1023 12.4064 1031 95.4074 1102.96 475.211
115 0 83.0937 12.6604 1052 140.981 1102.92 474.837
116 0 88.1195 11.1667 984 98.7022 1103.19 472.602
117 0 92.0481 12.5804 1158 98.1684 1102.73 465.729
118 0 96.1577 12.4171 1194 97.5636 1103.81 464.564
119 1 52.0319 12.8575 669 93.7623 1102.78 486.076
120 0 50.0718 10.1654 509 93.5481 1102.42 488.143
121 0 52.0448 12.8159 667 90.4048 1102.6 484.948
122 0 55.0946 11.7434 647 91.9335 1102.81 485.224
123 0 56.0649 12.1823 683 91.1537 1102.93 486.091
124 0 59.1656 12.3552 731 90.4897 1103.51 482.737
125 0 58.0682 11.1765 649 93.6579 1103.21 483.146
126 0 62.0592 12.5042 776 90.424 1102.8 481.843
127 0 64.1001 11.2636 722 91.885 1103.3 481.472
128 0 67.1339 12.6464 849 89.4228 1103.23 479.211
129 0 69.2073 12.6143 873 89.7079 1103.63 476.678
130 0 71.1653 11.5646 823 90.7655 1103.39 475.705
131 0 76.1764 12.4842 951 88.613 1103.36 476.957
132 0 77.0968 12.7502 983 89.4842 1103.29 472.558
133 0 80.1581 13.5981 1090 87.9266 1103.47 470.589
134 0 82.1647 13.0105 1069 89.3957 1103.41 469.274
135 0 86.1225 12.1571 1047 89.9093 1103.52 472.6
136 0 88.1184 13.1074 1155 89.955 1103.84 467.184
137 0 91.055 10.0489 915 93.2699 1103.5 471.366
138 0 93.093 11.0857 1032 93.1744 1103.25 464.487
139 0 97.1105 13.531 1314 89.3501 1104.16 461.752
140 1 52.0999 12.572 655 90.6031 1103.89 483.627
141 0 52.0999 12.572 655 119.221 1102.89 483.627
142 0 54.0595 11.5428 624 92.4103 1102.94 484.064
143 0 53.067 12.6256 670 85.4149 1103.56 483.463
144 0 58.0416 11.8363 687 85.4032 1104.33 483.843
145 0 59.0604 11.4628 677 88.3205 1103.34 481.62
146 0 61.0454 11.6471 711 88.782 1103.85 481.385
147 0 62.0634 11.7461 729 90.9547 1103.26 480.556
148 0 64.0329 11.213 718 91.4095 1103.34 480.508
149 0 66.0399 12.4773 824 90.7998 1103.62 476.243
150 0 68.0753 11.5314 785 92.907 1103.28 476.42
151 0 73.0507 12.4024 906 92.1126 1102.67 474.155
152 0 72.1436 12.7108 917 93.3642 1103.1 473.976
153 0 76.1264 12.8996 982 93.5397 1103.2 472.4
154 0 78.1338 13.1697 1029 93.8076 1103.54 470.189
155 0 80.1238 13.891 1113 93.3369 1102.36 469.279
156 0 80.1968 11.6713 936 98.3782 1102.47 467.634
157 0 87.0804 13.7 1193 94.3152 1101.96 469.608
158 0 88.226 12.7853 1128 98.4832 1102.18 463.191
159 0 92.1281 14.0565 1295 95.5081 1102.46 462.133
160 0 95.2264 13.2736 1264 97.1654 1102.12 462.125
161 0 96.2118 13.6782 1316 99.4081 1101.73 457.018
162 0 98.3651 13.6837 1346 97.3373 1102.87 457.261
163 1 51.3001 8.77191 450 92.3956 1102.42 481.171
164 0 53.4372 11.4901 614 90.3094 1102.62 475.327
165 0 56.0807 11.1982 628 90.3535 1102.14 482.487
166 0 56.0805 11.2695 632 116.441 1101.14 482.521
167 0 60.0433 11.4917 690 89.7058 1102 480.891
168 0 63.0853 11.9045 751 88.5646 1102.65 479.116
169 0 64.1031 12.2615 786 88.3397 1102.16 477.509
170 0 67.0795 10.3012 691 91.8321 1101.99 476.974
171 0 69.066 12.4519 860 89.9244 1102.35 474.671
172 0 72.2069 12.7412 920 88.9913 1101.51 473.302
173 0 74.1865 12.8325 952 88.4296 1102.02 473.057
174 0 75.0942 11.692 878 90.1446 1102.08 471.253
175 0 81.0975 13.8475 1123 86.0926 1101 468.425
176 0 84.0764 14.1181 1187 84.8981 1100.84 467.468
177 0 87.1934 14.0951 1229 84.6729 1101.73 466.527
178 0 91.0812 14.9208 1359 81.8676 1101.4 467.765
179 0 91.1673 11.9231 1087 88.1306 1101.3 466.018
180 0 94.0972 12.2639 1154 93.8882 1100.81 461.815
181 1 51.4068 12.3525 635 85.0173 1101.58 487.003
182 0 51.0891 12.0182 614 85.9495 1101.39 485.858
183 0 47.1125 11.7591 554 83.5505 1102.02 486.917
184 0 48.1313 10.4921 505 85.6495 1102.16 487.467
185 0 53.14 12.7587 678 81.4734 1102.47 487.093
186 0 53.065 11.4953 610 84.5852 1101.82 485.431
187 0 54.0713 12.8349 694 82.8314 1102.28 486.144
188 0 57.0982 12.4172 709 85.5275 1101.57 482.996
189 0 59.0871 13.5224 799 83.9362 1101.39 482.416
190 0 60.0742 11.569 695 86.9727 1100.88 482.114
191 0 62.091 11.6603 724 88.6326 1101.15 480.645
192 0 63.0594 12.401 782 89.3146 1101.86 478.816
193 0 66.0863 12.2416 809 90.8146 1101.01 477.388
194 0 70.1687 13.0828 918 89.4619 1101.11 475.127
195 0 74.2068 13.7993 1024 88.7598 1100.9 474.917
196 0 75.1767 12.6103 948 92.5222 1101.39 472.966
197 0 78.0955 12.1646 950 97.9526 1103.05 471.728
198 0 82.267 11.9367 982 98.499 1103.51 468.691
199 0 85.1387 12.3093 1048 99.0935 1102.83 468.607
200 0 86.4051 12.1984 1054 99.8027 1102.82 469.56
201 0 91.2068 12.6197 1151 99.9757 1103.02 465.612
202 1 44.1351 10.2866 454 98.826 1103.04 488.621
203 0 46.1264 10.688 493 97.2475 1101.86 487.7
204 0 46.1264 10.6663 492 125.76 1101.85 487.711
205 0 47.1499 11.2407 530 92.7792 1102.79 487.689
206 0 47.1668 11.1731 527 124.121 1101.8 487.698
207 0 52.278 12.2996 643 90.325 1102.47 487.745
208 0 52.0995 11.0366 575 93.1791 1102.79 487.235
209 0 54.063 10.9872 594 93.5219 1102.62 484.751
210 0 57.1597 13.6635 781 88.5967 1102.49 484.311
211 0 58.2346 13.0163 758 89.942 1102.83 482.491
212 0 61.1729 13.6662 836 88.549 1103.17 482.876
213 0 60.207 12.4736 751 99.0985 1102.21 479.394
214 0 64.1085 13.5551 869 95.2865 1100.45 480.782
215 0 64.1085 13.5239 867 138.25 1100.45 480.74
216 0 69.0728 13.5654 937 95.8506 1100.55 478.186
217 0 71.0951 14.1782 1008 95.251 1101.23 475.535
218 0 71.0951 14.1219 1004 139.078 1101.22 475.651
219 0 76.5572 12.4743 955 98.7937 1102.75 475.358
220 0 78.4054 14.0552 1102 97.3176 1102.96 471.473
221 0 80.2169 12.6407 1014 100.281 1102.08 472.106
222 0 80.2169 12.6532 1015 145.906 1101.07 472.152
223 0 80.2127 12.6414 1014 145.376 1100.09 472.21
224 0 80.2211 12.6401 1014 145.005 1099.09 472.21
225 0 80.2211 12.6401 1014 144.821 1098.09 472.21
226 1 49.1919 12.3598 608 90.148 1103.7 488.584
227 0 48.2225 10.97 529 93.5482 1103.24 489.361
228 0 47.1084 10.9535 516 94.5271 1103.57 489.014
229 0 51.0642 11.7107 598 92.6171 1103.39 487.955
230 0 50.2066 9.06256 455 96.0418 1103.73 490.714
231 0 53.1743 11.9983 638 92.4216 1102.99 486.964
232 0 55.0749 11.1121 612 94.0507 1103.2 485.281
233 0 56.099 11.8184 663 93.9668 1102.82 484.018
234 0 59.2696 11.8104 700 94.8243 1102.8 482.75
235 0 63.1435 11.6243 734 94.2411 1103.63 482.236
236 0 62.1827 11.8361 736 96.0149 1103.82 481.774
237 0 65.1815 11.0921 723 97.1369 1103.4 482.653
238 0 67.42 12.6817 855 95.6374 1103.41 479.615
239 0 69.1711 13.7919 954 94.7757 1103.31 479.094
240 0 71.3406 12.7978 913 98.8018 1103.22 477.153
241 0 75.1529 12.7473 958 100.053 1103.17 477.143
242 0 76.1756 13.0094 991 100.282 1102.85 474.478
243 0 79.1938 13.5869 1076 100.059 1102.81 475.418
244 0 81.1495 13.2472 1075 101.619 1102.74 473.894
245 0 81.1495 13.1979 1071 148.14 1102.74 473.898
246 1 43.1121 12.6415 545 101.172 1102.93 489.868
247 0 45.0298 10.5042 473 103.211 1103.22 490.685
248 0 45.0298 10.4375 470 150.047 1104.22 490.804
249 0 49.0688 12.8391 630 97.8936 1103.26 488.184
250 0 49.0688 12.8391 630 143.16 1101.23 488.097
251 0 49.0734 12.7972 628 142.739 1099.23 488.164
252 0 49.0734 12.7972 628 142.412 1097.23 488.164
253 0 50.2578 10.4064 523 103.078 1104.02 487.218
254 0 50.2696 10.4238 524 133.015 1109.99 487.042
255 0 55.2268 11.3351 626 99.4185 1103.41 487.225
256 0 56.0763 10.4144 584 101.741 1103.87 484.932
257 0 56.1494 11.6831 656 99.8034 1103.54 483.508
258 0 60.2611 12.8607 775 97.1148 1103.22 481.359
259 0 64.2557 12.5436 806 97.1266 1103.16 482.613
260 0 65.142 13.0638 851 96.9976 1103.53 479.213
261 0 67.083 13.9529 936 96.0459 1103.27 480.073
262 0 69.1536 12.9277 894 98.981 1102.74 479.591
263 0 71.0516 13.1735 936 98.8611 1102.32 477.449
264 0 72.1768 13.3145 961 100.452 1102.28 476.324
265 0 76.0706 13.803 1050 99.2933 1101.66 475.645
266 0 76.0706 13.895 1057 145.464 1100.67 475.607
267 0 83.0828 14.3231 1190 99.7723 1102.48 471.433
268 0 86.1985 13.0977 1129 102.148 1103.04 471.885
269 0 88.1022 13.7908 1215 101.161 1102.7 470.508
270 0 90.0953 13.7965 1243 101.815 1103.42 466.873
271 0 93.1493 13.2476 1234 103.199 1102.59 465.901
272 0 93.1493 13.1831 1228 148.989 1101.56 465.911
273 0 93.1288 13.1324 1223 148.664 1100.55 465.882
274 1 53.0409 12.1416 644 102.675 1101.91 486.78
275 0 53.0409 12.217 648 139.608 1102.91 486.698
276 0 56.0667 13.3769 750 102.285 1102.85 485.292
277 0 54.0622 12.2821 664 104.828 1102.94 486.009
278 0 54.0622 12.3006 665 143.269 1101.93 486.078
279 0 54.062 12.3562 668 142.506 1100.93 486.124
280 0 59.0983 13.2153 781 103.818 1102.76 480.656
281 0 61.1626 12.4096 759 105.203 1102.96 481.709
282 0 62.1934 12.9596 806 104.464 1102.77 480.805
283 0 65.2378 13.0752 853 104.535 1102.5 476.484
284 0 66.2057 12.8539 851 105.128 1102.98 477.59
285 0 69.1373 12.7717 883 105.57 1102.92 477.225
286 0 73.1993 13.8116 1011 104.127 1102.63 474.777
287 0 75.1853 13.2207 994 106.511 1102.68 471.814
288 0 76.1061 13.4155 1021 107.154 1102.9 472.489
289 0 82.267 16.1061 1325 99.8166 1102.61 470.044
290 0 82.2294 13.2799 1092 105.886 1102.64 470.031
291 0 86.2855 13.7219 1184 105.345 1103.66 467.076
292 0 86.3114 13.6367 1177 138.821 1104.66 467.101
293 0 92.2601 13.657 1260 106.021 1103.35 465.291
294 0 96.2312 13.9248 1340 108.166 1103.29 464.307
295 1 52.0495 13.5256 704 97.4929 1102.87 487.497
296 0 53.0834 12.9231 686 99.4956 1102.09 484.845
297 0 55.0264 12.176 670 98.5821 1103.73 485.769
298 0 57.0552 14.5824 832 95.3161 1103.67 484.889
299 0 57.0181 13.3817 763 98.4744 1103.45 484.442
300 0 60.0761 12.1512 730 101.581 1102.88 483.895
301 0 60.0761 12.0847 726 146.273 1101.86 483.865
302 0 64.1564 13.5138 867 99.0842 1102.43 480.369
303 0 66.1504 12.9705 858 100.404 1102.16 481.21
304 0 69.0933 12.4904 863 100.628 1102.16 479.492
305 0 71.1404 13.3117 947 99.83 1102.68 477.929
306 0 75.0751 13.9993 1051 98.8706 1103.57 475.51
307 0 75.0794 14.0252 1053 144.096 1104.56 475.399
308 0 75.0913 14.0629 1056 143.506 1105.57 475.254
309 0 83.1239 15.0258 1249 98.245 1102.62 471.773
310 0 83.1162 14.9911 1246 140.83 1100.65 471.88
311 0 86.1572 13.7191 1182 101.395 1101.61 466.7
312 0 90.2684 13.1386 1186 101.25 1102.18 468.647
313 0 95.1341 13.3811 1273 100.203 1102.42 466.581
314 1 48.0303 12.388 595 98.2101 1102.75 485.776
315 0 52.0829 12.1921 635 98.8803 1102.03 486.408
316 0 52.0419 12.5284 652 97.4432 1101.93 487.586
317 0 52.0386 12.4523 648 137.344 1100.94 487.722
318 0 55.0829 12.7263 701 98.3067 1102.15 485.695
319 0 58.1102 14.1111 820 96.2171 1102.17 483.756
320 0 59.0381 12.4326 734 99.9932 1102.16 482.477
321 0 60.1195 12.7413 766 100.568 1102.24 481.106
322 0 60.1195 12.7579 767 143.801 1102.23 481.151
323 0 65.0634 14.0017 911 99.18 1101.76 480.689
324 0 67.1472 13.046 876 103.029 1101.41 476.87
325 0 69.0646 12.2349 845 104.907 1101.88 477.06
326 0 71.2588 12.0266 857 104.378 1102.08 477.61
327 0 75.1302 13.6962 1029 102.37 1101.73 474.743
328 0 75.1302 13.7362 1032 144.952 1101.73 474.761
329 0 80.1699 12.6357 1013 103.861 1102.16 473.249
330 0 84.0734 13.6904 1151 102.705 1102.39 470.403
331 0 86.0654 13.6292 1173 102.765 1102.35 468.747
332 0 87.1423 12.9329 1127 104.76 1102.72 466.679
333 0 92.1807 12.9528 1194 104.812 1102.71 467.028
334 0 95.2505 13.3333 1270 101.614 1103.1 466.817
335 1 51.092 11.3716 581 99.8176 1102.97 487.499
336 0 53.088 13.2798 705 96.9702 1103.02 485.028
337 0 53.0344 11.8037 626 98.7588 1103.54 486.441
338 0 55.0714 13.5279 745 96.3919 1103.74 483.835
339 0 56.0477 12.5429 703 98.0669 1103.26 482.957
340 0 58.0619 11.5911 673 99.997 1102.81 482.288
341 0 61.0486 11.6137 709 100.25 1102.89 481.357
342 0 63.0861 12.0946 763 100.459 1102.72 481.528
343 0 66.0302 13.1909 871 98.4627 1103.53 479.033
344 0 68.1491 12.3699 843 100.361 1103.5 478.652
345 0 69.1553 12.4358 860 100.953 1103.46 478.344
346 0 71.0481 13.0194 925 98.6886 1103.41 477.884
347 0 73.1507 12.7682 934 101.16 1102.81 475.786
348 0 76.1248 13.0444 993 101.011 1102.8 473.817
349 0 80.1129 11.9956 961 103.442 1103.35 473.062
350 0 83.2045 13.9055 1157 99.5022 1103.3 470.549
351 0 86.1544 13.4062 1155 99.7429 1104.11 469.163
352 0 90.1823 11.9757 1080 103.14 1104.05 469.492
353 0 93.1474 12.8506 1197 105.746 1104.04 466.128
354 1 49.0702 11.0658 543 100.75 1104.25 489.772
355 0 51.0886 13.7604 703 95.5761 1103.88 486.178
356 0 48.1884 10.957 528 95.9564 1102.03 491.646
357 0 50.0625 10.7665 539 97.5084 1102.06 489.224
358 0 51.0853 12.2149 624 95.5673 1101.73 486.309
359 0 53.2578 13.3502 711 92.834 1102.4 486.091
360 0 54.161 11.7981 639 95.2895 1102.08 484.756
361 0 56.0819 12.7135 713 93.2314 1102.74 484.332
362 0 58.0476 12.2658 712 92.4129 1103.29 484.802
363 0 60.0925 11.9316 717 92.1548 1103.63 483.43
364 0 62.0675 12.2447 760 92.9895 1102.79 481.296
365 0 63.1635 12.2697 775 93.551 1103.06 479.07
366 0 65.1103 13.6384 888 92.08 1103.05 478.475
367 0 68.2321 12.9265 882 92.0782 1103.23 479.263
368 0 67.0769 11.867 796 97.6307 1102.59 479.29
369 0 71.1105 13.247 942 94.5382 1102.73 476.608
370 0 74.1116 13.7495 1019 94.0932 1102.73 475.01
371 0 78.0989 14.0719 1099 92.5478 1102.47 474.834
372 0 78.1557 13.0381 1019 95.5525 1102.61 472.17
373 0 80.1455 13.6502 1094 93.819 1103.16 470.586
374 0 84.1455 12.2407 1030 95.3864 1102.97 469.794
375 0 88.2397 14.0186 1237 92.8294 1102.79 466.656
376 0 90.3359 13.3391 1205 96.9826 1103.13 464.597
377 0 92.1002 12.4864 1150 98.7478 1102.17 465.328
378 1 48.0811 9.71275 467 90.9657 1102.38 485.537
379 0 51.0406 12.4803 637 92.5997 1102.7 487.678
380 0 50.2183 11.9478 600 90.5283 1102.83 489.363
381 0 52.1811 11.8625 619 89.9063 1102.12 488.242
382 0 51.1589 11.1222 569 92.8418 1102.14 486.402
383 0 55.224 11.6978 646 91.565 1102.65 485.139
384 0 57.2113 11.7984 675 91.48 1102.73 484.711
385 0 57.1976 11.2243 642 92.8069 1102.17 484.045
386 0 61.1397 11.4165 698 92.4699 1102.7 481.12
387 0 64.101 13.7127 879 88.9841 1102.2 481.086
388 0 65.1601 12.6611 825 92.1042 1102.94 479.463
389 0 67.1198 12.8278 861 91.9733 1102.47 475.516
390 0 70.1424 13.886 974 90.8316 1102.81 476.971
391 0 73.2143 13.2078 967 92.2296 1102.65 475.148
392 0 76.1881 13.9129 1060 91.0689 1102.62 474.849
393 0 79.2279 13.518 1071 91.5808 1102.75 474.258
394 0 82.4011 13.143 1083 91.8984 1102.41 473.841
395 0 82.2395 12.9257 1063 93.8589 1102.83 469.919
396 0 84.2173 12.3371 1039 95.0241 1102.72 470.009
397 0 88.2586 13.5624 1197 92.452 1102.66 469.6
398 0 89.3489 12.1434 1085 95.6276 1102.35 466.632
399 0 93.3284 11.3042 1055 95.9289 1102.85 467.126
400 0 95.2499 12.231 1165 94.5356 1103.26 459.745
401 1 48.3464 11.7486 568 86.118 1103.53 477.831
402 0 52.2612 12.8011 669 89.8879 1102.77 485.097
403 0 52.1075 11.4955 599 89.9149 1103.99 486.816
404 0 53.1016 11.6004 616 89.2305 1104.82 484.157
405 0 57.0765 12.2117 697 86.7461 1104.15 486.448
406 0 59.0765 12.1199 716 87.0936 1104.02 485.45
407 0 58.1246 12.0259 699 88.5064 1104.37 482.555
408 0 61.1242 13.4153 820 85.6805 1104.53 482.854
409 0 61.1242 13.4807 824 117.38 1104.54 482.661
410 0 62.1223 10.1735 632 91.5981 1103.91 478.127
411 0 66.2674 10.0653 667 91.3703 1104.05 478.919
412 0 69.0985 11.8816 821 89.1133 1103.97 476.592
413 0 69.1497 10.9906 760 90.979 1104.13 475.674
414 0 72.1667 13.1224 947 89.1394 1103.3 471.12
415 0 75.0741 12.2546 920 89.7913 1103.63 473.246
416 0 80.0989 12.3472 989 90.27 1103.25 470.125
417 0 83.183 12.1299 1009 90.2557 1103.03 469.058
418 0 86.2844 13.1426 1134 88.8201 1102.92 468.355
419 0 89.2591 12.6262 1127 90.5998 1103.15 465.532
420 1 45.0294 9.88244 445 90.6674 1102.65 488.751
421 0 49.0781 12.4903 613 87.279 1102.57 485.285
422 0 48.0764 10.8993 524 86.9618 1102.96 490.725
423 0 51.1243 11.9904 613 85.478 1102.9 487.832
424 0 50.0237 12.1942 610 86.882 1102.57 487.81
425 0 53.0841 11.7549 624 87.492 1102.78 486.599
426 0 56.106 13.5458 760 84.9842 1102.73 486.205
427 0 58.0797 12.3795 719 86.9847 1103.13 486.505
428 0 59.0391 11.8735 701 89.3167 1102.84 484.076
429 0 58.0366 12.0269 698 122.06 1101.85 484.198
430 0 65.1165 12.5007 814 89.8772 1103.41 482.227
431 0 66.0986 11.4829 759 93.0883 1103.36 480.95
432 0 68.0543 13.3423 908 91.0694 1103.85 478.411
433 0 70.1688 13.0542 916 92.2194 1103.17 479.334
434 0 72.0937 12.4283 896 94.1116 1102.89 479.568
435 0 76.2809 13.7387 1048 91.3798 1103.8 476.061
436 0 79.1024 13.8175 1093 91.7887 1104.4 475.424
437 0 81.1221 13.7201 1113 91.8877 1103.08 473.674
438 0 83.0879 13.2751 1103 92.952 1103.58 472.625
439 0 88.1285 13.4009 1181 93.6384 1103.84 470.177
440 1 44.0514 10.4651 461 97.5358 1103.43 492.861
441 0 47.0739 12.3635 582 96.8849 1102.74 492.275
442 0 48.2306 12.15 586 97.7611 1102.53 489.869
443 0 51.035 13.814 705 95.6411 1104.34 489.45
444 0 49.075 11.35 557 94.9372 1102.71 490.907
445 0 51.0395 12.4805 637 92.2104 1103.3 490.405
446 0 52.102 11.3431 591 94.3993 1104.07 489.188
447 0 52.136 12.3139 642 95.2819 1103.05 488.134
448 0 55.17 11.3105 624 96.8013 1102.96 488.505
449 0 56.0363 12.6168 707 95.611 1103.26 487.219
450 0 58.0644 11.5561 671 96.8078 1103.34 485.958
451 0 61.1422 13.3459 816 93.0245 1103.3 485.891
452 0 63.0733 12.2714 774 94.0103 1104.64 484.643
453 0 64.1689 12.919 829 94.076 1103.95 483.291
454 0 67.238 12.6417 850 95.2706 1104.05 483.02
455 0 70.1046 13.6796 959 94.3942 1104.34 479.038
456 0 72.245 12.6375 913 96.425 1104.63 480.77
457 0 75.1723 12.0922 909 98.2002 1104.75 479.198
458 0 78.1942 13.8118 1080 96.3454 1104.07 476.834
459 0 80.1211 13.2924 1065 101.713 1103.4 475.483
460 0 82.1945 11.7891 969 105.709 1102.98 474.248
461 1 44.2658 10.6177 470 96.8298 1103.56 489.392
462 0 46.0884 11.8902 548 99.1204 1103.78 492.155
463 0 44.1277 11.1268 491 97.3014 1104.13 493.332
464 0 46.0603 11.6586 537 96.3743 1104.06 492.229
465 0 48.0459 12.3007 591 95.2301 1104.76 491.313
466 0 49.0963 12.8116 629 94.965 1104.26 490.005
467 0 51.1524 12.1402 621 95.8824 1104.28 489.451
468 0 51.1048 11.6819 597 97.9045 1104.05 488.558
469 0 54.1437 11.8943 644 98.0699 1104.55 486.719
470 0 57.0708 12.5809 718 96.2674 1104.15 487.142
471 0 57.0535 11.0072 628 98.8041 1103.81 488.696
472 0 60.144 12.7361 766 97.5091 1103.25 485.141
473 0 61.1461 12.5928 770 98.3974 1103.75 482.774
474 0 64.0733 12.3921 794 97.1259 1103.35 482.816
475 0 64.0736 11.9862 768 99.3685 1103.28 482.534
476 0 68.075 12.9269 880 98.2011 1104.39 480.02
477 0 71.1734 12.9121 919 97.5909 1104.67 480.604
478 0 73.0442 13.0332 952 97.9874 1104.49 478.72
479 0 74.1199 11.6973 867 101.088 1103.65 477.18
480 0 78.121 12.1734 951 98.9674 1103.87 476.676
481 0 81.1146 12.1556 986 98.3732 1104.57 475.956
482 0 83.1589 12.0973 1006 98.837 1103.62 474.868
483 0 87.1445 13.2079 1151 97.4909 1103.34 470.134
484 1 43.0548 10.8467 467 98.9315 1104.08 491.604
485 0 46.076 11.5678 533 96.3696 1104.17 492.276
486 0 48.0183 11.7039 562 94.9182 1104.31 491.306
487 0 49.0436 10.6844 524 99.1966 1104.25 491.63
488 0 48.0312 11.4092 548 98.7737 1104.55 490.788
489 0 52.0498 12.6994 661 96.4962 1103.89 488.968
490 0 52.0945 11.6711 608 98.329 1104.4 489.059
491 0 53.1055 12.5411 666 96.97 1104.5 488.389
492 0 55.1067 11.505 634 97.5095 1104.3 488.94
493 0 57.097 12.6276 721 96.939 1103.31 485.714
494 0 59.147 12.2238 723 96.4426 1104.14 486.819
495 0 60.0954 13.4286 807 95.9318 1103.72 484.327
496 0 63.0866 12.4908 788 98.2119 1103.74 482.953
497 0 64.1775 12.3563 793 96.7112 1103.67 483.076
498 0 68.1003 12.3201 839 95.7318 1103.63 482.064
499 0 70.218 12.5751 883 94.8845 1103.24 481.187
500 0 73.1126 13.2946 972 96.3374 1103.49 478.95
501 0 74.1461 12.6777 940 99.084 1103.29 476.82
502 0 76.0969 10.6837 813 103.461 1103.41 476.574
503 0 79.3792 12.3332 979 107.629 1103.61 472.831
504 0 85.2013 12.1477 1035 107.405 1103.53 474.218
505 0 88.2168 13.2061 1165 107.094 1103.71 471.684
506 0 91.1176 11.6223 1059 109.647 1102.13 471.911
507 0 92.4193 12.8761 1190 108.652 1103.41 467.695
508 1 48.1092 12.1183 583 103.986 1103.54 489.213
509 0 49.0252 10.8516 532 104.508 1104.71 492.797
510 0 50.0424 11.8699 594 104.21 1104.43 490.256
511 0 53.09 11.829 628 104.261 1104.02 488.889
512 0 52.0638 11.8892 619 106.21 1103.49 488.084
513 0 56.049 13.1849 739 110.666 1103.49 485.85
514 0 57.0683 12.1083 691 105.606 1104.02 486.467
515 0 57.0199 12.0484 687 107.275 1103.53 485.524
516 0 58.0385 11.6647 677 107.752 1103.27 484.736
517 0 62.1812 13.2998 827 104.125 1103.81 483.033
518 0 65.0972 12.3815 806 104.896 1103.72 483.507
519 0 66.0816 12.878 851 104.418 1103.35 481.435
520 0 68.2425 13.8184 943 102.684 1102.9 479.004
521 0 69.1178 12.6595 875 104.689 1104.29 479.27
522 0 71.0847 12.1686 865 105.955 1103.44 478.594
523 0 78.212 14.7931 1157 100.234 1103.48 475.682
524 0 78.1707 12.7925 1000 104.162 1103.82 478.432
525 0 81.2425 12.9612 1053 103.146 1104.24 477.383
526 0 82.1113 13.5304 1111 104.327 1104.56 473.692
527 0 87.2852 13.6106 1188 103.243 1103.8 472.878
528 0 89.0717 14.1684 1262 103.191 1103.4 470.483
529 0 92.1198 14.2532 1313 102.751 1103.33 469.018
530 0 95.1701 14.4268 1373 101.198 1103.9 468.033
531 0 100.141 14.0701 1409 108.845 1102.9 464.571
532 0 102.292 13.8427 1416 109.905 1103 464.791
533 0 106.316 14.9177 1586 107.953 1102.66 461.485
534 0 109.179 13.9221 1520 111.849 1102.52 458.931
535 0 112.256 13.3623 1500 113.121 1102.11 458.745
536 0 117.256 14.5664 1708 110.457 1102.7 455.902
537 0 121.177 14.8791 1803 109.686 1103.12 455.676
538 0 124.15 13.4676 1672 112.462 1102.11 453.276
539 0 129.156 14.9742 1934 110.042 1102.36 449.162
540 0 133.173 13.5838 1809 113.456 1102.13 448.102
541 0 136.231 14.5782 1986 112.026 1102.68 443.512
542 0 140.193 13.5955 1906 113.963 1101.88 442.366
543 0 147.106 14.0851 2072 111.898 1101.99 439.375
544 0 153.35 14.581 2236 111.195 1101.6 435.341
545 0 158.323 14.0662 2227 111.621 1101.99 431.537
546 0 165.383 13.895 2298 113.364 1102.19 429.201
547 1 90.194 13.0607 1178 105.754 1102.02 465.847
548 0 93.1862 11.5897 1080 107.708 1102.6 467.683
549 0 97.0904 12.648 1228 108.278 1103.06 466.757
550 0 101.143 14.4054 1457 103.411 1103.47 463.699
551 0 106.108 13.1941 1400 104.759 1103.8 463.954
552 0 107.418 12.2419 1315 107.579 1103.78 460.551
553 0 112.211 13.5013 1515 105.45 1104.1 457.967
554 0 116.377 13.4477 1565 105.504 1103.67 452.858
555 0 121.198 12.5992 1527 106.566 1103.94 453.78
556 0 125.273 13.2511 1660 106.364 1104.04 449.87
557 1 67.0543 11.9306 800 104.741 1103.63 480.715
558 0 70.0742 12.4868 875 103.312 1104.24 477.666
559 0 70.1261 11.9214 836 101.298 1104.2 479.295
560 0 74.0589 12.085 895 102.061 1103.04 477.092
561 0 78.0577 13.3619 1043 98.5522 1103.34 477.421
562 0 78.0803 12.167 950 101.278 1104.04 475.013
563 0 81.1003 12.503 1014 100.058 1103.54 475.293
564 0 86.0754 14.4292 1242 96.6659 1103.86 472.867
565 0 88.0696 12.7059 1119 101.274 1103.88 468.522
566 0 90.1291 12.937 1166 101.527 1103.72 469.244
567 0 94.089 14.2843 1344 100.312 1104.05 465.613
568 0 98.1412 13.0934 1285 104.7 1104.67 463.724
569 0 101.203 12.6775 1283 104.756 1104.35 463.476
570 0 105.11 12.9483 1361 104.206 1104.19 460.223
571 1 55.0302 12.684 698 94.5086 1104.92 486.069
572 0 56.0391 11.9381 669 91.562 1103.89 485.942
573 0 56.0821 11.8754 666 93.9294 1102.94 484.162
574 0 57.0573 11.0766 632 95.3877 1102.71 486.084
575 0 58.2287 11.7124 682 94.2977 1102.82 487.694
576 0 61.1114 13.189 806 92.6303 1102.69 483.99
577 0 60.1049 9.23385 555 99.5928 1102.8 486.566
578 0 64.0854 12.3429 791 96.0708 1103.37 482.498
579 0 66.0748 13.3636 883 94.9819 1103.17 481.643
580 0 66.0962 12.2246 808 98.4245 1103.35 481.573
581 0 68.102 11.8499 807 101.563 1102.93 479.766
582 0 73.0655 13.6316 996 98.1265 1102.87 478.514
583 0 73.1646 11.973 876 102.977 1102.98 475.727
584 0 77.1998 12.798 988 102.003 1102.87 476.086
585 0 78.3991 13.1379 1030 104.154 1102.59 473.933
586 0 81.2024 13.1031 1064 104.381 1102.75 473.086
587 0 86.1952 14.3743 1239 102.977 1103.25 471.42
588 0 87.3737 15.325 1339 102.367 1103.5 469.151
589 0 89.4538 13.806 1235 107.216 1103.3 469.673
590 0 92.4224 15.5049 1433 105.214 1103.32 465.941
591 0 96.3609 14.2174 1370 107.552 1103.14 465.985
592 0 98.5091 14.3642 1415 107.764 1102.94 463.909
593 0 98.5725 12.8535 1267 112.371 1102.49 460.159
594 0 102.173 13.5652 1386 110.316 1103.05 454.266
595 0 107.202 14.3561 1539 108.286 1103.41 455.153
596 1 57.2037 12.0971 692 102.387 1103.71 479.731
597 0 60.1163 13.7567 827 104.769 1103.82 485.934
598 0 60.0772 13.2829 798 106.921 1104.04 485.318
599 0 61.0373 12.9593 791 108.091 1103.96 484.588
600 0 64.1437 13.1268 842 107.606 1103.46 484.045
601 0 66.2012 14.0632 931 105.922 1103.28 483.806
602 0 68.2359 12.2223 834 108.776 1103.59 483.729
603 0 73.2531 13.897 1018 104.517 1104.23 480.963
604 0 75.2827 14.6116 1100 103.675 1103.93 479.05
605 0 77.4427 13.3518 1034 104.972 1103.87 479.016
606 0 79.1699 13.4521 1065 105.953 1103.45 475.887
607 0 83.2436 12.4814 1039 106.876 1104.07 475.475
608 1 42.1199 11.4673 483 103.077 1104.05 493.899
609 0 45.0642 12.693 572 101.357 1104.39 493.806
610 0 45.0142 11.7074 527 101.52 1103.7 493.954
611 0 46.0516 12.8552 592 99.8041 1102.96 493.049
612 0 48.0673 11.2967 543 102.33 1102.96 491.941
613 0 50.0205 13.5744 679 98.1031 1103.25 491.822
614 0 50.0689 12.7025 636 101.047 1104.02 491.646
615 0 51.0877 10.7854 551 104.813 1102.73 490.657
616 0 55.0494 13.5696 747 98.7898 1102.83 490.189
617 0 54.0692 12.6875 686 101.86 1103.64 488.245
618 0 57.1907 12.7993 732 102.426 1102.64 487.213
619 0 60.0293 12.6272 758 101.323 1103.34 487.793
620 0 60.0311 12.6934 762 102.656 1103.24 486.97
621 0 64.0728 14.3118 917 101.704 1103.17 484.155
622 0 64.1098 12.8061 821 106.767 1103.11 483.665
623 0 66.1634 13.9957 926 106.001 1103.14 481.592
624 0 70.1066 13.237 928 107.986 1102.5 480.982
625 0 71.0637 14.2126 1010 108.78 1102.32 478.517
626 0 77.1217 14.4577 1115 114.098 1102.17 478.618
627 0 79.1201 14.5601 1152 116.571 1102.16 475.83
628 0 82.2062 14.6339 1203 118.047 1101.93 475.877
629 0 85.1267 14.6018 1243 118.269 1102.08 475.891
630 0 88.223 14.9168 1316 119.009 1101.98 472.025
631 0 91.1494 14.734 1343 120.491 1102.39 471.877
632 1 47.16 13.0407 615 119.67 1102.89 492.659
633 0 49.0479 14.4145 707 120.563 1103.34 490.918
634 0 50.0335 12.7715 639 128.047 1102.68 492.336
635 0 51.0654 14.3933 735 129.18 1102.79 490.82
636 0 52.053 14.3508 747 121.958 1102.18 489.53
637 0 53.0408 13.122 696 125.455 1102.98 490.203
638 0 55.0231 14.3576 790 123.208 1102.49 489.342
639 0 60.0858 14.4294 867 121.441 1102.64 486.762
640 0 61.14 14.3605 878 127.122 1102.51 486.134
641 0 64.2746 14.4692 930 125.003 1102.84 484.873
642 0 66.1988 14.8794 985 123.316 1103.82 484.832
643 0 68.088 15.3037 1042 123.212 1102.9 481.781
644 0 70.1696 15.1348 1062 124.586 1102.37 481.942
645 0 72.0854 14.3441 1034 128.09 1102.41 480.321
646 0 74.0594 13.6782 1013 129.447 1102.41 480.232
647 0 77.0959 13.7491 1060 127.581 1102.87 479.563
648 0 79.153 14.5415 1151 125.373 1102.75 477.578
649 0 82.2014 14.0144 1152 126.776 1102.99 476.708
650 0 83.2297 14.0575 1170 128.009 1103.33 474.442
651 0 88.2394 16.5459 1460 120.325 1103.14 472.695
652 0 92.204 14.7933 1364 124.794 1103.36 470.736
653 0 92.1632 14.2465 1313 127.922 1102.55 466.974
654 0 96.1815 15.0757 1450 124.026 1102.56 466.254
655 0 100.193 15.9891 1602 121.939 1102.52 466.645
656 0 102.162 14.4281 1474 125.697 1102.85 463.591
657 0 109.118 14.3972 1571 124.39 1103.49 462.654
658 1 58.1152 14.1271 821 118.149 1102.79 487.982
659 0 62.1324 14.2921 888 118.224 1102.43 485.19
660 0 63.1857 13.8481 875 120.16 1103.05 485.465
661 0 65.0338 14.1157 918 119.432 1103.03 483.176
662 0 69.0563 14.3361 990 117.744 1103.17 481.803
663 0 71.1243 13.0335 927 118.472 1103.46 482.654
664 0 73.0674 13.3302 974 117.89 1103.25 479.359
665 0 75.0904 13.4904 1013 115.003 1103.37 479.946
666 0 80.0563 13.4405 1076 113.559 1103.47 477.051
667 0 80.1365 13.3522 1070 115.208 1103.67 473.442
668 0 85.0444 14.2749 1214 111.062 1102.92 474.562
669 0 87.0353 13.7301 1195 111.388 1102.83 473.038
670 0 89.2286 13.6391 1217 112.127 1102.87 471.409
671 0 91.104 13.3803 1219 112.527 1102.97 469.167
672 0 95.1842 13.5001 1285 111.227 1102.18 468.398
673 0 98.2962 13.439 1321 112.501 1101.74 465.232
674 0 100.113 12.9154 1293 113.138 1102.44 463.889
675 0 105.339 13.6512 1438 110.506 1101.98 462.017
676 0 109.225 13.6507 1491 105.013 1102.81 458.262
677 0 113.215 13.4965 1528 104.903 1103.03 460.474
678 1 64.1517 12.3769 794 102.057 1102.94 483.476
679 0 68.2858 13.0188 889 107.955 1101.8 481.714
680 0 70.213 12.3624 868 108.796 1102.25 479.291
681 0 72.233 12.9719 937 108.222 1103.29 478.632
682 0 75.2222 12.2304 920 110.472 1103.14 477.639
683 0 77.2593 13.0987 1012 109.015 1102.53 475.736
684 0 81.1952 13.3136 1081 107.292 1102.64 477.154
685 0 84.1738 13.9236 1172 106.885 1103.47 473.212
686 0 88.2085 14.6925 1296 104.507 1103.73 473.057
687 0 91.2696 13.7614 1256 107.265 1103.48 469.894
688 0 94.1691 13.5819 1279 106.256 1103.13 468.624
689 0 98.1817 14.0861 1383 103.43 1103.17 469.156
690 1 49.0506 12.2526 601 101.537 1104.16 490.185
691 0 50.0643 10.7861 540 106.38 1103.7 491.98
692 0 51.0306 13.247 676 100.29 1103 488.908
693 0 54.0777 12.1122 655 100.715 1102.56 489.815
694 0 56.0597 13.8245 775 98.751 1102.31 486.498
695 0 56.0677 12.6098 707 100.924 1102.6 487.034
696 0 62.1237 12.5234 778 107.657 1103.13 485.753
697 0 63.0389 13.3727 843 106.217 1103.53 484.452
698 0 63.0695 13.3662 843 107.026 1102.8 482.594
699 0 66.0762 13.3936 885 106.647 1103.4 480.338
700 0 67.0619 13.3011 892 107.076 1103.11 480.284
701 0 70.1296 13.0615 916 107.469 1102.53 479.223
702 0 73.1469 13.7395 1005 105.875 1102.69 479.767
703 0 74.1747 14.1962 1053 105.799 1102.93 478.254
704 0 76.1979 14.0555 1071 106.754 1102.97 475.089
705 0 78.0807 13.0378 1018 109.471 1102.84 472.83
706 0 81.0434 12.1787 987 110.461 1102.83 472.425
707 0 83.1336 13.7129 1140 107.743 1102.78 471.013
708 0 84.1793 12.901 1086 110.086 1102.6 471.965
709 0 89.1012 14.5116 1293 106.614 1102.6 468.531
710 0 92.1002 14.0173 1291 107.06 1102.77 468.22
711 0 94.1243 13.8859 1307 107.607 1103.02 466.892
712 0 96.2513 12.9245 1244 109.434 1102.34 466.762
713 0 98.1701 13.2932 1305 109.995 1102.14 463.646
714 0 103.451 13.8132 1429 108.378 1102.17 461.499
715 0 105.496 13.3654 1410 108.904 1102.35 458.639
716 0 111.28 14.1175 1571 104.689 1102.5 459.199
717 1 59.149 11.9529 707 100.158 1103.5 486.126
718 0 61.117 12.4024 758 100.193 1103.31 483.817
719 0 61.0955 11.9321 729 104.357 1102.87 480.107
720 0 65.0915 11.768 766 100.556 1101.74 482.067
721 0 66.0898 10.8791 719 96.7413 1102.68 482.268
722 0 69.0504 12.7878 883 94.3975 1102.94 479.267
723 0 73.1468 13.9582 1021 90.859 1103.01 478.466
724 0 75.2009 12.952 974 94.0934 1102.47 477.118
725 0 77.2096 12.084 933 95.6913 1102.76 477.456
726 0 80.162 13.2606 1063 94.8928 1102.75 472.931
727 0 85.1325 12.921 1100 101.667 1103.23 474.025
728 0 86.2258 13.1631 1135 102.156 1103.79 472.84
729 0 89.16 13.8403 1234 102.3 1103.02 469.901
730 0 93.1974 13.6163 1269 101.589 1103.1 469.336
731 0 94.3317 12.244 1155 106.18 1102.54 465.562
732 0 99.13 12.418 1231 104.279 1101.91 465.114
733 0 102.202 12.9449 1323 101.819 1102.16 466.072
734 0 105.261 12.3692 1302 103.665 1101.61 461.997
735 0 112.23 14.2476 1599 100.433 1101.98 459.843
736 1 57.1618 10.7064 612 95.2092 1102.79 490.745
737 0 57.2799 13.4079 768 93.6589 1102.81 486.914
738 0 59.0743 11.5956 685 95.8234 1102.26 486.781
739 0 63.2082 13.1629 832 101.066 1102.83 483.537
740 0 65.2917 12.9879 848 101.152 1102.26 483.409
741 0 66.1026 11.9511 790 105.091 1101.79 478.813
742 0 69.2045 11.7333 812 103.677 1102.41 481.259
743 0 73.1476 12.8371 939 101.078 1102.48 480.689
744 0 74.2526 12.1477 902 101.432 1102.11 481.149
745 0 73.1104 10.5594 772 105.424 1102.77 477.821
746 0 79.1844 13.096 1037 99.8708 1102.51 474.59
747 0 83.2875 12.5349 1044 99.0699 1102.24 474.957
748 0 85.2697 12.0441 1027 99.9163 1103.26 473.682
749 0 86.3559 11.8 1019 99.6879 1103.28 473.123
750 0 89.2843 12.4434 1111 100.283 1102.93 468.94
751 0 91.3619 12.3027 1124 99.524 1103.56 469.566
752 0 93.41 10.6413 994 103.923 1103.05 463.158
753 0 98.4363 11.8554 1167 101.437 1102.99 462.872
754 1 50.281 8.81049 443 98.4989 1103.55 490.623
755 0 50.281 8.73094 439 135.257 1103.53 490.713
756 0 55.2922 14.2516 788 93.0558 1102.47 485.234
757 0 56.0933 11.2135 629 95.3037 1103.54 489.528
758 0 59.1166 12.5346 741 91.2996 1103.37 487.992
759 0 60.1433 12.57 756 92.3267 1103.19 484.165
760 0 62.0806 12.5643 780 92.0872 1103.13 485.687
761 0 63.0613 12.0993 763 92.8991 1103.45 484.228
762 0 66.0852 11.576 765 92.8458 1103.24 484.303
763 0 70.1462 13.7997 968 98.1653 1102.46 478.978
764 0 71.1986 12.8654 916 100.118 1102.78 481.731
765 0 73.1557 12.3299 902 101.147 1102.79 480.93
766 0 76.2511 13.1146 1000 100.288 1103.11 479.275
767 0 77.1792 13.3326 1029 100.615 1103.09 476.37
768 0 79.2566 11.7593 932 104.072 1103.61 476.314
769 0 81.1998 12.8202 1041 103.862 1103.36 474.885
770 0 85.3668 12.1827 1040 104.237 1102.98 473.22
771 0 88.2897 14.0333 1239 99.3285 1103.02 469.06
772 0 93.3531 13.8292 1291 98.5794 1102.33 470.266
773 1 46.0495 11.0968 511 99.0822 1102.59 494.432
774 0 47.0459 11.5419 543 105.341 1103.95 491.993
775 0 48.0579 11.3197 544 100.419 1103.22 492.921
776 0 50.102 13.4925 676 93.6642 1102.38 492.854
777 0 49.1569 12.2669 603 98.1774 1102.44 493.255
778 0 50.0369 11.2317 562 102.096 1103.05 491.891
779 0 51.1882 10.5102 538 101.822 1103 494.533
780 0 52.1389 12.4667 650 100.351 1102.86 491.2
781 0 56.0657 12.7529 715 99.642 1102.84 489.359
782 0 56.0885 13.3717 750 98.4267 1103.17 488.936
783 0 59.1818 13.4839 798 97.1867 1102.95 488.893
784 0 60.134 12.1728 732 97.8784 1102.26 489.566
785 0 61.1087 12.6496 773 97.8616 1101.81 485.547
786 0 64.0586 11.6768 748 97.9211 1102.34 486.302
787 0 66.0792 12.9693 857 97.0548 1102.67 484.229
788 0 68.1328 12.7839 871 97.0322 1102.1 485.233
789 0 71.1645 12.6187 898 98.3931 1101.57 482.448
790 0 74.1169 13.1279 973 96.7996 1102.48 480.953
791 0 75.2973 12.1784 917 98.6848 1101.98 480.875
792 0 78.3817 12.3115 965 98.7347 1102.31 480.342
793 0 81.0782 11.7047 949 100.84 1102.11 478.001
794 0 85.163 13.0456 1111 99.3321 1102.09 475.653
795 0 89.1109 12.4452 1109 102.229 1101.97 474.995
796 1 46.0551 12.1376 559 102.064 1102.31 494.519
797 0 47.0873 13.0609 615 100.19 1102.31 491.67
798 0 49.0903 12.8946 633 99.8594 1102.17 492.109
799 0 49.0417 13.2336 649 100.211 1101.64 492.556
800 0 50.1064 13.5711 680 100.482 1101.28 492.331
801 0 52.0909 12.5934 656 104.02 1101.34 491.483
802 0 52.0266 13.4354 699 102.388 1101.58 491.439
803 0 54.0613 12.6523 684 104.512 1101.73 490.503
804 0 56.0966 14.6889 824 100.461 1101 489.04
805 0 57.085 13.7865 787 102.295 1101.64 487.851
806 0 60.116 13.6237 819 103.034 1101.69 489.165
807 0 61.0468 14.022 856 104.77 1101.46 485.789
808 0 63.071 13.9525 880 104.186 1102.09 486.222
809 0 64.1469 13.7341 881 105.461 1101.81 486.444
810 0 67.0748 14.8938 999 104.602 1101.78 484.378
811 0 69.1577 13.9825 967 107.415 1101.62 483.644
812 0 70.0859 13.4121 940 109.959 1102.02 483.266
813 0 72.0517 13.2682 956 111.388 1101.58 482.779
814 0 74.0792 13.1481 974 113.912 1101.3 481.501
815 0 77.0874 13.7896 1063 112.294 1101.38 479.955
816 0 81.1159 15.7429 1277 109.495 1101.27 476.777
817 0 84.0999 14.3876 1210 112.867 1102.04 476.664
818 1 46.1 12.7983 590 116.202 1102.43 493.683
819 0 49.0429 13.3964 657 116.432 1102.24 493.591
820 0 51.0728 14.587 745 112.623 1102.78 491.447
821 0 49.0574 12.9848 637 114.198 1102.05 493.549
822 0 50.0244 13.7133 686 113.044 1102.63 493.016
823 0 53.0788 14.2807 758 111.503 1102.48 491.034
824 0 55.1896 13.7888 761 111.808 1102.6 490.761
825 0 54.0558 14.1151 763 114.017 1101.31 489.784
826 0 57.1134 14.3924 822 112.236 1101.83 489.057
827 0 58.0321 14.044 815 113.612 1102.09 488.092
828 0 61.1244 14.1351 864 113.189 1102.14 487.15
829 0 62.0667 13.4049 832 114.728 1102.73 486.689
830 0 64.0867 14.2151 911 114.639 1102.05 484.17
831 0 66.0889 14.3594 949 113.092 1102.19 484.684
832 0 73.1525 14.1075 1032 80.1172 1102.21 484.226
833 0 71.0351 12.4868 887 116.742 1101.68 482.656
834 0 73.0611 12.6469 924 116.039 1101.85 481.672
835 0 79.0731 13.7974 1091 112.599 1101.39 478.053
836 0 79.1303 13.2692 1050 112.447 1100.42 477.777
837 0 85.2012 15.0819 1285 106.693 1101.42 476.669
838 1 41.0628 12.0791 496 112.159 1101.12 495.282
839 0 43.071 12.5839 542 108.458 1101.02 495.38
840 0 43.0812 12.9291 557 103.788 1102.02 496.171
841 0 42.0392 13.3209 560 104.127 1101.87 495.434
842 0 45.0631 12.8708 580 104.429 1102.12 493.071
843 0 46.0681 12.6769 584 105.455 1102.03 492.786
844 0 49.0716 14.0203 688 102.01 1101.85 492.214
845 0 49.1413 13.3289 655 102.844 1102.54 491.93
846 0 51.0318 13.4818 688 102.999 1102.48 490.589
847 0 52.0397 13.8356 720 103.603 1102.29 488.997
848 0 54.0184 12.4587 673 105.389 1101.97 489.355
849 0 56.0529 12.5239 702 104.645 1101.84 488.68
850 0 59.0469 13.4808 796 102.612 1101.04 486.917
851 0 60.1056 13.3265 801 103.923 1101.8 484.899
852 0 63.1687 14.5483 919 102.372 1101.57 484.349
853 0 66.0777 14.8462 981 101.744 1101.42 483.351
854 0 68.1057 13.5084 920 105.358 1101.12 481.795
855 0 69.1815 13.2839 919 105.918 1101.1 481.959
856 0 71.1887 12.3756 881 108.085 1101.11 481.915
857 0 75.303 12.7485 960 108.133 1100.84 478.173
858 0 78.1822 13.5581 1060 107.326 1101.54 478.412
859 0 78.126 13.4398 1050 110.846 1101.09 476.273
860 0 83.2735 14.6265 1218 109.35 1100.43 474.238
861 0 86.157 13.812 1190 110.629 1100.44 474.54
862 0 90.5534 14.4776 1311 110.5 1101.14 470.221
863 0 93.321 15.6128 1457 107.423 1101.24 468.603
864 1 47.1017 13.3753 630 107.989 1101.05 491.81
865 0 50.2142 12.606 633 108.447 1100.8 490.608
866 0 49.071 14.2651 700 102.876 1100.57 494.221
867 0 51.0353 14.6369 747 103.759 1101.06 489.917
868 0 50.1495 13.3999 672 107.06 1101.72 490.225
869 0 53.0857 12.6211 670 106.422 1100.96 489.967
870 0 55.09 12.8698 709 106.405 1100.78 488.645
871 0 57.0559 12.5316 715 106.322 1101.24 488.622
872 0 59.1791 13.2479 784 104.864 1100.94 486.497
873 0 61.1848 12.4868 764 107.229 1101.1 484.001
874 0 64.0787 14.529 931 104.357 1100.25 483.619
875 0 66.079 12.9239 854 106.96 1100.61 484.477
876 0 70.0761 13.3569 936 105.739 1101.25 481.38
877 0 71.0528 13.7926 980 106.811 1101.44 478.768
878 0 74.1172 14.4096 1068 105.507 1101.21 480.143
879 0 78.1331 14.3985 1125 105.391 1101.38 477.958
880 0 80.171 14.3568 1151 104.791 1101.76 477.923
881 0 83.2179 13.6389 1135 106.852 1101.47 476.026
882 0 85.1026 13.9009 1183 106.635 1101.77 474.066
883 0 88.1371 14.1711 1249 105.128 1102.03 468.789
884 0 91.2406 14.5111 1324 102.124 1102.34 466.919
885 0 94.1483 14.8277 1396 102.831 1102.05 466.226
886 1 50.0533 12.3069 616 100.247 1103.51 489.818
887 0 50.0698 10.8249 542 101.459 1103.16 489.264
888 0 53.0478 11.8949 631 99.1062 1103.14 489.041
889 0 55.0864 12.8888 710 95.9479 1102.29 489.741
890 0 55.0391 11.3556 625 100.259 1101.97 485.941
891 0 58.1391 12.8313 746 97.3378 1101.72 486.326
892 0 61.1071 12.9772 793 95.4842 1101.9 488.092
893 0 62.0598 12.2624 761 97.866 1101.97 485.127
894 0 67.0405 13.4993 905 94.3713 1101.75 485.444
895 0 65.1528 11.3272 738 99.5027 1101.47 484.209
896 0 69.2145 11.8183 818 100.163 1101.84 481.869
897 0 73.0757 14.1497 1034 97.0783 1102.04 479.033
898 0 76.1403 13.3306 1015 97.8591 1101.44 480.639
899 0 77.1322 13.8334 1067 99.1874 1102.31 478.632
900 0 79.0798 14.087 1114 100.327 1101.62 475.871
901 0 84.1254 13.8959 1169 101.934 1101.52 475.04
902 0 88.177 15.0493 1327 102.243 1101.55 474.638
903 0 89.1587 14.8051 1320 104.079 1101.22 471.489
904 0 93.1615 14.7271 1372 104.494 1101.13 469.998
905 0 95.2634 13.6569 1301 106.42 1101.69 470.899
906 0 98.1824 14.0351 1378 107.369 1101.22 467.438
907 0 103.21 14.3106 1477 106.771 1101.06 464.483
908 0 106.326 13.8724 1475 108.544 1101.18 462.561
909 1 56.18 13.261 745 98.5946 1102.21 487.321
910 0 57.0946 12.0502 688 100.581 1101.56 486.442
911 0 61.1876 12.6823 776 100.207 1101.5 486.024
912 0 61.141 13.1009 801 99.5206 1102 486.08
913 0 62.3058 12.4547 776 100.3 1101.82 485.428
914 0 65.1401 13.4633 877 100.278 1101.47 483.032
915 0 68.0217 13.2017 898 102.816 1101.5 480.794
916 0 71.0891 12.9978 924 102.44 1101.48 480.551
917 0 74.1755 13.7107 1017 101.475 1101.67 476.705
918 0 75.274 12.1423 914 104.739 1101.9 475.164
919 0 79.2263 14.4901 1148 100.173 1101.94 473.582
920 0 82.2736 13.4429 1106 102.907 1101.81 469.976
921 0 85.1792 13.3483 1137 102.982 1101.78 470.928
922 0 89.4532 13.3254 1192 103.18 1101.82 468.431
923 0 91.3855 13.5032 1234 103.797 1102.54 466.591
924 0 95.3673 12.4676 1189 105.003 1102.55 467.991
925 0 100.24 12.4601 1249 106.554 1102.75 464.339
926 1 55.2139 13.493 745 97.7517 1102.19 486.957
927 0 57.126 11.7285 670 103.296 1101.5 487.191
928 0 57.1869 12.9925 743 103.872 1101.98 483.717
929 0 59.1278 11.3821 673 104.691 1102.18 485.841
930 0 62.0889 12.6754 787 103.048 1101.9 483.282
931 0 63.1154 11.5344 728 105.13 1102.05 484.179
932 0 67.1674 13.0271 875 102.541 1102.1 481.304
933 0 67.2215 12.0795 812 104.952 1101.3 480.312
934 0 70.1716 12.9112 906 103.535 1101.43 478.502
935 0 71.4134 13.2328 945 104.22 1101.32 474.146
936 0 75.1798 11.8915 894 104.747 1100.91 477.441
937 0 76.2893 12.4657 951 105.077 1100.96 474.052
938 0 79.3238 14.3967 1142 102.574 1101.39 471.312
939 0 83.3275 13.0089 1084 105.012 1101.47 471.073
940 0 84.3554 13.0282 1099 105.798 1101.15 469.308
941 0 85.2086 12.8156 1092 107.039 1101.07 468.728
942 0 90.3356 13.9037 1256 104.938 1101.67 466.54
943 0 94.2126 14.2656 1344 104.583 1100.69 466.452
944 0 95.4361 13.1711 1257 106.302 1100.98 463.718
945 0 99.3873 13.6235 1354 106.76 1101.5 459.784
946 0 103.269 13.305 1374 106.662 1101.54 460.11
947 0 106.298 13.3869 1423 107.313 1100.91 460.198
948 1 53.0893 12.6014 669 100.384 1102.66 488.145
949 0 54.0472 11.9525 646 102.887 1101.74 487.635
950 0 55.1014 12.9398 713 102.216 1102.35 486.738
951 0 59.0433 14.2438 841 97.8264 1102.15 486.512
952 0 58.0707 12.9153 750 101.388 1101.29 487.308
953 0 61.1013 13.3876 818 101.628 1101.69 484.132
954 0 62.144 12.0044 746 106.595 1101.66 484.505
955 0 62.1747 12.0628 750 107.631 1101.93 481.565
956 0 66.1462 14.0598 930 103.586 1101.4 482.206
957 0 72.0459 13.2277 953 106.537 1102.37 482.366
958 0 71.2616 13.9767 996 107.538 1102.55 478.213
959 0 77.2337 13.7764 1064 106.992 1102.36 477.235
960 0 77.1207 13.0834 1009 109.575 1101.94 476
961 0 82.2957 14.6545 1206 104.466 1102.36 476.149
962 0 81.1796 12.7742 1037 110.011 1102.71 473.459
963 0 87.1868 14.1879 1237 106.285 1101.86 471.274
964 1 35.0179 12.1938 427 104.628 1102.63 496.077
965 0 37.0653 13.2469 491 102.745 1102.85 495.976
966 0 38.102 11.6529 444 107.818 1102.92 495.14
967 0 37.0547 12.0362 446 106.419 1102.34 495.693
968 0 39.0253 12.7097 496 105.502 1102.56 496.415
969 0 39.055 13.1865 515 105.889 1102.87 495.082
970 0 40.0544 13.1321 526 106.825 1102.82 494.795
971 0 42.0552 11.9842 504 109.433 1102.86 494.22
972 0 43.0365 12.4778 537 109.11 1103.02 493.819
973 0 45.1453 14.2651 644 105.943 1102.26 492.374
974 0 44.0474 13.1222 578 109.237 1102.74 492.607
975 0 46.0761 13.5211 623 108.535 1102.2 491.793
976 0 48.1428 13.0237 627 109.9 1102.07 491.218
977 0 48.0975 12.9113 621 110.908 1102.56 491.332
978 0 50.1207 13.9862 701 108.047 1102.03 490.395
979 0 50.2457 11.7423 590 111.946 1101.91 490.463
980 0 52.064 11.6587 607 111.725 1102.58 489.659
981 0 55.2239 13.7984 762 105.736 1102.33 488.522
982 0 55.1031 12.7035 700 109.783 1101.93 487.429
983 0 59.0503 13.4123 792 107.16 1102.36 484.984
984 0 60.3058 12.6356 762 107.084 1102.38 486.581
985 0 64.1352 13.035 836 105.666 1101.42 485.288
986 0 64.0701 14.0471 900 105.706 1102.1 481.109
987 0 66.0402 12.2198 807 106.897 1102.83 481.238
988 0 69.0812 11.8411 818 107.022 1103.19 481.879
989 0 71.1392 12.4123 883 106.194 1103.29 480.31
990 0 74.0734 13.6891 1014 104.881 1102.54 475.759
991 0 77.1286 13.095 1010 106.066 1102.37 474.633
992 0 80.0897 13.1478 1053 105.682 1102.32 474.656
993 0 83.0845 13.6849 1137 104.583 1102.97 471.994
994 0 87.0729 13.6897 1192 103.95 1102.33 471.552
995 1 47.0169 11.2938 531 106.913 1102.37 488.921
996 0 47.0913 9.72579 458 106.893 1101.79 488.489
997 0 48.0879 10.3768 499 109.158 1102.21 488.735
998 0 51.0714 12.5511 641 106.072 1101.83 485.964
999 0 53.0159 13.7317 728 103.72 1101.24 487.446
1000 0 56.0805 13.7838 773 103.317 1102.08 486.598
1001 0 57.1166 13.1836 753 104.992 1101.59 483.837
1002 0 58.062 13.6406 792 104.511 1101.69 483.447
1003 0 60.1453 12.1373 730 107.301 1101.97 482.659
1004 0 62.127 13.9553 867 105.457 1102.47 481.74
1005 0 63.1247 14.004 884 105.691 1101.89 480.536
1006 0 67.2735 13.3931 901 106.78 1102.13 479.566
1007 0 68.1309 12.8576 876 107.567 1102.26 478.045
1008 0 69.2422 12.0014 831 109.282 1102.45 478.474
1009 0 73.1516 14.2307 1041 105.804 1102.19 475.172
1010 0 76.3039 13.0269 994 107.626 1102.21 475.784
1011 0 79.2176 13.3682 1059 106.761 1102.63 472.5
1012 0 83.316 13.3348 1111 106.197 1102.86 470.623
1013 0 86.2898 13.6517 1178 105.433 1102.52 467.661
1014 0 87.3297 13.4777 1177 103.846 1102.77 464.575
1015 0 89.227 12.5635 1121 105.737 1102.19 461.214
1016 1 49.0601 11.598 569 97.2302 1103.36 484.336
1017 0 52.0833 12.0192 626 101.974 1103.04 486.55
1018 0 51.1232 11.9124 609 94.8243 1101.7 488.685
1019 0 52.065 10.2372 533 96.6829 1101.52 488.674
1020 0 55.1102 11.849 653 94.6708 1101.55 486.668
1021 0 55.0723 11.6937 644 95.1755 1101.49 485.421
1022 0 59.0577 12.5978 744 92.6183 1101.52 486.513
1023 0 61.0992 12.0623 737 93.8657 1101.75 484.042
1024 0 63.0775 12.017 758 93.6095 1101.8 483.211
1025 0 64.0343 11.5251 738 93.9878 1101.53 483.206
1026 0 68.1103 12.5678 856 93.1262 1101.47 480.759
1027 0 69.1894 13.4558 931 93.5854 1101.33 477.82
1028 0 71.0795 12.1976 867 96.5502 1101.17 476.717
1029 0 71.1113 11.2922 803 99.0996 1101.64 476.212
1030 0 77.1177 12.9542 999 96.6036 1101.95 475.006
1031 0 80.1347 13.7643 1103 95.4651 1101.88 473.239
1032 0 82.1139 11.9955 985 100.048 1101.32 472.839
1033 0 85.353 11.8332 1010 99.3802 1102.14 471.544
1034 0 90.1341 14.5672 1313 95.4387 1101.9 470.522
1035 0 93.2296 12.85 1198 100.69 1101.44 467.92
1036 0 95.2148 11.9939 1142 101.52 1101.34 469.022
1037 0 99.193 13.015 1291 100.751 1101.1 467.218
1038 0 101.152 13.198 1335 102.108 1101.62 464.658
1039 1 57.0794 14.1732 809 97.7639 1102.47 485.391
1040 0 60.0691 12.9185 776 99.3853 1103.53 482.871
1041 0 59.0608 13.139 776 91.2552 1101.84 484.119
1042 0 60.0721 13.1675 791 93.9633 1103.47 483.748
1043 0 64.1628 13.4034 860 92.8093 1103.12 483.469
1044 0 65.0681 13.4936 878 92.5604 1102.91 481.276
1045 0 67.098 12.4445 835 95.6096 1102.7 478.556
1046 0 70.0938 11.8841 833 96.8283 1102.72 480.645
1047 0 73.1279 11.5961 848 97.5165 1103.04 479.731
1048 0 76.1685 12.7743 973 96.6043 1103.65 475.737
1049 0 78.1907 12.0858 945 98.2413 1103.24 477.44
1050 0 81.1321 12.6091 1023 98.4878 1103.32 474.055
1051 0 82.1771 12.1567 999 101.504 1103.67 470.71
1052 0 87.1189 13.3725 1165 99.1348 1103.41 469.766
1053 0 90.1872 13.1282 1184 98.984 1103.63 473.045
1054 0 90.2199 14.4092 1300 98.1662 1103.64 471.296
1055 0 93.398 13.4157 1253 101.317 1103.26 467.204
1056 0 95.1146 13.3208 1267 101.811 1103.07 464.024
1057 0 98.2033 11.8937 1168 104.477 1103.45 468.432
1058 0 103.37 13.2533 1370 99.9876 1102.82 461.428
1059 0 106.416 12.5169 1332 99.9902 1102.86 464.709
1060 0 108.329 10.4128 1128 104.265 1102.22 466.775
1061 0 111.275 13.7407 1529 99.639 1102.35 462.039
1062 1 63.209 12.5299 792 98.7677 1103.16 484.4
1063 0 63.1521 12.4145 784 96.7474 1102.71 484.797
1064 0 66.0996 12.935 855 105.6 1101.72 482.225
1065 0 68.161 13.3361 909 106.223 1101.64 479.185
1066 0 72.0927 15.5356 1120 101.44 1101.42 477.366
1067 0 72.0922 12.9972 937 106.962 1101.61 477.099
1068 0 75.2018 13.4571 1012 106.422 1101.77 475.976
1069 0 78.0726 14.8708 1161 104.778 1101.43 473.502
1070 0 80.1188 13.3552 1070 107.062 1101.59 474.95
1071 0 81.0856 12.7396 1033 109.422 1101.17 474.215
1072 0 86.2258 13.3371 1150 108.433 1101.59 471.752
1073 0 90.1882 13.6603 1232 108.377 1101.48 470.085
1074 0 93.1503 13.2904 1238 109.149 1102 468.592
1075 0 94.1811 13.4209 1264 109.365 1102.34 467.965
1076 0 98.3926 12.9583 1275 109.844 1102.24 464.849
1077 0 104.169 14.3325 1493 105.145 1101.86 464.696
1078 0 105.171 13.3592 1405 107.227 1101.75 462.401
1079 1 52.1559 12.0792 630 99.2746 1101.77 489.37
1080 0 54.1584 12.4634 675 99.9748 1101.5 487.665
1081 0 56.0716 12.9121 724 102.606 1101.96 487.471
1082 0 57.1262 12.4111 709 104.872 1101.7 485.57
1083 0 61.0353 13.5004 824 101.262 1101.53 485.859
1084 0 62.0532 12.5537 779 103.108 1100.75 485.474
1085 0 64.0421 14.3812 921 100.182 1101.04 482.193
1086 0 65.0711 12.8321 835 103.199 1100.78 482.789
1087 0 65.0882 12.9056 840 103.546 1101.03 482.419
1088 0 69.0861 12.4193 858 104.622 1101.92 480.537
1089 0 71.0973 13.0807 930 102.583 1101.57 481.499
1090 0 74.1566 12.8512 953 104.3 1101.55 478.978
1091 0 76.1085 13.0472 993 103.814 1101.54 479.584
1092 0 78.1393 14.487 1132 102.864 1102.27 474.672
1093 0 81.1347 14.9998 1217 102.141 1102.11 473.511
1094 0 86.118 16.3729 1410 98.2986 1101.87 474.202
1095 0 87.1462 14.1831 1236 103.097 1101.88 471.553
1096 0 90.1601 13.598 1226 103.236 1101.75 471.388
1097 0 92.2313 14.0083 1292 100.705 1101.95 467.959
1098 1 49.0273 12.1157 594 95.5993 1101.44 490.379
1099 0 50.2694 14.0443 706 92.0283 1100.86 488.847
1100 0 49.0301 12.1558 596 98.3037 1101.26 489.431
1101 0 52.0191 13.2451 689 96.508 1100.74 488.716
1102 0 52.0325 11.3391 590 99.617 1100.81 489.424
1103 0 55.0973 12.5596 692 97.1936 1101.49 487.763
1104 0 56.0252 12.2802 688 98.0174 1101.34 487.698
1105 0 57.0878 12.9275 738 97.1626 1100.73 485.664
1106 0 59.043 14.1253 834 95.8873 1100.51 485.956
1107 0 59.0567 11.7006 691 100.107 1100.98 485.897
1108 0 63.0712 13.1597 830 98.2614 1101.14 483.775
1109 0 64.1796 13.2752 852 98.8322 1101.06 481.57
1110 0 66.2141 12.9429 857 99.6616 1101.23 481.63
1111 0 69.1643 13.3306 922 98.9685 1101.93 479.555
1112 0 72.0737 12.9867 936 99.1378 1101.82 480.953
1113 0 74.1236 13.2886 985 98.2091 1101.62 480.2
1114 0 78.2638 14.0295 1098 97.479 1101.42 478.525
1115 0 80.396 14.4286 1160 95.9802 1101.69 479.158
1116 0 82.1408 13.4403 1104 99.1857 1102.01 473.889
1117 0 85.2484 12.9973 1108 100.555 1101.82 471.775
1118 0 90.1848 12.9179 1165 102.007 1101.48 470.346
1119 0 90.1403 12.8355 1157 102.903 1102 468.84
1120 1 49.0866 12.5085 614 93.759 1101.48 490.857
1121 0 49.0485 12.0493 591 95.1388 1101.8 489.465
1122 0 50.2313 11.7855 592 96.2922 1102.75 489.698
1123 0 50.2317 10.5909 532 97.0545 1102.62 492.865
1124 0 54.1081 10.2572 555 98.2919 1102.54 488.98
1125 0 55.1621 13.0162 718 94.9192 1102.67 487.56
1126 0 58.1203 12.6806 737 95.0624 1102.84 485.091
1127 0 61.1271 11.0262 674 97.1588 1102.64 485.233
1128 0 62.2012 12.2023 759 95.9921 1102.73 484.545
1129 0 64.1015 13.0106 834 95.9592 1102.74 482.382
1130 0 67.1262 13.5566 910 94.3571 1102.84 482.591
1131 0 67.0439 11.9027 798 97.5902 1103.11 481.093
1132 0 70.1343 11.535 809 97.1372 1102.39 482.381
1133 0 72.1393 12.5868 908 97.0396 1102.5 480.233
1134 0 73.0964 12.8734 941 97.6355 1102.67 478.119
1135 0 75.276 11.7567 885 100.582 1102.59 474.557
1136 0 81.2304 12.8893 1047 97.4862 1102.07 477.02
1137 0 82.164 12.7671 1049 99.714 1102.31 474.13
1138 0 84.1201 13.5283 1138 99.0826 1102.75 472.884
1139 0 85.0984 12.7264 1083 100.968 1102.45 471.214
1140 0 90.2406 13.0207 1175 98.9098 1102.18 472.3
1141 0 90.1343 13.258 1195 100.067 1101.67 468.493
1142 0 93.2118 12.9275 1205 101.312 1102.04 468.028
1143 0 96.2283 12.3664 1190 102.697 1102.37 466.763
1144 0 100.322 14.0448 1409 101.055 1101.44 463.276
1145 0 103.219 14.164 1462 101.587 1102.29 461.117
1146 0 106.197 13.409 1424 103.959 1101.28 459.527
1147 0 110.431 13.2662 1465 102.389 1100.67 458.747
1148 1 55.0722 11.5848 638 101.693 1100.02 485.412
1149 0 59.0803 11.7806 696 104.089 1099.79 485.876
1150 0 59.0635 13.5109 798 97.3571 1099.81 485.214
1151 0 60.0891 12.3982 745 100.501 1099.79 484.106
1152 0 60.1577 12.9825 781 101.818 1099.22 481.571
1153 0 65.0729 13.0776 851 100.053 1100.13 482.162
1154 0 65.0572 12.8964 839 99.6448 1099.88 482.383
1155 0 69.1945 14.2641 987 96.382 1099.99 479.299
1156 0 71.0654 14.0716 1000 96.415 1100.28 479.712
1157 0 74.0995 13.8732 1028 96.2733 1100.21 479.266
1158 0 74.0297 12.468 923 98.4778 1100.08 478.592
1159 0 79.1517 13.5689 1074 96.567 1100.46 475.283
1160 0 82.1608 14.2647 1172 97.0136 1100.38 474.582
1161 0 83.1372 13.6401 1134 97.7707 1100.47 472.457
1162 0 87.4092 13.2938 1162 99.1196 1100.34 472.688
1163 0 89.115 14.1503 1261 99.2125 1100.92 470.8
1164 1 45.059 11.2075 505 97.4119 1100.77 491.6
1165 0 48.0547 11.3621 546 95.3993 1101.74 491.291
1166 0 47.1756 13.0576 616 96.9237 1101.17 489.784
1167 0 47.1943 13.1584 621 98.161 1100.46 488.887
1168 0 49.2291 13.0817 644 98.1227 1100.45 487.053
1169 0 52.1046 13.3002 693 97.0996 1101.69 488.468
1170 0 53.072 13.0389 692 98.1228 1100.72 489.144
1171 0 53.2388 12.8666 685 99.6423 1100.72 486.749
1172 0 59.1386 13.0541 772 96.8614 1100.58 487.87
1173 0 59.1735 12.4549 737 99.4125 1101.47 485.672
1174 0 62.1542 13.3378 829 98.8094 1100.97 483.548
1175 0 64.1846 13.8039 886 98.5361 1101.22 482.887
1176 0 67.1122 13.8127 927 107.198 1101.57 481.688
1177 0 69.1916 12.964 897 110.395 1101.5 479.708
1178 0 72.147 13.5695 979 109.672 1101.95 478.059
1179 0 74.1726 13.6708 1014 110.009 1101.64 477.799
1180 0 78.119 12.8906 1007 113.254 1101.34 478.121
1181 1 40.0707 11.6295 466 112.129 1100.88 493.504
1182 0 41.0234 12.1394 498 107.486 1101.25 492.55
1183 0 41.0705 11.4194 469 105.433 1101.91 494.834
1184 0 40.2784 11.9171 480 106.76 1102.16 493.027
1185 0 44.1138 12.3771 546 105.408 1102.65 491.685
1186 0 45.1256 14.8696 671 101.115 1101.9 491.876
1187 0 46.131 12.9848 599 105.235 1102.49 491.758
1188 0 46.0452 13.0307 600 105.727 1101.93 492.025
1189 0 50.0828 13.5176 677 104.241 1101.31 489.529
1190 0 50.3559 14.0003 705 103.309 1102.12 489.99
1191 0 52.0635 13.0994 682 106.18 1101.88 488.223
1192 0 53.2789 12.9319 689 106.911 1102 487.322
1193 0 53.2085 13.0806 696 107.593 1102 485.388
1194 0 56.19 13.045 733 106.435 1101.88 486.247
1195 0 57.1268 12.0259 687 108.738 1101.89 485.039
1196 0 60.1042 13.6596 821 106.749 1101.97 482.554
1197 0 64.1882 13.4293 862 106.789 1101.61 483.195
1198 0 65.2325 13.7202 895 106.723 1101.85 481.637
1199 0 67.1127 13.4848 905 107.028 1101.71 481.027
1200 0 70.087 13.2978 932 109.242 1101.44 479.794
1201 0 72.1666 13.3441 963 113.694 1101.94 478.272
1202 0 76.2316 14.1542 1079 110.079 1101.71 476.804
1203 0 80.169 15.8166 1268 106.905 1101.28 473.718
1204 0 78.2662 13.518 1058 113.423 1100.95 474.008
1205 0 82.1999 14.0876 1158 109.952 1101.15 473.256
1206 0 85.1932 14.3908 1226 109.182 1101.36 471.431
1207 0 90.1179 15.8792 1431 106.444 1101.35 470.054
1208 0 92.2371 13.8231 1275 110.469 1100.63 469.034
1209 1 47.0469 13.5822 639 105.731 1100.47 491.275
1210 0 49.1231 12.8046 629 108.253 1100.76 488.072
1211 0 51.0491 13.2617 677 106.538 1101.42 490.576
1212 0 49.1131 12.9701 637 106.804 1101.98 489.713
1213 0 50.0442 13.7478 688 104.856 1102.05 487.778
1214 0 52.2067 13.7722 719 103.814 1102.2 487.918
1215 0 54.2637 11.2783 612 107.69 1102.41 489.08
1216 0 56.1579 14.0319 788 103.892 1102.23 485.173
1217 0 60.1467 13.9492 839 102.426 1101.86 485.648
1218 0 60.1506 12.2692 738 105.809 1101.38 485.183
1219 0 63.0899 13.5679 856 103.201 1102.12 484.8
1220 0 65.0568 15.1252 984 102.862 1100.84 482.169
1221 0 67.0674 14.7911 992 104.347 1101.3 482.014
1222 0 66.108 13.2511 876 109.845 1100.31 481.968
1223 0 72.0594 13.8913 1001 108.069 1100.08 480.75
1224 0 74.1801 14.2356 1056 107.6 1100.59 478.301
1225 0 75.0556 14.6825 1102 110.103 1100.55 476.258
1226 0 79.1601 14.9823 1186 110.014 1101.71 473.095
1227 0 81.1127 14.7696 1198 112.208 1101.24 474.844
1228 0 84.1557 16.006 1347 111.417 1100.78 471.928
1229 0 88.0447 14.9583 1317 113.612 1101.08 470.54
1230 0 90.1572 14.4414 1302 114.604 1100.7 470.223
1231 0 92.109 14.6348 1348 112.59 1100.49 469.999
1232 0 95.336 14.1709 1351 112.099 1100.37 469.025
1233 0 100.132 14.6606 1468 116.375 1100.75 465.105
1234 1 56.0519 13.7194 769 110.442 1100.77 487.837
1235 0 55.0348 13.2462 729 113.062 1100.75 487.01
1236 0 60.098 14.5096 872 109.127 1100.7 486.211
1237 0 61.0822 13.9321 851 116.838 1100.71 485.174
1238 0 63.1862 14.2753 902 116.215 1100.66 483.437
1239 0 64.1372 13.8453 888 117.575 1100.77 481.76
1240 0 67.1175 14.9141 1001 115.418 1100.76 481.193
1241 0 68.1528 13.7338 936 117.784 1100.12 481.19
1242 0 70.1474 13.8138 969 117.845 1100.59 479.397
1243 0 73.2336 12.8766 943 119.157 1101.17 477.908
1244 0 76.0754 14.8668 1131 114.111 1100.46 476.706
1245 0 79.1304 14.3181 1133 114.168 1100.38 477.091
1246 0 82.1877 14.7224 1210 112.812 1100.64 474.929
1247 0 84.1 14.1142 1187 113.67 1100.85 473.725
1248 0 86.1579 14.7288 1269 113.276 1100.61 471.345
1249 0 91.1914 14.7163 1342 111.069 1100.48 470.611
1250 0 92.1632 13.9861 1289 113.635 1100.5 468.088
1251 0 97.3156 15.7734 1535 109.395 1101.01 465.094
1252 0 100.208 15.7473 1578 109.311 1100.69 464.276
1253 0 102.2 14.8923 1522 112.009 1100.74 461.436
1254 0 106.187 13.5516 1439 113.587 1100.49 459.368
1255 0 111.151 15.0067 1668 110.38 1101.18 461.2
1256 1 50.0952 12.2766 615 103.787 1102.27 488.102
1257 0 52.0469 12.5656 654 102.427 1101.29 489.726
1258 0 55.107 12.3396 680 102.346 1100.8 487.378
1259 0 56.1124 14.364 806 99.9181 1100.91 487.424
1260 0 56.1706 12.3374 693 102.926 1101.48 487.009
1261 0 61.1136 11.5032 703 103.343 1100.45 487.003
1262 0 62.1592 12.0336 748 102.757 1100.94 485.282
1263 0 64.1517 13.3434 856 101.335 1100 481.453
1264 0 67.1016 13.5764 911 99.9824 1100.35 481.589
1265 0 70.1405 14.0718 987 99.7457 1100.29 478.709
1266 0 71.11 13.6549 971 99.5984 1100.26 478.695
1267 0 72.0728 12.7094 916 102.974 1100.41 477.778
1268 0 75.101 12.5032 939 103.218 1099.85 477.512
1269 0 79.0701 14.3291 1133 99.4837 1100.49 476.995
1270 0 82.1481 14.133 1161 99.9922 1100.01 475.89
1271 0 83.2222 13.9746 1163 101.678 1100.58 471.972
1272 0 88.3708 14.4052 1273 101.929 1100.4 468.581
1273 0 91.1711 14.8512 1354 103.871 1100.25 467.052
1274 1 47.0976 10.7012 504 102.433 1099.76 491.438
1275 0 50.1377 12.7449 639 99.507 1101.45 485.917
1276 0 52.0526 12.0263 626 98.3227 1100.36 488.759
1277 0 52.0478 12.0082 625 97.5712 1100.96 487.77
1278 0 53.1823 12.805 681 96.5565 1101.16 487.878
1279 0 55.0532 13.5869 748 95.7112 1100.75 485.262
1280 0 59.0854 14.0136 828 93.192 1101.43 483.19
1281 0 58.0414 12.1982 708 97.6695 1101.15 483.266
1282 0 64.1628 13.5281 868 94.8007 1101.22 483.278
1283 0 63.0594 13.0036 820 96.5354 1100.1 481.411
1284 0 66.0954 13.2687 877 95.4926 1101.1 481.432
1285 0 68.1985 12.8888 879 97.6371 1100.99 477.164
1286 0 68.164 11.7657 802 100.348 1100.67 477.392
1287 0 73.0421 12.0752 882 98.8016 1101.09 477.234
1288 0 76.2256 13.8667 1057 96.4286 1101.03 477.025
1289 0 80.1184 13.9918 1121 96.5566 1100.65 473.94
1290 0 84.082 14.3312 1205 95.0282 1100.13 474.334
1291 0 86.0737 13.442 1157 96.6396 1100.27 472.33
1292 0 88.2249 13.1936 1164 97.6057 1101.54 470.192
1293 0 89.1145 13.1516 1172 98.4036 1101.69 468.751
1294 0 94.1871 14.4075 1357 95.5755 1102.05 467.243
1295 0 96.1146 14.3058 1375 95.784 1101.53 463.417
1296 1 51.0434 13.0673 667 94.4123 1102.49 488.726
1297 0 53.2368 13.1676 701 93.4864 1102.36 487.241
1298 0 56.1548 14.3532 806 91.6725 1102.78 485.287
1299 0 56.1157 11.9396 670 96.0702 1102.67 486.985
1300 0 60.1342 13.4366 808 92.4356 1102.51 486.885
1301 0 61.073 13.7213 838 93.6408 1102.4 485.189
1302 0 64.0785 12.6563 811 94.7139 1103.33 484.181
1303 0 64.1099 13.0245 835 95.2264 1103.04 483.596
1304 0 66.0342 13.0993 865 96.2451 1101.59 479.639
1305 0 70.262 14.8302 1042 93.1228 1101.48 480.288
1306 0 72.1947 12.8957 931 96.3749 1101.34 480.153
1307 0 73.037 12.4047 906 97.691 1101.06 480.089
1308 0 76.4339 13.7112 1048 96.7719 1101.15 476.323
1309 0 77.0936 12.647 975 99.1313 1101.39 475.373
1310 0 84.1079 15.3612 1292 93.3692 1102.1 475.239
1311 0 84.0958 12.1885 1025 101.089 1101.43 472.771
1312 0 86.2278 13.9514 1203 97.3649 1100.72 470.122
1313 0 91.1038 13.3694 1218 97.5361 1100.7 471.849
1314 0 95.1302 13.3712 1272 98.0629 1100.89 469.478
1315 0 96.2343 13.7165 1320 98.3727 1101.21 466.486
1316 1 51.0903 12.6443 646 98.7121 1100.56 490.068
1317 0 53.0562 12.9674 688 101.065 1100.35 487.564
1318 0 53.0699 12.7191 675 96.6341 1101.36 486.05
1319 0 57.0813 12.6136 720 94.9944 1101.58 486.829
1320 0 57.1221 13.2173 755 95.0159 1101.41 486.004
1321 0 58.0527 11.9202 692 97.5217 1100.84 487.199
1322 0 61.1625 12.7039 777 96.2008 1101.34 484.605
1323 0 64.0912 13.2 846 94.9823 1100.39 483.981
1324 0 67.0813 12.4029 832 95.1947 1100.63 484.745
1325 0 69.1515 12.4798 863 94.927 1100.96 483.888
1326 0 72.1306 13.7251 990 95.1909 1100.74 478.427
1327 0 73.1032 12.2293 894 97.396 1100.51 479.421
1328 0 77.1045 13.3715 1031 95.292 1100.43 476.451
1329 0 80.126 13.4164 1075 95.4865 1100.12 474.799
1330 0 85.2716 14.4831 1235 92.7255 1100.77 473.602
1331 0 86.1872 13.3895 1154 95.682 1100.78 470.938
1332 0 91.2138 13.7041 1250 95.76 1100.33 469.551
1333 1 49.0378 13.2755 651 99.2627 1100.44 489.091
1334 0 50.1206 12.3702 620 97.7097 1101.19 490.197
1335 0 54.092 14.2905 773 91.2833 1101.42 488.709
1336 0 53.0833 12.8477 682 104.933 1100.21 488.22
1337 0 57.2263 12.7738 731 103.852 1100.2 486.761
1338 0 57.1195 12.6752 724 104.338 1100.27 485.612
1339 0 61.0982 14.6813 897 100.027 1100.33 483.391
1340 0 62.0525 13.408 832 102.227 1100.36 485.284
1341 0 64.0721 14.5929 935 100.517 1100.92 481.648
1342 0 65.1063 13.332 868 102.462 1101.18 480.993
1343 0 68.154 14.6433 998 100.238 1100.53 480.392
1344 0 70.1331 14.4725 1015 100.926 1100.96 480.675
1345 0 72.0674 12.9185 931 103.446 1100.71 479.954
1346 0 75.0912 14.8353 1114 100.815 1099.89 476.722
1347 0 78.127 14.0412 1097 101.327 1100.34 476.386
1348 0 81.1231 14.3362 1163 100.21 1100.42 474.121
1349 0 82.1558 12.9632 1065 102.496 1100.48 474.036
1350 0 85.1139 15.4499 1315 97.9878 1100.59 472.58
1351 0 89.1189 13.8018 1230 100.626 1100.74 470.072
1352 0 92.3733 14.1924 1311 99.9924 1100.96 466.712
1353 0 94.2622 14.3111 1349 100.331 1101.19 467.707
1354 0 99.0864 15.5723 1543 97.4997 1100.99 467.384
1355 0 102.303 13.3721 1368 101.25 1100.78 464.932
1356 0 103.162 13.7453 1418 101.54 1100.81 461.91
1357 0 106.358 12.6553 1346 102.571 1100.82 460.996
1358 1 56.1608 12.6245 709 97.3032 1102.09 486.92
1359 0 59.1334 14.6787 868 95.1382 1101.21 483.339
1360 0 63.1501 14.0617 888 94.8277 1101.44 483.721
1361 0 61.1025 13.8783 848 97.4752 1100.86 484.048
1362 0 61.0559 14.7733 902 96.2295 1100.94 485.254
1363 0 65.1567 13.2757 865 100.646 1101.31 482.449
1364 0 67.0803 14.1025 946 99.7178 1101.37 481.788
1365 0 70.0475 14.947 1047 97.9284 1101.45 482.646
1366 0 71.0897 14.0808 1001 100.569 1101.25 480.359
1367 0 74.1558 13.4447 997 103.609 1101.73 480.658
1368 0 77.1481 14.4527 1115 103.095 1100.84 476.05
1369 0 80.1658 16.5781 1329 98.3047 1100.94 475.916
1370 0 83.139 15.8409 1317 101.195 1100.71 474.204
1371 0 85.16 14.643 1247 103.467 1101.13 475.591
1372 0 89.1708 15.9021 1418 101.836 1101.29 470.666
1373 0 92.1345 14.7176 1356 104.708 1100.86 470.542
1374 0 96.2897 15.2353 1467 103.982 1101.46 467.489
1375 0 98.1152 15.0333 1475 105.967 1101.41 466.797
1376 0 102.416 14.8317 1519 106.392 1101.41 463.626
1377 0 104.188 12.7461 1328 108.422 1101.35 466.694
1378 0 110.241 15.2484 1681 102.857 1101.21 457.028
1379 1 59.232 13.8439 820 101.446 1100.97 479.912
1380 0 59.0482 12.2104 721 103.061 1102.17 487.369
1381 0 64.1876 14.2707 916 98.5109 1101.55 485.397
1382 0 65.1753 14.2845 931 99.3577 1101.46 482.42
1383 0 68.0809 12.3529 841 101.338 1101.47 484.616
1384 0 68.0844 13.8945 946 100.576 1101.34 481.267
1385 0 73.0784 14.6692 1072 97.7369 1102.3 479.717
1386 0 77.228 15.4348 1192 96.3851 1101.98 478.716
1387 0 78.1353 13.7582 1075 100.082 1101.28 477.709
1388 0 81.1553 13.1723 1069 99.5931 1101.3 479.551
1389 0 84.1571 13.6649 1150 100.233 1101.05 475.606
1390 0 89.0978 14.9499 1332 96.9092 1101.45 475.191
1391 0 90.1097 13.994 1261 99.4378 1102.39 471.114
1392 0 93.1351 14.8709 1385 98.5386 1101.37 471.33
1393 0 97.2253 14.4098 1401 101.604 1100.86 468.62
1394 0 99.1852 14.2965 1418 101.329 1100.78 465.619
1395 0 103.196 13.8668 1431 98.7757 1101.51 465.758
1396 0 109.165 13.9147 1519 100.777 1101.07 462.481
1397 1 55.0528 13.151 724 101.789 1101.39 485.555
1398 0 58.0493 13.4885 783 100.898 1101.18 484.557
1399 0 64.1007 13.9312 893 99.2564 1100.31 483.88
1400 0 62.053 14.0203 870 96.7483 1101.33 484.088
1401 0 66.0951 14.7515 975 95.3077 1100.77 483.523
1402 0 66.1315 15.696 1038 95.3227 1100.93 479.741
1403 0 71.2108 13.9164 991 97.114 1100.96 480.099
1404 0 72.0851 14.1083 1017 97.0816 1100.96 479.728
1405 0 75.1231 15.2683 1147 95.6905 1100.9 477.432
1406 0 77.1012 14.6431 1129 97.6918 1100.44 477.089
1407 0 79.134 15.9224 1260 96.3548 1100.69 471.17
1408 0 83.2942 15.0071 1250 98.1544 1100.02 472.337
1409 0 85.0951 16.7577 1426 95.5351 1100.77 469.522
1410 0 88.1548 15.2799 1347 99.0869 1100.48 468.167
1411 0 89.1256 13.6549 1217 102.789 1100.4 468.727
1412 0 93.1737 15.6375 1457 98.9767 1100.34 467.931
1413 0 97.1862 15.5166 1508 99.1844 1100.79 466.419
1414 0 102.113 16.09 1643 98.7066 1100.42 463.465
1415 0 103.202 14.8351 1531 101.117 1100.41 460.648
1416 0 110.194 15.9265 1755 99.0769 1100.39 456.707
1417 0 113.226 14.7228 1667 101.119 1100.2 456.579
1418 1 59.0613 13.0542 771 108.04 1100.13 478.79
1419 0 64.0733 14.2805 915 104.42 1100.97 479.812
1420 0 67.1767 16.6576 1119 100.116 1101.4 476.298
1421 0 67.1018 15.8714 1065 101.944 1101.1 476.296
1422 0 70.1329 15.5989 1094 103.023 1101.1 476.942
1423 0 73.1843 14.2517 1043 105.604 1100.65 475.485
1424 0 73.1451 14.6285 1070 106.204 1101.51 472.895
1425 0 76.2909 16.0832 1227 104.114 1101.49 471.95
1426 0 79.227 15.5376 1231 106.569 1101.96 471.74
1427 0 82.2081 16.215 1333 106.042 1102.68 468.367
1428 0 86.2379 16.2226 1399 106.816 1102.22 465.99
1429 0 88.1171 15.7858 1391 108.111 1102.56 467.283
1430 0 90.2062 15.0987 1362 112.662 1102.11 463.416
1431 0 94.1662 16.1629 1522 110.085 1101.58 462.953
1432 0 96.2456 14.5773 1403 114.503 1102.06 460.641
1433 0 101.249 15.3878 1558 112.541 1101.79 459.047
1434 0 106.185 15.6991 1667 112.238 1101.48 455.873
1435 1 59.0715 14.7787 873 114.953 1101.6 475.211
1436 0 61.0773 15.2757 933 109.736 1100.8 476.615
1437 0 63.0707 14.1746 894 110.861 1101.26 477.681
1438 0 66.2129 14.8762 985 110.469 1100.7 474.431
1439 0 68.2518 14.1974 969 112.405 1100.66 474.372
1440 0 71.1808 15.0462 1071 109.949 1100.97 472.194
1441 0 71.199 13.8204 984 114.968 1100.95 470.05
1442 0 76.2308 14.4299 1100 112.335 1101.1 469.549
1443 0 77.117 14.0177 1081 114.141 1101.1 468.131
1444 0 82.1063 15.3094 1257 110.422 1101.5 466.232
1445 0 83.1739 15.173 1262 112.577 1100.81 464.652
1446 0 88.2368 14.9257 1317 111.85 1101.24 464.58
1447 0 91.1617 16.8931 1540 109.345 1101.39 459.614
1448 0 94.2326 14.8462 1399 112.513 1101.39 459.542
1449 0 97.2488 15.1364 1472 112.082 1101.14 457.919
1450 0 99.2458 15.7286 1561 110.66 1101.38 457.386
1451 0 103.522 15.3976 1594 110.772 1101.49 457.366
1452 1 54.1497 13.5919 736 116.673 1101.51 477.36
1453 0 54.1228 13.8204 748 116.77 1101.38 477.128
1454 0 58.059 14.7092 854 114.225 1101.15 476.119
1455 0 58.1023 14.4917 842 115.144 1101.16 476.038
1456 0 61.2272 14.879 911 114.29 1100.97 474.508
1457 0 64.1254 14.4872 929 113.915 1101.39 473.763
1458 0 67.2651 15.4909 1042 110.989 1101.52 471.458
1459 0 68.0256 14.9503 1017 112.976 1100.65 469.562
1460 0 71.1375 15.2803 1087 111.677 1101.72 469.408
1461 0 74.2553 14.7599 1096 112.391 1101.47 467.18
1462 0 77.1826 14.9127 1151 111.408 1101.05 467.483
1463 0 81.1202 15.2243 1235 109.431 1100.96 466.241
1464 0 84.1705 15.5993 1313 108.545 1101.47 462.481
1465 0 87.1028 15.5448 1354 108.202 1101.89 462.849
1466 0 89.2198 14.0216 1251 112.018 1101.28 459.106
1467 0 93.1175 15.2925 1424 108.073 1101.8 459.452
1468 0 97.0951 16.0049 1554 107.81 1101.02 455.499
1469 0 99.2242 15.8631 1574 107.753 1102.25 454.057
1470 0 104.275 15.0755 1572 109.035 1101.12 453.44
1471 0 108.456 17.0207 1846 104.33 1100.98 452.861
1472 0 113.344 15.7308 1783 107.839 1100.39 447.149
1473 0 117.218 17.5996 2063 102.397 1100.6 447.126
1474 0 123.253 15.594 1922 106.009 1100.23 442.989
1475 1 63.1634 12.9664 819 106.488 1100.49 470.912
1476 0 65.13 13.7878 898 104.914 1100.39 467.292
1477 0 70.289 15.2798 1074 100.014 1101.58 473.553
1478 0 72.1029 13.9107 1003 103.116 1101.17 471.859
1479 0 75.2153 14.3189 1077 101.734 1101.38 470.609
1480 0 77.3126 14.9264 1154 100.335 1101.54 469.601
1481 0 81.1929 15.5802 1265 99.4956 1100.93 467.21
1482 0 82.2216 13.7555 1131 103.472 1100.78 466.437
1483 0 85.2574 13.1367 1120 104.764 1101.25 463.686
1484 0 89.2006 14.5963 1302 101.818 1100.88 463.037
1485 0 91.2136 14.3619 1310 102.164 1101.13 460.723
1486 0 95.1974 14.0235 1335 102.348 1100.64 460.475
1487 0 101.179 14.7165 1489 100.308 1100.68 458.101
1488 0 102.264 15.4991 1585 100.063 1101.21 456.386
1489 0 105.199 15.4279 1623 100.359 1100.56 456.016
1490 0 108.247 14.0974 1526 102.636 1100.78 454.728
1491 0 111.305 14.6175 1627 103.023 1100.69 452.122
1492 0 115.203 14.9302 1720 103.923 1100.87 447.134
1493 0 121.359 14.659 1779 105.246 1100.69 446.655
1494 0 122.295 14.187 1735 108.535 1100.62 445.141
1495 0 128.189 15.3679 1970 106.75 1100.06 442.6
1496 0 136.256 15.8525 2160 104.547 1100.08 440.413
1497 0 139.266 14.8134 2063 106.39 1100.45 439.125
1498 0 146.257 16.0266 2344 103.244 1100.52 437.487
1499 0 151.352 14.8991 2255 105.784 1099.98 432.405
1500 0 157.374 14.1892 2233 112.754 1100.38 427.743
1501 1 86.1012 13.5306 1165 105.565 1100.63 461.844
1502 0 94.1888 13.6534 1286 102.25 1100.3 464.026
1503 0 95.1706 14.1745 1349 102.179 1100.09 461.849
1504 0 97.1952 13.6632 1328 96.9842 1100.25 461.467
1505 0 98.2235 12.7872 1256 101.086 1101.26 460.057
1506 0 98.2118 12.3305 1211 104.322 1101.24 461.679
1507 0 99.2146 12.4578 1236 106.122 1101.45 459.375
1508 0 102.165 14.1046 1441 104.929 1100.88 457.274
1509 0 102.288 12.6896 1298 109.672 1101.05 457.767
1510 0 104.177 12.9683 1351 109.628 1100.48 455.509
1511 0 110.14 14.0639 1549 105.147 1100.24 455.45
1512 0 116.257 13.3325 1550 103.015 1100.18 454.766
1513 0 120.264 11.9321 1435 103.423 1099.72 454.431
1514 0 124.152 13.5077 1677 100.763 1099.57 451.043
1515 0 128.271 12.918 1657 100.38 1099.76 449.593
1516 0 132.304 14.7463 1951 96.1625 1100.37 447.026
1517 1 69.0434 12.9339 893 98.9754 1100.07 475.083
1518 0 68.0554 10.1829 693 103.349 1099.57 479.405
1519 0 73.1829 11.4508 838 100.704 1099.87 477.928
1520 0 75.2663 12.7946 963 101.021 1099.36 473.44
1521 0 77.1987 12.5132 966 102.376 1099.69 474.377
1522 0 77.1442 12.3794 955 104.338 1099.4 472.178
1523 0 83.1545 13.3005 1106 102.355 1099.77 469.972
1524 0 85.4775 13.1029 1120 104.778 1099.72 470.266
1525 0 84.3348 12.7468 1075 107.85 1099.61 467.851
1526 0 88.1064 13.0524 1150 107.247 1100.02 467.505
1527 0 91.3375 12.722 1162 108.021 1099.61 465.886
1528 0 93.2274 14.234 1327 106.234 1100.31 464.398
1529 0 96.2326 12.7711 1229 109.6 1100.14 461.824
1530 0 100.491 12.8966 1296 108.779 1100.41 460.382
1531 0 100.409 11.5727 1162 112.824 1100.18 456.176
1532 1 56.3112 11.1701 629 105.041 1100.43 481.747
1533 0 58.3332 11.6743 681 109.907 1099.65 482.192
1534 0 62.0834 12.4188 771 109.506 1099.88 484.302
1535 0 64.1575 12.9837 833 108.442 1099.99 485.022
1536 0 64.1115 13.0866 839 110.068 1099.47 481.609
1537 0 64.1098 12.385 794 113.194 1099.68 479.681
1538 0 68.1075 13.9192 948 109.406 1099.92 480.588
1539 0 69.1325 12.3965 857 112.733 1100.63 481.505
1540 0 71.1248 14.3832 1023 110.718 1099.82 478.203
1541 0 74.1508 12.6634 939 114.46 1100.16 478.774
1542 0 76.2285 13.3808 1020 112.931 1101.01 477.744
1543 0 76.2298 12.1081 923 115.936 1100.66 477.215
1544 0 80.1486 12.5143 1003 114.99 1100.33 474.366
1545 0 84.2217 14.2006 1196 112.796 1099.77 473.938
1546 0 86.2808 13.5256 1167 114.176 1100.62 472.573
1547 0 89.2004 14.1143 1259 113.415 1100.25 470.983
1548 0 91.1554 13.1205 1196 115.504 1099.88 471.146
1549 0 93.1623 13.3852 1247 115.375 1099.66 467.52
1550 0 96.1929 13.0571 1256 116.105 1099.77 467.736
1551 1 47.0225 9.10202 428 114.18 1100.09 491.776
1552 0 49.1192 12.2966 604 107.836 1099.55 489.637
1553 0 51.0992 12.9943 664 106.437 1098.77 487.277
1554 0 54.0421 12.8418 694 106.569 1099.28 487.099
1555 0 54.163 13.3301 722 106.313 1099.08 487.512
1556 0 57.0956 11.6646 666 108.372 1099.04 487.566
1557 0 58.1921 13.3008 774 105.233 1099.07 485.662
1558 0 61.0852 13.0965 800 105.231 1098.91 484.204
1559 0 62.1273 14.6795 912 103.864 1099.3 481.482
1560 0 63.0706 12.811 808 107.588 1098.97 482.989
1561 0 66.0855 12.3174 814 108.318 1099.16 481.052
1562 0 68.1019 13.4358 915 105.054 1098.84 481.773
1563 0 70.1258 13.3047 933 106.02 1098.99 478.295
1564 0 74.2587 13.8704 1030 104.706 1098.95 476.602
1565 0 75.063 14.4146 1082 104.298 1099.14 476.001
1566 0 77.1232 13.8998 1072 106.009 1098.88 475.821
1567 0 80.1146 14.3544 1150 105.764 1098.9 472.197
1568 0 83.1966 13.5703 1129 108.207 1098.76 471.092
1569 0 85.2594 13.0308 1111 113.459 1098.67 468.688
1570 0 87.2263 14.2618 1244 111.133 1098.58 468.927
1571 0 93.2418 13.6956 1277 111.232 1098.59 467.089
1572 0 96.2201 13.6978 1318 111.686 1098.45 465.63
1573 0 99.1258 13.3063 1319 111.955 1097.68 465.193
1574 0 103.301 13.1654 1360 110.721 1098.43 465.595
1575 0 108.155 14.6456 1584 106.539 1098.84 462.874
1576 1 54.0833 12.5732 680 104.597 1099.28 489.788
1577 0 58.0777 15.1349 879 98.5927 1099.08 484.812
1578 0 58.108 13.5093 785 102.057 1098.37 484.234
1579 0 61.1074 13.6154 832 100.125 1098.47 485.094
1580 0 63.201 12.5789 795 103.997 1098.18 484.499
1581 0 67.1066 14.9315 1002 102.334 1098.23 480.673
1582 0 66.1221 14.3825 951 104.164 1098.45 480.733
1583 0 69.1081 13.2691 917 107.007 1098.36 479.746
1584 0 73.1937 12.9656 949 106.959 1098.46 476.885
1585 0 74.0767 12.9865 962 107.748 1098.76 477.238
1586 0 78.0844 14.5612 1137 105.464 1098.91 475.601
1587 0 78.1642 14.3928 1125 106.953 1098.47 476.037
1588 0 82.1031 13.8241 1135 108.479 1099.18 473.841
1589 0 84.0954 14.3528 1207 108.287 1098.7 471.935
1590 0 88.214 14.1361 1247 108.724 1098.66 470.336
1591 0 91.1166 14.9369 1361 107.411 1098.2 469.284
1592 0 89.1769 12.5145 1116 114.289 1099.06 467.016
1593 0 94.1078 13.8246 1301 110.473 1099.01 466.788
1594 0 97.1783 14.3345 1393 109.55 1099.65 465.284
1595 0 103.087 14.4926 1494 108.869 1099.43 463.299
1596 1 50.0445 11.4098 571 109.168 1099.79 488.012
1597 0 53.1981 12.5944 670 107.051 1099.19 486.924
1598 0 53.0392 13.8765 736 100.253 1099.2 486.298
1599 0 57.061 13.95 796 99.4234 1099.51 486.138
1600 0 56.048 13.0245 730 102.475 1099.97 485.86
1601 0 60.0965 12.7129 764 102.444 1099.12 484.102
1602 0 62.0991 12.2546 761 103.748 1098.49 482.296
1603 0 66.1036 14.7798 977 98.478 1098.96 482.199
1604 0 65.1334 12.7277 829 103.218 1099.07 483.349
1605 0 68.0824 13.8215 941 101.023 1098.63 483.593
1606 0 67.1075 13.1282 881 104.415 1098.9 480.654
1607 0 70.1522 14.2405 999 103.176 1098.67 478.704
1608 0 77.2084 14.5839 1126 100.761 1098.31 478.249
1609 0 77.1029 12.9308 997 105.192 1098.42 476.147
1610 0 78.1483 14.2294 1112 104.377 1098.56 472.531
1611 0 83.1109 14.1377 1175 104.019 1098.09 473.668
1612 0 86.2222 15.0193 1295 102.329 1098.58 470.437
1613 0 89.3607 15.9578 1426 101.672 1099.03 469.417
1614 0 92.2943 15.3856 1420 103.618 1098.5 467.908
1615 0 95.3146 15.8633 1512 102.596 1097.89 466.451
1616 0 97.2043 13.8368 1345 108.425 1098.41 465.782
1617 0 103.1 14.1125 1455 106.255 1098.8 464.28
1618 0 106.141 15.1496 1608 104.79 1099.22 462.04
1619 1 56.1115 11.8336 664 104.259 1099.81 486.37
1620 0 58.1452 12.7955 744 101.216 1099.11 486.534
1621 0 57.1089 13.0803 747 100.313 1098.21 483.558
1622 0 62.1437 13.2757 825 97.8061 1097.97 485.27
1623 0 61.0686 13.1655 804 98.8122 1098.21 484.811
1624 0 63.1508 12.4147 784 100.505 1098.32 483.439
1625 0 67.1194 13.1408 882 98.1463 1098.76 482.356
1626 0 66.1269 12.2794 812 100.707 1098.47 482.32
1627 0 71.1894 13.0918 932 99.4442 1099.18 480.383
1628 0 72.1087 13.9789 1008 98.5893 1099.23 477.575
1629 0 77.0891 12.6218 973 99.5231 1099.19 478.442
1630 0 80.1489 12.9259 1036 100.378 1099.3 474.564
1631 0 80.214 11.6937 938 104.205 1099.07 474.461
1632 0 82.0806 12.1466 997 103.527 1098.81 472.642
1633 1 44.1959 12.241 541 98.0222 1099.06 492.53
1634 0 46.1552 12.5013 577 96.078 1099.14 492.121
1635 0 49.1498 13.0418 641 96.3573 1099.35 490.727
1636 0 50.0955 13.2746 665 96.0767 1098.83 489.359
1637 0 49.0876 12.712 624 98.766 1098.8 491.016
1638 0 53.0822 13.3755 710 96.4577 1098.51 489.242
1639 0 54.0352 12.8805 696 94.9009 1098.41 491.073
1640 0 54.148 12.5028 677 95.9306 1098.98 489.276
1641 0 58.134 12.4024 721 97.3981 1098.36 486.197
1642 0 59.1529 12.4085 734 96.97 1098.25 485.733
1643 0 60.0912 12.1981 733 96.9809 1097.69 486.033
1644 0 62.2273 11.2009 697 98.1765 1098.49 483.677
1645 0 63.1086 11.5198 727 97.0179 1098.08 484.091
1646 0 67.3126 12.4939 841 94.8704 1098.43 482.634
1647 0 67.0899 12.595 845 95.6509 1097.63 482.787
1648 0 70.0936 11.8698 832 96.7236 1097.68 479.636
1649 0 70.1997 12.4217 872 96.5975 1097.78 478.092
1650 0 77.1773 10.7285 828 98.6365 1097.72 475.652
1651 0 79.082 12.0381 952 97.5861 1098.22 473.381
1652 0 86.2143 12.9909 1120 96.375 1098.64 471.727
1653 1 49.0754 12.2465 601 92.975 1097.9 490.072
1654 0 51.0966 13.5234 691 90.1838 1097.86 490.716
1655 0 52.041 12.8745 670 91.9313 1097.86 487.557
1656 0 51.2376 11.4174 585 94.747 1099.18 488.395
1657 0 52.1681 12.0188 627 94.6858 1098.37 487.539
1658 0 55.3103 12.3847 685 93.9766 1097.37 485.851
1659 0 57.2998 12.6353 724 93.1782 1098.33 484.994
1660 0 58.1329 11.7489 683 93.8565 1098.55 486.691
1661 0 61.3713 12.1718 747 93.071 1098.54 483.843
1662 0 62.1438 11.6182 722 94.3726 1097.75 482.799
1663 0 64.2465 12.7166 817 92.6291 1097.88 482.924
1664 0 68.1635 13.2916 906 91.5177 1098.68 482.117
1665 0 70.2662 12.353 868 95.0369 1097.79 479.181
1666 0 72.4519 12.215 885 98.4825 1097.99 480.062
1667 0 75.1881 13.2734 998 97.1964 1098.11 476.444
1668 0 76.2304 11.544 880 99.7568 1099.19 475.649
1669 0 80.2272 13.3496 1071 96.4771 1099.12 475.441
1670 0 82.3381 12.6794 1044 99.3544 1099.36 472.383
1671 0 84.3177 14.4335 1217 97.0559 1099.16 471.733
1672 0 89.3716 13.3935 1197 98.2957 1098.94 469.231
1673 0 90.4013 12.2786 1110 101.095 1099.47 468.062
1674 0 96.1512 13.1148 1261 101.102 1098.57 466.594
1675 1 49.1322 11.6624 573 96.637 1098.84 489.328
1676 0 49.2944 11.1574 550 102.78 1098.35 487.947
1677 0 52.2851 14.3827 752 97.3936 1098.14 486.41
1678 0 53.1358 13.1173 697 99.2539 1098.51 486.776
1679 0 55.1434 13.7641 759 98.0171 1097.89 486.64
1680 0 56.0695 12.1813 683 99.9048 1098.7 485.22
1681 0 61.0383 13.8601 846 96.4657 1098.45 483.861
1682 0 61.0989 13.5845 830 98.2096 1099.05 483.106
1683 0 62.1735 14.5882 907 97.7993 1098.74 480.948
1684 0 63.2992 13.6179 862 100.862 1098.96 479.774
1685 0 66.2983 13.9219 923 100.054 1098.68 478.987
1686 0 70.191 14.3466 1007 99.4419 1098.93 478.591
1687 0 71.1955 14.7341 1049 100.54 1098.7 477.174
1688 0 72.4152 12.9669 939 103.917 1099.08 477.06
1689 0 76.3802 14.2183 1086 102.305 1098.63 475.55
1690 0 76.2443 12.9059 984 106.401 1098.8 474.475
1691 0 79.3538 12.9294 1026 107.663 1098.99 472.753
1692 0 83.3178 14.7628 1230 105.35 1099 471.331
1693 0 87.3583 14.6866 1283 106.026 1099.28 467.876
1694 0 89.3558 14.5374 1299 107.236 1098.6 467.239
1695 0 90.4132 14.3231 1295 109.235 1098.18 466.744
1696 1 48.1915 11.9731 577 107.324 1099.36 487.083
1697 0 53.2063 13.3067 708 104.655 1098.84 485.698
1698 0 54.1271 14.5398 787 103.718 1098.99 486.351
1699 0 56.123 14.1653 795 104.59 1099.04 487.762
1700 0 58.0538 14.521 843 104.496 1099.39 486.726
1701 0 59.1115 13.7368 812 107.144 1099.36 483.851
1702 0 63.1022 13.9932 883 106.335 1098.89 483.703
1703 0 63.274 15.0141 950 106.399 1099.52 479.06
1704 0 68.2946 15.8724 1084 102.899 1100 479.927
1705 0 69.4716 15.1861 1055 102.616 1099.67 476.754
1706 0 71.2447 14.7099 1048 104.912 1099.52 475.408
1707 0 74.3308 14.1126 1049 105.797 1099.23 474.735
1708 0 75.3982 14.2444 1074 106.927 1099.51 474.59
1709 0 79.3747 15.0174 1192 104.95 1099.79 475.114
1710 0 80.1358 14.6377 1173 106.108 1099.18 475.675
1711 0 84.2658 14.9289 1258 106.135 1098.85 472.403
1712 0 85.2266 15.2769 1302 107.803 1098.74 471.616
1713 0 87.1057 14.3159 1247 110.518 1099.39 470.642
1714 0 91.1795 14.3015 1304 110.823 1098.88 469.609
1715 0 95.2129 13.7796 1312 111.114 1098.98 469.087
1716 0 98.3156 14.4433 1420 110.671 1098.25 463.644
1717 0 101.237 14.4907 1467 110.384 1098.42 465.125
1718 1 55.14 12.6224 696 105.77 1098.69 486.862
1719 0 54.2327 14.3272 777 105.218 1098.66 485.251
1720 0 56.0888 13.7282 770 109.632 1097.99 483.377
1721 0 58.0798 13.1887 766 109.894 1098.13 485.03
1722 0 60.0677 13.2018 793 110.858 1098.19 482.518
1723 0 64.0408 15.0061 961 106.298 1098.14 481.18
1724 0 67.1371 14.031 942 108.343 1098.04 481.021
1725 0 67.0924 13.9807 938 110.51 1097.71 479.017
1726 0 71.2494 15.2703 1088 108.293 1097.07 477.575
1727 0 72.3643 13.9019 1006 112.806 1097.44 476.077
1728 0 74.2424 13.7388 1020 113.563 1096.88 476.712
1729 0 78.1418 14.5249 1135 112.461 1097.39 474.421
1730 0 78.1533 14.5227 1135 114.701 1097.07 473.273
1731 0 79.1956 13.5866 1076 118.728 1097.16 471.533
1732 0 84.3365 14.6674 1237 114.934 1097.27 469.561
1733 0 86.3181 14.3423 1238 116.582 1097.88 466.384
1734 0 91.1929 14.5077 1323 115.434 1097.2 467.853
1735 0 93.3298 14.3041 1335 117.187 1097.48 464.064
1736 0 97.1646 15.2113 1478 116.228 1097.3 461.827
1737 0 99.0975 14.2284 1410 118.316 1097.51 460.295
1738 1 56.0527 11.5962 650 116.568 1096.57 484.734
1739 0 58.0995 13.5629 788 114.641 1097.2 482.747
1740 0 60.1027 13.9262 837 109.829 1098.03 482.953
1741 0 63.0393 13.0712 824 112.525 1098.35 482.394
1742 0 64.2094 13.8453 889 111.263 1098.79 482.497
1743 0 68.1402 15.0572 1026 107.962 1099.56 478.828
1744 0 69.1464 13.9848 967 112.368 1098.9 476.626
1745 0 70.0342 14.65 1026 111.949 1098.36 477.121
1746 0 73.2038 14.1796 1038 109.867 1098.68 480.034
1747 0 76.1223 15.7772 1201 107.059 1098.08 477.614
1748 0 77.1408 14.6874 1133 111.017 1098.06 476.098
1749 0 79.1198 15.3438 1214 110.245 1098.51 474.929
1750 0 81.0803 14.2328 1154 112.146 1098.88 473.124
1751 0 85.104 14.5117 1235 111.72 1098.79 471.249
1752 0 87.1016 14.5347 1266 113.836 1098.3 470.216
1753 0 94.1759 17.1806 1618 109.2 1099.08 465.968
1754 0 96.1987 17.7341 1706 108.805 1098.95 464.125
1755 0 97.1911 15.7422 1530 114.401 1098.43 464.293
1756 0 99.3013 16.0421 1593 114.959 1098.15 462.367
1757 0 101.141 14.5837 1475 116.323 1098.46 464.442
1758 0 103.165 14.472 1493 112.888 1098.45 462.77
1759 0 108.099 13.9687 1510 114.877 1098.21 458.556
1760 0 112.199 13.8236 1551 119.328 1098.34 458.182
1761 1 65.0643 12.8949 839 108.728 1099 482.402
1762 0 66.065 13.3959 885 109.899 1098.36 480.584
1763 0 67.0589 12.4666 836 113.08 1097.5 481.138
1764 0 71.0418 13.9918 994 109.629 1097.89 480.931
1765 0 71.1536 13.3655 951 112.972 1098.35 477.407
1766 0 76.0694 13.79 1049 110.718 1098.22 478.598
1767 0 78.1128 12.9556 1012 112.293 1098.2 477.621
1768 0 82.0886 13.79 1132 111.748 1097.99 474.015
1769 0 82.2561 13.227 1088 112.748 1097.88 473.871
1770 0 86.1854 14.376 1239 110.418 1098.11 470.684
1771 0 89.2216 14.1109 1259 111.137 1098.28 468.774
1772 0 91.123 14.5737 1328 109.75 1098.31 469.919
1773 0 96.0813 16.1426 1551 106.041 1097.99 467.219
1774 0 97.1852 13.7264 1334 110.315 1098.3 467.282
1775 0 100.075 14.1094 1412 109.555 1097.68 464.336
1776 0 104.085 13.9309 1450 108.594 1097.94 462.466
1777 0 108.421 13.8535 1502 106.876 1098.28 461.508
1778 0 111.222 13.5585 1508 107.475 1098.37 458.429
1779 0 117.194 14.2584 1671 104.968 1098.52 455.876
1780 0 120.288 12.9273 1555 108.625 1098.98 454.828
1781 1 65.0781 11.8319 770 110.134 1097.77 477.765
1782 0 71.1678 12.2527 872 107.662 1097.74 476.507
1783 0 71.164 13.1387 935 100.883 1097.47 476.527
1784 0 73.1753 12.2172 894 102.991 1097.38 474.311
1785 0 78.0432 11.6602 910 102.384 1098.07 475.858
1786 0 79.0844 13.3528 1056 100.821 1097.67 470.974
1787 0 82.2115 12.2611 1008 101.831 1098.22 471.256
1788 0 86.3834 12.3172 1064 101.783 1098.28 467.81
1789 0 86.2746 11.9502 1031 102.113 1098.47 467.625
1790 0 89.1898 12.5911 1123 100.921 1098.87 467.712
1791 0 92.1266 11.8967 1096 101.925 1098.68 465.516
1792 0 96.1004 12.2164 1174 102.044 1098.4 463.951
1793 0 99.3376 10.6707 1060 102.645 1098.12 462.003
1794 0 99.3376 10.6807 1061 129.454 1099.12 462.421
1795 0 106.086 12.4805 1324 100.688 1097.9 456.241
1796 0 110.219 11.7402 1294 101.831 1098.1 457.665
1797 1 62.1762 10.7276 667 104.556 1099.56 482.108
1798 0 62.3192 11.2164 699 100.382 1098.46 475.691
1799 0 65.1419 12.1581 792 103.703 1099.51 480.184
1800 0 66.1332 12.0061 794 95.9068 1098.78 480.212
1801 0 67.0549 10.2304 686 98.7638 1099.41 481.312
1802 0 70.0929 11.2565 789 97.346 1098.6 479.409
1803 0 73.1614 11.7412 859 98.1071 1098.5 477.278
1804 0 75.131 10.5416 792 101.534 1098.62 473.759
1805 0 76.1247 12.2825 935 98.4599 1099.34 475.333
1806 0 81.1038 13.156 1067 98.6476 1098.82 472.113
1807 0 85.1494 13.5057 1150 99.0078 1098.51 471.079
1808 0 86.2149 13.6867 1180 99.7932 1099.08 469.675
1809 0 87.2328 12.736 1111 104.338 1099.14 469.586
1810 0 91.2102 14.0006 1277 102.578 1099.18 466.885
1811 0 93.209 12.3057 1147 106.148 1098.82 466.855
1812 0 97.1896 13.3862 1301 104.011 1098.99 462.068
1813 0 102.239 15.904 1626 99.0215 1099.26 462.08
1814 0 104.188 13.3988 1396 104.295 1098.9 461.27
1815 0 107.3 13.7278 1473 104.122 1098.73 461.012
1816 0 111.294 14.6729 1633 103.309 1098.23 457.053
1817 1 60.1563 12.3512 743 97.1521 1098.82 484.37
1818 0 61.2109 13.0205 797 95.9975 1099.82 485.208
1819 0 65.2676 13.2684 866 96.045 1099.58 483.864
1820 0 67.1098 14.0069 940 104.629 1098.36 481.639
1821 0 71.311 13.1537 938 104.952 1098.05 480.52
1822 0 72.1661 14.1479 1021 103.97 1098.3 478.976
1823 0 73.279 13.8512 1015 105.024 1098.58 475.97
1824 0 76.2862 14.1048 1076 103.887 1098.77 476.205
1825 0 78.1457 13.0525 1020 105.712 1097.99 477.299
1826 0 80.2599 13.1323 1054 103.855 1098.34 475.317
1827 0 83.1474 13.903 1156 101.651 1099.22 472.651
1828 0 83.4064 13.3203 1111 103.258 1098.77 469.568
1829 0 87.1035 12.0431 1049 102.672 1098.86 471.663
1830 0 90.3054 13.1554 1188 100.01 1099.39 469.719
1831 0 93.202 12.7358 1187 101.223 1099.14 466.192
1832 0 94.1753 13.2413 1247 100.602 1098.85 467.388
1833 0 99.2672 13.2672 1317 99.3622 1099.97 463.764
1834 0 101.157 13.3357 1349 100.423 1099.6 461.774
1835 0 104.154 11.771 1226 102.569 1099.03 462.356
1836 0 107.276 12.5936 1351 101.587 1098.59 460.559
1837 0 111.131 12.3188 1369 102.354 1098.93 459.478
1838 0 115.248 13.7789 1588 101.025 1098.85 455.452
1839 1 60.1795 12.9114 777 95.9575 1098.47 484.391
1840 0 61.092 13.9789 854 95.0656 1098.31 483.868
1841 0 63.0665 13.6523 861 96.5331 1098.15 481.606
1842 0 63.1014 13.5338 854 99.3349 1098.16 481.283
1843 0 66.1142 12.9019 853 99.68 1098.11 482.966
1844 0 67.1843 13.7532 924 99.7695 1098.61 479.639
1845 0 70.512 14.5365 1025 98.7376 1098.65 480.158
1846 0 74.2974 13.5133 1004 101.393 1098.46 478.251
1847 0 74.2297 13.7815 1023 102.017 1098.48 477.762
1848 0 77.289 14.0512 1086 101.773 1098.89 478.041
1849 0 81.1249 14.5701 1182 101.074 1098.64 475.395
1850 0 83.3359 14.1956 1183 102.2 1098.43 473.364
1851 0 87.4811 14.3117 1252 103.159 1097.99 471.356
1852 0 89.1456 14.4483 1288 104.257 1097.81 470.981
1853 0 91.3387 14.1999 1297 105.957 1098.31 468.91
1854 0 96.2934 14.757 1421 108.802 1098.26 465.64
1855 0 98.1785 14.2699 1401 109.231 1098.61 466.072
1856 0 100.194 14.6616 1469 108.264 1099.06 462.052
1857 0 103.322 15.5824 1610 105.543 1098.73 460.39
1858 0 107.338 14.5707 1564 107.24 1098.51 460.407
1859 0 112.329 14.4753 1626 107.148 1098.4 457.621
1860 0 116.294 13.8528 1611 107.873 1098.52 455.832
1861 0 120.216 13.2677 1595 109.214 1098.62 452.779
1862 0 120.249 12.9481 1557 109.462 1098.83 456.916
1863 0 121.201 11.4933 1393 111.225 1098.21 458.265
1864 0 122.446 11.8011 1445 109.287 1098.6 460.798
1865 0 123.28 11.8835 1465 110.737 1098.73 460.966
1866 1 70.0658 15.043 1054 105.471 1097.91 479.424
1867 0 73.1223 15.098 1104 105.764 1098.14 477.958
1868 0 75.0886 15.555 1168 104.654 1098.59 475.97
1869 0 78.2029 15.1401 1184 105.498 1098.65 475.85
1870 0 80.1619 15.9926 1282 104.406 1098.25 473.8
1871 0 82.1934 14.8674 1222 107.189 1098.25 472.011
1872 0 85.1098 15.1334 1288 104.085 1099.24 471.491
1873 0 90.1912 16.587 1496 100.862 1098.9 468.682
1874 0 90.3676 15.7468 1423 103.595 1099 467.318
1875 0 92.2422 13.7789 1271 106.84 1098.86 467
1876 0 96.1868 15.6362 1504 103.567 1098.78 466.04
1877 0 101.176 14.8355 1501 103.562 1099.03 463.656
1878 0 106.101 15.9187 1689 100.586 1099.63 460.563
1879 0 110.127 14.2563 1570 103.131 1098.5 463.676
1880 0 115.191 15.9822 1841 100.519 1098.01 458.482
1881 1 65.2594 13.408 875 109.062 1098.5 483.093
1882 0 68.057 15.1491 1031 105.408 1098.29 482.088
1883 0 70.0534 14.7887 1036 106.889 1098.11 480.135
1884 0 72.1073 15.6711 1130 105.943 1098.37 478.183
1885 0 74.098 14.2784 1058 108.879 1098.67 475.717
1886 0 78.221 15.5457 1216 107.002 1098.29 473.836
1887 0 79.3567 14.983 1189 109.04 1098.7 473.069
1888 0 83.2045 14.5064 1207 109.43 1098.89 473.394
1889 0 84.2342 14.6852 1237 110.461 1098.23 472.696
1890 0 89.2114 16.5786 1479 106.325 1098.53 471.277
1891 0 90.2038 13.5471 1222 114.098 1098.88 468.78
1892 0 93.5097 15.6347 1462 109.687 1099.43 467.057
1893 0 96.4231 16.1061 1553 108.903 1098.65 463.636
1894 0 98.4717 15.9843 1574 109.778 1098.81 462.764
1895 0 101.171 15.8445 1603 111.182 1098.49 458.655
1896 0 107.358 15.8162 1698 109.769 1099.22 462.785
1897 0 109.351 15.6378 1710 111.445 1099.33 459.539
1898 0 114.272 14.623 1671 113.693 1099.34 459.051
1899 0 116.373 15.2527 1775 112.162 1098.91 456.534
1900 0 119.511 14.9275 1784 110.674 1098.87 456.017
1901 0 125.052 16.2653 2034 107.899 1099.2 451.414
1902 0 128.393 14.9463 1919 110.793 1099.61 451.162
1903 1 74.2842 13.758 1022 113.674 1099.06 475.703
1904 0 76.4939 15.2823 1169 111.448 1099.08 473.824
1905 0 78.417 14.7927 1160 113.171 1099.45 472.585
1906 0 80.2392 16.563 1329 110.83 1099.46 470.853
1907 0 84.2805 15.3772 1296 113.273 1098.85 469.215
1908 0 85.2096 15.057 1283 115.444 1098.31 468.032
1909 0 86.3217 14.1679 1223 118.019 1098.53 466.749
1910 0 87.5039 16.205 1418 116.286 1099.39 467.549
1911 0 89.542 15.4006 1379 121.178 1098.54 466.02
1912 0 93.1868 16.2255 1512 117.858 1098.79 465.492
1913 0 96.1738 16.1063 1549 118.739 1098.61 463.96
1914 0 98.3313 15.1935 1494 120.728 1099.54 461.947
1915 0 102.342 15.6632 1603 119.566 1099.63 458.796
1916 0 108.253 15.9626 1728 118.119 1099.17 457.464
1917 0 111.447 16.546 1844 116.639 1099.26 453.04
1918 0 115.381 15.6525 1806 118.58 1099.02 451.166
1919 1 64.3308 11.0989 714 117.611 1099.71 477.455
1920 0 67.2772 12.9316 870 115.332 1099.07 474.991
1921 0 68.3019 13.5135 923 114.089 1099.39 474.155
1922 0 72.149 15.4541 1115 109.975 1098.99 472.984
1923 0 77.1065 14.0844 1086 115.122 1098.66 472.407
1924 0 78.1658 12.192 953 119.654 1099.25 472.017
1925 0 81.1456 14.1474 1148 114.693 1099 470.044
1926 0 90.3813 17.3266 1566 105.491 1098.93 461.559
1927 0 98.2083 20.7416 2037 94.0653 1099.16 454.602
1928 0 100.559 19.6403 1975 97.8101 1099.1 456.411
1929 0 101.334 20.2105 2048 98.2485 1098.95 455.072
1930 0 104.355 18.6 1941 102.854 1098.91 456.494
1931 0 107.288 17.3924 1866 107.503 1098.54 453.762
1932 0 106.351 16.8499 1792 112.255 1098.74 453.864
1933 0 110.324 15.8624 1750 117.151 1098.78 452.292
1934 0 114.403 16.7129 1912 115.288 1098.72 448.168
1935 1 57.4086 11.8101 678 117.475 1099.18 478.314
1936 0 60.2691 12.0792 728 117.409 1098.88 477.87
1937 0 64.1078 14.1636 908 112.135 1097.62 477.18
1938 0 65.2913 12.36 807 117.437 1097.68 475.798
1939 0 69.0482 13.5702 937 114.261 1097.98 477.053
1940 0 69.0976 12.9237 893 116.915 1097.65 474.626
1941 0 71.0749 13.3943 952 115.845 1097.36 471
1942 0 75.0983 13.0362 979 116.549 1097.1 468
1943 0 79.3791 13.0135 1033 116.113 1097.32 468.702
1944 0 79.1079 13.4626 1065 116.757 1097.02 466.809
1945 0 82.179 14.0547 1155 114.744 1096.6 465.15
1946 0 79.2593 13.2098 1047 118.698 1097.39 454.655
1947 0 84.3747 13.6889 1155 115.946 1098.15 455.737
1948 0 88.1522 12.6486 1115 117.872 1097.94 455.003
1949 0 89.1525 12.9778 1157 117.735 1097.61 454.144
1950 0 92.2057 11.778 1086 121.099 1097 450.056
1951 0 95.2465 12.4204 1183 119.369 1097.01 450.517
1952 0 95.3124 11.3836 1085 122.582 1098.17 446.052
1953 0 99.1745 12.8158 1271 120.271 1097.94 444.798
1954 0 105.146 13.8474 1456 115.679 1098.09 446.071
1955 0 106.225 13.5279 1437 118.264 1097.73 438.218
1956 1 118.251 13.353 1579 115.728 1097.91 438.819
1957 0 116.239 14.3411 1667 114.606 1098.14 436.538
1958 0 125.464 14.036 1761 113.96 1098.3 433.391
1959 0 129.556 14.8971 1930 111.774 1098.25 430.959
1960 0 131.321 13.1053 1721 115.907 1098.23 426.671
1961 0 138.511 14.5548 2016 111.243 1097.81 427.75
1962 1 74.3729 11.3079 841 106.379 1097.29 458.287
1963 0 84.48 13.9796 1181 103.06 1097.76 467.122
1964 0 86.2618 11.5231 994 103.645 1097.3 469.803
1965 0 88.3438 11.942 1055 105.939 1096.96 460.645
1966 0 93.2742 12.4686 1163 102.834 1097.37 463.672
1967 0 95.2875 11.8484 1129 104.742 1097.7 461.139
1968 0 96.3686 14.0398 1353 101.819 1097.1 457.046
1969 0 105.424 15.376 1621 98.7884 1098.13 453.962
1970 0 105.396 13.4255 1415 101.617 1097.75 455.073
1971 0 109.574 14.0909 1544 102.733 1097.94 450.381
1972 0 110.31 13.3624 1474 102.014 1097.33 449.054
1973 0 112.343 12.533 1408 104.462 1097.14 449.681
1974 0 116.284 12.8221 1491 103.654 1097.65 448.635
1975 0 118.324 12.1362 1436 104.573 1097.7 446.241
1976 0 125.383 12.2983 1542 103.671 1097.33 443.361
1977 0 130.444 12.9481 1689 102.26 1096.92 443.551
1978 0 131.41 13.5074 1775 101.955 1097.72 439.838
1979 0 131.41 13.5074 1775 135.281 1098.72 439.981
1980 1 142.489 11.8115 1683 104.889 1096.86 432.704
1981 0 147.326 13.0052 1916 104.165 1096.82 427.962
1982 0 151.422 12.5279 1897 103.405 1097.38 430.829
1983 0 157.397 11.8363 1863 104.793 1097.3 422.469
1984 1 96.2092 12.4416 1197 97.8546 1097.54 463.364
1985 0 100.13 11.6349 1165 100.064 1097.53 463.014
1986 0 98.3277 11.421 1123 93.5877 1097.27 460.972
1987 0 102.402 10.9471 1121 93.9188 1097.41 460.315
1988 0 104.29 10.0489 1048 94.8426 1097.46 458.357
1989 0 108.313 11.2082 1214 94.1845 1097.21 459.264
1990 0 111.393 11.6615 1299 96.5889 1097.52 453.906
1991 0 116.168 11.9912 1393 95.234 1097.32 450.683
1992 0 121.325 13.3773 1623 92.5151 1097.5 450.879
1993 0 126.323 12.3255 1557 95.5819 1097.66 447.517
1994 0 132.304 10.1962 1349 98.7005 1098.25 441.675
1995 0 135.274 11.8353 1601 97.6652 1098.28 439.235
1996 1 80.0902 13.0353 1044 88.5824 1097.56 470.08
1997 0 81.0965 12.442 1009 92.9534 1097.41 469.09
1998 0 83.2675 11.9134 992 93.8478 1097.81 467.521
1999 0 86.1275 11.3669 979 95.4464 1097.56 466.827
2000 0 90.1682 11.4675 1034 94.3781 1097.89 467.283
2001 0 91.2001 11.0636 1009 97.1873 1097.38 464.416
2002 0 94.3616 12.1448 1146 94.2906 1097.4 460.421
2003 0 97.3921 11.9106 1160 95.3655 1097.69 459.546
2004 0 101.239 12.7717 1293 95.7432 1097.46 460.746
2005 0 102.336 12.801 1310 96.7679 1097.03 457.331
2006 0 107.323 13.054 1401 95.0985 1096.9 455.691
2007 0 104.397 13.7457 1435 95.3366 1097.07 454.031
2008 0 109.223 12.3051 1344 97.5878 1096.98 448.805
2009 1 61.1446 9.06048 554 101.753 1097.05 471.141
2010 0 68.1966 9.83919 671 101.109 1098.28 471.478
2011 0 71.1322 13.5241 962 93.9491 1097.94 474.617
2012 0 71.1264 10.9945 782 95.2916 1097.3 474.055
2013 0 71.0989 10.3799 738 96.8577 1097.24 475.014
2014 0 77.2167 13.3391 1030 91.1 1096.94 474.833
2015 0 78.171 11.4876 898 94.2951 1096.63 472.837
2016 0 82.1946 12.9206 1062 91.9021 1096.87 471.892
2017 0 81.352 13.8657 1128 92.2624 1097.45 466.449
2018 0 84.1987 11.651 981 95.0714 1097.21 471.463
2019 0 84.2822 11.5327 972 96.2469 1097.19 465.239
2020 0 88.2418 13.4403 1186 93.0438 1097.03 468.341
2021 0 93.2939 12.3159 1149 95.7476 1097.83 465.645
2022 0 95.2501 13.7008 1305 93.7264 1098.26 464.767
2023 0 97.2676 12.7792 1243 96.1231 1098.19 459.986
2024 0 102.519 13.9779 1433 94.6999 1097.96 461.354
2025 0 105.256 12.8354 1351 97.6136 1097.78 457.598
2026 0 106.345 12.9767 1380 97.587 1097.42 457.796
2027 0 110.318 13.2617 1463 96.3014 1097.57 455.484
2028 0 111.242 13.8078 1536 96.3971 1097.19 452.61
2029 0 112.43 12.4256 1397 98.0909 1097.54 454.363
2030 0 122.298 12.2652 1500 97.4547 1098.1 450.953
2031 0 126.513 12.1252 1534 97.6858 1098.41 446.158
2032 0 121.292 11.3197 1373 98.4807 1098.04 438.908
2033 1 63.3058 12.0526 763 97.3119 1097.34 461.623
2034 0 71.1148 12.5993 896 95.1696 1097.71 474.558
2035 0 74.1387 11.5055 853 97.8277 1097.62 472.585
2036 0 76.0708 11.7785 896 98.8973 1097.16 471.47
2037 0 77.066 11.5615 891 99.8575 1097.1 469.784
2038 0 82.1036 12.6669 1040 97.499 1097.21 467.304
2039 0 83.1149 13.1986 1097 97.1686 1097.31 468.432
2040 0 82.1516 11.8074 970 102.274 1097.67 463.8
2041 0 87.243 13.0555 1139 99.5663 1097.75 461.363
2042 0 91.1263 13.1246 1196 99.1706 1097.53 464.662
2043 0 94.1875 12.9741 1222 99.0835 1098.22 462.284
2044 0 94.183 12.6987 1196 99.9875 1098.21 459.972
2045 0 98.1586 14.3441 1408 97.8345 1097.66 458.461
2046 0 99.2318 12.8789 1278 98.615 1097.82 458.435
2047 0 101.144 12.507 1265 100.816 1097.14 453.217
2048 0 105.231 12.2873 1293 100.589 1097.37 451.113
2049 0 106.217 12.3332 1310 100.727 1097.56 450.763
2050 0 111.277 11.4669 1276 101.776 1097.78 451.382
2051 0 118.19 13.2668 1568 99.3335 1098.44 446.159
2052 0 117.198 11.5531 1354 100.973 1097.61 444.252
2053 0 116.445 13.3024 1549 97.9729 1098.26 436.218
2054 1 67.1524 10.8857 731 96.6512 1098.28 470.109
2055 0 72.0697 11.3501 818 90.4218 1097.27 473.788
2056 0 74.1106 11.1185 824 91.2634 1097.59 473.757
2057 0 76.1236 11.1923 852 91.1373 1097.81 473.178
2058 0 80.1112 11.3967 913 91.1895 1097.26 471.349
2059 0 83.1461 10.8845 905 91.242 1097.48 471.772
2060 0 83.0636 9.92012 824 93.0498 1097.1 470.701
2061 0 87.2093 10.7787 940 92.5755 1096.92 467.069
2062 0 91.0802 11.8247 1077 91.3027 1097.1 468.491
2063 0 92.156 10.8512 1000 93.426 1097.34 465.987
2064 0 95.143 12.9384 1231 89.9634 1097.41 465.196
2065 0 98.09 11.6424 1142 91.1103 1097.28 462.425
2066 0 100.229 11.1844 1121 91.8885 1097.39 462.591
2067 0 102.18 12.0278 1229 91.6021 1097.15 454.589
2068 0 105.167 10.8684 1143 92.2782 1097.34 459.186
2069 0 106.121 9.80009 1040 94.3462 1097.51 456.067
2070 0 110.164 11.6463 1283 92.5721 1096.88 449.994
2071 0 116.249 10.6926 1243 93.1054 1096.99 448.907
2072 0 122.218 11.7249 1433 91.1989 1097.78 448.524
2073 1 69.2248 11.2388 778 88.7635 1097.09 475.887
2074 0 67.1775 11.4622 770 91.5753 1097.41 469.166
2075 0 72.0382 11.2579 811 89.2787 1097.64 476.092
2076 0 70.0926 9.74425 683 92.3294 1097.71 477.29
2077 0 74.0937 10.5002 778 91.1954 1096.97 474.767
2078 0 77.1281 11.3188 873 90.7388 1096.55 471.345
2079 0 78.1412 11.2489 879 90.8817 1096.92 472.283
2080 0 82.2116 11.9083 979 89.6793 1097.03 469.191
2081 0 84.0949 10.9638 922 91.5672 1097.15 467.461
2082 0 87.1887 13.8321 1206 88.6186 1096.69 465.327
2083 0 89.1115 11.1995 998 92.3717 1096.74 467.479
2084 0 91.1372 11.4223 1041 91.8924 1096.6 464.13
2085 0 92.2368 10.2454 945 93.5556 1097.01 460.775
2086 0 95.268 12.1867 1161 91.0749 1096.71 457.756
2087 1 181.672 10.9043 1981 94.742 1097.31 416.75
2088 0 187.74 7.4305 1395 96.7964 1096.72 431.501
2089 1 105.198 10.6466 1120 90.3491 1096.7 457.612
2090 0 107.215 10.5209 1128 90.2101 1096.56 452.477
2091 0 113.305 9.10818 1032 90.8498 1096.96 459.672
2092 0 116.069 9.99402 1160 91.5009 1097.04 457.26
2093 0 122.328 12.2703 1501 90.1379 1097.52 451.773
2094 1 61.1776 8.64695 529 92.1645 1097.65 466.711
2095 0 67.1972 10.0153 673 89.0178 1098.3 470.829
2096 0 69.2395 10.7886 747 87.3842 1096.54 475.265
2097 0 72.323 11.2827 816 87.6716 1096.42 472.751
2098 0 75.1514 11.0045 827 87.769 1096.49 474.053
2099 0 81.1216 12.734 1033 84.8935 1096.58 473.33
2100 0 82.0713 12.4526 1022 85.2926 1096.85 472.878
2101 0 84.1459 11.5989 976 86.4037 1096.95 471.662
2102 0 84.2334 10.0673 848 88.4976 1097.05 470.059
2103 0 91.0923 11.8561 1080 86.8028 1097.56 467.227
2104 0 91.1574 11.0468 1007 87.9037 1097.75 464.214
2105 0 94.1437 12.2154 1150 86.647 1097.45 466.207
2106 0 98.2545 12.3251 1211 86.9694 1096.9 461.571
2107 0 99.1655 12.2926 1219 86.904 1096.85 462.848
2108 0 104.19 11.1527 1162 87.9845 1097.15 459.219
2109 0 108.237 11.401 1234 86.8874 1096.93 462.885
2110 0 111.283 12.0863 1345 87.545 1096.81 453.475
2111 0 116.297 12.2617 1426 87.1956 1097.3 452.079
2112 0 119.161 11.5054 1371 87.477 1096.88 449.754
2113 1 67.0713 11.0927 744 93.8064 1096.18 476.349
2114 0 68.1286 11.8599 808 93.2983 1096.53 476.377
2115 0 70.1293 10.609 744 88.164 1097.25 476.66
2116 0 73.1994 10.0001 732 89.5792 1096.86 475.924
2117 0 74.1125 11.3476 841 89.1843 1097.41 474.798
2118 1 41.1529 6.94969 286 90.7098 1097.83 494.045
2119 0 38.0702 7.67003 292 94.2055 1097.71 485.435
2120 0 42.1228 8.83132 372 92.4247 1097.53 490.992
2121 0 39.056 9.37115 366 94.1557 1098.24 487.139
2122 0 43.0815 9.2151 397 93.8086 1098.24 488.924
2123 0 37.0607 3.77759 140 102.5 1097.73 490.214
2124 0 47.0593 8.41492 396 97.0909 1097.73 485.157
2125 0 50.1197 6.58423 330 100.2 1098.52 488.939
2126 0 52.1362 11.0672 577 95.8718 1097.7 484.744
2127 0 53.0754 9.17563 487 99.039 1098.03 482.466
2128 0 56.3586 10.6816 602 98.8854 1097.2 482.379
2129 0 58.1316 10.3558 602 99.8571 1097.11 483.746
2130 0 58.143 12.1081 704 98.8835 1097.26 482.01
2131 0 61.1603 12.0503 737 99.7517 1096.6 480.128
2132 0 64.1481 9.69632 622 103.564 1096.73 482.604
2133 0 66.145 12.4575 824 100.818 1096.57 478.738
2134 0 64.3677 11.8227 761 101.955 1097.45 478.869
2135 0 71.102 11.5187 819 102.106 1097.16 480.849
2136 0 71.1306 11.3734 809 103.027 1097.06 479.084
2137 0 74.0733 12.5821 932 101.651 1097.4 478.385
2138 0 78.2616 13.0843 1024 100.656 1097.25 478.075
2139 0 80.2259 13.2626 1064 101.461 1096.76 475.336
2140 0 81.1464 13.2723 1077 103.011 1096.94 472.449
2141 0 84.1798 13.8869 1169 102.12 1097.56 471.263
2142 0 86.0928 11.023 949 106.946 1096.94 466.219
2143 0 90.1513 13.3886 1207 102.669 1097.51 467.44
2144 0 93.2481 13.8877 1295 103.439 1096.84 467.015
2145 0 93.1859 12.4268 1158 106.842 1096.33 464.978
2146 0 97.0864 13.3489 1296 104.657 1097.14 463.603
2147 0 102.219 13.5102 1381 103.406 1097.34 464.364
2148 0 104.1 14.5341 1513 105.407 1097.26 460.634
2149 0 107.298 12.8613 1380 107.201 1096.85 461.778
2150 0 115.143 13.2096 1521 106.675 1097.44 458.525
2151 0 117.288 14.0765 1651 106.036 1097.21 457.098
2152 0 122.347 14.1646 1733 105.427 1096.79 454.152
2153 0 123.15 11.0272 1358 109.825 1096.71 455.194
2154 0 128.322 14.0038 1797 105.154 1097.26 449.106
2155 0 131.206 12.0193 1577 108.823 1096.75 445.783
2156 0 134.316 12.761 1714 106.275 1096.85 445.343
2157 1 224.569 13.252 2976 109.994 1096.7 403.565
2158 0 223.9 12.787 2863 111.322 1097.34 399.076
2159 1 245.845 12.2476 3011 110.83 1097.65 398.653
2160 0 248.908 11.3335 2821 112.621 1097.96 395.094
2161 0 254.475 11.1524 2838 113.409 1097.49 393.326
2162 0 257.481 13.8224 3559 109.947 1098.06 387.295
2163 0 248.948 12.6974 3161 111.936 1098.6 399.205
2164 0 246.874 12.8324 3168 112.974 1098.47 394.049
2165 0 256.687 14.0599 3609 112.297 1098.7 383.08
2166 0 262.945 12.6262 3320 116.57 1098.11 381.583
2167 0 262.954 12.5307 3295 141.126 1096.11 381.472
2168 1 208.491 9.80376 2044 112.287 1097.39 420.516
2169 0 211.942 11.3616 2408 110.272 1097.45 409.904
2170 0 210.695 12.8954 2717 108.543 1097.05 402.478
2171 0 308.031 17.8489 5498 106.969 1098.54 342.795
2172 0 316.091 17.9853 5685 105.983 1098.46 336.363
2173 0 327.709 20.1032 6588 102.479 1098.49 331.666
2174 0 332.044 16.4647 5467 113.967 1098.91 331.534
2175 0 339.899 18.2554 6205 110.459 1099.48 320.627
2176 0 341.464 7.04028 2404 125.292 1098.85 361.286
2177 1 306.877 15.3188 4701 107.451 1098.06 355.215
2178 0 349.807 24.7165 8646 90.5382 1099.28 309.198
2179 0 341.012 22.0403 7516 99.3434 1097.78 318.938
2180 1 292.485 8.34572 2441 114.046 1097.22 395.258
2181 0 301.66 10.1074 3049 113.532 1096.83 375.256
2182 0 310.633 9.98286 3101 113.859 1096.59 373.768
2183 0 319.682 19.7227 6305 94.9586 1097.86 335.164
2184 0 326.558 19.4392 6348 96.2905 1097.52 329.663
2185 0 338.499 22.52 7623 91.1287 1097.81 322.411
2186 0 349.77 20.1875 7061 95.9739 1098.38 321.852
2187 0 360.968 20.5226 7408 96.1177 1098.43 310.521
2188 0 372.847 22.2638 8301 94.3537 1097.76 306.515
2189 0 383.069 20.696 7928 99.1355 1098.63 301.892
2190 0 371.303 21.4299 7957 99.6296 1099.33 299.772
2191 0 366.208 19.4589 7126 102.614 1098.89 303.977
2192 0 327.844 26.3204 8629 88.9206 1097.55 325.202
2193 0 333.768 19.3877 6471 96.9141 1098.08 335.008
2194 0 346.331 23.3563 8089 90.5604 1098.02 319.401
2195 0 356.947 21.9697 7842 94.9722 1098.21 315.624
2196 0 369.327 23.5239 8688 93.9926 1098.39 305.261
2197 1 21.0215 5.42303 114 84.4825 1098.59 500.526
2198 0 20.0405 5.63858 113 86.4956 1099.53 498.257
2199 0 18.004 8.55367 154 74.7403 1096.03 496.149
2200 0 14.0014 2.42833 34 84.4118 1096.74 493.529
2201 0 15.0024 3.9327 59 84.5424 1096.75 494.254
2202 0 334.843 18.8596 6315 106.847 1098.59 320.339
2203 0 341.809 22.3546 7641 101.934 1098.21 323.662
2204 0 328.371 20.6565 6783 105.285 1098.98 320.486
2205 0 338.357 20.7355 7016 104.889 1099.03 320.618
2206 0 342.49 22.0182 7541 104.629 1099.15 322.555
2207 0 324.26 13.9456 4522 119.118 1098.88 327.718
2208 1 122.556 8.18402 1003 98.8305 1098.53 452.684
2209 1 65.2331 8.21669 536 98.7836 1098.35 412.183
2210 0 71.2918 9.00524 642 99.1137 1097.85 416.85
2211 0 79.4149 9.77147 776 100.233 1098.03 421.997
2212 0 75.1377 12.5902 946 100.163 1097.81 411.332
2213 0 75.149 10.579 795 98.0428 1098.52 416.141
2214 0 78.0666 11.3877 889 97.6535 1097.67 419.908
2215 0 81.1252 12.6348 1025 96.9385 1097.56 409.351
2216 0 86.1533 11.2822 972 98.2263 1096.96 414.556
2217 1 136.378 7.47921 1020 98.2588 1096.52 467.263
2218 0 138.357 7.71193 1067 97.7395 1098.23 468.149
2219 1 361.252 12.0248 4344 124.019 1098.79 296.325
2220 0 100.283 17.2013 1725 86.713 1098.01 461.184
2221 0 103.353 17.6193 1821 86.9451 1097.65 460.12
2222 0 106.366 17.6373 1876 87.6802 1098.4 458.55
2223 0 110.734 16.4448 1821 90.3372 1097.9 456.858
2224 0 113.503 17.8938 2031 89.416 1098.49 453.757
2225 0 119.861 17.3118 2075 90.9961 1098.05 453.784
2226 0 121.345 16.5974 2014 93.9518 1098.37 449.194
2227 0 126.893 16.6439 2112 95.214 1098.38 447.25
2228 0 130.866 20.1962 2643 88.9421 1098.98 445.4
2229 0 137.514 22.4269 3084 85.7091 1098.58 439.235
2230 0 138.593 17.0138 2358 97.7956 1098.36 437.962
2231 0 142.587 16.3971 2338 101.804 1097.36 436.722
2232 1 80.506 12.6078 1015 105.841 1098.1 470.334
2233 0 83.5532 12.3634 1033 106.585 1098.11 470.538
2234 0 85.6807 13.2702 1137 106.923 1098.59 468.238
2235 0 89.7084 14.0009 1256 107.047 1098.68 466.342
2236 0 90.6749 13.0687 1185 110.586 1098.52 464.129
2237 0 97.4953 15.0674 1469 107.264 1097.53 460.927
2238 0 99.483 13.4294 1336 111.502 1098.16 462.207
2239 0 104.612 15.0652 1576 107.404 1098.48 459.953
2240 0 109.51 14.1357 1548 108.297 1098.27 459.014
2241 0 113.488 13.4728 1529 108.606 1097.46 456.05
2242 0 119.855 15.936 1910 102.546 1098.03 454.928
2243 1 64.357 11.8091 760 105.968 1098.8 478.905
2244 0 66.2942 12.3993 822 105.319 1098.45 479.044
2245 0 69.7459 13.1764 919 105.435 1097.91 477.77
2246 0 70.3474 12.5804 885 107.593 1098.45 477.583
2247 0 74.261 13.6545 1014 106.673 1098.92 474.444
2248 0 74.3878 13.8329 1029 107.041 1098.64 474.033
2249 0 77.3373 12.9174 999 109.422 1098.42 471.611
2250 0 82.3295 12.1585 1001 110.223 1098.78 471.815
2251 0 81.4389 13.986 1139 108.857 1098.72 468.45
2252 0 85.4271 13.4384 1148 109.082 1098.9 468.24
2253 0 87.2712 13.4752 1176 110.323 1098.74 465.959
2254 0 91.369 13.451 1229 110.245 1098.53 466.852
2255 0 91.4506 13.8326 1265 111.049 1098.51 461.803
2256 0 95.358 14.2411 1358 110.475 1098.05 461.193
2257 0 98.3917 11.0578 1088 116.545 1098.99 462.984
2258 0 98.2822 12.6371 1242 115.87 1098.06 457.304
2259 0 100.364 11.6377 1168 117.705 1098.3 459.872
2260 0 103.387 12.8062 1324 115.856 1098.67 455.428
2261 0 113.232 11.004 1246 117.621 1098.35 458.428
2262 0 112.341 12.0258 1351 117.656 1098.16 455.102
2263 0 113.322 13.5014 1530 114.524 1097.36 454.444
2264 1 175.452 15.1893 2665 118.059 1096.98 398.225
2265 0 172.951 12.2 2110 124.162 1095.21 382.475
2266 1 70.5538 10.205 720 104.078 1094.52 407.643
2267 0 72.2645 10.8075 781 104.04 1093.68 412.672
2268 0 76.1746 12.3795 943 108.108 1094.77 480.463
2269 0 77.12 12.2018 941 107.635 1092.94 484.021
2270 0 79.0558 12.2572 969 108.272 1093.72 484.777
2271 0 81.083 13.554 1099 105.651 1093.32 482.3
2272 0 84.0753 12.013 1010 109.024 1093.7 480.017
2273 0 86.1387 11.5744 997 108.662 1094.34 478.367
2274 0 87.0294 12.0879 1052 103.861 1094.17 478.548
2275 0 89.0766 11.0916 988 104.073 1094.77 477.112
2276 0 92.1233 11.007 1014 105.124 1094.32 471.861
2277 0 97.0814 11.0011 1068 104.42 1094.08 471.817
2278 0 98.135 10.3531 1016 105.688 1094.24 469.148
2279 0 99.1395 10.7424 1065 106.504 1093.8 467.6
2280 1 89.3083 5.88971 526 117.54 1094.32 451.966
2281 1 152.637 8.23523 1257 118.461 1092.66 432.35
2282 0 160.421 9.20704 1477 116.613 1091.64 432.499
2283 1 107.206 13.4414 1441 121.807 1091.92 407.156
2284 0 115.285 7.93684 915 109.518 1090.99 452.035
2285 0 118.448 8.84779 1048 108.873 1090.73 448.819
2286 1 0 0 0 -nan -nan -nan
2287 0 30.0292 7.75912 233 92.5708 1090.59 500.936
2288 0 0 0 0 -nan -nan -nan
2289 1 26.028 3.18887 83 100.12 1089.6 502.157
2290 0 32.0502 7.33225 235 93.6383 1090.16 504.085
2291 0 34.0116 4.29266 146 96.7671 1091.38 505.253
2292 0 31.0272 5.96251 185 95.173 1090.84 500.103
2293 0 39.0787 11.2081 438 101.393 1093.27 460.416
2294 1 50.1004 3.35327 168 94.0714 1091.15 506.845
2295 0 53.1219 7.52984 400 91.37 1091.85 495.832
2296 0 50.2611 8.55532 430 90.5884 1092.31 498.591
2297 0 50.2182 9.41889 473 89.9006 1092.17 496.77
2298 0 48.2962 7.95094 384 91.8229 1092.2 500.133
2299 0 51.2592 9.01302 462 91.1948 1091.63 496.182
2300 0 40.2729 9.21214 371 91.2965 1092.57 500.461
2301 0 32.119 8.68643 279 91.0645 1093.1 502.552
2302 0 34.1654 9.01498 308 92.6591 1089.99 504.468
2303 0 38.0187 6.39159 243 93.2593 1092.91 504.457
2304 0 42.1441 7.99638 337 90.1157 1092.68 504.807
2305 1 0 0 0 -nan -nan -nan
2306 1 41.0281 3.70478 152 93.8618 1092.29 508.401
2307 0 40.0842 5.28886 212 93.2123 1092.35 505.788
2308 0 41.0768 7.10864 292 90.7123 1092.42 504.298
2309 0 0 0 0 -nan -nan -nan
2310 0 0 0 0 -nan -nan -nan
2311 0 41.0592 7.13604 293 90.9317 1091.61 500.819
2312 1 85.3987 10.1524 867 95.3218 1090.7 478.358
2313 0 85.3388 9.81968 838 97.389 1091.23 475.425
2314 0 92.3943 11.3643 1050 93.4695 1090.82 478.641
2315 0 94.2531 10.8007 1018 92.275 1091.4 475.134
2316 0 97.2 10.1646 988 92.249 1091.51 473.488
2317 1 43.1535 8.34231 360 90.7694 1090.66 500.125
2318 0 51.1163 9.60555 491 87.8717 1090.95 500.22
2319 0 53.0886 10.831 575 89.5861 1089.82 498.179
2320 0 49.0647 10.3741 509 97.7642 1090.08 494.591
2321 0 56.1059 11.8526 665 95.3368 1092.6 495.835
2322 0 56.0357 11.3856 638 96.9342 1092.47 495.707
2323 0 57.1056 12.4506 711 96.1589 1092.87 493.841
2324 0 59.1771 13.5018 799 94.5444 1092.29 494.01
2325 0 61.0906 12.2277 747 96.9799 1092.7 492.501
2326 0 61.0711 11.1509 681 100.297 1093.03 490.454
2327 0 68.1315 11.6686 795 97.5396 1092.8 492.136
2328 0 66.1776 12.4513 824 97.7549 1092.17 489.726
2329 0 70.087 11.0862 777 100.081 1092.38 488.547
2330 0 70.0986 11.7263 822 99.2141 1092.41 487.495
2331 0 72.116 11.121 802 100.983 1092.58 487.19
2332 0 76.3433 11.7889 900 99.0222 1092.4 485.453
2333 0 73.1821 11.9838 877 97.1152 1092.79 481.507
2334 1 90.5047 8.35316 756 100.569 1092.4 477.353
2335 0 93.5121 10.2126 955 98.1822 1091.58 479.172
2336 0 95.624 12.6851 1213 93.7494 1092.57 476.466
2337 0 92.4428 10.6769 987 96.9301 1091.92 477.067
2338 0 94.245 13.1572 1240 92.6532 1091.67 474.123
2339 0 97.261 11.0425 1074 94.7272 1091.89 473.851
2340 1 53.2377 11.5144 613 90.571 1091.37 491.84
2341 0 55.0554 10.7891 594 96.5606 1092.06 492.204
2342 0 56.1697 12.1418 682 99.6041 1093.57 485.654
2343 0 60.1022 10.0995 607 101.488 1093.08 486.895
2344 0 63.3898 11.0901 703 99.0313 1092.87 486.688
2345 0 62.1547 11.4553 712 97.9073 1091.28 484.806
2346 0 65.1963 9.37169 611 99.9804 1091.72 484.846
2347 0 67.0949 11.983 804 96.1617 1091.61 484.498
2348 0 69.1799 10.9859 760 96.4579 1092.61 483.159
2349 0 71.0918 8.56639 609 100.491 1092.5 478.992
2350 0 73.1452 10.3083 754 97.9111 1092.24 474.032
2351 0 76.1394 12.3721 942 94.0382 1092.38 476.971
2352 0 74.1276 9.20035 682 99.5279 1092.52 470.488
2353 0 80.2643 7.86152 631 100.311 1093.35 469.575
2354 0 80.1704 10.5525 846 96.5485 1093.62 468.28
2355 0 83.3354 11.4477 954 94.9465 1093.5 471.861
2356 0 87.2099 10.5378 919 96.3025 1093.36 466.266
2357 1 251.702 5.72105 1440 118.418 1095.06 396
2358 0 249.752 8.03198 2006 118.409 1095.91 384.117
2359 0 257.16 8.9555 2303 117.419 1096.52 382.931
2360 0 255.853 2.50534 641 126.858 1096.78 391.211
2361 0 257.962 2.59728 670 119.984 1096 413.649
2362 0 255.889 3.77507 966 112.422 1095.47 425.592
2363 0 254.636 3.66012 932 119.047 1096.22 402.106
2364 1 198.664 8.24508 1638 110.364 1095.84 408.368
2365 0 209.025 9.58738 2004 105.839 1095.74 403.587
2366 1 186.354 2.726 508 92.6378 1094.94 479.728
2367 0 188.214 7.81556 1471 103.526 1095.34 428.946
2368 0 188.337 8.06533 1519 106.67 1095.68 418.901
2369 0 188.84 7.7632 1466 105.338 1096.08 425.695
2370 0 190.13 11.1029 2111 104.611 1096.03 412.995
2371 1 85.1228 6.86068 584 97.125 1096.68 473.596
2372 0 84.1987 9.22817 777 94.6885 1097.05 468.587
2373 0 87.2425 10.3963 907 92.7431 1097.36 465.262
2374 0 85.2872 9.63802 822 93.9161 1097.05 460.81
2375 0 90.2718 10.5016 948 91.9188 1098.04 464.103
2376 0 92.1512 10.5153 969 92.4396 1097.22 457.637
2377 0 92.1661 9.87347 910 95.3011 1097.29 455.292
2378 0 94.2628 10.2798 969 94.6522 1097.47 457.397
2379 0 95.2486 11.6852 1113 92.4223 1097.52 458.666
2380 1 107.385 11.6496 1251 92.6555 1096.82 453.283
2381 1 53.0888 9.64423 512 88.5723 1096.56 485.645
2382 0 51.1018 8.55156 437 91.2105 1096.77 485
2383 0 52.0363 9.87771 514 91.3191 1095.92 481.002
2384 0 54.0533 13.0427 705 91.8014 1096.57 481.034
2385 0 55.0975 8.60293 474 99.4705 1095.5 480.306
2386 0 56.0561 9.32994 523 98.3786 1096.04 479.48
2387 0 61.1128 11.8306 723 95.0622 1096.06 480.544
2388 0 71.0984 6.80747 484 101.417 1095.95 483.597
2389 0 70.1824 8.66314 608 100.446 1095.97 478.4
2390 0 67.2375 10.6934 719 90.7163 1095.99 475.312
2391 0 69.1026 12.5466 867 97.8754 1095.76 473.833
2392 0 72.15 11.3236 817 100.322 1095.75 475.662
2393 0 74.1236 9.28179 688 104.283 1095.44 476.865
2394 0 76.1935 10.5652 805 104.435 1095.33 469.523
2395 0 79.1884 10.6708 845 104.54 1095.33 468.604
2396 0 77.1433 9.83884 759 107.182 1095.1 471.91
2397 0 81.245 9.50213 772 109.347 1094.1 469.711
2398 0 85.2293 10.7123 913 107.304 1094.59 466.92
2399 0 87.2682 11.7339 1024 106.795 1094.33 464.941
2400 0 90.2749 11.0551 998 107.776 1094.42 466.854
2401 0 92.4069 11.2762 1042 109.11 1094.66 462.539
2402 0 90.2418 8.34425 753 115.345 1094.27 463.556
2403 0 93.2692 10.6144 990 112.146 1094.42 466.183
2404 0 100.288 10.9983 1103 111.966 1094.67 456.914
2405 0 101.313 9.16963 929 115.421 1094.63 459.254
2406 0 105.384 11.1308 1173 111.714 1095.25 456.067
2407 0 110.413 9.03879 998 114.506 1094.58 454.579
2408 0 113.402 9.3649 1062 114.7 1095.06 453.798
2409 0 118.285 9.22351 1091 115.288 1096.1 452.211
2410 0 122.693 10.8564 1332 113.286 1096.11 449.655
2411 0 118.355 7.39302 875 115.134 1097.71 454.912
2412 0 120.317 8.3114 1000 115.423 1097.69 450.771
2413 0 118.384 9.08908 1076 115.713 1098.2 442.773
2414 1 138.49 9.33639 1293 112.274 1098.58 440.794
2415 0 144.393 7.29952 1054 115.361 1098.38 443.286
2416 0 147.313 9.87693 1455 111.787 1098.33 434.977
2417 0 149.328 8.03598 1200 115.38 1097.42 434.08
2418 0 147.587 9.58076 1414 110.896 1097.26 440.088
2419 1 86.2494 12.0928 1043 111.066 1097.34 463.598
2420 0 86.3256 9.70743 838 114.032 1097.76 465.783
2421 0 85.2008 10.2229 871 114.614 1095.14 467.985
2422 1 140.679 10.2005 1435 114.271 1095.84 437.626
2423 0 138.876 8.58321 1192 118.251 1095.73 444.206
2424 0 150.51 11.275 1697 110.312 1096.11 434.674
2425 1 53.0614 10.2334 543 113.331 1097.85 482.886
2426 0 52.068 9.37236 488 103.953 1096.75 484.088
2427 0 55.1162 10.2511 565 102.74 1096.74 484.575
2428 0 55.0184 8.63348 475 106.514 1096.2 484.314
2429 0 57.0379 9.34467 533 105.235 1095.47 483.717
2430 0 57.0506 9.37765 535 105.664 1096.17 483.262
2431 0 59.1071 9.55892 565 105.503 1096.33 477.297
2432 0 58.0369 8.66689 503 107.376 1095.89 478.38
2433 0 64.0545 10.0696 645 104.715 1095.43 476.143
2434 0 63.0726 8.62498 544 107.285 1095.65 480.8
2435 0 70.055 8.95011 627 105.933 1095.57 476.01
2436 0 69.0446 9.90664 684 105.439 1095.91 474.39
2437 0 71.0566 10.2313 727 104.7 1096.04 471.58
2438 0 69.0623 7.31224 505 108.4 1095.95 477.539
2439 0 71.0366 10.1919 724 105.333 1096.65 470.869
2440 1 211.609 3.75221 794 135.461 1097.15 429.29
2441 0 214.428 9.81214 2104 129.767 1097.58 402.004
2442 0 207.984 6.96687 1449 138.405 1097.73 397.94
2443 0 209.141 8.09502 1693 138.164 1098.13 397.424
2444 0 212.373 9.14901 1943 137.168 1097.21 393.264
2445 0 217.739 7.1921 1566 144.961 1097.72 393.057
2446 0 225.612 9.22822 2082 140.146 1098.67 391.938
2447 1 153.153 11.0608 1694 114.313 1098.11 433.649
2448 0 158.46 12.0977 1917 114.341 1097.72 425.15
2449 0 155.831 9.26005 1443 118.727 1096.72 435.429
2450 0 154.341 11.0276 1702 119.179 1096.82 430.003
2451 0 156.49 10.0581 1574 123.647 1095.84 429.558
2452 0 156.787 8.87831 1392 125.779 1095.88 426.767
2453 0 162.74 9.10657 1482 119.822 1096.76 428.135
2454 0 158.691 6.01167 954 128.304 1095.4 412.78
