time division length width area intensity CMx CMy
0 0 73.065 13.9602 1020 86.448 1338.64 454.51
1 0 74.1554 13.1346 974 87.9507 1338.79 454.716
2 0 83.1559 16.2346 1350 79.2874 1338.66 449.748
3 0 80.3134 14.7547 1185 83.9789 1338.07 452.195
4 0 81.1138 13.5489 1099 86.8626 1338.23 450.746
5 0 83.0938 13.1418 1092 87.2729 1338.05 449.582
6 0 85.1719 12.6215 1075 88.613 1338 447.285
7 0 85.0775 12.659 1077 88.2368 1338.78 446.591
8 0 89.1812 14.3976 1284 84.4953 1339.68 446.185
9 0 92.1831 12.4535 1148 87.3571 1340.04 446.618
10 0 95.1725 12.8503 1223 87.3418 1338.23 444.304
11 0 97.1813 13.2536 1288 86.0396 1338.83 442.023
12 0 100.245 13.058 1309 85.8067 1340.59 440.945
13 1 50.0423 10.8108 541 91.5952 1341.7 463.479
14 0 52.1438 9.12861 476 87.7668 1341.53 460.41
15 0 53.0966 10.9423 581 84.2186 1341.48 458.561
16 0 56.1115 11.5128 646 84.7043 1340.65 454.642
17 0 53.0935 10.8676 577 88.3588 1341.58 451.879
18 0 59.2229 12.5965 746 84.748 1340.78 452.05
19 0 63.1831 12.5192 791 84.4968 1340.92 450.633
20 0 64.137 11.9744 768 85.8867 1341.03 450.049
21 0 67.1532 14.0723 945 83.2243 1341.02 449.852
22 0 67.0934 11.6703 783 87.3218 1341.08 449.241
23 0 71.0509 11.344 806 88.0993 1339.94 449.784
24 0 75.1877 10.9592 824 83.5607 1340.02 447.862
25 0 78.2407 13.2284 1035 79.7246 1341.01 442.915
26 0 80.2927 11.9189 957 82.3971 1341.22 442.386
27 0 82.2275 12.8911 1060 82.2123 1340.61 441.902
28 0 84.3602 13.3712 1128 81.3342 1341.53 439.629
29 0 84.1054 11.0575 930 86.9312 1341.37 436.139
30 0 89.1704 13.4125 1196 83.9875 1340.81 437.152
31 0 96.2883 12.016 1157 87.7061 1341.2 436.088
32 0 98.4096 11.4623 1128 89.1383 1340.55 434.023
33 1 50.0396 9.19272 460 83.8804 1340.53 456.602
34 0 57.1891 13.7264 785 87.5771 1340.77 460.792
35 0 58.1693 11.776 685 89.2496 1341.28 461.619
36 0 58.2747 14.3802 838 86.3616 1340.3 451.103
37 0 59.3296 13.0795 776 88.2526 1340.87 452.683
38 0 62.3215 12.5157 780 89.6462 1340.22 454.614
39 0 64.3344 14.0671 905 86.9414 1340.44 453.925
40 0 67.3181 13.5328 911 87.2108 1339.84 454.191
41 0 67.4655 11.9172 804 90.1828 1340.92 455.248
42 0 69.2324 13.1153 908 88.13 1341.22 450.997
43 0 71.5237 12.793 915 89.482 1340.96 449.351
44 0 74.3508 13.4363 999 87.5586 1341.32 448.784
45 0 75.3414 13.5782 1023 87.5816 1341.38 448.979
46 0 75.0985 11.7712 884 92.2093 1340.93 445.81
47 0 78.3087 11.8505 928 91.9731 1340.25 445.482
48 0 82.1526 12.842 1055 90.5365 1340.39 442.394
49 0 85.093 14.4665 1231 87.788 1340.99 441.232
50 0 85.1453 12.003 1022 92.0675 1340.6 442.57
51 0 87.0606 12.9335 1126 91.6696 1339.97 439.301
52 0 92.0637 11.6876 1076 94.6348 1339.96 439.135
53 0 95.038 12.7528 1212 92.6889 1340.28 437.7
54 0 96.2372 13.0511 1256 93.4642 1340.73 436.26
55 0 102.1 12.8012 1307 93.3451 1340.42 435.516
56 0 104.2 12.2553 1277 95.3203 1341.23 432.868
57 1 59.0621 10.9715 648 92.9784 1340.83 452.406
58 0 57.0549 10.3935 593 96.2158 1340.85 452.447
59 0 62.0332 12.0258 746 92.6126 1339.88 451.729
60 0 61.1053 10.2446 626 86.1869 1340.8 453.067
61 0 61.1035 9.7703 597 88.4204 1339.95 450.993
62 0 70.0994 13.0244 913 81.3998 1340.63 447.848
63 0 71.1316 12.5964 896 83.5725 1340.11 447.542
64 0 72.1228 11.2586 812 86.4581 1340.84 448.746
65 0 73.1023 10.7657 787 88.0064 1341.26 445.529
66 0 78.1399 11.1979 875 87.0914 1341.2 446.234
67 0 81.2173 12.2265 993 86.002 1340.88 442.728
68 0 90.1698 14.5725 1314 80.0982 1340.56 438.028
69 0 92.1693 13.8441 1276 82.569 1341.2 439.728
70 0 93.4134 13.9487 1303 82.9263 1341.66 437.765
71 0 102.422 15.8756 1626 78.305 1341.38 435.824
72 0 101.206 13.7937 1396 85.1519 1340.92 437.354
73 0 105.206 12.3662 1301 90.06 1340.9 437.492
74 1 54.257 10.2107 554 91.6606 1341.12 463.894
75 0 55.089 12.3255 679 93.7511 1341.18 463.735
76 0 57.1724 12.1387 694 90.6657 1340.3 462.359
77 0 58.2044 10.7724 627 92.3604 1340.77 462.352
78 0 60.1401 12.687 763 88.6697 1340.48 461.765
79 0 62.2814 13.0215 811 88.4328 1340.45 459.629
80 0 65.1776 12.581 820 89.0976 1340.32 459.173
81 0 68.0831 13.7038 933 86.1029 1340.88 457.16
82 0 68.072 12.4427 847 89.3318 1340.55 455.824
83 0 72.1032 13.1756 950 86.8842 1340.37 455.984
84 0 74.1598 14.698 1090 84.2743 1340.76 454.917
85 0 77.1311 11.5518 891 90.2402 1341 454.083
86 0 78.0975 12.4076 969 89.6068 1340.6 450.96
87 0 83.1462 14.0235 1166 86.2221 1341.41 445.075
88 0 85.1321 13.4262 1143 88.0744 1340.8 447.995
89 0 87.1226 13.1998 1150 89.0478 1340.21 445.057
90 0 88.1652 13.1685 1161 89.6891 1340.06 447.999
91 0 91.1147 11.5788 1055 93.2351 1340.24 445.107
92 0 94.1899 12.8995 1215 90.9992 1340.94 444.503
93 1 51.0697 10.75 549 94.5665 1340.14 464.536
94 0 53.0497 10.8012 573 93.7435 1339.05 465.995
95 0 52.1574 10.8518 566 93.0424 1339.97 461.917
96 0 54.1099 11.107 601 95.6206 1340.26 462.163
97 0 59.254 12.3198 730 96.3849 1339.69 461.229
98 0 60.034 12.6928 762 95.4475 1340.59 460.836
99 0 58.0246 11.3745 660 100.909 1340.99 458.738
100 0 64.0729 11.5337 739 88.9012 1341.19 459.908
101 0 66.0355 12.0238 794 88.7355 1340.93 457.911
102 0 67.0661 12.1522 815 89.3853 1340.66 455.564
103 0 73.0621 14.9325 1091 58.8057 1340.87 456.013
104 0 70.038 12.1648 852 90.6033 1341.08 453.694
105 0 73.1164 12.6784 927 89.2902 1341.14 454.112
106 0 80.1597 15.7935 1266 80.703 1341.01 452.015
107 0 80.0988 15.4684 1239 83.5738 1340.34 450.494
108 0 83.1778 14.2466 1185 85.9629 1339.6 450.891
109 0 82.2299 12.5015 1028 91.6245 1339.54 447.984
110 0 86.1761 13.0199 1122 89.8262 1339.54 448.129
111 0 88.1747 12.5886 1110 90.3685 1340.34 447.893
112 0 90.2121 12.4263 1121 91.5156 1339.8 445.786
113 1 49.1311 10.645 523 88.5564 1340.89 466.205
114 0 50.0744 10.4245 522 89.3295 1340.07 466.148
115 0 52.0511 11.7 609 85.0722 1339.38 465.259
116 0 52.118 12.2031 636 81 1339.04 465.78
117 0 54.072 12.2429 662 81.4698 1339.06 464.216
118 0 55.0785 11.4201 629 82.8251 1339.52 465.488
119 0 59.0526 12.8022 756 79.4775 1339.98 462.692
120 0 61.0489 12.3016 751 80.4834 1339.43 461.819
121 0 61.0893 11.3768 695 83.3381 1339.24 461.863
122 0 65.0681 13.4321 874 79.3021 1339.47 459.657
123 0 65.0822 11.7697 766 81.6606 1339.75 458.633
124 0 69.087 13.5337 935 78.6706 1338.92 457.036
125 0 69.1532 12.1614 841 81.8098 1338.19 457.056
126 0 72.1098 13.0634 942 79.8885 1338.59 454.307
127 0 74.0504 12.2619 908 81.1619 1338.96 454.166
128 0 77.0873 13.608 1049 78.2183 1339.57 452.839
129 0 80.1789 12.1603 975 80.4862 1340.05 450.334
130 0 83.1134 11.358 944 82.3729 1339.08 447.951
131 0 88.1104 12.7113 1120 80.2116 1339.84 449.512
132 0 87.1075 13.3398 1162 79.8219 1338.96 446.585
133 0 91.1864 13.5985 1240 78.8186 1339.12 445.035
134 0 94.1306 12.9713 1221 80.1613 1339.95 443.498
135 1 45.035 7.52747 339 86.0649 1340.83 468.28
136 0 51.1179 12.2462 626 75.9153 1341.73 466.581
137 0 54.0869 10.5201 569 79.0984 1340.94 467.914
138 0 54.0455 11.9899 648 78.4784 1340.78 464.42
139 0 56.0998 12.6738 711 76.5837 1341.4 465.377
140 0 59.0539 11.4472 676 79.3772 1339.89 464.516
141 0 58.0329 12.0621 700 79.4829 1340.8 464.227
142 0 62.0891 11.0164 684 80.8143 1340.17 462.972
143 0 63.0995 12.3931 782 77.7737 1341.1 461.9
144 0 64.0296 11.0418 707 80.9859 1341.29 461.441
145 0 67.1294 13.3474 896 76.5647 1341.64 459.202
146 0 67.0921 12.4754 837 79.6177 1341.15 458.542
147 0 70.1426 12.218 857 79.9382 1340.97 456.229
148 0 71.0568 11.6808 830 81.8952 1340.18 455.304
149 0 75.0766 13.2398 994 78.671 1340.18 453.694
150 0 77.1288 12.6542 976 80.8156 1339.72 452.867
151 0 76.1123 11.8772 904 81.5586 1340.67 449.372
152 0 80.1693 12.748 1022 80.2603 1340.55 448.815
153 0 82.2814 10.7801 887 84.0676 1339.82 446.572
154 0 83.2723 10.1955 849 84.7915 1340.43 445.779
155 0 85.1624 9.35858 797 88.6349 1339.72 447.286
156 1 49.1693 10.3113 507 80.9704 1340.26 463.389
157 0 52.2405 10.0497 525 84.6933 1340.34 462.75
158 0 49.1535 10.1519 499 86.8236 1340.69 462.102
159 0 54.237 10.3804 563 77.8668 1340.78 461.092
160 0 55.1776 12.3782 683 76.4949 1340.22 460.397
161 0 56.0992 10.9806 616 78.0698 1340.67 458.159
162 0 59.1662 11.8142 699 77.2961 1340.78 460.269
163 0 61.1237 12.4338 760 76.2171 1341.01 457.062
164 0 59.107 9.99882 591 82.4704 1339.72 458.678
165 0 63.1131 12.6123 796 78.3505 1339.41 458.829
166 0 65.1861 13.1316 856 77.6098 1339.87 457.021
167 0 66.1351 13.049 863 78.9652 1339.08 455.266
168 0 70.1041 13.5513 950 77.6505 1339.65 454.157
169 0 72.2278 13.9835 1010 77.105 1339.59 452.976
170 0 75.2438 13.6224 1025 76.8507 1339.92 453.565
171 0 75.1938 11.8095 888 80.0417 1339.51 454.131
172 0 79.1749 13.9691 1106 76.5081 1340.09 448.348
173 0 79.1594 10.6494 843 81.8173 1339.51 447.754
174 0 81.1375 11.5113 934 81.0182 1339.05 447.45
175 0 87.1861 14.0045 1221 76.439 1339.4 444.455
176 0 88.1811 11.8279 1043 80.1371 1339.53 444.094
177 0 93.2357 14.0182 1307 76.8776 1339.35 442.047
178 0 96.1739 13.2364 1273 77.4061 1339.86 443.296
179 0 96.1497 11.8877 1143 80.4304 1339.33 439.742
180 0 100.176 12.6578 1268 78.9322 1339.53 436.835
181 1 52.1135 10.6498 555 79.9946 1340.2 462.957
182 0 54.1462 10.8225 586 79.2253 1340.42 463.386
183 0 54.0714 11.4848 621 77.8293 1340.34 456.797
184 0 58.1027 12.1165 704 73.4375 1340.83 460.416
185 0 55.0842 8.22378 453 78.6424 1340.99 460.053
186 0 62.0622 9.81274 609 76.1576 1340.74 458.729
187 0 62.0784 11.9204 740 74.2351 1340.33 457.608
188 0 65.0722 10.6651 694 74.6744 1340.75 456.829
189 0 68.1341 13.1359 895 70.7598 1340.22 456.751
190 0 70.1429 13.1589 923 71.4052 1340.8 455.601
191 0 74.1226 11.5484 856 73.1449 1340.43 454.046
192 0 75.083 12.6127 947 72.9451 1340.43 452.184
193 0 79.2639 12.5278 993 72.4592 1340.27 451.924
194 0 81.1034 11.4668 930 74.8366 1339.93 449.44
195 0 81.1076 12.7855 1037 74.2122 1339.69 449.45
196 0 84.147 12.3831 1042 74.7946 1340.08 450.577
197 0 84.1807 11.3209 953 78.425 1339.08 448.741
198 0 86.2939 9.94277 858 80.5012 1340.06 450.175
199 0 91.1674 11.5502 1053 79.0769 1340 447.256
200 0 92.0859 12.0648 1111 79.6463 1339.46 444.433
201 0 95.3073 10.7547 1025 82.0946 1340.18 444.86
202 0 95.1701 10.1292 964 83.4637 1339.68 446.519
203 1 57.0392 13.5346 772 78.6503 1340.1 461.232
204 0 59.1294 12.6841 750 81.5653 1338.42 456.997
205 0 61.2194 12.8227 785 85.0981 1338.85 454.825
206 0 63.2266 13.0799 827 85.1125 1338.57 454.871
207 0 66.2189 14.5125 961 82.845 1337.88 457.086
208 0 66.162 12.7717 845 86.4308 1339.24 454.147
209 0 69.1284 13.1784 911 86.1493 1338.78 453.696
210 0 73.1408 14.1781 1037 83.4176 1339.7 452.759
211 0 74.1884 14.0588 1043 84.8418 1339.35 451.693
212 0 77.1381 12.6656 977 85.7196 1339.93 454.654
213 0 79.0491 13.3082 1052 86.0523 1339.56 452.943
214 0 81.1026 13.6987 1111 85.9235 1339.77 451.549
215 0 84.0988 12.628 1062 86.9313 1341.04 452.742
216 0 84.1005 12.604 1060 88.4113 1341.28 448.55
217 0 89.1966 13.7449 1226 86.1843 1341.23 444.717
218 0 91.1063 14.0605 1281 87.3505 1340.12 443.535
219 0 93.1315 12.2515 1141 90.7993 1340.32 444.04
220 1 49.0655 10.1701 499 85.7275 1340.95 469.511
221 0 50.0443 12.0693 604 86.0265 1340.15 466.351
222 0 53.1128 12.8218 681 86.514 1341.17 461.496
223 0 53.0923 12.4877 663 88.6501 1340.88 460.223
224 0 55.1756 12.9042 712 88.5435 1340.46 460.486
225 0 54.0835 11.5932 627 91.5518 1340.03 459.365
226 0 57.0796 12.1234 692 89.5925 1340.2 461.095
227 0 59.0436 12.296 726 89.686 1340.75 457.937
228 0 62.1074 12.5106 777 88.5907 1341.17 457.757
229 0 63.2289 12.5892 796 88.9761 1340.59 457.46
230 0 66.0768 13.2422 875 87.8617 1340.59 455.995
231 0 67.0982 14.3074 960 87.0281 1339.9 453.441
232 0 70.154 14.0691 987 87.6687 1339.91 452.81
233 0 74.2083 14.648 1087 84.5051 1340.95 450.374
234 0 73.3351 13.1724 966 90.0217 1339.84 455.959
235 0 77.1427 14.1945 1095 88.0548 1339.48 452.848
236 0 81.2277 13.8992 1129 88.5589 1338.78 452.568
237 0 81.1383 14.1117 1145 89.6795 1339.12 450.28
238 0 88.2238 17.603 1553 80.501 1339.18 444.133
239 0 89.1525 15.3221 1366 86.3038 1339.28 446.231
240 0 89.3179 13.0545 1166 92.3876 1339.16 446.124
241 0 94.2965 13.7015 1292 90.6246 1339.29 443.827
242 1 50.1026 11.9355 598 89.5752 1340.34 464.166
243 0 49.1155 10.404 511 83.5284 1341.22 467.356
244 0 52.0185 12.2649 638 78.8746 1340.39 465.122
245 0 53.1082 12.9547 688 78.0581 1340.56 463.301
246 0 56.0722 11.8062 662 80.6375 1340 465.789
247 0 62.0907 14.9942 931 72.305 1340.47 461.083
248 0 60.1135 13.6741 822 75.8601 1340.53 461.415
249 0 59.0809 12.6268 746 79.4182 1340.01 461.059
250 0 59.0939 12.0825 714 82.3431 1339.46 461.006
251 0 61.0328 11.4529 699 82.3906 1339.68 461.468
252 0 64.185 13.0872 840 79.9952 1340.22 456.595
253 0 67.1976 12.932 869 80.1991 1340.82 454.304
254 0 69.1376 12.4534 861 81.0465 1340.2 457.647
255 0 70.1346 13.3315 935 79.6107 1340.35 456.776
256 0 73.2089 12.7307 932 80.4442 1339.87 454.042
257 0 76.1776 12.9828 989 80.2477 1339.06 453.413
258 0 78.1474 13.4745 1053 79.1624 1339.98 452.794
259 0 82.1844 11.5959 953 80.7639 1340.04 454.763
260 0 84.1779 12.9131 1087 81.3891 1338.8 448.608
261 0 88.2212 12.4006 1094 82.6316 1338.7 448.403
262 1 43.0759 10.7485 463 87.1123 1338.36 467.767
263 0 46.1123 11.9925 553 86.9331 1338.88 466.358
264 0 47.155 11.9606 564 86.1844 1339.14 465.578
265 0 48.212 13.7518 663 85.4811 1338.03 462.935
266 0 52.1538 13.8437 722 83.2313 1339.39 464.219
267 0 50.1615 11.8418 594 88.9916 1338.95 463.505
268 0 50.1381 11.8872 596 90.4815 1338.43 461.864
269 0 55.3131 13.8123 764 84.4346 1339.07 461.726
270 0 57.1179 14.4963 828 83.913 1338.72 460.099
271 0 59.1336 13.4272 794 85.927 1338.19 459.916
272 0 60.158 13.3482 803 86.4521 1339.02 459.248
273 0 62.1467 13.0659 812 86.9089 1339.25 458.649
274 0 65.0996 13.1184 854 86.3583 1338.69 458.758
275 0 66.1468 14.362 950 84.1347 1339.25 456.113
276 0 66.1384 13.502 893 86.9317 1338.79 455.928
277 0 68.147 13.779 939 86.8275 1339.43 454.432
278 0 70.0836 13.7122 961 86.5068 1339.08 453.698
279 0 72.0534 13.8925 1001 87.051 1338.99 451.571
280 0 76.079 13.8409 1053 86.6363 1338.99 452.09
281 0 74.0647 12.4621 923 90.2882 1339.76 453.048
282 0 79.1222 12.942 1024 88.4766 1340.45 451.825
283 0 81.0876 15.3044 1241 80.552 1339.93 452.64
284 0 84.1204 11.9591 1006 85.9573 1340.76 451.358
285 0 87.2467 12.7913 1116 85.7168 1339.95 446.992
286 1 46.0397 11.0557 509 86.5442 1339.85 469.603
287 0 47.0471 10.9465 515 89.8097 1339.68 467.769
288 0 46.0829 9.8084 452 83.2655 1339.54 459.458
289 0 49.1493 11.2921 555 72.8577 1339.94 463.468
290 0 52.0729 11.2151 584 73.2346 1339.73 462.375
291 0 53.252 11.8681 632 73.2627 1339.81 459.486
292 0 56.0749 11.556 648 72.3642 1340.11 461.804
293 0 57.031 13.1858 752 70.9707 1340.36 461.217
294 0 60.1168 11.7771 708 73.2302 1339.58 460.595
295 0 60.1113 11.7449 706 74.1969 1339.65 460.683
296 0 62.0732 12.0503 748 74.8396 1339.99 457.865
297 0 63.1427 11.8303 747 75.7671 1339.25 452.301
298 0 67.1826 11.6846 785 74.665 1339.63 453.526
299 0 67.1646 10.7646 723 77.1743 1339.58 450.452
300 0 71.1204 13.3295 948 73.4146 1340.44 451.069
301 0 72.0939 13.2605 956 74.9017 1339.7 447.23
302 0 74.1273 11.858 879 76.7759 1340.26 446.639
303 0 77.0768 11.3783 877 77.5678 1340.24 445.323
304 0 79.0775 12.5699 994 76.659 1340.09 449.075
305 0 83.0785 12.4822 1037 82.5699 1340.76 453.512
306 0 84.1218 12.9693 1091 82.4336 1340 451.659
307 0 86.1686 12.7425 1098 83.8069 1339.79 449.268
308 0 96.2119 11.0589 1064 89.9671 1339.62 447.867
309 1 51.0977 11.977 612 86.2745 1340.31 463.462
310 0 46.0667 9.79015 451 76.2239 1340.04 457.27
311 0 49.0446 11.8871 583 73.1441 1340.49 459.533
312 0 51.1112 11.1326 569 74.4534 1340.68 457.879
313 0 52.1092 11.1305 580 75.2879 1339.93 458.629
314 0 53.2392 10.8191 576 75.9427 1340.09 456.153
315 0 54.0807 11.7232 634 74.4874 1341.62 456.628
316 0 56.0838 11.0549 620 76.0064 1340.82 453.976
317 0 57.0617 11.0582 631 76.1442 1340.92 454.857
318 0 61.2169 13.0356 798 73.1955 1340.02 452.419
319 0 65.1915 12.3329 804 74.0659 1340.23 452.536
320 0 67.1211 11.5314 774 75.5866 1340.13 449.089
321 0 65.2607 10.6956 698 78.4169 1340.82 448.649
322 0 68.0581 12.695 864 75.9201 1340.29 447.824
323 0 73.1499 13.1101 959 74.511 1340.6 447.499
324 0 74.138 13.1916 978 74.4202 1340.43 445.128
325 0 78.1175 12.11 946 75.445 1340.03 447.674
326 0 78.2027 11.7515 919 77.5354 1339.82 445.047
327 0 83.0924 13.1059 1089 83.2782 1340.07 447.425
328 0 91.1984 14.3314 1307 79.6978 1340.07 446.838
329 0 88.1913 12.0874 1066 84.484 1340.56 447.522
330 0 94.1105 13.3779 1259 81.923 1339.41 444.26
331 1 49.1544 11.0672 544 81.386 1341.46 464.658
332 0 47.1423 10.288 485 76.868 1340.65 459.35
333 0 48.0603 10.2163 491 77.3646 1340.25 456.509
334 0 48.0359 9.09737 437 73.6613 1339.7 456.993
335 0 51.0729 11.7283 599 70.9249 1339.99 460.498
336 0 51.1239 11.521 589 71.511 1340.16 458.932
337 0 55.0803 11.3834 627 70.3461 1340.34 457.018
338 0 57.1147 13.4816 770 67.4727 1341.22 454.906
339 0 58.0858 12.6193 733 69.0232 1340.7 455.273
340 0 60.1286 14.5189 873 67.1111 1340.91 451.471
341 0 63.0888 12.95 817 68.7013 1340.76 449.095
342 0 64.1225 12.7101 815 70.4393 1340.86 450.717
343 0 67.0496 11.6034 778 72.5386 1341.02 450.891
344 0 69.0642 13.3065 919 71.2405 1340.11 443.446
345 0 71.0956 13.3764 951 71.8812 1340.07 445.631
346 0 71.1739 11.5913 825 76.0303 1340.01 443.853
347 0 75.1234 10.8355 814 77.1228 1339.58 442.313
348 0 76.0903 10.5795 805 78.5205 1340.54 441.462
349 0 83.2004 11.8028 982 78.3432 1340.11 442.764
350 0 87.178 12.2623 1069 78.3966 1340.31 444.254
351 0 88.2039 11.0086 971 80.829 1339.41 444.763
352 0 92.2969 10.5746 976 82.7562 1340.2 440.77
353 0 96.2846 11.1233 1071 83.0261 1340.27 441.719
354 0 101.299 12.7445 1291 80.1867 1340.45 440.607
355 1 51.1993 12.0119 615 76.6032 1340.62 465.546
356 0 56.0713 11.8599 665 74.0376 1340.68 465.475
357 0 54.1173 9.12831 494 77.1619 1340.82 462.802
358 0 56.101 10.285 577 75.2669 1340.91 458.83
359 0 59.089 10.4927 620 75.7629 1340.67 458.735
360 0 62.0411 10.7671 668 75.6796 1340.05 460.362
361 0 61.0433 9.79632 598 77.8729 1340.57 455.749
362 0 66.1228 11.3274 749 76.4459 1340.62 456.519
363 0 67.0943 10.7908 724 78.4655 1340.73 451.059
364 0 74.188 12.347 916 76.3122 1340.3 450.111
365 0 75.1025 11.5709 869 77.0817 1340 449.995
366 0 80.0887 13.0106 1042 75.1238 1339.73 449.617
367 0 79.138 10.8671 860 78.6291 1339.58 444.077
368 0 84.1878 13.9094 1171 74.6234 1339.41 444.706
369 0 86.1191 11.8673 1022 77.4726 1339.8 443.997
370 0 89.1514 12.5517 1119 77.1626 1340.3 439.204
371 0 92.1862 12.8436 1184 77.0135 1339.86 443.465
372 0 95.2497 12.1155 1154 77.5182 1340.12 437.975
373 0 100.121 11.3962 1141 87.9439 1341.06 444.602
374 0 101.158 13.9287 1409 85.7864 1340.01 447.202
375 0 105.16 15.0628 1584 84.2064 1339.65 444.604
376 1 73.3067 20.3938 1495 66.1438 1339.64 457.126
377 0 69.1025 19.0297 1315 70.7133 1339.28 456.388
378 0 63.0603 14.3196 903 84.8195 1339.79 461.671
379 0 63.0554 12.1956 769 89.4408 1340.25 463.926
380 0 67.1259 14.1227 948 85.7553 1339.17 461.343
381 0 68.0694 12.6929 864 89.4271 1339.95 460.572
382 0 70.1365 12.7466 894 88.8803 1339.77 460.361
383 0 71.0584 12.9752 922 89.3265 1339.39 459.027
384 0 76.2218 14.484 1104 85.4918 1339.46 458.772
385 0 79.0661 13.0777 1034 88.3917 1339.06 458.813
386 0 80.0435 12.9555 1037 89.0791 1339.5 456.459
387 0 83.1317 13.9658 1161 86.9767 1339.19 454.547
388 0 86.205 12.9691 1118 89.2755 1339.02 450.907
389 1 47.0515 12.1356 571 87.7128 1338.71 471.305
390 0 50.0273 11.7136 586 86.628 1338.7 471.377
391 0 50.063 12.0648 604 86.5033 1338.58 469.863
392 0 50.2494 12.0996 608 80.3898 1340.38 467.331
393 0 54.2515 11.7047 635 87.211 1340.14 467.776
394 0 52.1396 10.4335 544 92.3676 1338.9 467.71
395 0 55.0684 13.2199 728 86.0852 1339.3 465.587
396 0 58.0669 12.8989 749 85.2697 1340.16 466.748
397 0 59.0402 12.5677 742 86.6429 1339.95 466.415
398 0 60.0277 11.2115 673 89.4205 1340.68 466.104
399 0 62.036 11.5739 718 89.7382 1340.51 462.652
400 0 63.0795 12.3495 779 88.828 1340.39 461.863
401 0 65.0833 13.598 885 86.8373 1340.23 461.809
402 0 68.11 13.904 947 85.9768 1340.16 461.631
403 0 69.1434 12.9586 896 88.7612 1339.61 460.129
404 0 75.1238 13.3513 1003 87.5892 1339.94 456.465
405 0 77.0544 14.3016 1102 85.8675 1339.88 456.81
406 0 78.0773 14.0758 1099 86.4622 1340.18 456.389
407 0 78.0539 14.0416 1096 86.3139 1339.52 454.436
408 0 83.0523 13.931 1157 82.898 1339.94 456.759
409 0 83.0921 12.9856 1079 86.6339 1340.19 453.933
410 0 86.1118 12.3212 1061 88.8775 1339.39 453.38
411 0 91.1201 14.1352 1288 84.9519 1338.9 449.564
412 0 94.0418 13.6429 1283 85.9041 1339.12 450.782
413 0 94.0752 12.9896 1222 87.1481 1339.22 447.439
414 1 54.0995 12.0334 651 84.4854 1339.07 465.389
415 0 52.0833 10.3296 538 85.7007 1339.47 462.26
416 0 55.1187 11.1214 613 84.5204 1339.66 461.364
417 0 55.0567 12.024 662 84.1088 1339.78 459.508
418 0 61.0906 12.5551 767 82.1056 1339.39 459.872
419 0 61.0483 13.3665 816 82.3419 1339.78 457.506
420 0 60.074 11.2361 675 86.3244 1340.52 457.908
421 0 63.0879 11.0639 698 87.8825 1339.4 456.057
422 0 65.1596 10.927 712 89.0576 1339.9 454.142
423 0 68.0466 12.2122 831 85.7413 1339 454.869
424 0 71.066 13.3116 946 83.8383 1339.64 455.659
425 0 74.126 12.6406 937 85.4664 1339.69 453.343
426 0 74.2129 11.7096 869 88.6018 1339.76 450.835
427 0 77.1546 12.1056 934 87.834 1339.11 448.372
428 0 81.1611 12.1487 986 83.8773 1340.45 449.01
429 0 83.1726 11.8789 988 84.5374 1340.19 447.599
430 0 86.0777 10.8971 938 87.0629 1339.42 446.792
431 0 89.0734 12.1585 1083 84.1801 1339.31 443.867
432 0 96.1831 12.6841 1220 83.0598 1339.15 442.392
433 0 99.1988 11.7542 1166 84.6278 1340.08 442.085
434 1 51.1477 10.4012 532 78.188 1339.78 465.947
435 0 51.0646 9.10612 465 80.3892 1339.77 465.135
436 0 50.0804 9.74434 488 81.7193 1338.76 461.568
437 0 55.085 10.3658 571 79.9737 1338.85 462.788
438 0 56.101 10.2316 574 80.6742 1339.03 462.716
439 0 59.0845 10.9504 647 79.34 1338.77 461.841
440 0 61.1673 11.7219 717 78.576 1339.12 459.543
441 0 64.0735 13.188 845 76.413 1338.89 458.679
442 0 66.089 13.7693 910 74.8132 1339.25 456.524
443 0 67.0563 12.7356 854 76.6218 1339.21 453.007
444 0 71.2076 12.948 922 75.6735 1339.45 453.087
445 0 73.1187 11.0505 808 78.9641 1339.2 448.148
446 0 73.1042 11.4631 838 78.8031 1339.58 449.368
447 0 77.1148 12.436 959 77.8936 1338.31 449.839
448 0 80.1263 12.8173 1027 77.6212 1339.07 447.253
449 0 85.1748 11.8932 1013 79.6545 1338.51 444.355
450 0 87.1478 13.6091 1186 77.0008 1339.03 441.135
451 0 89.0788 11.922 1062 79.8437 1339.04 441.535
452 0 91.0588 13.2442 1206 78.4718 1339.3 438.677
453 0 96.1806 13.5058 1299 78.9068 1338.86 437.985
454 0 98.0585 12.6761 1243 79.8664 1338.73 435.837
455 0 101.081 12.1783 1231 81.3306 1338.43 430.834
456 1 51.0561 10.1653 519 82.8516 1338.66 460.069
457 0 53.0568 11.1579 592 94.8699 1338.12 462.905
458 0 57.0946 11.9101 680 92.8765 1339.42 464.756
459 0 60.1116 13.0091 782 91.6036 1338.32 459.834
460 0 60.0592 12.6708 761 93.7083 1338.47 459.112
461 0 64.1955 11.7921 757 94.5984 1339.4 456.482
462 0 64.1505 12.1589 780 95.5808 1338.86 454.144
463 0 67.2377 12.3591 831 92.4693 1338.61 458.486
464 0 69.0789 12.8838 890 93.6596 1338.46 453.435
465 0 73.1085 13.1585 962 92.2713 1338.62 453.168
466 0 76.1318 12.2025 929 94.2034 1337.9 451.98
467 0 79.1173 13.4989 1068 91.1217 1339.22 450.262
468 0 81.1639 12.5302 1017 93.5506 1338.88 448.945
469 0 83.0961 13.4062 1114 91.5449 1339.05 445.244
470 1 41.1116 10.2891 423 89.1348 1338.2 464.832
471 0 43.2052 11.8041 510 86.7274 1338.16 464.586
472 0 43.0749 10.7719 464 92.2134 1339.22 460.95
473 0 46.0471 10.6413 490 91.2163 1339.98 461.033
474 0 46.071 11.5257 531 90.2279 1339.72 461.03
475 0 48.3371 11.9784 579 88.5406 1340.26 459.94
476 0 49.045 10.9899 539 91.2263 1339.14 459.347
477 0 49.0722 11.7989 579 89.6857 1339.77 459.249
478 0 53.2748 11.9006 634 88.2256 1340.15 459.454
479 0 52.0349 13.8177 719 86.7302 1339.99 458.167
480 0 54.0602 11.5612 625 91.3632 1339.86 457.507
481 0 52.0845 11.2701 587 92.9523 1339.6 453.915
482 0 60.0592 11.6885 702 90.1467 1339.33 456.977
483 0 59.108 12.824 758 88.6517 1339.61 457.256
484 0 59.1635 11.8147 699 88.5136 1339.79 455.316
485 0 62.0934 12.143 754 90.2798 1340.78 457.001
486 0 61.0406 11.3203 691 93.8712 1340.59 454.174
487 0 67.0858 12.4617 836 90.2476 1339.81 452.134
488 0 68.0805 12.1768 829 92.3136 1339.66 450.06
489 0 72.0805 13.6098 981 88.9552 1339.66 450.186
490 0 78.2143 13.0539 1021 89.7806 1338.96 446.865
491 0 76.1346 11.217 854 94.9309 1340.32 446.437
492 0 76.1298 11.9533 910 96.5835 1340.13 445.655
493 0 83.102 12.7313 1058 94.3384 1339.83 442.297
494 0 85.0977 13.3141 1133 95.5587 1339.13 444.967
495 0 89.1587 13.0329 1162 95.1411 1339.02 442.996
496 0 92.1709 13.182 1215 95.9416 1338.86 439.354
497 0 97.285 13.7842 1341 94.1096 1339.29 438.612
498 0 100.206 13.0532 1308 95.7943 1340 437.762
499 1 52.1327 11.3173 590 98.0339 1339.75 462.414
500 0 51.1449 9.26779 474 98.0211 1340.51 459.584
501 0 55.1282 11.1377 614 87.8518 1339.64 459.568
502 0 56.03 11.4403 641 88.8487 1338.43 458.716
503 0 58.1417 10.0444 584 90.6918 1338.61 459.144
504 0 60.057 11.5224 692 88.2962 1338.53 459.134
505 0 61.1431 11.3995 697 90.3788 1338.44 455.541
506 0 65.1258 11.7926 768 88.806 1338.24 455.461
507 0 65.0481 11.1149 723 90.8562 1339.11 453.185
508 0 70.0735 12.2443 858 88.6375 1338.39 452.344
509 0 70.0913 10.5577 740 92.4986 1339.3 449.089
510 0 72.0555 10.9499 789 92.4411 1338.45 448.915
511 0 78.0755 13.6663 1067 86.5239 1338.38 448.905
512 0 77.0642 11.2114 864 91.2986 1338.79 449.3
513 0 84.0713 11.2642 947 91.2027 1338.7 445.417
514 0 84.1175 11.6979 984 91.6555 1338.68 444.262
515 0 87.1261 12.5909 1097 89.7694 1339.32 441.858
516 0 89.0744 13.5056 1203 88.5445 1339.53 438.288
517 0 95.1135 13.4366 1278 88.1596 1339.26 440.873
518 0 96.1352 12.7009 1221 91.5356 1339.46 435.746
519 0 98.0769 14.0196 1375 90.3644 1339.42 434.372
520 0 105.128 13.4884 1418 89.6721 1338.81 431.194
521 1 62.2297 11.6665 726 90.5758 1338.87 460.171
522 0 62.1999 10.4341 649 93.3374 1338.17 454.137
523 0 63.1195 11.9297 753 91.9814 1338.69 452.235
524 0 64.0553 10.4441 669 94.7444 1338.75 449.227
525 0 67.107 12.3236 827 90.7279 1339.4 447.491
526 0 69.0391 12.8333 886 89.2472 1339.33 448.231
527 0 71.0607 11.9898 852 90.5035 1340.33 447.19
528 0 74.0854 12.7151 942 89.2484 1339.57 445.484
529 0 76.0302 11.9821 911 92.5499 1339.09 431.019
530 0 81.1431 12.3609 1003 90.1017 1338.84 431.436
531 0 85.0759 11.7777 1002 85.4541 1338.5 425.406
532 0 85.1433 11.5217 981 88.6218 1338.84 421.152
533 0 90.0917 9.88992 891 89.5701 1339.05 424.094
534 0 94.1921 10.33 973 89.8273 1338.97 417.35
535 0 99.1118 12.5817 1247 85.7698 1338.7 419.774
536 1 53.1084 7.56942 402 81.5249 1339.41 452.388
537 0 55.1017 8.65672 477 81.5367 1339.65 450.426
538 0 56.1465 10.3479 581 78.7676 1340.22 450.651
539 0 58.1608 9.86919 574 79.5139 1340.06 449.901
540 0 61.1618 11.4777 702 77.5613 1339.76 446.239
541 0 64.1475 10.772 691 78.0188 1339.56 450.069
542 0 62.1638 10.5206 654 79.4893 1338.68 448.963
543 0 65.185 10.6006 691 77.919 1338.78 454.783
544 0 66.1076 10.3619 685 78.4044 1339.7 451.778
545 0 68.0732 9.66606 658 80.4043 1338.63 449.857
546 0 71.0762 10.4536 743 79.4441 1338.99 450.747
547 0 75.0477 13.1516 987 75.5319 1340.19 446.015
548 0 75.072 11.4823 862 78.558 1340.08 447.418
549 0 80.181 11.9978 962 77.7609 1339.35 446.165
550 0 88.0962 10.5566 930 78.8624 1340.23 445.253
551 0 88.1324 9.04321 797 80.7767 1339.87 448.576
552 1 46.0174 9.60506 442 75.4864 1339.9 465.106
553 0 52.1811 10.0228 523 75.0076 1340.13 461.061
554 0 47.0922 9.42831 444 76.0248 1339.69 461.545
555 0 47.1523 10.3282 487 75.7803 1340.21 458.021
556 0 55.0448 11.4816 632 76.807 1340.94 466.457
557 0 56.0219 10.0675 564 81.9699 1341.4 469.853
558 0 54.0656 9.91388 536 86.2463 1339.97 467.377
559 0 57.1354 11.6565 666 77.6622 1340.32 468.686
560 0 53.0347 9.65406 512 82.0664 1340.16 470.594
561 0 55.1854 11.3798 628 82.6433 1340.18 468.011
562 0 55.0576 11.7877 649 83.396 1339.78 467.216
563 0 52.1288 10.052 524 88.1393 1339.51 467.91
564 0 56.0502 11.008 617 86.1313 1339.98 469.433
565 0 56.067 11.9857 672 86.2411 1339.63 467.811
566 0 57.0959 9.66794 552 89.4348 1340.2 468.625
567 0 59.0649 11.9699 707 85.8557 1339.1 467.369
568 0 59.0369 10.6374 628 87.6895 1339.5 468.01
569 0 61.1117 11.0126 673 86.1738 1339.45 463.444
570 0 65.0635 11.4965 748 83.3463 1339.45 462.368
571 0 65.1191 10.642 693 85.381 1338.71 458.886
572 0 67.0871 12.3273 827 80.7352 1339.27 459.612
573 0 68.0228 9.45271 643 83.5988 1338.99 463.902
574 0 71.2519 10.2032 727 83.3796 1339.91 460.845
575 0 71.1287 9.09619 647 85.7048 1340.1 456.206
576 0 76.0544 11.071 842 82.19 1340.29 459.558
577 0 78.1306 10.444 816 84.2831 1339.28 456.438
578 1 41.0591 10.7163 440 83.6227 1339.73 472.1
579 0 40.0476 9.56361 383 85.7885 1339.66 471.77
580 0 44.2113 10.5403 466 84.2339 1337.82 471.517
581 0 45.0799 10.6478 480 84.375 1337.2 472.433
582 0 45.0704 12.181 549 83.4171 1337.68 470.801
583 0 45.0994 10.8649 490 86.8469 1338.32 469.839
584 0 48.0641 12.7746 614 83.3013 1338.31 469.518
585 0 50.1882 12.2937 617 85.141 1337.69 468.712
586 0 50.0748 11.4628 574 89.8519 1337.15 467.448
587 0 51.1087 12.7963 654 87.6713 1337.57 468.061
588 0 51.0798 10.9828 561 92.2478 1338.09 469.094
589 0 53.0208 12.2405 649 91.5408 1337.62 467.612
590 0 56.1022 13.4041 752 89.7048 1338.03 464.009
591 0 58.1496 14.05 817 89.3929 1337.49 463.258
592 0 59.0887 13.1836 779 92.1553 1338.29 461.288
593 0 60.143 12.2042 734 95.4346 1337.59 464.064
594 0 63.0476 14.148 892 92.9126 1338.16 461.382
595 0 64.1664 13.3715 858 96.0559 1337.74 459.075
596 0 68.1431 14.3228 976 93.1434 1338.27 460.378
597 0 67.1049 13.1138 880 97.7966 1338.3 458.134
598 0 71.1178 12.88 916 98.5109 1337.64 457.289
599 0 73.1102 13.4865 986 98.1176 1337.77 456.155
600 0 74.0795 13.607 1008 98.0298 1338.04 454.641
601 0 77.202 13.0826 1010 99.9406 1337.9 456.931
602 0 79.1716 12.8708 1019 95.8656 1338.6 456.984
603 0 82.1058 12.9223 1061 98.2988 1338.17 455.379
604 1 42.0647 10.2699 432 106.213 1337.52 471.755
605 0 42.0682 11.3863 479 104.585 1338.7 469.662
606 0 40.1018 9.12676 366 92.4071 1339.05 466.186
607 0 40.0216 8.62034 345 92.6754 1338.9 467.67
608 0 44.1163 10.5403 465 89.1484 1339.16 466.292
609 0 44.0292 10.7202 472 89.733 1338.99 466.25
610 0 46.0628 10.3771 478 91.2364 1339.02 465.805
611 0 47.0805 10.344 487 92.0883 1338.99 465.702
612 0 49.0773 11.1661 548 90.6186 1339.33 464.721
613 0 48.0499 10.7805 518 93.7297 1338.79 462.697
614 0 49.018 11.7916 578 92.4412 1338.67 464.682
615 0 51.0894 11.9594 611 93.0278 1338.97 461.095
616 0 53.0703 10.194 541 96.1534 1338.42 461.007
617 0 56.0645 11.9149 668 92.6931 1338.42 460.78
618 0 57.1407 11.8655 678 92.3835 1338.73 461.636
619 0 57.0709 11.0564 631 96.8764 1337.43 458.778
620 0 60.075 12.501 751 94.0985 1337.99 457.639
621 0 62.0821 10.4861 651 96.8433 1338.58 458.739
622 0 64.1059 12.0582 773 94.5239 1338.74 457.207
623 0 67.0494 13.0948 878 93.0649 1338.46 456.969
624 0 71.1232 13.1743 937 93.1259 1338.53 455.141
625 0 74.0662 12.6238 935 93.477 1338.45 455.451
626 0 75.0711 13.2141 992 93.9889 1337.95 452.009
627 0 78.2935 12.1977 955 95.4743 1337.77 449.871
628 0 80.0639 14.4635 1158 91.7642 1337.26 448.053
629 0 83.1522 14.0706 1170 92.1496 1337.56 445.744
630 0 86.0932 13.799 1188 93.4646 1338.06 446.564
631 0 92.2038 15.4874 1428 93.8249 1337.96 446.721
632 1 51.062 11.8092 603 103.176 1337.45 467.405
633 0 51.0739 11.0037 562 94.5658 1337.94 462.085
634 0 53.077 11.229 596 88.5956 1337.51 464.471
635 0 52.024 11.8215 615 88.9805 1337.89 460.548
636 0 55.0269 12.0123 661 87.9894 1337.58 459.607
637 0 58.0436 12.6801 736 86.4592 1338.03 458.336
638 0 60.067 12.2863 738 87.5325 1337.28 458.15
639 0 60.0747 11.3692 683 89.3338 1337.97 455.941
640 0 62.0532 11.3612 705 89.3716 1337.37 455.787
641 0 66.0895 12.5738 831 86.6931 1337.87 453.91
642 0 67.0938 13.8463 929 86.2422 1337.82 452.036
643 0 71.1469 12.3828 881 88.8933 1337.94 450.736
644 0 73.1045 12.489 913 89.3812 1337.44 449.119
645 0 77.1646 13.2055 1019 88.2993 1337.18 450.725
646 0 79.2598 13.2602 1051 89.9172 1336.98 448.73
647 0 81.1828 13.1185 1065 91.5465 1338.04 444.39
648 0 84.226 13.2619 1117 93.8075 1337.88 443.415
649 0 88.088 13.2141 1164 103.958 1338.32 447.431
650 0 91.1229 12.4667 1136 106.79 1337.84 444.133
651 0 93.0943 14.5014 1350 102.566 1337.64 440.104
652 0 96.2812 14.0838 1356 101.796 1337.67 440.542
653 0 99.1647 14.007 1389 101.839 1337.75 435.197
654 0 105.172 13.9866 1471 101.553 1338.43 434.404
655 1 55.0492 10.7903 594 106.571 1337.8 457.008
656 0 60.2186 11.6409 701 103.096 1338.02 457.451
657 0 62.0655 12.374 768 102.931 1338.22 461.583
658 0 67.1736 12.4751 838 102.05 1339.23 460.377
659 0 67.1823 12.414 834 102.211 1339.19 461.802
660 0 69.0664 13.4074 926 102.185 1338.6 458.714
661 0 72.0595 13.0309 939 101.708 1338.34 457.354
662 0 72.0749 11.5297 831 106.887 1338.13 455.909
663 0 74.0737 11.2186 831 108.596 1337.9 452.623
664 0 77.0916 11.8041 910 106.77 1338.65 451.31
665 0 82.0557 13.8808 1139 101.488 1338.35 451.185
666 0 81.0391 13.1418 1065 105.654 1338.73 444.162
667 0 85.3364 12.7495 1088 106.012 1338.7 443.369
668 0 90.1034 12.4191 1119 104.8 1339.23 444.497
669 0 95.3012 12.7595 1216 104.417 1339.41 441.282
670 0 98.1407 12.3598 1213 105.95 1339.73 439.788
671 1 50.2168 11.2512 565 98.2885 1339.57 467.586
672 0 53.0971 12.4489 661 98.5552 1338.92 469.803
673 0 53.0471 12.8377 681 97.2335 1338.57 468.582
674 0 55.0798 12.7451 702 97.7664 1338 468.172
675 0 54.0888 11.4626 620 101.634 1337.67 467.54
676 0 58.0698 13.1738 765 97.2209 1338.73 466.77
677 0 59.0212 12.3345 728 99.092 1338.69 465.589
678 0 61.1268 12.8422 785 97.8955 1339.56 464.154
679 0 64.0522 12.3025 788 98.8084 1339.24 462.618
680 0 66.0613 11.8224 781 100.33 1338.78 462.671
681 0 68.1196 12.1991 831 99.9844 1337.97 460.335
682 0 72.1575 12.5559 906 99.1137 1337.96 458.138
683 0 73.0579 13.3456 975 98.279 1338.78 455.938
684 1 87.0452 19.2314 1674 80.1816 1338.68 446.908
685 0 93.2451 18.5211 1727 81.161 1338.17 446.922
686 0 93.2058 21.5652 2010 76.4493 1338.26 441.518
687 0 95.1302 16.8506 1603 85.5209 1338.43 444.89
688 0 95.253 14.8867 1418 91.2856 1339.78 447.822
689 0 97.4899 16.2171 1581 88.8261 1338.94 443.005
690 0 103.239 17.1931 1775 85.622 1338.75 439.888
691 1 52.3192 12.3855 648 98.8843 1338.67 465.029
692 0 55.1669 10.4229 575 100.482 1338.99 462.99
693 0 51.086 12.1755 622 95.3746 1338.07 459.625
694 0 53.1596 11.8511 630 95.8857 1338.94 456.603
695 0 55.0379 10.8107 595 98.5681 1339.08 459.538
696 0 56.1785 12.7095 714 93.9972 1339.21 458.228
697 0 59.2402 12.9135 765 91.4928 1339.45 455.605
698 0 59.1602 10.6152 628 97.3073 1339.43 455.712
699 0 60.0968 10.8325 651 97.7819 1339.42 454.826
700 0 64.1008 10.3431 663 98.3952 1339.06 452.683
701 0 67.1314 10.7699 723 98.6169 1338.98 450.78
702 0 67.2247 11.5285 775 96.1226 1338.93 452.036
703 0 71.2076 11.7965 840 96.2881 1338.55 449.173
704 0 75.1464 12.1363 912 95.2632 1338.96 450.724
705 0 74.1428 11.6397 863 98.3708 1339.02 446.708
706 0 76.1816 12.2208 931 97.8228 1339.28 446.393
707 0 82.1269 12.7851 1050 95.5771 1339.09 443.275
708 0 81.0759 13.0002 1054 96.5095 1338.83 442.543
709 0 86.2736 11.8229 1020 96.6637 1338.9 441.924
710 0 88.26 11.908 1051 97.0923 1339.03 439.631
711 0 94.214 12.185 1148 95.23 1339.82 435.196
712 1 45.2247 10.2157 462 91.1515 1340 460.141
713 0 48.0264 11.3896 547 81.83 1340.36 460.92
714 0 48.0511 10.801 519 83.4836 1339.92 457.661
715 0 48.0649 11.5677 556 84.2122 1339.63 457.376
716 0 49.0487 11.1318 546 84.63 1339.96 458.064
717 0 52.0842 11.5006 599 85.0618 1339.74 455.466
718 0 57.0519 12.7252 726 81.0262 1339.64 453.866
719 0 59.113 10.7929 638 83.0439 1339.97 452.762
720 0 59.1704 10.8331 641 84.0203 1339.89 449.61
721 0 64.1003 12.4492 798 80.3358 1340.45 451.162
722 0 67.0948 11.5359 774 82.301 1340.66 449.119
723 0 70.1291 12.4342 872 81.2557 1340.7 448.64
724 0 72.0841 14.4831 1044 78.4052 1340.44 446.882
725 0 75.1659 12.8117 963 81.8172 1340.11 445.296
726 0 75.1882 12.2626 922 84.0889 1340.58 444.646
727 0 79.2111 11.3747 901 86.4029 1339.6 444.211
728 0 82.1866 12.8853 1059 84.8754 1339.78 441.293
729 0 86.272 12.391 1069 86.7792 1339.68 440.364
730 0 89.1273 11.9716 1067 90.1828 1339.36 441.224
731 1 49.1333 10.8887 535 94.9776 1338.99 466.422
732 0 48.105 11.4333 550 88.1491 1339.79 460.755
733 0 52.3938 12.5206 656 92.7729 1339.5 463.855
734 0 54.2314 11.6538 632 95.3655 1339.53 465.856
735 0 56.2843 12.2414 689 93.5864 1339.96 466.215
736 0 59.2426 12.778 757 93.1466 1338.49 463.412
737 0 61.254 13.9256 853 90.6706 1339.07 464.482
738 0 64.3816 13.4045 863 92.2283 1339.21 460.032
739 0 65.4577 13.0924 857 94.035 1338.45 460.19
740 0 67.2282 13.1344 883 91.949 1338.22 457.092
741 0 69.2908 12.0074 832 92.5938 1339.03 453.632
742 0 73.3695 13.1662 966 89.2391 1339.12 455.788
743 0 75.1608 13.4379 1010 87.7842 1339 455.94
744 0 77.2059 13.315 1028 84.6683 1340.06 452.804
745 0 76.1234 10.6538 811 90.566 1338.48 453.298
746 0 83.2278 11.0059 916 89.5033 1338.29 449.528
747 0 86.2773 11.3355 978 88.5112 1338.89 450.359
748 0 88.2525 11.3651 1003 87.5793 1338.93 449.974
749 0 91.3077 11.8939 1086 87.2643 1339.29 445.821
750 0 98.3454 14.3779 1414 81.1132 1339.65 445.02
751 1 53.2749 10.5678 563 79.9059 1339.21 468.236
752 0 53.4454 8.40109 449 82.2294 1338.96 469.27
753 0 56.1209 11.0298 619 78.6979 1339.3 465.307
754 0 57.1676 9.25349 529 81.0416 1339.57 467.238
755 0 58.1821 10.639 619 81.5961 1338.71 465.436
756 0 61.1959 9.95165 609 80.9376 1339.95 466.453
757 0 64.2392 10.7255 689 80.4993 1339.6 463.295
758 0 68.2753 11.9663 817 78.9804 1339.54 462.378
759 0 70.1604 9.89163 694 82.5317 1339.37 460.362
760 0 72.1183 11.8278 853 80.6999 1339.53 460.273
761 0 75.0939 11.8518 890 82.5831 1339.2 458.045
762 0 77.0962 10.1951 786 85.9847 1338.25 456.768
763 0 80.1633 11.277 904 84.3739 1338.29 455.257
764 0 82.0749 10.2224 839 86.1943 1338.04 452.98
765 0 87.1421 11.5903 1010 83.8931 1338.43 453.175
766 0 90.1996 12.04 1086 82.511 1338.86 452.68
767 0 94.1862 12.8469 1210 83.6322 1337.27 446.964
768 0 95.23 11.5405 1099 86.263 1337.84 444.036
769 0 99.3279 13.4705 1338 82.0321 1337.89 444.031
770 0 102.224 10.9074 1115 85.9561 1338.48 442.77
771 0 106.38 13.3389 1419 82.1656 1337.35 439.348
772 1 58.2213 12.401 722 83.5734 1337.63 461.486
773 0 56.1911 11.9414 671 86.6095 1337.17 465.703
774 0 63.2449 12.7599 807 82.0174 1338.37 465.528
775 0 64.2344 14.5094 932 79.9185 1337.93 465.47
776 0 66.2457 13.4348 890 82.273 1338.49 463.679
777 0 68.3144 14.082 962 82.3545 1338.76 460.903
778 0 70.3171 12.8276 902 84.5721 1338.29 459.202
779 0 71.1129 13.5278 962 83.3118 1337.65 459.706
780 0 73.1678 13.5169 989 82.5308 1337.24 460.436
781 0 75.0923 14.1825 1065 82.647 1336.68 455.226
782 0 77.2803 12.8364 992 86.1673 1338.12 451.28
783 0 75.2212 13.0947 985 137.031 1337.09 449.42
784 0 83.2581 14.5331 1210 85.2926 1337.8 447.698
785 0 83.3339 12.4679 1039 90.256 1337.94 445.969
786 0 88.4927 13.3344 1180 89.411 1337.86 443.803
787 0 92.2599 14.8927 1374 86.933 1337.49 444.686
788 0 94.4598 14.8952 1407 85.8024 1338.93 443.854
789 0 97.1188 15.0434 1461 84.4641 1337.48 443.916
790 0 100.113 13.6445 1366 86.5022 1337.73 445.187
791 0 105.217 14.5605 1532 84.7324 1337.87 439.828
792 0 108.454 14.6329 1587 83.9836 1337.44 435.056
793 1 59.1325 11.1275 658 93.5486 1336.46 461.764
794 0 60.1345 12.9377 778 91.829 1337.57 458.505
795 0 64.2326 13.7158 881 88.1771 1337.28 458.502
796 0 67.2658 13.4095 902 89.9789 1338 455.167
797 0 68.1658 13.3351 909 90.3949 1338.34 456.145
798 0 70.1199 13.4626 944 91.3612 1337.89 453.798
799 0 75.1628 13.4109 1008 91.002 1337.67 452.997
800 0 75.1541 14.0644 1057 144.798 1338.69 453.884
801 0 78.2862 12.6715 992 94.754 1338.01 448.967
802 0 82.1262 13.8933 1141 92.2428 1337.52 447.59
803 0 82.1262 13.8811 1140 146.381 1336.53 447.596
804 0 87.1156 14.234 1240 93.3476 1336.96 444.756
805 0 90.0379 15.127 1362 88.348 1337.55 448.678
806 0 93.2063 13.1751 1228 92.8143 1337.59 447.761
807 0 96.1311 14.4074 1385 90.7256 1337.45 446.344
808 0 101.228 15.9245 1612 88.152 1336.82 440.304
809 0 102.128 13.2089 1349 94.3202 1336.86 439.819
810 0 105.145 14.3991 1514 92.3699 1337.68 437.732
811 0 110.207 15.9971 1763 88.2683 1337.72 437.47
812 0 114.165 14.4265 1647 91.8336 1337.91 434.012
813 1 57.1832 11.4544 655 97.4198 1337.09 460.127
814 0 62.108 11.7537 730 96.4753 1337.24 457.83
815 0 63.1594 13.458 850 93.3612 1337.83 457.069
816 0 68.0408 14.3003 973 89.1706 1337.92 458.775
817 0 68.0583 13.3415 908 93.4053 1337.08 455.208
818 0 72.0874 13.9553 1006 91.1551 1337.6 455.374
819 0 72.0976 13.6204 982 91.7607 1337.65 457.306
820 0 76.1254 13.0443 993 92.5126 1337.48 456.413
821 0 79.0999 13.7042 1084 91.4013 1337.11 454.551
822 0 77.1162 13.0841 1009 94.772 1337.03 449.385
823 0 81.2339 12.9256 1050 94.8848 1336.6 449.75
824 0 83.0718 12.4591 1035 95.5903 1337.32 446.79
825 0 89.2649 13.3535 1192 93.0008 1337.34 446.19
826 0 89.1581 12.9769 1157 95.5091 1337.35 441.99
827 0 94.3576 13.9469 1316 93.0745 1337.5 441.805
828 0 98.1392 13.4197 1317 93.9719 1337.83 439.118
829 0 101.247 12.9584 1312 95.2165 1336.64 437.957
830 0 103.5 12.7246 1317 96.3926 1337.43 436.014
831 1 55.1657 10.8038 596 98.901 1336.93 459.951
832 0 58.0287 11.5115 668 95.5569 1336.94 460.632
833 0 65.0544 14.6185 951 87.5994 1337.26 459.441
834 0 66.1175 11.3737 752 93.6582 1336.99 460.823
835 0 66.0494 11.2946 746 93.6354 1337.45 458.752
836 0 69.2482 12.3902 858 92.0828 1336.66 455.704
837 0 72.0931 12.4006 894 92.9407 1337.57 452.799
838 0 74.0791 11.7712 872 94.7695 1337.52 447.109
839 0 78.2784 14.9467 1170 88.8761 1337.74 448.85
840 0 84.2163 13.5247 1139 89.914 1337.66 445.961
841 0 83.2918 12.15 1012 93.4763 1337.83 442.674
842 0 88.556 13.5282 1198 89.2596 1337.5 442.939
843 0 92.1944 13.6885 1262 89.7861 1338.17 440.699
844 0 95.4475 12.8343 1225 92.0776 1338.18 439.758
845 0 100.208 13.6017 1363 90.8188 1338.83 436.035
846 0 106.279 14.5749 1549 88.6979 1338.73 435.931
847 0 108.17 13.4326 1453 89.98 1337.89 431.55
848 0 113.09 12.017 1359 92.816 1339.32 427.751
849 1 59.1814 11.6084 687 86.821 1339.66 457.294
850 0 59.1005 10.2368 605 90.0347 1339.31 456.679
851 0 61.1787 11.5236 705 87.9192 1338.46 453.214
852 0 64.1431 11.412 732 87.5246 1338.92 456.346
853 0 68.0866 11.0154 750 88.552 1338.15 455.107
854 0 70.1537 11.8597 832 88.107 1338.12 455.362
855 0 70.2638 9.23661 649 92.9538 1339.3 451.243
856 0 77.0688 10.9253 842 90.3135 1338.43 450.629
857 0 80.1367 12.2416 981 88.9052 1338.52 448.344
858 0 82.3353 12.5584 1034 87.8926 1338.42 451.009
859 0 85.1743 12.6564 1078 89.5408 1338.15 444.801
860 0 88.2714 11.8838 1049 91.1878 1337.96 444.786
861 0 91.2651 12.5459 1145 90.6218 1337.57 443.582
862 0 96.177 13.0281 1253 89.2714 1337.66 442.441
863 0 98.078 11.0728 1086 87.918 1337.98 442.118
864 0 99.2253 12.1138 1202 89.5865 1337.6 436.577
865 1 54.0659 10.4687 566 88.3887 1338.88 461.991
866 0 55.064 11.3504 625 87.1072 1338.84 463.621
867 0 57.1933 9.75638 558 84.6559 1338.08 464.695
868 0 57.1298 10.0823 576 85.9896 1338.27 461.408
869 0 61.1259 10.6011 648 84.4537 1338.24 461.995
870 0 63.159 10.1965 644 85.9783 1338.5 461.599
871 0 66.0789 10.9263 722 84.9155 1338.17 461.241
872 0 67.1356 9.69679 651 88.4178 1338.22 459.066
873 0 70.096 10.9136 765 87.817 1337.71 456.144
874 0 73.1271 11.227 821 88.4068 1338.03 457.09
875 0 78.0312 12.2771 958 86.7787 1338.57 454.938
876 0 76.0925 10.3295 786 92.5611 1338.01 453.412
877 0 83.1566 11.6407 968 90.3564 1338.54 453.128
878 0 84.0697 12.4302 1045 91.3818 1338.14 450.249
879 0 89.1689 12.8072 1142 90.6778 1337.67 449.947
880 1 47.0174 10.9108 513 93.421 1338.22 470.29
881 0 49.0462 11.377 558 93.1918 1339.35 469.027
882 0 48.1913 11.8278 570 89.2316 1339.03 469.6
883 0 51.1719 12.6436 647 88.9814 1337.63 469.275
884 0 54.2499 14.083 764 95.3573 1337.32 470.209
885 0 56.0858 12.677 711 97.993 1337.46 468.332
886 0 57.1514 14.0679 804 93.9515 1337.55 469.382
887 0 60.1424 14.4989 872 93.5849 1337.6 465.35
888 0 58.0625 13.8644 805 97.1416 1338.42 467.005
889 0 57.1689 10.5477 603 104.648 1338.53 466.947
890 0 62.3747 13.2105 824 97.8155 1338.32 464.322
891 0 65.2526 13.0263 850 98.2576 1338.14 462.953
892 0 65.1699 13.1963 860 99.5837 1337.88 462.116
893 0 68.0746 13.9259 948 98.1181 1338.29 460.164
894 0 70.0518 12.2909 861 101.117 1337.7 460.495
895 0 72.0895 13.5803 979 99.3749 1338.01 458.792
896 0 77.0505 14.5489 1121 95.1731 1338.99 456.837
897 0 82.108 14.4322 1185 95.0802 1338.63 456.263
898 0 83.1542 14.3468 1193 96.3143 1338.57 452.59
899 0 87.1563 13.2521 1155 98.0355 1338.82 450.837
900 1 45.0455 11.6993 527 104.685 1338.42 470.949
901 0 48.1187 12.3237 593 103.545 1339.8 468.744
902 0 51.306 12.5326 643 101.914 1339.29 470.624
903 0 54.0365 14.8603 803 94.335 1338.48 468.457
904 0 53.0271 14.3323 760 96.3987 1338.9 468.058
905 0 54.0322 15.1761 820 95.8817 1338.63 467.023
906 0 55.0939 14.3392 790 98.7949 1338.09 466.042
907 0 57.1291 15.0536 860 96.1733 1339.2 465.181
908 0 58.0358 14.6289 849 98.1967 1338.78 464.605
909 0 60.0577 15.3353 921 96.709 1338.52 464.232
910 0 63.0603 15.4138 972 95.5946 1338.93 463.467
911 0 66.1079 14.5066 959 96.7831 1338.89 463.038
912 0 69.043 14.7155 1016 96.5679 1338.78 461.45
913 0 69.088 15.5309 1073 95.5331 1338.98 458.431
914 0 72.0364 15.8253 1140 94.3614 1339.28 459.404
915 0 74.134 14.7031 1090 97.8615 1338.43 457.596
916 0 78.1137 16.3096 1274 93.9035 1338.59 455.611
917 0 79.116 16.3431 1293 94.9559 1338.19 453.418
918 0 81.0693 16.085 1304 96.0452 1337.78 453.116
919 0 84.1396 15.0464 1266 98.3768 1337.55 451.912
920 0 89.1225 15.9219 1419 95.0204 1337.83 451.606
921 0 91.0496 14.7392 1342 97.6043 1338.16 449.876
922 0 96.1168 14.7009 1413 96.9611 1338.48 448.052
923 0 99.0955 14.0168 1389 98.7991 1338.41 447.074
924 1 52.0583 15.0408 783 100.802 1338.82 467.13
925 0 54.1167 13.9329 754 102.282 1338.35 466.768
926 0 56.1021 14.0636 789 101.536 1338.49 466.01
927 0 57.0821 15.6441 893 99.8499 1337.96 462.933
928 0 58.0335 13.8024 801 103.632 1337.91 463.077
929 0 61.0644 14.4601 883 100.87 1338.03 462.971
930 0 64.1141 14.4742 928 100.392 1338.73 461.223
931 0 66.0866 14.9803 990 99.8818 1338.51 460.315
932 0 70.1426 15.2974 1073 98.0839 1339.01 458.177
933 0 69.0679 13.7256 948 102.281 1338.66 457.152
934 0 73.2166 14.8737 1089 100.267 1338.43 455.25
935 0 76.1237 15.015 1143 99.4322 1338.52 452.708
936 0 76.1237 15.0282 1144 145.134 1338.53 452.802
937 0 82.1064 13.5799 1115 101.194 1338.03 452.08
938 0 85.1496 13.353 1137 100.834 1338.22 450.014
939 0 89.2535 14.7557 1317 97.7001 1337.9 447.522
940 0 94.064 15.0961 1420 95.4408 1338.45 442.999
941 1 51.0684 14.8428 758 93.9024 1338.58 464.107
942 0 53.1375 14.152 752 93.5386 1338.38 463.547
943 0 54.1015 12.9941 703 95.771 1338.57 461.576
944 0 58.11 14.6446 851 92.2209 1337.83 459.579
945 0 59.1563 14.9266 883 91.8969 1338.17 458.113
946 0 64.0929 13.418 860 93.5128 1337.98 456.524
947 0 66.2218 13.334 883 93.7939 1337.71 457.702
948 0 68.0325 14.6989 1000 92.193 1337.6 453.817
949 0 72.177 13.5362 977 91.6888 1338.59 456.051
950 0 75.0768 13.8125 1037 92.0762 1338.65 452.836
951 0 80.0901 13.9593 1118 91.6538 1338.67 450.08
952 0 81.1184 14.3987 1168 91.2988 1338.23 448.169
953 0 84.169 13.259 1116 93.6138 1338.48 448.32
954 0 86.2821 15.4609 1334 90.2564 1338.37 446.867
955 0 90.1986 14.3794 1297 91.9815 1338.29 443.661
956 0 96.1742 14.1826 1364 92.4633 1337.95 442.372
957 0 100.105 14.4549 1447 91.4008 1338.42 438.998
958 0 105.075 15.3319 1611 88.5903 1338.64 438.088
959 0 107.124 13.9931 1499 92.7232 1338.5 433.246
960 0 112.174 14.2279 1596 93.0714 1338.04 431.989
961 0 118.113 15.9847 1888 89.4841 1338.57 429.396
962 0 122.096 14.03 1713 94.1687 1338.48 428.332
963 0 128.222 15.4264 1978 91.951 1339.11 423.5
964 0 132.146 14.2797 1887 94.2931 1339.24 423.07
965 0 137.159 15.4784 2123 92.1649 1339.04 419.314
966 0 139.167 12.5964 1753 98.4666 1338.52 417.08
967 0 149.216 14.6164 2181 92.9546 1339.11 411.512
968 0 157.104 15.1683 2383 91.5162 1338.64 409.713
969 1 73.0667 13.7819 1007 93.3237 1339.08 452.199
970 0 78.0541 13.3625 1043 95.2416 1338.77 450.99
971 0 77.0635 12.7817 985 99.2589 1337.9 447.377
972 0 81.1243 13.6457 1107 97.6477 1338.66 445.274
973 0 86.1559 13.2202 1139 97.3872 1339.32 444.078
974 0 88.1314 14.0132 1235 96.8785 1338.7 440.936
975 0 93.144 13.7958 1285 97.1214 1338.28 440.829
976 0 102.269 13.5818 1389 96.1706 1338.18 437.225
977 0 106.228 13.4616 1430 95.6266 1337.4 436.971
978 0 107.137 13.3567 1431 98.3634 1337.89 428.102
979 0 113.454 13.3446 1514 97.0892 1337.63 431.289
980 1 57.3184 11.1134 637 94.2779 1338.44 457.22
981 0 58.13 10.4249 606 96.1386 1338.33 455.163
982 0 62.2042 13.0216 810 90.4395 1338.54 458.075
983 0 62.2152 11.4442 712 96.5379 1338.05 453.478
984 0 66.1675 11.8941 787 93.3888 1339.41 455.691
985 0 69.3056 12.1491 842 93.3005 1340.04 453.919
986 0 71.2872 12.8494 916 91.9214 1339.43 455.624
987 0 72.2656 11.7068 846 95.1856 1339.33 453.102
988 0 75.2535 11.4413 861 96.6051 1338.75 451.919
989 0 78.1612 12.0264 940 96.1192 1338.57 450.962
990 0 79.1073 11.6677 923 97.0173 1339.36 449.633
991 0 82.1553 10.614 872 99.6778 1338.96 447.127
992 0 86.0826 12.0233 1035 96.685 1339.23 447.363
993 0 91.2187 12.8702 1174 95.5928 1338.74 446.349
994 0 93.1526 11.304 1053 98.8006 1339.61 443.652
995 0 97.124 11.9538 1161 98.671 1339.08 438.349
996 1 58.0934 9.51915 553 85.4955 1339.55 463.754
997 0 60.1555 11.4703 690 84.7058 1339.42 459.286
998 0 63.108 11.4407 722 84.1925 1339.56 459.651
999 0 64.1103 9.99839 641 86.1201 1339.88 457.788
1000 0 67.1335 10.561 709 85.2285 1339.96 456.829
1001 0 69.1703 9.88863 684 97.4678 1339.4 454.01
1002 0 73.1546 10.3616 758 97.2256 1338.84 451.858
1003 0 75.1064 10.372 779 97.3594 1338.96 451.199
1004 0 77.1126 9.85571 760 97.4868 1339.16 453.188
1005 0 79.1178 9.32786 738 99.2005 1338.89 447.088
1006 0 82.1683 10.5272 865 95.3133 1339.4 448.983
1007 0 85.1023 11.5273 981 95.5454 1338.8 444.267
1008 0 87.1278 9.18191 800 98.305 1339.42 443.092
1009 0 92.1252 10.4315 961 95.5088 1339.57 442.699
1010 0 95.1348 11.531 1097 93.0164 1339.87 444.024
1011 0 96.131 10.4649 1006 95.2833 1340.03 438.786
1012 0 100.119 8.57983 859 99.3865 1340.06 431.943
1013 1 60.0638 9.42331 566 84.8145 1339.99 460.703
1014 0 62.0523 9.73372 604 84.7765 1339.62 458.23
1015 0 63.0867 9.70094 612 87.0752 1339.34 457.892
1016 0 67.1319 9.48879 637 96.8038 1338.79 457.044
1017 0 69.0646 9.7445 673 96.6805 1339.06 454.471
1018 0 71.1074 10.5615 751 95.4807 1338.72 452.021
1019 0 72.2276 9.41468 680 97.3103 1339.61 449.396
1020 0 76.0989 9.89502 753 96.498 1339.62 450.086
1021 0 81.1695 9.75736 792 95.2109 1340.06 449.455
1022 0 84.2018 10.6767 899 94.4116 1340.1 446.893
1023 0 85.1653 9.78098 833 96.1993 1340.09 445.275
1024 0 87.1665 10.8528 946 94.9176 1339.36 443.486
1025 0 90.2728 10.28 928 96.5625 1339.48 441.445
1026 0 91.2118 9.93293 906 97.1711 1339.9 439.933
1027 0 96.2194 10.1227 974 96.5832 1339.55 442.359
1028 0 97.1553 8.56361 832 98.9363 1339.22 437.779
1029 0 100.155 9.2457 926 96.1361 1339.4 435.999
1030 0 105.216 9.03853 951 96.9453 1338.6 436.611
1031 0 108.24 9.48822 1027 95.85 1339.96 432.68
1032 0 112.187 8.51256 955 95.5812 1339.61 431.12
1033 0 117.273 9.23484 1083 95.2447 1339.45 434.036
1034 0 120.207 7.52867 905 99.2033 1339.68 426.629
1035 0 122.234 10.529 1287 99.5796 1339.16 429.845
1036 0 124.38 10.6448 1324 101.19 1338.7 423.024
1037 0 132.388 9.59304 1270 102.702 1338.49 424.38
1038 0 133.456 10.4679 1397 102.23 1338.37 419.382
1039 0 142.556 10.901 1554 100.151 1338.57 418.977
1040 0 145.416 10.7347 1561 102.162 1338.36 414.8
1041 0 150.268 11.8855 1786 100.163 1338.66 414.194
1042 0 160.386 13.0622 2095 96.7103 1338.99 414.092
1043 0 166.425 12.6964 2113 98.7317 1338.63 411.564
1044 1 94.2293 12.1618 1146 98.973 1339.66 442.442
1045 0 97.3601 12.5 1217 98.3706 1339.1 441.71
1046 0 102.495 13.4738 1381 95.5192 1338.44 440.002
1047 0 104.435 13.7501 1436 94.9492 1338.21 439.822
1048 0 106.44 13.5757 1445 94.5765 1338.77 435.34
1049 0 108.309 13.1383 1423 96.7245 1338.47 435.23
1050 0 112.353 12.3183 1384 95.758 1338.98 438.53
1051 1 61.1579 8.81325 539 98.9035 1339.18 460.36
1052 0 61.1303 9.60244 587 86.9574 1339.17 453.339
1053 0 64.2418 9.60435 617 85.1702 1338.66 450.822
1054 0 66.0772 10.7753 712 84.8567 1338.87 451.305
1055 0 70.1219 11.6511 817 83.1628 1338.66 452.064
1056 0 72.1076 10.2486 739 85.115 1338.35 451.968
1057 0 72.5126 11.4463 830 85.6747 1338.3 449.674
1058 0 76.3718 10.9857 839 84.8868 1338.25 453.795
1059 0 78.2414 10.7999 845 85.8438 1338.13 452.806
1060 0 81.2028 11.4035 926 84.6771 1337.85 450.387
1061 0 85.2057 12.5813 1072 84.1203 1337.97 446.95
1062 0 88.0914 12.5211 1103 84.0208 1339.06 444.892
1063 0 90.1918 13.1054 1182 83.9543 1338.55 444.561
1064 0 93.1221 11.9735 1115 87.1238 1338.15 441.909
1065 0 95.1698 11.4427 1089 87.6823 1338.52 443.164
1066 0 99.1701 12.6449 1254 85.5375 1338.17 441.866
1067 0 102.202 11.4577 1171 88.7882 1337.95 441.366
1068 0 104.152 11.0127 1147 91.6251 1338.61 433.906
1069 0 108.335 12.6644 1372 88.8171 1338.79 432.671
1070 0 114.174 13.2255 1510 86.8464 1338.53 434.27
1071 0 118.251 12.8541 1520 88.1849 1338.56 432.682
1072 1 64.059 10.4279 668 83.3503 1338.62 462.067
1073 0 63.1506 9.62777 608 88.7911 1338.88 459.574
1074 0 65.1441 9.56341 623 85.6613 1339.5 458.721
1075 0 65.1441 9.50201 619 134.546 1340.51 458.594
1076 0 70.1297 12.5197 878 81.5615 1339.48 455.102
1077 0 73.1051 13.0771 956 81.0638 1339.33 453.065
1078 0 75.109 10.7044 804 84.4192 1338.68 452.939
1079 0 78.1271 10.9053 852 84.0599 1339.59 451.431
1080 0 84.2389 10.7195 903 83.3887 1339.04 450.495
1081 0 84.0708 12.6679 1065 80.9906 1339.4 448.479
1082 0 88.063 13.7515 1211 79.1908 1339.69 445.691
1083 0 91.0664 10.388 946 84.1163 1339.41 443.27
1084 0 94.1526 10.8653 1023 83.7546 1339.7 441.002
1085 0 98.0999 12.1305 1190 81.5639 1340.89 439.335
1086 0 103.138 11.3053 1166 82.3645 1340.68 441.426
1087 1 56.099 11.9432 670 77.9403 1340.13 460.807
1088 0 57.0516 12.8305 732 77.8634 1338.99 460.363
1089 0 59.1041 11.539 682 78.4839 1340.03 460.789
1090 0 61.1397 10.4351 638 80.1301 1340.48 459.721
1091 0 61.1071 11.619 710 79.1451 1340.59 457.345
1092 0 66.0821 12.7266 841 76.8264 1340.18 457.917
1093 0 66.1119 11.6621 771 78.7639 1340.3 454.032
1094 0 71.0586 13.0315 926 76.1156 1340.02 452.294
1095 0 73.1699 12.0541 882 77.9853 1339.79 451.995
1096 0 75.1932 12.7671 960 77.0135 1339.5 450.338
1097 0 77.1324 13.0555 1007 76.7944 1339.92 448.958
1098 0 79.0921 12.5929 996 77.8333 1340.12 450.901
1099 0 83.1192 13.7634 1144 76.2823 1339.81 446.128
1100 0 86.1034 13.1702 1134 76.9788 1340.28 446.963
1101 0 91.1576 15.0618 1373 73.8813 1340.59 445.623
1102 0 94.199 13.9917 1318 76.7557 1339.66 442.529
1103 0 97.1746 14.6849 1427 75.9572 1339.75 440.869
1104 0 99.1988 14.0022 1389 78.0842 1339.8 439.587
1105 0 102.179 13.3198 1361 78.8854 1339.96 442.219
1106 0 103.184 12.9768 1339 81.8603 1340.12 439.432
1107 0 109.152 14.9975 1637 80.4404 1340.22 435.397
1108 0 110.246 14.1048 1555 84.0084 1339.76 434.677
1109 1 61.0936 11.2778 689 87.0827 1340.16 457.75
1110 0 62.0811 11.0501 686 81.8018 1339.79 453.708
1111 0 64.0762 11.6892 749 81.6756 1340.11 450.899
1112 0 66.0824 12.2877 812 81.0283 1340.1 451.175
1113 0 65.0856 10.0329 653 86.6753 1340.45 445.943
1114 0 71.0722 11.7205 833 83.3037 1339.76 446.09
1115 0 76.1107 12.7709 972 81.3251 1339.95 445.759
1116 0 77.091 13.7759 1062 81.1168 1339.35 445.89
1117 0 81.2089 12.7326 1034 83.3172 1339.36 443.953
1118 0 80.1508 11.3286 908 88.5341 1338.35 438.434
1119 0 86.2553 12.5905 1086 86.3969 1339.35 439.971
1120 0 88.1634 11.6488 1027 88.631 1339.26 438.81
1121 0 88.1694 13.7349 1211 86.4847 1339.61 437.755
1122 0 95.2231 12.5075 1191 87.7053 1339.41 436.33
1123 0 97.1419 12.7854 1242 87.843 1339.79 432.713
1124 0 101.278 13.2803 1345 86.6208 1339.79 430.738
1125 0 104.176 13.6596 1423 86.3661 1338.9 426.774
1126 0 106.079 12.9998 1379 87.1429 1339.34 431.489
1127 0 108.192 13.402 1450 84.08 1339.48 430.243
1128 0 107.09 11.5137 1233 88.2003 1339.55 426.282
1129 0 114.216 12.993 1484 86.9602 1339.33 425.877
1130 0 118.121 12.0216 1420 89.4042 1339.26 420.122
1131 0 123.2 12.5405 1545 87.9961 1338.94 418.122
1132 1 71.0943 10.5212 748 84.3048 1339.81 444.905
1133 0 72.0984 9.55639 689 81.225 1339.3 444.239
1134 0 77.1239 12.4734 962 76.5073 1339.37 444.569
1135 0 79.0882 11.1774 884 77.8541 1340.33 443.934
1136 0 81.0836 11.1367 903 78.5437 1340.44 444.244
1137 0 84.105 11.2954 950 78.7116 1340.33 436.389
1138 0 85.1298 10.6896 910 80.4934 1340.15 436.899
1139 0 90.1295 12.7483 1149 77.7842 1340.14 432.037
1140 0 91.0957 11.9325 1087 80.3947 1339.61 432.634
1141 0 93.1099 12.598 1173 80.6385 1340.1 430.407
1142 0 99.1883 12.9451 1284 81.1355 1339.58 431.902
1143 0 99.195 10.9985 1091 85.4326 1340.13 428.404
1144 0 103.097 12.8228 1322 83.475 1340.39 425.565
1145 0 107.166 12.1867 1306 86.6585 1340.04 428.574
1146 0 112.142 11.4409 1283 88.2712 1339.6 427.051
1147 0 117.086 12.478 1461 87.8522 1340.24 420.975
1148 0 121.295 12.9684 1573 93.5251 1340.87 422.769
1149 0 126.105 13.0923 1651 93.0642 1340.4 422.93
1150 0 134.187 13.1756 1768 92.2641 1340.2 421.367
1151 1 72.1043 10.8731 784 88.5089 1339.56 445.411
1152 0 73.1566 10.6211 777 92.0708 1340.14 442.024
1153 0 77.1536 11.2503 868 90.6866 1341.48 442.16
1154 0 80.092 11.9113 954 91.2201 1339.99 442.18
1155 0 81.1096 11.5029 933 93.314 1340.75 440.091
1156 0 83.0514 11.3303 941 93.9129 1340.51 440.671
1157 0 86.2359 12.0136 1036 92.8041 1340.38 438.88
1158 0 90.0953 13.297 1198 90.6661 1339.73 437.047
1159 0 94.1499 12.2995 1158 91.696 1340.38 437.366
1160 0 96.3829 12.1702 1173 92.85 1340.52 433.734
1161 0 98.1936 13.4836 1324 90.4758 1339.88 435.822
1162 0 103.206 13.9915 1444 89.4508 1340.91 433.078
1163 0 103.206 13.943 1439 152.39 1341.9 433.092
1164 0 108.159 12.7221 1376 92.5429 1339.93 425.559
1165 0 114.12 12.1714 1389 88.0785 1340.22 427.041
1166 0 113.137 12.1622 1376 87.9673 1340.37 428.176
1167 0 119.119 13.0709 1557 92.9538 1340.15 426.996
1168 0 123.23 11.5312 1421 92.8051 1339.94 424.229
1169 0 126.21 11.6156 1466 93.5784 1339.38 419.782
1170 1 73.1078 8.46695 619 89.5477 1339.34 448.278
1171 0 75.1625 10.5372 792 87.9798 1339.83 443.501
1172 0 79.1317 12.0938 957 82.0167 1340.1 446.873
1173 0 80.104 11.2104 898 82.0022 1339.94 444.705
1174 0 83.1401 10.8131 899 81.2469 1340.68 443.264
1175 0 85.0646 11.8616 1009 91.2686 1340.56 448.194
1176 0 91.0855 13.5258 1232 87.3904 1340.83 447.994
1177 0 93.1097 13.1995 1229 88.8324 1340.65 444.904
1178 0 95.1031 13.2803 1263 90.2668 1341.35 444.258
1179 0 97.18 13.1714 1280 91.7656 1340.79 439.172
1180 0 101.157 12.6932 1284 91.9595 1341.13 440.868
1181 0 104.158 13.0859 1363 92.3991 1340.33 437.026
1182 0 105.178 13.5389 1424 92.4698 1340.4 433.368
1183 0 109.173 12.3748 1351 94.2539 1340.05 435.742
1184 0 111.125 13.6603 1518 91.9361 1340.24 432.868
1185 0 109.137 12.1224 1323 94.5344 1339.78 421.921
1186 0 117.226 13.5294 1586 91.4098 1339.57 425.008
1187 0 117.17 11.7778 1380 95.1428 1340.14 421.965
1188 0 121.163 12.4048 1503 93.2003 1339.96 419.119
1189 0 130.197 12.0893 1574 92.0686 1340.14 412.49
1190 1 70.1365 10.1944 715 82.5636 1339.8 446.646
1191 0 73.2247 10.4473 765 83.4405 1340.23 441.204
1192 0 74.064 12.3137 912 79.3147 1340.31 448.944
1193 0 77.0896 11.1299 858 82.3718 1340.08 445.54
1194 0 75.0803 9.31004 699 86.8927 1340.44 440.359
1195 0 81.1684 12.7143 1032 81.9767 1339.2 442.481
1196 0 84.1537 12.0731 1016 83.7598 1338.82 439.814
1197 0 88.0691 11.9338 1051 83.4348 1339.03 440.122
1198 0 89.0584 11.15 993 85.1762 1339.92 438.997
1199 0 92.1266 11.278 1039 85.8884 1339.62 433.238
1200 0 96.123 12.2447 1177 83.5828 1340.12 436.892
1201 0 97.1126 12.2126 1186 85.2057 1340.17 433.452
1202 0 101.142 12.8631 1301 84.6833 1339.18 432.719
1203 0 103.061 12.6721 1306 87.5766 1339.35 426.682
1204 0 109.143 13.1662 1437 86.2456 1339.39 427.581
1205 0 113.228 13.7599 1558 84.6746 1339.28 428.124
1206 0 116.143 13.0787 1519 91.239 1340.18 430.911
1207 0 118.205 13.299 1572 91.8492 1339.41 425.735
1208 0 126.185 15.3108 1932 86.5388 1339.74 424.237
1209 0 126.231 12.897 1628 90.9171 1339.52 422.637
1210 0 129.223 13.5037 1745 88.6103 1340.01 415.87
1211 0 136.108 14.1211 1922 86.653 1339.85 413.823
1212 0 139.107 14.9525 2080 85.1793 1340.1 407.802
1213 0 144.193 15.1048 2178 84.5863 1339.86 407.192
1214 0 147.17 13.9158 2048 86.9292 1339 406.811
1215 1 77.0464 11.5774 892 88.8632 1339.84 438.339
1216 0 80.1166 10.8841 872 89.8073 1339.59 437.173
1217 0 81.1036 11.2325 911 89.8189 1338.9 438.033
1218 0 87.1065 12.6282 1100 86.5327 1338.52 438.444
1219 0 87.1846 13.1904 1150 85.8452 1338.49 436.715
1220 0 89.1749 10.7878 962 90.0208 1338.43 436.278
1221 0 91.1393 12.1133 1104 88.2002 1339.15 432.832
1222 0 98.1636 13.7118 1346 84.2058 1339.15 433.409
1223 0 99.0864 13.5538 1343 84.344 1338.92 432.16
1224 0 102.084 13.0774 1335 85.824 1339.43 431.416
1225 0 106.228 12.7838 1358 86.3012 1339.88 428.085
1226 0 110.212 13.0567 1439 85.2446 1340.46 426.869
1227 0 112.103 13.8355 1551 84.8433 1340.17 433.028
1228 0 118.175 14.2754 1687 83.3248 1339.44 433.005
1229 0 121.169 14.1456 1714 84.4032 1339.68 425.594
1230 0 125.165 13.8457 1733 84.0346 1339.23 422.709
1231 0 128.105 14.0978 1806 84.9153 1339.3 422.519
1232 0 131.197 14.6878 1927 85.4686 1339.18 424.858
1233 0 136.14 13.5889 1850 87.1405 1339.54 425.614
1234 0 140.169 14.4968 2032 84.6038 1340.32 418.92
1235 0 141.155 12.5536 1772 85.0243 1340.44 413.547
1236 0 145.358 13.7454 1998 83.4985 1340.71 411.313
1237 0 151.178 13.9769 2113 83.2906 1340.38 407.058
1238 0 155.265 13.8022 2143 83.7527 1340.74 407.502
1239 0 162.365 12.8045 2079 87.0067 1341.05 398.189
1240 0 169.322 13.2883 2250 85.6333 1339.71 403.751
1241 0 167.169 11.8503 1981 89.6386 1340.49 395.055
1242 0 179.317 14.9177 2675 84.4262 1339.6 391.377
1243 0 184.349 13.61 2509 87.4217 1340.57 391.384
1244 0 187.297 13.2623 2484 89.1763 1340.18 384.795
1245 0 194.284 13.1251 2550 89.8576 1340.23 387.739
1246 0 199.157 12.8592 2561 91.3194 1340.1 379.593
1247 0 210.37 15.0402 3164 87.2238 1340.01 381.12
1248 0 217.326 13.8915 3019 89.6701 1339.72 380.642
1249 0 224.459 14.9693 3360 89.1958 1339.25 370.752
1250 0 232.527 14.7897 3439 89.904 1339.16 366.202
1251 0 240.408 15.1451 3641 90.4485 1339.28 366.747
1252 0 245.376 14.1457 3471 92.4751 1338.93 363.338
1253 1 306.5 8.1305 2492 97.9394 1339.45 384.316
1254 0 306.61 9.30499 2853 98.4879 1339.07 375.023
1255 1 204.356 12.1455 2482 93.8404 1339.09 388.567
1256 1 54.2444 9.91808 538 81.961 1339.43 464.143
1257 0 57.3405 10.8475 622 79.2315 1340.18 459.805
1258 0 57.2791 9.32277 534 78.7397 1339.37 460.569
1259 0 57.1726 9.16523 524 78.2195 1340.95 464.191
1260 0 57.1402 10.413 595 78.7176 1340.54 464.501
1261 0 61.2579 11.0516 677 78.4948 1340.6 461.973
1262 0 63.1559 9.37363 592 81.5997 1340.08 461.728
1263 0 67.1464 11.4377 768 80.0964 1340.02 461.087
1264 0 68.1659 11.3987 777 82.4517 1340.5 458.774
1265 0 67.2382 10.0389 675 87.9259 1340.36 457.59
1266 0 72.3308 12.4843 903 83.4064 1340.6 457.343
1267 0 73.4013 10.8309 795 87.6076 1340.17 451.821
1268 0 76.3208 11.4386 873 86.772 1339.95 452.47
1269 0 75.1431 10.7262 806 89.4615 1339.95 450.19
1270 0 80.3422 11.9364 959 86.8352 1340.01 450.153
1271 0 83.462 12.1852 1017 87.3727 1340.32 447.419
1272 0 85.3925 13.2213 1129 85.0204 1340.88 447.508
1273 0 88.5292 12.7077 1125 87.3307 1339.96 444.716
1274 0 89.2649 11.7852 1052 89.8156 1340.85 442.012
1275 0 93.4994 12.7808 1195 87.6812 1340.77 443.705
1276 0 95.2589 13.1116 1249 88.4155 1340.8 442.665
1277 0 98.5297 13.7217 1352 88.6287 1339.67 439.999
1278 0 99.6006 12.4899 1244 91.6568 1340.09 436.639
1279 0 104.533 14.2921 1494 88.4672 1339.97 437.487
1280 0 106.328 13.4396 1429 90.2344 1339.69 437.432
1281 0 114.451 15.3952 1762 84.6487 1340.41 431.383
1282 0 116.235 15.2192 1769 84.6535 1340.65 426.837
1283 1 60.106 9.91581 596 89.8742 1340.75 458.674
1284 0 64.072 12.4703 799 84.8386 1341.06 459.566
1285 0 66.0923 13.8443 915 84.0076 1340.9 457.226
1286 0 69.2052 14.0885 975 82.6831 1341.08 457.338
1287 0 69.3199 12.3774 858 87.1014 1340.73 456.752
1288 0 75.1976 14.9207 1122 81.6346 1340.05 453.187
1289 0 73.1688 12.847 940 87.0426 1340.75 454.406
1290 0 75.2266 12.6551 952 89.0903 1341.12 451.999
1291 0 78.274 13.4272 1051 88.0076 1341.29 449.823
1292 0 77.3622 12.5255 969 90.7771 1341.96 450.627
1293 0 78.2601 11.8707 929 92.8687 1341.91 449.982
1294 0 83.3761 13.7689 1148 88.9399 1341.98 448.058
1295 0 82.3923 13.3143 1097 91.5032 1341.83 447.633
1296 0 86.2956 13.4306 1159 91.9154 1341.47 446.342
1297 0 90.1865 13.6606 1232 91.849 1341.01 444.942
1298 0 92.386 13.7792 1273 92.9277 1341.56 441.634
1299 0 94.4052 14.2471 1345 92.345 1341.03 440.004
1300 0 97.245 14.7977 1439 91.8117 1341.08 437.381
1301 0 101.32 12.9984 1317 95.044 1341.03 436.926
1302 0 104.375 12.8575 1342 95.5447 1341.19 435.44
1303 0 106.27 13.3999 1424 96.3511 1341.47 432.759
1304 0 110.187 13.5497 1493 95.7174 1342.1 429.905
1305 0 114.43 14.0872 1612 98.8685 1341.38 429.768
1306 1 61.1887 10.3941 636 92.6085 1341.24 455.824
1307 0 61.1889 10.6719 653 91.9617 1342.72 457.288
1308 0 62.1228 10.9139 678 91.5959 1342.76 458.754
1309 0 63.1386 11.9578 755 91.2993 1342.04 457.534
1310 0 64.0509 11.0069 705 92.9362 1341.14 457.861
1311 0 68.084 10.6927 728 94.5288 1341.1 455.273
1312 0 72.1301 12.8102 924 91.0238 1340.78 455.124
1313 0 71.1934 10.0009 712 97.302 1340.87 452.722
1314 0 75.2841 12.672 954 92.4885 1341.6 451.265
1315 0 78.4321 12.3546 969 93.6904 1340.38 449.065
1316 0 79.1558 12.2291 968 93.7076 1340.44 447.659
1317 0 82.2489 12.1582 1000 94.549 1340.01 446.593
1318 0 84.2124 12.5516 1057 93.7758 1339.85 445.293
1319 0 86.2648 12.1023 1044 95.0058 1339.76 444.477
1320 0 88.2875 12.2554 1082 93.598 1340.99 443.479
1321 0 92.2771 11.693 1079 95.4096 1339.81 440.607
1322 0 94.3536 12.2412 1155 93.8329 1339.96 442.506
1323 0 99.4161 12.6136 1254 93.8341 1339.96 438.123
1324 1 55.2561 10.949 605 90.9537 1340 458.962
1325 0 60.1648 12.1666 732 89.2937 1340.26 458.254
1326 0 59.0793 10.816 639 93.7668 1341.55 457.218
1327 0 60.0882 11.7328 705 95.1631 1341.4 458.216
1328 0 60.0162 10.7304 644 98.1242 1341.06 458.427
1329 0 63.1152 12.39 782 88.3363 1340.64 460.229
1330 0 65.1387 10.9612 714 92.3768 1339.91 458.269
1331 0 67.0895 12.9677 870 88.9195 1340.21 458.046
1332 0 67.0843 10.8073 725 91.9903 1340.92 455.822
1333 0 69.2141 13.0754 905 88.5028 1339.97 454.548
1334 0 69.0642 11.1635 771 91.5927 1340.62 454.062
1335 0 71.194 10.6189 756 91.6217 1339.84 455.807
1336 0 75.0721 10.5765 794 90.4018 1340.07 456.88
1337 0 76.083 10.4491 795 92.2642 1339.42 450.645
1338 0 80.1353 12.6411 1013 88.5637 1339.03 451.259
1339 0 83.1193 11.2609 936 90.8205 1339.15 450.057
1340 0 85.1211 11.0901 944 90.9555 1338.44 450.291
1341 0 86.175 11.233 968 91.1798 1338.48 450.213
1342 0 87.1782 11.3561 990 91.0252 1338.71 448.318
1343 0 92.0973 10.174 937 92.857 1338.75 448.127
1344 1 51.0732 11.4346 584 90.1524 1339.53 464.512
1345 0 53.1137 12.2379 650 86.9662 1339.4 465.82
1346 0 54.2317 10.9899 596 91.3708 1337.65 463.782
1347 0 56.233 12.6794 713 86.3352 1337.86 463.428
1348 0 54.0158 11.7003 632 87.2547 1337.75 464.566
1349 0 59.2167 12.5134 741 84.2132 1338.41 462.928
1350 0 60.1798 13.7089 825 82.5418 1338.28 461.432
1351 0 60.1109 12.0278 723 85.9212 1338.23 461.635
1352 0 62.0596 11.6501 723 87.4938 1336.57 458.557
1353 0 60.1232 11.1105 668 90.3234 1337.73 462.398
1354 0 63.1859 11.9014 752 88.7434 1337.25 459.384
1355 0 65.1046 10.2297 666 90.8784 1336.84 461.059
1356 0 67.0607 11.4821 770 88.4351 1337.27 460.247
1357 0 69.1339 13.3509 923 85.6067 1337.44 458.125
1358 0 70.0983 12.4967 876 86.718 1338.42 455.999
1359 0 67.1137 11.1304 747 91.4391 1337.78 453.604
1360 0 74.1646 12.9037 957 85.9906 1338.49 455.678
1361 0 73.1113 11.2021 819 90.0781 1338.2 452.258
1362 0 77.0964 11.3105 872 89.8566 1337.8 452.456
1363 0 78.055 10.5695 825 91.743 1337.78 449.8
1364 0 80.04 10.7196 858 91.2844 1337.76 449.148
1365 0 82.1401 11.9065 978 89.8252 1337.96 447.863
1366 0 83.1604 10.5579 878 92.8633 1337.6 444.831
1367 0 85.0862 12.0819 1028 89.7023 1337.78 446.914
1368 0 89.0288 12.5128 1114 89.4632 1337.78 439.676
1369 0 91.0777 11.3749 1036 91.0714 1337.83 442.984
1370 0 93.0898 11.8273 1101 91.0609 1337 440.17
1371 0 94.1268 10.5071 989 93.3428 1336.95 442.382
1372 0 99.149 11.8105 1171 91.8557 1337.06 438.215
1373 0 102.144 12.7566 1303 90.5088 1336.9 429.26
1374 0 107.171 12.8673 1379 90.5925 1336.76 428.458
1375 0 110.213 13.0112 1434 90.0934 1336.75 431.098
1376 0 113.14 12.7099 1438 89.911 1337.34 432.455
1377 1 67.1036 10.5509 708 91.6045 1338.13 453.764
1378 0 71.0827 10.9309 777 90.4891 1336.94 454.341
1379 0 74.1221 12.8572 953 87.5918 1336.16 454.072
1380 0 75.0882 13.584 1020 85.0147 1337.46 452.235
1381 0 78.1286 14.6937 1148 83.1132 1337.66 453
1382 0 82.1031 13.5561 1113 85.2201 1337.57 451.308
1383 0 84.0598 13.074 1099 86.5642 1337.51 450.904
1384 0 83.1868 12.1894 1014 88.218 1338.79 450.633
1385 0 88.0894 14.7918 1303 84.1374 1338.19 448.276
1386 0 90.1274 13.5697 1223 87.5879 1338.37 443.813
1387 0 93.1183 11.4263 1064 91.5085 1338.86 445.222
1388 0 94.1623 12.9882 1223 90.1218 1338.33 441.481
1389 0 98.14 13.8679 1361 89.4408 1337.35 441.821
1390 0 101.097 12.948 1309 92.5844 1337.64 439.533
1391 0 105.257 13.5478 1426 91.0687 1337.62 439.155
1392 0 108.133 13.502 1460 92.0137 1336.15 438.283
1393 0 111.202 15.1706 1687 88.1434 1336.88 433.467
1394 1 62.0976 11.8362 735 89.2068 1336.95 458.686
1395 0 64.1025 12.6984 814 91.6179 1336.56 459.747
1396 0 68.192 12.3622 843 91.4674 1336.96 460.708
1397 0 68.1713 11.7351 800 86.9125 1337.4 462.095
1398 0 68.0836 9.72334 662 91.4728 1337.55 461.909
1399 0 72.0697 12.1549 876 87.6404 1337.15 460.37
1400 0 75.0934 12.3313 926 87.8585 1337.34 458.432
1401 0 73.1666 10.7699 788 92.0152 1337.55 455.265
1402 0 78.05 12.5945 983 87.9929 1337.92 455.829
1403 0 79.093 11.2652 891 92.349 1336.27 456.639
1404 0 81.112 11.1328 903 94.0886 1336.07 454.038
1405 0 85.1254 12.8164 1091 91.7461 1335.95 453.384
1406 0 86.0642 11.3869 980 95.2959 1335.42 453.562
1407 0 89.0642 12.8447 1144 94.243 1335.25 450.857
1408 0 91.0638 12.7603 1162 95.8718 1335.68 447.407
1409 0 94.1444 13.0863 1232 95.0219 1335.87 447.72
1410 0 97.1503 13.4019 1302 95.6129 1335.25 446.935
1411 0 98.1099 13.8416 1358 95.9963 1336.66 442.272
1412 0 100.152 12.8005 1282 99.6014 1336.06 440.907
1413 0 104.176 13.9668 1455 96.9952 1336.67 439.194
1414 0 109.168 14.4365 1576 95.6294 1336.69 439.031
1415 0 109.09 14.2634 1556 97.4177 1336.86 435.485
1416 0 111.155 12.8199 1425 97.5439 1336.52 437.072
1417 0 113.318 14.2343 1613 96.7117 1335.64 430.362
1418 0 119.138 14.5462 1733 94.9746 1336.26 428.7
1419 0 120.074 13.9414 1674 96.6033 1336.4 425.82
1420 0 125.335 14.7285 1846 96.467 1336.13 424.243
1421 0 128.142 14.6713 1880 97.5824 1336.52 421.728
1422 0 133.257 13.4777 1796 101.345 1336.46 421.996
1423 0 134.237 13.6401 1831 102.638 1336.06 418.517
1424 1 78.1545 11.5668 904 102.347 1335.98 447.194
1425 0 81.0703 10.6451 863 106.98 1336.34 445.37
1426 0 84.1396 11.9801 1008 105.566 1336.57 445.066
1427 0 89.0697 12.9449 1153 102.343 1336.51 443.571
1428 0 88.0679 13.3306 1174 102.591 1336.86 441.714
1429 0 92.1194 13.1677 1213 102.655 1337.07 439.612
1430 0 96.1314 14.7402 1417 98.3698 1337.76 440.852
1431 0 96.0961 12.5291 1204 104.37 1337.05 437.191
1432 0 99.1009 13.0978 1298 103.225 1337.19 436.26
1433 0 102.268 14.11 1443 101.639 1337.1 432.716
1434 0 105.156 13.3325 1402 103.797 1336.44 433.16
1435 0 111.176 13.573 1509 102.43 1336.39 431.062
1436 0 113.179 12.7674 1445 103.767 1336.68 432.072
1437 0 113.189 12.5366 1419 103.159 1335.59 433.636
1438 0 120.107 13.896 1669 102.427 1336.02 429.853
1439 0 123.077 13.5281 1665 103.935 1335.44 425.363
1440 0 122.108 14.3397 1751 103.441 1335.98 421.139
1441 0 128.119 13.3235 1707 104.412 1335.5 422.753
1442 0 135.201 13.6612 1847 102.435 1336.04 419.683
1443 0 132.183 12.4827 1650 106.113 1336.42 421.504
1444 0 136.191 12.4311 1693 106.057 1335.78 418.05
1445 0 145.179 14.0034 2033 101.051 1336.34 417.151
1446 0 147.158 13.9646 2055 102.724 1335.36 412.855
1447 0 153.42 15.0827 2314 99.7666 1335.9 413.553
1448 0 157.307 14.3796 2262 100.799 1335.98 411.125
1449 0 160.184 12.9414 2073 105.706 1335.13 405.998
1450 0 169.114 13.7245 2321 102.622 1335.27 400.463
1451 0 173.144 14.4447 2501 100.962 1335.04 397.941
1452 0 169.3 13.1365 2224 105.855 1335.05 391.301
1453 0 186.207 14.6128 2721 100.875 1334.8 393.946
1454 0 185.232 15.6938 2907 100.128 1335.74 391.338
1455 1 195.186 14.2172 2775 102.897 1335.65 388.43
1456 0 201.26 13.9223 2802 101.326 1336.07 388.243
1457 0 209.287 13.6846 2864 102.637 1335.56 379.5
1458 1 154.161 11.7669 1814 108.169 1336.57 404.238
1459 0 158.163 14.0615 2224 103.211 1335.87 401.428
1460 0 168.181 13.9136 2340 101.937 1336.26 394.012
1461 0 172.202 13.0138 2241 102.894 1335.66 401.774
1462 0 176.326 12.0005 2116 106.145 1334.87 393.301
1463 0 182.141 13.0723 2381 103.376 1334.89 389.241
1464 0 192.234 14.2951 2748 99.1608 1335.4 388.944
1465 0 198.248 14.2397 2823 99.7499 1335.7 384.351
1466 0 202.156 14.0634 2843 101.418 1335.59 375.488
1467 0 209.318 13.2191 2767 103.568 1335.6 372.225
1468 0 216.363 13.0614 2826 104.309 1336.01 360.35
1469 0 228.276 12.9054 2946 103.379 1335.47 363.711
1470 1 56.0582 7.09977 398 82.7814 1337.61 446.304
1471 0 67.1372 9.72634 653 79.6172 1337 454.026
1472 0 73.0592 11.1416 814 80.7002 1335.75 460.704
1473 0 72.0613 10.727 773 83.7335 1336.93 456.232
1474 0 77.0987 12.2959 948 80.2458 1337.62 456.483
1475 0 77.0705 12.3264 950 80.9516 1337.25 453.872
1476 0 80.0815 12.1501 973 81.7163 1335.95 453.149
1477 0 83.0495 13.1367 1091 80.3181 1337.1 454.757
1478 0 84.1629 12.3807 1042 82.477 1336.85 452.394
1479 0 88.2301 11.7194 1034 82.9807 1336.95 450.968
1480 0 88.1359 11.6411 1026 84.73 1336.92 447.969
1481 0 90.1804 14.0829 1270 80.9913 1336.61 447.413
1482 0 94.2426 12.6482 1192 83.6426 1337.05 446.784
1483 0 96.2067 11.6208 1118 86.3596 1337.05 442.434
1484 0 98.1676 12.3564 1213 84.7502 1336.99 443.331
1485 0 104.187 12.7944 1333 82.6474 1337.76 442.104
1486 0 103.164 12.4559 1285 85.3292 1337.51 437.059
1487 0 107.155 13.2052 1415 84.2622 1337.27 436.424
1488 0 105.109 12.0637 1268 86.9408 1337.57 432.422
1489 0 111.13 13.0838 1454 85.4801 1336.82 434.953
