time division length width area intensity CMx CMy
115 0 69.0751 11.929 824 96.3034 723.467 415.592
116 0 71.138 11.4144 812 96.819 723.982 415.197
117 0 73.0564 12.1139 885 96.3853 724.177 413.47
118 0 74.0686 10.0042 741 100.521 723.63 414.123
119 0 79.1005 11.163 883 96.5436 723.501 412.976
120 0 81.1694 10.2132 829 99.2569 723.819 410.326
121 0 83.0928 10.8313 900 98.4322 723.929 408.987
122 0 88.1313 9.34969 824 100.324 723.637 407.123
123 0 90.0802 9.51374 857 100.769 723.86 407.084
124 1 50.0793 9.78448 490 97.5776 723.229 426.806
125 0 53.0503 11.7624 624 94.2853 723.542 423.718
126 0 53.0449 10.3686 550 94.1345 723.056 423.362
127 0 52.0774 10.5804 551 93.9093 723.025 423.39
128 0 55.1334 10.266 566 95.0406 723.774 421.682
129 0 56.0892 10.0911 566 96.4912 722.742 419.878
130 0 60.1085 9.93203 597 95.6348 723.035 419
131 0 61.0738 11.6417 711 91.9142 724.453 420.585
132 0 62.0703 12.9208 802 90.7145 723.244 416.425
133 0 64.1452 11.9572 767 91.4276 723.203 417.159
134 0 67.1686 12.1783 818 91.1076 723.556 412.676
135 0 68.0965 9.89771 674 95.0608 724.169 415.381
136 0 71.1126 11.4607 815 92.8785 724.253 411.363
137 0 73.1161 10.5859 774 93.3101 723.96 411.339
138 0 76.0749 11.6333 885 91.7966 724.699 408.444
139 0 79.241 11.0044 872 93.7374 723.873 407.397
140 0 83.2414 10.86 904 93.9524 724.308 408.309
141 0 86.1326 12.6317 1088 91.9761 724.001 403.835
142 0 89.1899 11.0439 985 94.734 724.03 405.531
143 1 46.048 10.337 476 92.7374 724.891 427.418
144 0 46.0282 10.9064 502 97.4064 725.376 421.631
145 0 46.0475 9.92454 457 103.462 723.142 427.372
146 0 47.1407 11.3066 533 102.37 723.139 426.507
147 0 51.0236 11.9552 610 100.308 722.241 423.482
148 0 50.0576 11.9263 597 101.601 721.709 422.204
149 0 53.0472 11.7443 623 100.748 722.212 423.225
150 0 53.0715 10.2692 545 105.378 722.431 420.266
151 0 58.1179 13.8512 805 96.0907 722.078 419.86
152 0 60.1753 12.5799 757 99.1044 722.095 419.679
153 0 60.0517 10.9572 658 101.161 723.95 416.239
154 0 62.1714 11.79 733 99.6958 723.626 417.737
155 0 61.0935 10.3775 634 92.7177 723.297 418.956
156 0 63.062 9.91089 625 93.9792 722.525 419.245
157 0 65.1207 10.0122 652 94.388 723.238 418.014
158 0 68.0929 10.8969 742 94.9164 723.08 413.299
159 0 72.2361 9.46895 684 96.7807 723.317 413.608
160 0 74.0646 12.4081 919 92.864 723.158 412.899
161 0 77.1878 9.91089 765 97.1856 723.322 412.72
162 0 81.1781 10.8157 878 97.3702 722.523 408.694
163 1 41.0489 10.4509 429 95.1305 722.981 428.145
164 0 44.1909 9.5721 423 97.2388 722.329 427.974
165 0 46.2266 11.6383 538 96.4368 721.42 425.234
166 0 47.0797 8.98476 423 97.7825 722.811 426.409
167 0 46.038 10.6434 490 96.7735 722.296 423.52
168 0 49.0434 9.99116 490 97.3061 722.82 425.704
169 0 51.0868 11.4511 585 95.1812 722.867 422.219
170 0 51.0386 11.5403 589 95.9881 722.394 423.514
171 0 56.0374 11.9206 668 94.1287 722.515 421.527
172 0 56.0433 12.2227 685 94.0453 722.874 420.896
173 0 58.0472 12.0419 699 94.2217 722.645 421.595
174 0 57.0198 12.1712 694 95.9424 722.63 417.421
175 0 59.0226 11.3516 670 97.5582 723.463 416.094
176 0 61.0686 11.2496 687 97.5167 723.001 416.769
177 0 63.0475 12.0544 760 95.9763 722.866 416.672
178 0 66.1582 12.0922 800 96.25 722.725 415.754
179 0 68.175 11.5438 787 96.972 722.717 416.009
180 0 71.0626 12.1724 865 95.963 723.067 413.496
181 0 75.0886 13.1045 984 94.4715 723.365 411.264
182 0 76.1905 12.0356 917 97.0578 723.217 409.835
183 0 78.0741 11.7324 916 98.8504 722.71 408.4
184 0 80.1979 11.7085 939 99.4952 722.931 408.532
185 0 85.104 11.9501 1017 98.3766 722.546 404.544
186 0 87.1788 13.5698 1183 95.2536 722.98 402.229
187 0 92.2117 12.8183 1182 96.165 722.867 401.992
188 1 44.0363 10.2415 451 103.701 723 420.831
189 0 48.0887 11.2501 541 95.8799 723.564 422.381
190 0 47.0517 11.0092 518 97.5753 723.276 422.517
191 0 52.162 11.4451 597 95.2496 723.513 423.196
192 0 53.0898 13.0533 693 93.3968 723.426 422.299
193 0 53.1845 11.4883 611 97.6154 723.365 420.141
194 0 55.1708 12.6335 697 95.472 723.428 418.207
195 0 56.2239 12.4324 699 96.5594 723.534 418.664
196 0 58.078 11.76 683 97.5154 723.146 419.709
197 0 61.081 11.935 729 97.8436 723.481 417.837
198 0 64.1295 13.8002 885 93.8949 723.234 417.728
199 0 63.1654 12.2535 774 99.0116 723.417 415.177
200 0 65.0856 12.4452 810 99.3432 723.499 414.032
201 0 67.0979 11.7888 791 101.228 722.625 414.215
202 0 69.0893 12.6358 873 100.095 722.536 412.833
203 0 72.0853 12.3187 888 101.574 722.714 412.509
204 0 75.1094 13.1675 989 100.413 722.786 410.255
205 0 76.0638 13.7516 1046 100.653 722.058 409.181
206 0 79.0617 13.7488 1087 100.833 722.762 407.651
207 0 80.1913 13.2558 1063 102.446 722.348 407.292
208 1 41.0545 9.06112 372 100.868 722.812 427.409
209 0 45.0721 10.2281 461 96.7202 723.785 424.772
210 0 48.0263 11.9518 574 92.7997 722.39 424.322
211 0 47.0355 11.098 522 96.1226 722.824 423.337
212 0 49.029 12.9107 633 92.6777 722.937 423.035
213 0 50.0916 12.0379 603 95.2239 722.211 422.484
214 0 49.0618 11.1288 546 98.1612 722.652 420.762
215 0 53.1593 11.7947 627 96.1372 723.864 420.491
216 0 54.0636 11.8934 643 96.297 724.369 421.076
217 0 57.0463 12.1656 694 96.7896 723.748 420.602
218 0 58.0916 11.4819 667 99.2939 723.183 419.976
219 0 58.116 10.9953 639 101.505 722.322 421.377
220 0 61.0265 12.5683 767 99.7823 722.88 418.49
221 0 63.0503 12.3394 778 100.799 722.942 417.72
222 0 66.0468 12.1883 805 100.688 722.769 417.765
223 0 67.123 13.3784 898 100.12 722.987 414.653
224 0 69.0826 11.3053 781 102.822 723.443 416.14
225 0 71.0997 12.8692 915 101.896 723.995 413.632
226 0 75.07 13.4141 1007 100.84 723.639 411.728
227 0 76.066 13.7512 1046 101.802 722.711 410.151
228 0 77.1175 12.0206 927 106.8 723.069 409.351
229 0 81.0506 12.2886 996 106.416 722.562 408.238
230 0 82.0562 11.9674 982 107.079 722.969 407.392
231 0 84.2675 11.6652 983 109.472 722.986 405.377
232 1 43.0315 12.2004 525 105.381 723.488 428.438
233 0 45.1471 11.4072 515 108.377 723.559 428.19
234 0 47.029 11.3547 534 98.427 723.61 425.921
235 0 48.0562 12.7351 612 97.8219 723.265 424.137
236 0 49.1035 12.3413 606 98.9587 723.162 424.723
237 0 49.0219 12.9738 636 99.7799 723.003 423.701
238 0 50.0397 11.271 564 104.98 722.152 422.706
239 0 54.0578 12.6346 683 101.142 722.773 421.895
240 0 54.0862 11.5371 624 103.577 722.59 422.548
241 0 57.0466 11.9551 682 102.625 722.883 421.287
242 0 59.048 12.6677 748 102.448 722.795 420.989
243 0 61.1092 13.9423 852 98.8216 722.799 418.676
244 0 61.0355 11.649 711 104.629 723.249 418.021
245 0 65.1278 12.4064 808 101.681 723.501 418.354
246 0 64.2132 12.3339 792 104.426 722.975 418.072
247 0 65.0351 11.8705 772 106.591 723.198 416.592
248 0 69.1091 12.3428 853 105.789 723.657 415.193
249 0 70.0928 11.8842 833 107.672 723.142 414.642
250 0 72.1123 12.1061 873 107.599 723.378 412.582
251 0 75.0639 12.6159 947 106.344 723.566 411.015
252 0 79.0928 12.6307 999 106.051 723.105 409.521
253 0 81.1829 12.9091 1048 106.044 724.275 407.94
254 0 84.1315 11.5415 971 108.494 723.696 407.787
255 0 88.1796 12.6787 1118 106.635 723.023 404.73
256 0 91.1878 12.1288 1106 105.427 723.612 405.938
257 0 93.0783 11.2056 1043 106.739 722.976 403.814
258 0 94.0928 11.6056 1092 111.118 721.973 405.57
259 1 50.043 11.9697 599 109.394 722.499 425.599
260 0 50.1693 11.7004 587 109.922 722.76 424.169
261 0 53.1093 11.7494 624 108.516 723.247 423.614
262 0 55.058 11.8784 654 108.45 723.15 422.849
263 0 56.2427 12.3394 694 107.876 722.29 420.323
264 0 57.0532 10.9897 627 109.85 722.805 421.925
265 0 61.1266 12.0242 735 102.041 723.11 420.536
266 0 63.1763 12.7421 805 100.022 723.696 418.253
267 0 63.0752 11.0979 700 104.006 723.876 419.406
268 0 67.0888 11.522 773 103.754 723.41 417.592
269 0 70.1181 12.1509 852 103.345 723.724 414.575
270 0 71.0925 11.6327 827 105.058 723.67 416.528
271 0 73.0499 12.4572 910 104.445 723.663 413.607
272 0 77.0676 12.7421 982 104.701 723.059 412.52
273 0 79.0939 11.5432 913 107.749 723.274 410.524
274 0 84.1455 12.2051 1027 105.082 723.529 412.074
275 1 42.0822 11.0973 467 106.39 723.287 428.874
276 0 44.1274 12.7812 564 106.509 723.285 428.787
277 0 45.0236 12.3046 554 99.5884 724.352 427.516
278 0 46.0444 11.5975 534 101.356 723.285 425.401
279 0 47.0938 11.9761 564 100.52 723.319 426.674
280 0 48.1139 11.3481 546 101.923 724.209 425.744
281 0 50.0441 11.0303 552 102.748 723.428 425.692
282 0 52.0384 11.799 614 101.66 723.616 422.406
283 0 53.0703 12.7755 678 99.5398 724.51 424.131
284 0 55.1686 11.2927 623 102.961 724.149 421.498
285 0 55.21 12.0087 663 102.659 724.012 419.354
286 0 58.1116 12.0974 703 101.235 723.63 421.094
287 0 59.2498 12.287 728 102.504 723.455 419.387
288 0 62.0852 12.4023 770 101.365 724.261 419.088
289 0 63.2395 11.4485 724 104.326 724.091 416.732
290 0 65.1147 13.361 870 100.208 724.144 416.668
291 0 67.0689 11.3316 760 104.922 724.309 414.328
292 0 70.195 11.3826 799 105.135 723.369 412.636
293 0 71.0532 12.3851 880 104.076 723.922 414.881
294 0 73.1514 10.9499 801 107.76 723.953 412.82
295 0 76.2793 11.7594 897 106.7 723.081 409.203
296 1 40.0599 10.2596 411 104.852 722.506 429.238
297 0 41.0793 11.49 472 104.367 723.214 426.161
298 0 42.02 10.8282 455 101.209 722.732 428.459
299 0 45.0086 11.42 514 98.8482 723.58 426.156
300 0 45.1635 11.4694 518 99.5907 724.461 425.361
301 0 47.032 12.6084 593 98.6998 723.723 422.319
302 0 48.0385 12.2818 590 99.5322 724.449 424.207
303 0 49.0488 11.8453 581 101.33 723.816 424.265
304 0 52.1257 13.218 689 97.643 724.044 421.623
305 0 52.0838 11.4431 596 102.128 724.445 421.634
306 0 55.0732 12.3472 680 101.124 723.531 419.309
307 0 56.0572 11.8629 665 102.247 724.117 418.451
308 0 57.0458 12.7442 727 100.268 724.276 420.886
309 0 61.1339 12.3499 755 100.98 724.379 418.37
310 0 61.0427 13.4332 820 100.522 723.971 418.166
311 0 64.0643 14.0952 903 100.398 723.586 415.628
312 0 66.038 13.7042 905 100.75 724.179 415.17
313 0 69.0694 13.4068 926 101.857 723.774 414.85
314 0 70.0711 13.1295 920 103.508 724.326 413.825
315 0 75.0788 12.7999 961 103.362 724.348 413.247
316 0 75.1941 14.1634 1065 102.146 724.456 412.681
317 0 78.1842 13.174 1030 105.305 723.992 408.769
318 0 80.207 13.6397 1094 105.805 724.022 407.69
319 0 85.2008 12.8637 1096 109.208 723.328 407.056
320 1 43.1383 10.0375 433 116.15 723.688 426.824
321 0 46.0754 11.0254 508 115.152 723.868 426.13
322 0 48.0629 11.9635 575 102.584 723.602 425.294
323 0 48.0726 11.2122 539 118.575 722.731 425.13
324 0 51.0464 12.3417 630 112.971 723.308 425.314
325 0 52.0281 12.4933 650 114.326 723.694 422.774
326 0 55.0458 12.0445 663 113.596 723.072 423.614
327 0 56.1139 13.134 737 109.323 724.341 424.503
328 0 57.0276 11.8539 676 111.688 723.794 423.735
329 0 60.1592 13.0487 785 106.438 724.936 420.357
330 0 61.0748 11.8707 725 111.407 724.058 417.348
331 0 62.0591 12.1175 752 100.888 724.609 419.606
332 0 64.0872 11.578 742 101.143 724.336 417.07
333 0 66.0474 12.8847 851 99.1528 724.195 416.653
334 0 69.0852 12.8392 887 99.0079 723.743 416.684
335 0 72.1028 12.9815 936 98.266 723.715 413.395
336 0 74.0845 13.3091 986 97.4757 724.003 413.191
337 0 76.0822 13.4065 1020 96.9931 723.754 409.703
338 0 79.0695 12.2171 966 97.823 724.286 411.79
339 0 81.0557 12.4359 1008 99.4484 724.138 410.124
340 0 83.1125 12.6335 1050 99.0038 724.198 405.52
341 0 88.136 11.8794 1047 98.5415 723.989 407.336
342 1 46.0491 10.6842 492 96.2541 723.571 426.931
343 0 46.0205 11.2559 518 91.751 724.156 426.948
344 0 49.0761 12.6946 623 88.1204 723.809 426.274
345 0 49.1214 10.6878 525 93.2457 723.31 425.223
346 0 51.1028 11.3105 578 91.872 723.547 425.199
347 0 52.0263 11.6095 604 91.9536 723.382 423.571
348 0 55.0984 11.0711 610 92.2836 724.752 420.077
349 0 56.0701 12.7697 716 90.4665 723.465 420.155
350 0 56.1173 11.5651 649 92.6733 723.775 420.564
351 0 61.1433 11.2686 689 92.2395 723.913 417.945
352 0 61.1142 12.0267 735 92.4599 723.076 418.359
353 0 64.1341 11.4448 734 93.2575 723.518 416.108
354 0 67.1355 12.7354 855 91.5789 723.779 414.077
355 0 68.216 11.317 772 95.4197 723.82 414.44
356 0 72.1303 13.3231 961 91.7825 723.522 412.713
357 0 76.169 12.4198 946 91.6924 723.263 411.242
358 0 77.0946 11.1681 861 93.9535 723.635 408.719
359 0 81.1618 10.8918 884 94.9514 723.362 407.958
360 0 86.2316 11.2488 970 93.3 723.352 408.146
361 1 40.0446 10.4384 418 94.177 722.99 429.739
362 0 43.0508 9.84884 424 88.0755 723.755 429.639
363 0 41.0704 9.37415 385 89.9377 724.758 428.971
364 0 41.0309 8.09147 332 92.4277 723.892 428.452
365 0 46.1706 9.65982 446 99.4888 723.969 426.953
366 0 47.0184 7.46516 351 102.735 724.442 426.604
367 0 50.1397 11.8269 593 93.9275 723.921 425.349
368 0 49.0462 10.5411 517 96.3037 724.605 425.783
369 0 53.0496 11.3667 603 94.8922 724.456 423.328
370 0 53.1738 9.51596 506 98.3083 724.273 423.211
371 0 53.179 10.4741 557 97.7415 723.898 422.786
372 0 56.2171 10.2104 574 98.3955 723.549 419.246
373 0 59.0288 10.7405 634 96.1388 724.339 420.174
374 0 63.1854 10.6828 675 95.8267 724.298 420.159
375 0 63.1489 10.7682 680 96.9162 724.212 419.182
376 0 65.0252 10.7343 698 98.6203 723.911 416.828
377 0 66.0499 12.8388 848 86.717 724.048 417.092
378 0 66.0753 10.7907 713 91.3226 723.537 417.784
379 0 69.0401 11.8337 817 89.9045 723.912 418.104
380 0 70.1457 12.1319 851 90.8672 723.712 412.149
381 0 74.303 11.0763 823 93.2114 723.35 415.272
382 0 74.1133 12.1841 903 92.9834 723.804 414.471
383 0 77.12 10.7365 828 96.5459 723 411.525
384 0 79.1365 10.3998 823 94.52 723.467 416.064
385 0 85.069 10.6972 910 95.0451 723.854 411.125
386 1 43.0247 10.738 462 89.9524 724.089 428.567
387 0 42.069 9.15163 385 93.4961 723.764 428.6
388 0 46.1515 9.98883 461 90.9675 722.766 427.007
389 0 46.0132 9.56247 440 92.3477 723.243 426.418
390 0 48.0746 10.6501 512 91.9609 722.543 426.676
391 0 50.0939 10.4404 523 91.9503 721.925 424.627
392 0 51.0784 11.1397 569 90.9244 722.822 424.482
393 0 53.0739 10.3817 551 92.6842 722.263 421.031
394 0 54.053 10.9522 592 92.1199 722.606 423.444
395 0 57.0604 10.4275 595 92.2824 722.274 421.701
396 0 58.0538 11.7994 685 90.2511 722.693 420.73
397 0 57.1261 10.2755 587 93.833 723.177 419.351
398 0 63.1645 10.7339 678 91.5103 723.338 420.58
399 0 65.1269 11.9613 779 89.9859 723.095 418.087
400 0 66.0983 10.7416 710 92.7099 722.473 417.304
401 0 69.1042 10.9834 759 91.9144 723.256 416.007
402 0 71.1203 11.1923 796 92.196 723.616 413.793
403 0 72.1584 10.0335 724 94.5801 723.157 412.718
404 0 77.2018 11.5671 893 92.5129 723.405 413.111
405 0 79.1499 11.9899 949 91.6438 722.943 411.882
406 1 40.0548 11.8088 473 90.2516 723.708 431.123
407 0 42.0777 11.3362 477 92.4256 723.704 428.591
408 0 43.0867 11.4188 492 86.7236 723.356 430.325
409 0 45.0159 10.8628 489 87.4765 723.307 432.035
410 0 45.0562 9.83216 443 92.4605 723.038 428.698
411 0 45.0679 10.1846 459 93.0654 723.113 426.388
412 0 49.0674 10.0474 493 91.2495 723.004 428.363
413 0 52.0984 11.9965 625 88.2928 723.011 426.024
414 0 52.1009 11.0171 574 91.0627 723.303 423.361
415 0 52.084 11.0399 575 92.0226 722.763 425.243
416 0 55.0879 11.7812 649 91.1002 723.385 423.643
417 0 58.0686 12.0891 702 89.5897 723.509 424.182
418 0 56.098 11.2838 633 93.0979 722.596 422.049
419 0 59.0952 11.7268 693 92.0967 723.061 422.553
420 0 61.0325 10.6664 651 94.1229 722.727 421.323
421 0 62.0386 11.6379 722 92.8975 722.675 420.644
422 0 66.0549 13.3071 879 89.1365 723.364 421.107
423 0 66.0451 10.9168 721 94.8183 722.588 419.298
424 0 71.1048 11.8698 844 92.09 722.996 419.046
425 0 72.1012 13.0788 943 91.2566 723.69 416.108
426 0 73.0793 13.0954 957 92.2466 723.539 416.361
427 0 77.2241 12.9364 999 93.1051 723.762 414.573
428 0 78.1071 13.5071 1055 93.4919 723.651 411.035
429 0 81.0955 12.3805 1004 96.4243 723.662 409.932
430 0 80.1475 10.6678 855 102.389 724.07 410.067
431 0 84.0947 12.2005 1026 100.189 723.673 406.874
432 0 88.2031 12.6299 1114 100.255 722.897 406.486
433 0 90.1643 12.7656 1151 101.633 722.95 406.002
434 0 92.1395 11.3849 1049 106.8 723.683 406.258
435 0 96.1294 12.2335 1176 105.401 723.637 404.286
436 0 99.1112 11.8655 1176 110.036 723.548 400.601
437 0 101.068 11.9128 1204 110.102 723.241 401.629
438 0 105.159 12.8758 1354 108.101 723.038 399.607
439 0 107.307 12.6833 1361 108.686 723.309 399.612
440 0 110.216 11.9674 1319 110.321 723.475 399.193
441 0 113.303 12.1621 1378 111.939 723.315 394.905
442 0 118.323 12.5251 1482 111.263 723.318 393.694
443 0 122.232 12.8772 1574 113.045 723.13 392.694
444 0 126.347 12.8218 1620 114.904 723.614 391.519
445 0 131.367 14.2044 1866 113.579 723.026 389.026
446 0 135.325 13.4639 1822 116.643 722.952 387.278
447 0 139.484 13.9227 1942 116.372 723.057 385.15
448 0 142.414 13.6714 1947 118.688 723.157 382.437
449 0 147.776 14.2581 2107 116.737 723.326 380.661
450 0 154.701 13.7168 2122 117.436 722.787 378.745
451 0 154.587 14.1926 2194 119.113 722.928 378.186
452 0 160.593 14.0355 2254 120.417 723.393 374.881
453 0 166.707 14.7444 2458 118 722.649 373.333
454 0 169.484 14.3081 2425 119.621 722.592 368.308
455 0 176.596 14.655 2588 117.985 723.618 365.194
456 0 180.648 13.7837 2490 119.451 722.859 364.26
457 0 185.42 14.8581 2755 114.902 723.277 360.013
458 0 193.498 15.5919 3017 111.324 723.084 361.121
459 0 197.394 14.8434 2930 111.269 723.258 355.847
460 0 201.549 12.4783 2515 117.991 723.256 356.746
461 0 211.303 13.7811 2912 114.853 723.281 349.441
462 0 218.613 13.5765 2968 116.744 723.067 344.357
463 0 219.508 12.569 2759 119.632 721.886 349.356
464 0 219.428 10.2767 2255 121.205 722.422 350.557
465 1 67.1231 10.3392 694 100.209 723.039 420.51
466 0 69.0556 11.6283 803 96.6326 722.953 421.807
467 0 71.0473 10.6689 758 98.8021 722.949 418.669
468 0 75.1785 11.1601 839 99.0965 722.998 413.322
469 0 76.0253 11.1147 845 99.329 722.756 411.27
470 0 79.1388 10.8038 855 98.3567 722.494 412.719
471 0 84.1384 8.92577 751 100.682 722.526 410.731
472 0 86.118 10.9036 939 97.6763 723.021 411
473 0 89.1521 10.8466 967 97.6422 724.096 408.259
474 0 92.1607 9.15791 844 101.372 723.492 405.603
475 1 45.037 9.65872 435 91.5126 723.469 429.559
476 0 48.141 11.134 536 99.8638 723.349 427.246
477 0 48.1367 11.9867 577 97.8631 722.435 428.192
478 0 51.0567 10.9878 561 98.5775 722.975 427.531
479 0 50.0522 10.509 526 100.257 722.757 426.057
480 0 53.1556 11.0431 587 97.9353 722.951 426.024
481 0 57.1017 12.9418 739 94.1353 722.601 424.905
482 0 56.1182 11.8678 666 97.9429 722.742 423.3
483 0 59.1302 11.3986 674 96.9496 723.012 423.442
484 0 62.0532 11.9414 741 95.7827 723.868 421.939
485 0 63.1016 11.4894 725 88.1697 723.388 422.273
486 0 66.0375 13.8709 916 84.9105 723.817 420.041
487 0 68.0498 12.2998 837 87.0072 723.22 420.934
488 0 68.0566 12.2545 834 88.6583 723 417.067
489 0 70.0655 11.2609 789 90.09 723.645 416.276
490 0 73.051 12.416 907 88.0871 723.605 414.816
491 0 74.0885 11.6887 866 89.53 723.494 413.901
492 0 78.1748 13.0477 1020 88.7735 723.077 413.018
493 0 79.1371 12.5984 997 89.9268 722.745 414.208
494 0 84.1917 11.4263 962 92.5541 723.074 412.199
495 0 86.0681 12.0602 1038 91.0934 723.061 411.261
496 0 89.0686 11.7325 1045 92.2402 723.967 408.219
497 0 92.1626 11.0999 1023 93.3988 723.02 407.869
498 0 94.111 11.3164 1065 92.4488 723.084 405.111
499 1 48.0788 10.6492 512 88.5957 723.754 429.15
500 0 50.1613 11.9614 600 86.4683 723.075 428.07
501 0 51.0425 12.1663 621 85.7971 723.407 426.659
502 0 53.0904 12.5823 668 84.9266 722.903 426.987
503 0 54.0803 11.9267 645 85.9426 722.98 426.478
504 0 54.1025 10.9237 591 89.2589 722.69 426.093
505 0 58.0702 11.9166 692 87.1012 723.608 425.611
506 0 57.0266 11.5911 661 89.0348 723.731 423.487
507 0 61.0636 13.0192 795 86.9119 722.801 422.436
508 0 63.1162 14.1327 892 85.1043 723.371 423.379
509 0 63.1017 11.8539 748 90.1404 722.44 422.979
510 0 65.1317 12.4517 811 90.349 723.404 421.866
511 0 68.086 12.4989 851 90.8966 722.89 420.769
512 0 68.1271 11.8162 805 95.0957 722.342 421.653
513 0 70.1205 11.4802 805 97.4807 723.35 421.371
514 0 72.0363 12.3826 892 98.1536 724.15 418.656
515 0 75.178 12.7431 958 98.9906 724.236 418.358
516 0 76.1363 12.2675 934 101.255 723.819 415.019
517 0 80.0939 13.4842 1080 100.088 723.915 415.774
518 0 82.0615 13.0999 1075 102.173 723.542 415.289
519 0 87.0665 12.9212 1125 103.629 723.439 414.907
520 0 88.2252 12.7855 1128 106.178 723.601 411.898
521 0 92.0665 13.1318 1209 105.931 723.427 409.955
522 1 47.0233 11.2072 527 109.406 723.051 428.973
523 0 52.1367 12.6974 662 100.502 722.967 428.926
524 0 54.15 12.8347 695 98.9468 722.781 428.299
525 0 55.0407 12.8995 710 97.0732 723.545 427.592
526 0 56.0605 13.1287 736 97.0951 723.383 426.232
527 0 58.0775 12.2939 714 99.4314 723.21 424.989
528 0 58.0734 13.569 788 97.4784 722.756 425.475
529 0 61.0424 12.5487 766 100.102 722.662 423.825
530 0 64.0527 12.4741 799 100.672 722.638 423.113
531 0 65.0764 11.9552 778 103.91 722.978 420.445
532 0 70.0659 13.0306 913 101.341 722.473 418.68
533 0 73.1015 13.1187 959 101.83 722.503 418.946
534 0 75.1286 12.9911 976 103.055 723.241 418.17
535 0 77.1161 14.1216 1089 102.401 723.6 415.091
536 0 80.1481 15.409 1235 99.7457 723.474 415.384
537 0 83.073 13.5905 1129 104.787 723.363 412.91
538 0 83.1179 13.1861 1096 109.032 723.025 412.478
539 0 85.1709 12.0581 1027 113.501 722.926 413.701
540 1 44.1023 12.7204 561 106.554 723.071 431.932
541 0 45.1066 12.016 542 101.208 723 431.607
542 0 46.0726 12.3935 571 101.739 723.2 430.953
543 0 46.1296 12.9635 598 102.548 723.426 430.005
544 0 48.0486 11.8838 571 104.306 723.333 430.876
545 0 50.1942 13.4278 674 102.785 723.819 429.2
546 0 52.0164 12.6306 657 106.311 723.198 429.07
547 0 52.073 12.8666 670 108.196 723.869 428.127
548 0 55.093 13.214 728 108.379 724.115 426.184
549 0 57.0862 14.2416 813 107.595 723.878 425.636
550 0 60.1372 15.182 913 105.245 723.43 425.192
551 0 61.0591 13.5934 830 110.902 723.159 424.917
552 0 63.1305 13.9077 878 111.803 723.145 422.788
553 0 66.1368 15.6191 1033 107.644 723.348 423.096
554 0 68.0788 14.9092 1015 110.667 723.335 421.993
555 0 69.1563 13.5635 938 122.469 724.437 419.914
556 0 71.1379 14.5492 1035 119.679 723.788 420.841
557 0 73.1864 14.6475 1072 125.919 723.352 418.601
558 0 75.1792 15.0574 1132 126.103 723.487 418.977
559 0 74.0806 15.0512 1115 121.886 723.3 418.794
560 0 75.1411 16.2228 1219 120.03 723.382 416.832
561 0 75.1669 13.8093 1038 131.322 723.172 415.471
562 0 77.1649 15.8621 1224 125.408 723.152 416.337
563 0 78.2523 15.565 1218 128.167 723.183 416.259
564 1 41.0649 13.2717 545 134.25 722.628 433.842
565 0 41.0753 12.5136 514 134.253 723.016 434.679
566 0 42.0175 13.2088 555 129.795 722.82 434.93
567 0 42.0316 11.1583 469 134.706 723.168 434.522
568 0 44.0594 13.4137 591 125.981 722.046 434.541
569 0 47.0229 12.6109 593 126.659 721.87 433.364
570 0 47.0406 12.6274 594 126.545 723.079 432.411
571 0 49.0201 12.4439 610 126.782 722.516 430.441
572 0 52.0144 12.8426 668 122.897 722.849 430.638
573 0 54.049 12.3962 670 123.275 722.885 430.373
574 0 55.0701 12.5658 692 124.035 723.545 429.439
575 0 56.1199 13.0257 731 124.181 722.899 429.023
576 0 57.0539 13.9868 798 123.381 722.675 427.401
577 0 58.0596 13.0383 757 129.203 722.604 425.353
578 0 61.0797 13.4742 823 126.654 722.57 426.217
579 0 61.0402 14.0563 858 128.71 722.234 424.612
580 0 63.0442 12.8957 813 133.855 722.62 424.669
581 0 62.0365 13.2986 825 135.107 722.496 424.31
582 0 66.0666 12.6236 834 136.679 722.94 423.99
583 0 66.1745 12.7693 845 139.836 722.899 421.266
584 0 70.0744 13.0861 917 137.365 722.206 421.674
585 0 70.0623 13.0598 915 139.804 721.863 421.211
586 1 35.0787 11.0038 386 136.381 721.956 436.052
587 0 38.0144 11.8639 451 134.257 722.255 435.692
588 0 40.0989 12.8682 516 129.609 722.583 433.884
589 0 40.0597 11.7575 471 142.735 723.151 435.548
590 0 40.0221 11.5686 463 145.721 722.84 433.745
591 0 42.0352 12.2754 516 144.839 722.351 432.979
592 0 44.0445 12.8506 566 141 722.618 433.426
593 0 44.0443 12.5782 554 143.778 722.731 431.65
594 0 45.0258 13.4145 604 143.055 722.73 430.248
595 0 47.0801 14.3797 677 139.421 723.092 431.127
596 0 49.0585 13.4941 662 142.086 723.671 430.997
597 0 51.0762 14.8601 759 137.265 723.383 430.016
598 0 50.0392 13.0498 653 132.799 723.13 431.384
599 0 51.039 12.4611 636 136.909 722.467 428.928
600 0 54.0801 12.7404 689 135.052 722.73 427.958
601 0 55.0126 12.3063 677 137.414 722.51 427.888
602 0 58.0531 12.4886 725 136.566 722.92 427.033
603 0 61.0421 13.0074 794 134.581 723.384 424.3
604 0 65.1249 13.0058 847 135.067 722.903 419.953
605 0 64.0815 13.28 851 138.437 723.101 418.571
606 0 68.0624 13.8696 944 136.603 723.329 418.818
607 0 71.0829 13.2099 939 137.94 723.155 419.694
608 0 71.1221 12.2747 873 140.864 723.263 418.47
609 0 74.0882 13.6459 1011 137.961 722.409 417.225
610 0 78.2111 13.6426 1067 136.903 722.447 416.181
611 0 81.1829 13.0077 1056 140.436 722.382 416.46
612 1 40.0509 11.4354 458 143.109 723.127 434.09
613 0 42.0601 11.1507 469 141.017 723.345 433.759
614 0 43.0182 12.4598 536 138.222 722.612 434.323
615 0 44.023 11.8802 523 141.866 721.975 432.13
616 0 44.0615 12.4145 547 140.89 722.004 431.084
617 0 44.04 11.9891 528 143.03 721.756 431.089
618 0 51.0461 12.6944 648 135.934 721.625 429.387
619 0 50.0642 13.283 665 136.302 721.755 429.114
620 0 54.0883 12.4426 673 135.753 720.799 428.686
621 0 55.1131 12.5742 693 135.052 721.623 427.569
622 0 57.063 12.9156 737 133.022 721.953 427.402
623 0 61.0238 13.208 806 129.747 721.918 427.45
624 0 61.0898 13.3574 816 131.749 722.25 424.312
625 0 64.0414 11.9298 764 133.077 721.25 421.314
626 0 65.0522 12.4669 811 132.212 722.109 424.129
627 0 69.1317 12.9752 897 130.152 721.819 422.816
628 0 71.0535 13.3139 946 128.931 721.875 422.825
629 0 74.2295 12.4614 925 131.578 721.255 419.224
630 0 76.0185 13.6414 1037 128.494 721.808 417.547
631 0 79.0569 12.1684 962 132.614 722.631 415.113
632 1 42.0592 11.246 473 122.222 721.285 437.142
633 0 42.0634 12.1008 509 123.794 721.218 434.047
634 0 44.042 13.0103 573 124.777 721.581 434.494
635 0 45.0435 12.1882 549 127.39 721.674 433.322
636 0 46.0668 12.6555 583 127.432 720.801 431.496
637 0 49.0767 12.8982 633 124.84 721.295 431.858
638 0 50.0711 12.7619 639 126.601 721.833 430.789
639 0 52.0817 12.9412 674 125.668 721.847 428.573
640 0 53.0861 12.9412 687 126.368 722.08 428.389
641 0 55.0768 12.419 684 127.482 721.414 427.539
642 0 55.0834 12.7625 703 127.62 721.937 427.115
643 0 59.1066 12.5705 743 127.731 721.159 424.957
644 0 61.1071 12.9281 790 126.822 721.591 423.582
645 0 63.0972 12.7264 803 126.917 721.44 423.943
646 0 65.1417 12.1428 791 117.872 721.875 423.054
647 0 67.0454 12.9763 870 118.82 722.015 420.456
648 0 69.1963 12.1105 838 120.915 721.365 419.437
649 0 70.0573 12.2614 859 121.32 722.22 417.433
650 0 75.1707 12.1324 912 119.444 721.555 419.442
651 0 78.3259 12.2692 961 121.342 721.771 414.005
652 0 80.1984 12.2197 980 123.172 721.068 414.479
653 0 84.3177 13.6033 1147 121.84 721.491 412.233
654 0 87.1047 13.3862 1166 122.679 721.449 411.001
655 1 47.1729 12.0832 570 120.512 722.568 430.337
656 0 49.0696 12.146 596 119.935 722.56 428.493
657 0 50.0488 12.3679 619 121.973 722.058 428.163
658 0 51.0339 12.2663 626 123.474 722.784 427.762
659 0 53.0824 12.8856 684 120.501 722.689 427.567
660 0 56.1012 12.7448 715 120.811 722.297 423.895
661 0 59.0531 12.3787 731 120.789 722.207 424.131
662 0 59.0831 12.7448 753 121.287 722.452 421.849
663 0 62.0966 13.5273 840 118.093 723.156 423.104
664 0 65.0477 13.3594 869 119.705 723.053 419.757
665 0 67.0299 13.397 898 119.589 723.95 418.993
666 0 70.0245 13.3382 934 119.968 722.913 418.232
667 0 69.0806 12.0584 833 125.92 722.713 417.148
668 0 75.0855 14.2771 1072 111.825 723.64 416.228
669 0 76.1374 12.7927 974 118.12 723.248 414.152
670 0 80.1853 13.1321 1053 117.36 723.211 413.964
671 0 81.1418 14.0002 1136 119.313 722.196 412.307
672 0 84.1334 12.4445 1047 123.082 722.337 411.281
673 1 46.0883 11.6082 535 125.402 721.97 431.75
674 0 47.1684 11.8936 561 111.176 723.016 427.955
675 0 50.0821 11.0818 555 112.431 722.568 428.088
676 0 52.0244 12.1866 634 110.461 722.468 427.751
677 0 53.0736 11.6442 618 112.037 723.057 425.553
678 0 56.0522 12.3635 693 109.823 722.323 425.6
679 0 58.1033 12.581 731 108.828 723.391 424.412
680 0 60.1212 12.4748 750 109.853 722.783 424.524
681 0 61.0573 11.2681 688 113.381 722.209 421.642
682 0 64.0774 12.5317 803 108.882 722.814 421.407
683 0 66.0939 13.148 869 108.545 722.456 419.484
684 0 69.0924 13.0839 904 109.039 722.788 418.983
685 0 71.1042 10.9698 780 114.626 722.919 419.318
686 0 76.1096 13.5725 1033 109.928 722.623 415.888
687 0 76.2197 12.0704 920 115.38 722.198 415.977
688 0 80.1483 12.7763 1024 111.94 722.268 414.373
689 0 79.0773 10.7996 854 119.698 722.498 412.342
690 1 46.1567 10.1177 467 109.719 722.711 429.957
691 0 47.0318 11.3115 532 111.043 722.617 428.799
692 0 49.0598 11.1293 546 105.828 722.832 428.163
693 0 51.0574 13.0441 666 101.917 723.033 428.369
694 0 50.0482 10.7097 536 109.726 723.272 428.868
695 0 52.0734 11.8487 617 108.347 723.579 425.707
696 0 54.0766 12.3528 668 108.421 723.831 425.681
697 0 56.1352 13.0578 733 107.599 723.51 423.663
698 0 58.0803 13.0509 758 108.137 722.901 424.091
699 0 58.0699 13.2082 767 109.033 723.21 422.648
700 0 60.0512 12.0897 726 110.92 723.587 421.449
701 0 64.111 12.4316 797 109.729 723.598 420.384
702 0 66.0413 12.583 831 109.184 723.267 419.591
703 0 67.0733 12.3894 831 112.043 723.022 418.242
704 0 70.0705 13.7861 966 108.139 723.819 415.733
705 0 71.0546 12.1456 863 113.34 723.625 415.976
706 0 74.055 12.5717 931 111.865 722.64 415.407
707 0 77.0755 14.2198 1096 107.339 723.011 414.225
708 0 79.0589 12.5097 989 112.442 723.192 413.28
709 0 83.1645 12.9623 1078 110.505 723.309 412.425
710 0 86.1275 13.4684 1160 109.626 723.043 409.959
711 0 90.1834 12.7407 1149 112.044 723.104 407.765
712 0 93.1142 12.9304 1204 111.46 723.196 407.064
713 0 96.1112 13.4115 1289 114.03 723.732 404.034
714 1 49.2076 11.0552 544 120.746 723.941 426.237
715 0 53.1028 11.8073 627 108.609 723.327 424.994
716 0 54.1467 11.4134 618 117.099 722.939 425.759
717 0 57.1075 12.0475 688 115.467 723.141 423.714
718 0 55.0758 12.9276 712 114.132 723.433 421.459
719 0 58.1576 10.9186 635 116.78 723.739 421.545
720 0 61.1265 10.9609 670 115.261 723.77 420.964
721 0 62.115 11.6558 724 113.33 724.207 418.028
722 0 66.207 12.4156 822 110.137 724.259 418.14
723 0 68.0314 12.2737 835 110.823 724.964 417.186
724 0 69.0691 12.292 849 110.509 725.161 416.515
725 0 72.0856 12.5268 903 109.047 724.887 414.328
726 0 75.1086 12.6883 953 100.783 724.162 413.928
727 0 75.0586 10.645 799 105.29 724.17 410.478
728 0 81.0891 12.7637 1035 100.173 724.301 410.759
729 0 83.1554 12.6751 1054 101.306 723.743 407.811
730 0 87.0983 12.4342 1083 100.906 723.982 409.145
731 0 89.1031 11.5933 1033 103.556 723.221 408.568
732 0 92.085 12.2713 1130 102.735 723.372 405.424
733 0 94.1104 10.6896 1006 104.673 723.782 405.918
734 1 50.0578 11.7664 589 97.1341 723.402 427.261
735 0 50.0779 11.5221 577 105.023 723.638 423.4
736 0 50.2067 10.1381 509 101.415 722.872 425.939
737 0 54.0619 11.5053 622 99.7814 721.99 424.833
738 0 58.1064 12.5287 728 96.7212 722.853 423.06
739 0 58.0738 11.0721 643 100.625 722.487 421.03
740 0 63.0403 12.0716 761 97.1656 722.782 422.034
741 0 64.1093 11.8548 760 99.3658 722.808 420.154
742 0 66.1762 12.9352 856 98.2932 722.565 419.152
743 0 69.1499 12.0752 835 99.9605 723.159 419.325
744 0 73.1372 12.8799 942 99.2781 722.69 416.385
745 0 76.1644 12.9982 990 99.1929 722.813 416.62
746 0 76.1341 10.6785 813 106.362 722.311 413.512
747 0 79.1176 12.5889 996 104.334 722.219 413.941
748 0 83.244 11.4122 950 108.259 722.824 412.885
749 0 87.1324 13.6574 1190 110.063 722.208 411.36
750 0 91.1089 13.7747 1255 110.112 722.152 410.215
751 0 94.1829 13.0066 1225 110.011 722.042 405.949
752 0 97.1536 13.9882 1359 109.639 722.192 403.812
753 0 101.099 14.2039 1436 109.265 722.154 403.978
754 1 54.106 11.8841 643 113.33 722.042 428.253
755 0 49.0398 11.3785 558 110.914 723.099 426.516
756 0 54.0893 12.4239 672 98.5312 723.229 426.362
757 0 57.0956 11.9099 680 99.6029 723.169 424.84
758 0 59.0432 11.8896 702 99.3048 723.335 423.661
759 0 60.1193 11.2277 675 100.941 722.319 423.484
760 0 64.0578 11.8175 757 99.6724 722.342 422.929
761 0 65.1301 11.8532 772 101.29 721.905 420.44
762 0 66.1363 9.99452 661 105.546 722.039 419.059
763 0 70.1276 11.0941 778 103.225 721.981 418.638
764 0 73.1287 10.8302 792 103.318 721.544 417.408
765 0 75.1754 11.9986 902 101.963 721.788 416.636
766 0 79.0772 12.5447 992 100.245 722.091 412.638
767 0 80.0941 11.5614 926 104.14 721.86 414.401
768 0 83.3401 12.383 1032 103.177 722.194 411.192
769 0 88.2089 12.1756 1074 108.75 721.475 410.709
770 0 90.1442 12.6242 1138 105.05 721.771 407.915
771 1 46.1283 11.1645 515 106.542 721.746 431.54
772 0 49.0562 10.6001 520 108.213 721.783 432.531
773 0 47.1297 9.93004 468 113.915 722.259 428.611
774 0 53.2312 11.4031 607 107.445 722.628 428.395
775 0 53.0814 10.2484 544 111.467 722.537 427.178
776 0 58.0376 9.68337 562 106.301 722.765 426.559
777 0 56.0499 10.1874 571 109.117 722.263 422.648
778 0 58.0496 10.336 600 108.487 722.052 421.712
779 0 62.0771 10.5353 654 105.664 722.19 421.664
780 0 63.0611 8.8327 557 110.431 722.339 419.689
781 0 66.1075 10.9972 727 106.781 722.271 419.766
782 0 67.0731 10.8538 728 106.694 722.559 420.14
783 0 70.0696 11.9738 839 123.294 722.627 418.154
784 1 147.354 14.421 2125 180.128 721.873 384.932
785 0 150.467 10.2348 1540 117.436 721.897 382.282
786 0 154.591 10.5375 1629 117.325 721.975 381.4
787 1 116.426 12.1794 1418 110.033 722.638 397.411
788 0 123.371 12.7745 1576 109.511 722.308 388.206
789 0 126.258 12.1576 1535 111.472 722.51 388.215
790 0 130.301 13.0544 1701 109.808 722.76 384.832
791 0 135.359 12.1603 1646 111.503 722.245 385.132
792 1 94.2372 10.2613 967 113.207 722.575 406.285
793 0 96.193 10.7492 1034 114.897 723.002 404.646
794 0 98.1904 11.9258 1171 108.366 721.19 404.845
795 0 102.178 12.4488 1272 108.498 721.094 402.09
796 1 54.2125 9.81323 532 121.028 720.979 420.521
797 0 56.1776 10.627 597 105.533 722.007 425.367
798 0 59.0853 11.238 664 101.676 721.971 427.039
799 0 61.1306 12.0725 738 100.713 721.041 424.236
800 0 62.1057 10.3694 644 105.169 721.554 423.73
801 0 65.0978 11.8591 772 102.495 721.439 423.554
802 0 68.0647 11.9151 811 103.196 722.176 420.427
803 0 67.0682 10.7652 722 107.36 721.447 419.817
804 0 70.0393 11.0367 773 106.893 721.634 421.001
805 0 70.0631 11.0329 773 107.743 721.294 421.488
806 0 74.0983 12.0651 894 106.922 721.094 418.027
807 0 76.1014 10.7488 818 108.759 722.176 417.686
808 0 79.0564 10.4356 825 108.714 721.061 418.498
809 0 82.0982 12.0709 991 106.212 720.971 414.433
810 0 86.1208 11.5652 996 107.717 721.214 411.585
811 0 88.1893 10.296 908 109.937 721.699 413.964
812 0 93.2091 12.2949 1146 107.287 721.267 406.428
813 0 96.0566 12.3365 1185 109.164 721.181 408.65
814 0 97.0786 11.3928 1106 113.509 721.388 409.159
815 1 52.09 11.5953 604 115.281 720.843 429.735
816 0 54.0284 12.9747 701 103.439 721.709 429.013
817 0 56.047 10.7588 603 114.01 722.194 427.808
818 0 57.1072 10.6116 606 115.449 720.285 426.485
819 0 58.0451 12.163 706 113.421 721.217 424.992
820 0 58.0544 12.161 706 114.139 721.626 424.378
821 0 61.2316 12.1506 744 113.001 721.382 422.649
822 0 64.0752 11.7986 756 113.386 721.675 422.545
823 0 65.1231 10.7949 703 114.674 721.398 422.388
824 0 68.0825 12.0736 822 111.442 721.893 420.207
825 0 72.0369 12.1188 873 110.205 721.715 418.076
826 0 73.0828 11.3843 832 113.272 721.12 415.06
827 0 76.06 11.8459 901 105.132 721.05 414.92
828 0 79.1181 11.9568 946 101.642 721.659 414.133
829 0 80.0963 10.5623 846 105.242 720.319 410.358
830 0 85.0579 11.9213 1014 102.014 720.487 410.92
831 0 89.2687 11.8407 1057 102.217 720.964 406.833
832 1 47.081 10.7687 507 97.929 721.489 428.779
833 0 50.0944 11.119 557 100.968 721.722 427.785
834 0 50.0913 10.381 520 109.413 722.337 427.779
835 0 53.1276 12.0277 639 105.516 721.601 425.692
836 0 55.0772 11.6201 640 105.692 721.6 424.837
837 0 56.1251 11.9198 669 96.7713 720.396 423.873
838 0 58.0348 11.1312 646 97.2632 720.833 422.672
839 0 60.1418 13.4017 806 103.3 721.692 421.958
840 0 63.0191 12.4089 782 105.478 721.815 420.28
841 0 65.0384 11.8853 773 105.95 722.558 420.383
842 0 68.1641 12.646 862 103.639 722.064 419.834
843 0 71.0631 12.4396 884 104.734 721.998 418.604
844 0 70.0394 10.6226 744 109.832 722.923 417.333
845 0 75.1607 12.1739 915 97.3727 722.128 417.355
846 0 77.191 12.9031 996 98.0663 722.143 415.361
847 0 80.0995 11.0737 887 99.8219 722.433 415.408
848 1 43.0436 10.9656 472 98.0572 722.182 432.542
849 0 45.0434 10.5676 476 101.592 722.048 430.038
850 0 46.0579 11.8547 546 97.0073 722.234 429.764
851 0 45.0509 11.0098 496 100.012 722.163 431.478
852 0 47.0631 11.559 544 99.9651 722.27 430.941
853 0 49.0843 11.9794 588 98.5578 722.534 430.818
854 0 52.149 12.7903 667 97.093 721.91 430.576
855 0 52.0627 11.2364 585 101.832 722.019 429.21
856 0 55.1457 12.7662 704 98.3736 722.304 428.018
857 0 55.0296 12.7568 702 100.222 721.064 425.486
858 0 56.0307 12.4396 697 100.737 721.23 426.376
859 0 60.085 13.7139 824 98.2427 720.914 422.939
860 0 62.0615 13.6477 847 98.5632 720.936 423.27
861 0 65.1646 13.1053 854 98.0831 721.533 422.948
862 0 67.0401 12.4105 832 100.059 721.352 420.292
863 0 69.0671 13.8706 958 97.9405 720.973 420.441
864 0 72.1985 13.5598 979 98.1236 721.908 417.446
865 0 74.1139 12.5483 930 101.274 721.54 415.346
866 0 77.0712 13.4162 1034 99.8482 722.193 415.993
867 0 80.0519 12.9791 1039 102.075 721.667 414.049
868 0 83.047 14.257 1184 100.742 721.416 411.748
869 0 87.1045 13.7306 1196 101.886 721.804 412.701
870 0 89.1369 12.5874 1122 112.256 720.607 410.512
871 0 93.2006 13.2295 1233 108.871 720.928 410.391
872 1 50.0353 11.4319 572 107.322 720.582 429.087
873 0 52.0469 11.4512 596 110.05 720.797 429.495
874 0 53.096 11.8465 629 105.731 720.903 426.27
875 0 54.0547 12.3393 667 102.871 721.274 426.708
876 0 58.1167 12.3889 720 101.993 722.164 425.035
877 0 57.0628 12.863 734 102.362 722.106 424.74
878 0 62.0394 12.8789 799 100.787 721.763 422.725
879 0 65.1531 12.5397 817 110.987 721.558 420.886
880 0 67.1834 14.6167 982 106.334 721.261 419.246
881 0 68.2099 13.0186 888 110.614 720.716 417.705
882 0 70.1948 13.0921 919 109.873 720.787 418.268
883 0 74.3002 15.1009 1122 103.518 720.693 415.365
884 0 78.1557 14.2024 1110 104.225 720.626 415.59
885 0 79.1294 15.3167 1212 102.769 721.488 412.225
886 0 80.0648 13.3767 1071 108.174 720.943 411.774
887 0 85.0602 14.284 1215 105.38 721.059 409.971
888 0 87.1074 14.1664 1234 106.902 721.621 409.972
889 0 90.1516 14.3536 1294 107.533 720.998 407.43
890 0 92.1586 12.3808 1141 111.406 721.685 408.369
891 0 94.0587 12.3221 1159 112.698 721.472 406.184
892 0 100.13 12.6235 1264 110.699 722.004 404.184
893 0 101.137 12.4287 1257 112.064 722.15 402.336
894 1 54.0567 11.4139 617 109.972 721.89 425.229
895 0 55.137 11.4624 632 108.929 722.161 423.146
896 0 59.0912 13.0307 770 98.5805 721.223 422.939
897 0 59.1981 12.4159 735 95.9605 721.85 421.988
898 0 64.0477 12.0691 773 95.3803 722.127 422.25
899 0 65.0478 12.5139 814 95.0553 722.509 420.184
900 0 67.0458 12.0067 805 95.5988 722.329 420.047
901 0 69.1672 11.9421 826 96.0545 722.136 418.529
902 0 70.121 12.892 904 95.2146 721.908 418.987
903 0 71.1719 11.2123 798 100.747 722.485 416.915
904 0 75.2079 11.6477 876 98.7203 721.952 416.078
905 0 78.121 13.3383 1042 96.2764 722.005 411.747
906 0 79.1031 10.4926 830 101.901 721.923 410.036
907 0 82.1656 11.3308 931 100.977 721.3 412.194
908 0 87.0569 11.6935 1018 101.749 721.912 407.671
909 0 92.1481 12.5559 1157 100.774 722.093 404.953
910 0 95.1153 12.837 1221 102.569 721.41 408.088
911 0 98.1008 13.69 1343 100.652 721.617 405.39
912 1 51.0882 12.1946 623 101.196 722.3 425.913
913 0 53.0301 12.5966 668 96.2365 721.277 425.572
914 0 56.1868 11.9067 669 87.1136 722.022 423.613
915 0 57.1109 10.3833 593 90.3356 721.954 422.74
916 0 57.0403 11.3779 649 90.0632 722.032 420.867
917 0 61.1742 12.1293 742 88.7116 721.656 419.499
918 0 65.2874 12.9734 847 87.5466 721.767 417.171
919 0 67.2033 13.3327 896 87.2612 721.86 419.688
920 0 70.2023 12.7061 892 89.4395 722.091 417.859
921 0 70.1728 12.0275 844 93.1789 721.796 415.57
922 0 74.2553 11.6759 867 94.7555 722.924 414.722
923 0 77.121 13.3427 1029 92.9543 722.508 413.694
924 0 80.2534 14.1302 1134 92.4947 722.901 412.744
925 0 83.19 13.5353 1126 96.841 722.489 410.937
926 0 84.0622 13.5376 1138 100.42 722.203 409.48
927 0 87.0837 13.1023 1141 102.881 723.071 406.846
928 0 89.2021 13.8113 1232 103.814 722.71 407.464
929 0 93.0559 12.702 1182 106.646 722.502 405.047
930 0 95.1431 13.0645 1243 105.681 723.002 402.127
931 1 53.0573 11.5347 612 105.258 723.549 425.19
932 0 53.0653 10.9488 581 109.279 722.948 422.477
933 0 58.0163 12.2552 711 95.1828 723.48 423.871
934 0 59.0821 13.0327 770 94.3857 723.258 421.323
935 0 59.1038 11.4883 679 97.3358 722.434 421.92
936 0 61.0726 11.8384 723 97.5615 722.462 420.437
937 0 62.03 11.0914 688 99.1977 722.135 419.547
938 0 64.1369 11.5846 743 99.4522 722.436 419.433
939 0 65.0625 10.5437 686 102.434 722.733 418.751
940 0 69.0977 11.3318 783 101.156 723.046 418.034
941 0 72.0795 11.5428 832 98.7476 723.053 418.596
942 0 74.1008 11.4709 850 101.433 723.012 414.998
943 0 77.0919 11.2852 870 102.808 723.053 414.637
944 0 79.1406 11.6122 919 102.724 722.593 414.028
945 0 86.1836 12.3225 1062 100.395 722.208 409.933
946 0 87.2209 10.8575 947 106.688 722.178 409.169
947 1 45.0129 11.1524 502 107.211 722.843 427.936
948 0 47.0354 12.1185 570 103.891 723.047 428.009
949 0 48.0158 11.8294 568 107.125 722.762 424.903
950 0 51.0411 11.912 608 103.354 723.454 426.235
951 0 52.016 11.9194 620 101.279 723.379 425.453
952 0 54.0187 12.6438 683 99.5813 722.638 421.798
953 0 54.0151 12.0337 650 101.583 723.26 421.628
954 0 55.1691 11.0207 608 106.238 722.138 422.717
955 0 56.0653 11.665 654 97.4113 721.98 419.112
956 0 59.073 12.5607 742 96.2871 722.302 420.128
957 0 61.1407 12.7084 777 95.1261 722.256 418.808
958 0 65.1553 12.7081 828 105.425 721.678 418.37
959 0 65.0901 11.8759 773 99.1501 722.947 415.462
960 0 67.1046 12.6817 851 97.1152 723.407 416.517
961 0 70.0735 13.2718 930 97.4108 723.296 413.828
962 0 74.0546 12.9094 956 98.0565 723.595 414.414
963 0 76.1218 12.769 972 98.964 722.807 413.227
964 0 77.1181 13.2913 1025 99.4039 722.24 409.082
965 0 78.0815 13.4219 1048 99.6412 722.374 410.075
966 0 82.1084 13.0072 1068 101.913 722.363 410.015
967 0 84.146 12.3238 1037 104.566 722.568 408.295
968 0 89.3015 13.5048 1206 102.682 722.056 404.967
969 0 89.1881 11.515 1027 109.5 722.207 404.945
970 0 93.1215 12.1239 1129 108.197 722.171 403.899
971 0 97.1788 13.1099 1274 107.124 721.959 401.396
972 0 98.0853 11.908 1168 111.082 721.906 398.628
973 0 101.172 12.454 1260 110.209 721.345 396.964
974 0 107.176 12.9413 1387 107.375 721.532 395.886
975 0 113.201 11.7313 1328 109.221 720.943 393.998
976 0 118.104 12.7684 1508 106.615 721.284 385.598
977 0 125.097 13.1738 1648 103.946 721.252 386.529
978 0 130.248 12.9062 1681 103.072 721.679 385.998
979 0 135.283 14.3477 1941 102.017 721.476 381.05
980 1 73.0805 12.2331 894 92.113 722.353 415.413
981 0 75.072 10.3767 779 96.1297 722.202 413.049
982 0 78.0615 11.35 886 94.6896 721.906 411.817
983 0 83.0896 11.3853 946 95.7431 721.558 408.863
984 0 85.0383 11.1009 944 97.5117 721.311 406.928
985 0 91.0949 12.9865 1183 92.656 722.178 406.641
986 0 92.0982 10.8037 995 98.6975 722.16 401.706
987 0 97.0844 12.3192 1196 95.8436 721.447 403.094
988 0 100.076 11.7011 1171 97.4278 721.762 402.909
989 0 101.086 9.66504 977 102.428 721.789 401.739
990 0 106.205 11.9674 1271 101.267 722.892 397.824
991 1 59.0623 11.5471 682 96.6628 723.089 420.933
992 0 59.0577 10.7861 637 92.0204 722.509 421.019
993 0 63.0326 12.676 799 89.4493 722.198 420.163
994 0 65.0375 11.3473 738 91.5393 722.404 420.528
995 0 67.0456 12.6034 845 89.7337 722.459 415.709
996 0 69.1333 11.1813 773 92.8473 722.437 416.411
997 0 71.2531 11.7469 837 92.2533 721.422 414.387
998 0 73.1607 10.5521 772 95.6645 721.981 410.692
999 0 77.098 11.1028 856 93.6963 721.986 412.422
1000 0 80.2356 12.8497 1031 91.5703 722.192 408.737
1001 0 81.0788 12.1117 982 93.444 722.549 409.519
1002 0 86.1134 12.89 1110 92.1477 721.446 406.187
1003 0 90.1767 12.908 1164 92.5438 722.062 403.989
1004 0 91.1236 10.9961 1002 96.3353 722.355 403.008
1005 0 96.2838 11.8712 1143 95.3106 722.601 400.686
1006 0 99.1289 11.9037 1180 96.4271 722.009 398.503
1007 1 53.0884 10.7933 573 88.5462 722.738 423.372
1008 0 55.2495 13.4481 743 96.7927 721.685 422.205
1009 0 57.1153 12.6586 723 98.0664 722.176 420.378
1010 0 59.1962 13.1765 780 99.4218 722.428 419.664
1011 0 59.0893 12.0834 714 102.598 721.882 420.084
1012 0 61.1244 13.0226 796 99.7437 721.641 416.937
1013 0 63.1183 13.4668 850 97.6871 721.873 416.179
1014 0 65.1044 11.9347 777 100.526 722.127 418.459
1015 0 68.1226 12.8005 872 98.4989 722.022 415.751
1016 0 70.0992 12.0258 843 99.363 721.982 414.501
1017 0 73.1046 13.8705 1014 95.2179 722.869 413.865
1018 0 74.0415 13.2088 978 96.7863 722.632 412.328
1019 0 77.2313 13.0905 1011 96.7062 723.052 411.737
1020 0 79.1109 14.1321 1118 95.3318 723.514 409.264
1021 0 79.0924 12.2136 966 101.038 723.44 410.592
1022 0 82.0946 13.0946 1075 100.121 722.931 407.621
1023 0 85.2358 13.0579 1113 99.7987 722.349 406.659
1024 0 87.0741 12.2654 1068 101.794 723.06 404.858
1025 1 48.0595 11.3817 547 103.965 722.154 424.799
1026 0 52.043 13.239 689 98.7417 722.499 424.372
1027 0 54.1755 12.6072 683 97.1245 723.422 423.534
1028 0 54.09 12.6086 682 96.2097 723.623 422.292
1029 0 56.1456 13.1444 738 94.9783 723.931 422.703
1030 0 59.077 13.0338 770 96.0987 723.779 420.131
1031 0 58.0812 12.1726 707 98.6634 724.081 420.15
1032 0 62.0886 12.4177 771 99.3178 723.537 419.432
1033 0 63.1168 11.6292 734 101.918 723.335 417.177
1034 0 66.1335 12.9586 857 98.5076 722.473 415.993
1035 0 70.0582 13.3746 937 96.7086 723.147 416.022
1036 0 73.1525 14.5039 1061 96.4637 723.311 412.935
1037 0 74.1164 14.5582 1079 97.6006 723.411 411.368
1038 0 74.1193 12.8981 956 102.093 723.092 410.639
1039 0 79.2931 13.5321 1073 101.205 722.907 410.013
1040 0 81.2225 12.6443 1027 104.928 723.574 409.371
1041 0 83.1272 11.9215 991 99.108 723.078 405.778
1042 0 86.1205 11.9716 1031 101.964 723.133 406.903
1043 0 88.1289 12.7994 1128 104.742 722.473 404.454
1044 1 44.0129 9.54265 420 96.7024 722.552 426.193
1045 0 46.0489 10.0545 463 96.486 723.082 425.559
1046 0 48.0201 12.1408 583 93.1955 722.906 424.449
1047 0 51.0567 12.8876 658 102.067 721.9 424.465
1048 0 50.0427 11.6101 581 107.449 722.43 422.308
1049 0 52.0638 11.1018 578 97.9377 723.645 423.019
1050 0 53.1791 12.016 639 97.3537 723.358 420.485
1051 0 55.1488 11.1879 617 99.3209 723.408 421.088
1052 0 56.0848 11.1438 625 101.541 723.149 420.318
1053 0 58.0585 12.1946 708 99.8291 723.537 417.554
1054 0 62.2742 12.0435 750 99.0773 722.799 418.453
1055 0 64.1768 13.8991 892 96.5078 723.438 416.027
1056 0 64.0627 11.6605 747 102.213 723.147 415.629
1057 0 68.0904 12.0575 821 101.339 722.041 414.731
1058 0 69.0858 11.4785 793 103.252 722.343 413.42
1059 0 74.0862 11.959 886 102.411 722.508 413.308
1060 0 76.1119 11.5094 876 103.623 722.992 413.211
1061 0 79.1507 12.8236 1015 101.98 722.141 408.819
1062 0 83.0573 12.377 1028 103.95 721.85 406.852
1063 1 44.0428 11.3299 499 101.058 722.267 427.798
1064 0 46.1712 10.2878 475 102.895 722.234 424.949
1065 0 48.0468 11.4472 550 104.362 723.731 425.678
1066 0 49.0739 11.065 543 104.748 723.214 424.617
1067 0 50.1306 10.8118 542 108.439 721.926 423.411
1068 0 52.093 10.3277 538 109.654 722.028 420.907
1069 0 52.0752 11.0801 577 104.589 722.511 421.986
1070 0 55.0625 11.6958 644 101.665 723.543 419.371
1071 0 55.09 10.6371 586 106.541 723.488 420.703
1072 0 59.039 10.8403 640 106.831 722.719 418.192
1073 0 59.0774 10.3254 610 110.457 723.633 418.4
1074 0 64.0789 11.798 756 105.671 723.298 416.451
1075 0 66.1158 11.5857 766 106.208 722.915 417.282
1076 0 67.2129 10.5635 710 111.387 722.825 414.058
1077 0 71.0959 11.59 824 108.024 723.482 412.768
1078 0 71.1022 10.7592 765 110.86 723.047 412.563
1079 0 75.1474 12.3091 925 108.626 723.101 410.213
1080 0 79.3198 11.9012 944 105.985 723.262 408.312
1081 0 81.1573 11.2744 915 106.166 723.44 407.541
1082 0 84.2037 12.2916 1035 105.098 723.483 405.931
1083 0 85.2159 10.1155 862 110.101 724.302 405.096
1084 0 91.1309 11.8511 1080 107.162 724.26 403.548
1085 0 95.0819 10.959 1042 111.102 724.065 400.854
1086 1 48.0831 9.46279 455 107.479 723.771 424.448
1087 0 52.0644 11.3129 589 106.677 723.679 421.319
1088 0 55.0375 10.938 602 104.435 724.012 421.081
1089 0 54.0943 11.6463 630 102.784 723.787 419.987
1090 0 57.1617 11.2488 643 103.933 723.369 420.271
1091 0 59.1062 12.3507 730 101.185 724.136 419.138
1092 0 62.1503 11.8101 734 103.155 723.523 416.99
1093 0 64.0479 12.3345 790 101.744 723.038 417.029
1094 0 64.0834 10.8921 698 106.086 723.553 415.911
1095 0 70.1403 13.0168 913 99.5772 723.653 414.48
1096 0 72.1632 11.7234 846 102.839 723.61 414.866
1097 0 74.1469 12.0706 895 102.953 723.55 413.229
1098 0 77.1475 13.8047 1065 99.4 723.927 408.677
1099 0 80.1878 13.7178 1100 100.985 723.796 409.428
1100 0 83.126 12.7036 1056 103.17 724.267 408.782
1101 0 87.2377 13.3085 1161 102.982 723.739 404.695
1102 0 88.2127 12.5946 1111 106.464 723.585 405.142
1103 0 93.1067 13.0173 1212 106.697 723.483 403.61
1104 0 98.1393 13.7865 1353 104.876 723.162 400.467
1105 1 52.1589 12.9796 677 110.586 723.226 423.877
1106 0 50.0748 12.4214 622 114.78 723.249 423.476
1107 0 53.1049 12.4282 660 113.944 724.032 424.103
1108 0 56.0825 12.4638 699 112.449 723.173 422.325
1109 0 58.1913 13.1291 764 110.512 723.287 420.122
1110 0 59.1775 12.2682 726 112.457 723.453 420.08
1111 0 60.1487 13.0842 787 111.225 723.737 419.009
1112 0 63.0451 13.9424 879 105.892 723.507 418.141
1113 0 66.2084 13.4273 889 106.229 723.414 416.378
1114 0 66.2108 12.3847 820 105.009 723.957 413.513
1115 0 70.0635 12.3459 865 104.988 723.34 413.542
1116 0 71.0968 13.3058 946 104.699 724.284 412.061
1117 0 76.0258 13.4297 1021 104.308 724.035 409.659
1118 0 78.0491 13.1328 1025 105.674 723.574 409.248
1119 0 79.1408 12.8505 1017 107.975 724.209 409.671
1120 0 80.0822 12.3998 993 112.239 723.541 407.322
1121 0 84.042 11.6965 983 114.611 724.083 408.703
1122 0 87.0783 13.2295 1152 113.271 724.602 403.974
1123 0 90.1085 11.8302 1066 116.315 723.992 402.632
1124 0 94.1755 12.5723 1184 114.61 724.361 400.634
1125 0 98.0689 10.7068 1050 105.034 723.329 401.62
1126 0 101.176 11.2477 1138 105.464 723.61 398.435
1127 1 53.0599 11.7603 624 103.107 723.71 421.295
1128 0 56.0652 12.6638 710 100.882 723.262 420.33
1129 0 57.0628 12.2146 697 103.25 723.405 419.468
1130 0 58.0236 13.0981 760 101.411 723.057 417.301
1131 0 61.0494 12.7929 781 102.183 723.484 418.402
1132 0 62.0363 13.347 828 100.99 724.668 417.106
1133 0 64.2019 12.9591 832 102.034 723.742 416.099
1134 0 66.1947 13.838 916 100.9 723.971 413.365
1135 0 69.1221 14.1489 978 99.7781 723.676 413.447
1136 0 70.0815 13.3559 936 102.058 724.387 413.221
1137 0 74.0817 13.9981 1037 100.61 724.266 410.104
1138 0 75.1092 13.7533 1033 102.239 723.833 410.039
1139 0 77.1464 13.6364 1052 102.356 724.009 408.665
1140 0 81.0315 14.0809 1141 102.408 723.926 405.696
1141 0 85.0913 14.3845 1224 101.142 723.515 409.078
1142 0 88.193 13.4024 1182 103.566 724.586 404.373
1143 0 91.0755 13.4174 1222 104.052 723.767 402.583
1144 0 93.1841 13.7148 1278 104.305 723.548 400.618
1145 1 48.0941 12.7458 613 103.899 723.821 423.468
1146 0 50.1007 14.6505 734 100.143 723.789 422.981
1147 0 51.0244 13.1114 669 101.747 723.701 422.746
1148 0 54.1003 14.5101 785 98.3185 723.892 422.703
1149 0 54.0489 14.5424 786 99.827 723.279 420.587
1150 0 56.0579 12.6655 710 104.668 723.659 420.059
1151 0 58.0586 14.5198 843 101.173 723.342 417.651
1152 0 62.1045 14.0248 871 101.034 723.344 417.467
1153 0 62.0626 13.9859 868 102.825 723.462 417.13
1154 0 64.0718 14.4993 929 102.831 723.37 416.665
1155 0 66.0935 13.1178 867 105.618 722.863 417.416
1156 0 68.0262 14.5238 988 102.554 723.033 416.159
1157 0 71.0776 14.1113 1003 102.829 723.405 413.919
1158 0 74.0992 14.845 1100 101.345 723.466 413.273
1159 0 74.1348 14.5276 1077 103.965 723.605 410.361
1160 0 81.0923 15.0076 1217 101.214 723.482 411.439
1161 0 81.1414 14.0988 1144 104.932 724.18 409.315
1162 0 86.1579 14.9261 1286 103.305 723.872 406.496
1163 0 88.1092 14.5161 1279 104.664 723.837 406.98
1164 0 92.0842 14.0958 1298 105.677 723.331 404.057
1165 0 96.1383 13.6054 1308 105.971 722.677 402.034
1166 0 98.1381 14.5 1423 104.739 723.583 399.727
1167 1 50.0818 13.418 672 104.284 723.19 423.037
1168 0 53.2033 12.2361 651 106.025 723.349 422.983
1169 0 54.417 13.6171 741 104.152 723.804 420.532
1170 0 57.1161 14.0591 803 101.014 724.588 420.417
1171 0 60.1405 14.1169 849 101.448 723.655 419.133
1172 0 61.2862 13.7715 844 103.044 723.835 418.185
1173 0 61.0955 13.4871 824 104.067 724.492 417.789
1174 0 65.3231 13.6399 891 102.141 724.262 416.493
1175 0 64.1809 13.4464 863 103.694 724.244 415.75
1176 0 70.3728 14.1816 998 100.753 724.502 412.506
1177 0 72.2753 14.5831 1054 100.12 723.748 414.444
1178 0 74.1275 14.4346 1070 101.284 723.907 412.887
1179 0 76.298 13.5914 1037 103.431 723.702 412.194
1180 0 77.271 13.4591 1040 105.166 723.62 407.835
1181 0 80.2074 13.6396 1094 104.484 723.75 408.141
1182 0 82.2261 12.9643 1066 105.614 723.655 407.614
1183 0 87.3238 13.9939 1222 103.28 723.737 406.56
1184 0 86.2873 12.2034 1053 107.92 723.761 405.904
1185 0 89.3782 13.4373 1201 106.346 724.054 403.583
1186 0 96.156 14.8925 1432 101.605 723.615 400.349
1187 0 96.2751 12.0696 1162 108.289 723.893 403.919
1188 0 99.3752 14.1887 1410 103.929 723.935 398.45
1189 0 103.381 13.6388 1410 105.076 723.811 398.559
1190 0 107.304 14.7431 1582 102.336 724.389 396.534
1191 0 110.232 14.288 1575 103.868 724.258 395.963
1192 1 56.1757 12.6211 709 104.109 724.336 421.639
1193 0 58.1938 13.2832 773 103.188 724.145 419.41
1194 0 60.275 13.2559 799 102.283 724.138 419.388
1195 0 60.2557 12.0155 724 106.446 724.105 418.537
1196 0 64.2688 12.2766 789 106.049 724.006 417.288
1197 0 67.2258 13.9232 936 102.252 723.44 415.455
1198 0 70.2095 13.6876 961 102.447 724.518 414.73
1199 0 73.1863 13.7594 1007 102.075 724.729 414.045
1200 0 74.1676 11.9055 883 108.409 724.659 412.207
1201 0 77.2682 13.8737 1072 104.319 724.495 409.862
1202 0 81.1329 14.6303 1187 101.62 725.142 410.008
1203 0 85.2195 13.9405 1188 103.976 723.853 408.536
1204 0 84.2343 13.2725 1118 107.493 723.683 407.008
1205 0 87.1673 13.2504 1155 107.08 723.864 405.069
1206 0 90.1796 14.1495 1276 105.243 723.462 406.275
1207 0 93.2597 13.6501 1273 107.043 723.287 406.167
1208 0 95.135 12.7713 1215 108.49 723.924 404.404
1209 0 100.17 13.8764 1390 106.527 723.517 403.378
1210 0 102.17 14.2117 1452 105.605 722.963 402.333
1211 0 106.225 15.2225 1617 103.024 723.659 399.607
1212 0 109.275 14.9897 1638 103.893 722.813 398.175
1213 0 112.265 14.2075 1595 105.961 722.129 397.515
1214 0 116.358 14.7733 1719 104.339 722.276 394.481
1215 0 118.162 14.751 1743 104.435 721.897 393.448
1216 0 120.326 14.5355 1749 104.935 722.39 392.67
1217 1 64.1747 13.5879 872 105.085 722.206 417.594
1218 0 65.1552 12.2477 798 108.54 721.496 419.129
1219 0 70.1857 14.5044 1018 103.286 721.783 416.097
1220 0 72.1169 15.045 1085 102.404 722.19 415.735
1221 0 72.0921 14.0376 1012 106.735 722.405 413.431
1222 0 76.2089 14.1322 1077 105.921 722.345 413.563
1223 0 76.1748 13.5478 1032 108.436 722.691 411.22
1224 0 82.197 13.5528 1114 108.305 723.341 409.879
1225 0 82.1576 13.535 1112 109.09 722.827 410.32
1226 0 85.2273 12.6603 1079 112.526 723.375 408.373
1227 0 89.2102 15.2225 1358 106.059 723.619 408.364
1228 0 90.1979 13.3706 1206 112.42 722.727 403.96
1229 0 94.2208 13.5108 1273 112.796 722.124 404.922
1230 0 96.1466 12.8242 1233 114.079 722.783 403.685
1231 0 101.167 14.649 1482 109.332 723.608 401.868
1232 0 102.217 13.0312 1332 114.341 723.528 399.059
1233 0 106.184 13.5708 1441 113.474 722.829 396.935
1234 0 111.253 14.0221 1560 110.253 724.321 392.079
1235 0 116.264 14.7251 1712 107.89 723.792 389.539
1236 0 118.323 13.7589 1628 110.313 723.479 382.679
1237 1 59.0703 8.34599 493 104.88 724.631 413.882
1238 0 61.1324 10.3873 635 101.191 724.331 414.676
1239 0 63.1088 10.062 635 104.77 723.78 416.054
1240 0 65.2034 12.1466 792 101.617 723.549 414.405
1241 0 66.0704 11.5786 765 103.807 723.899 412.046
1242 0 68.1467 11.3138 771 103.319 723.346 414.173
1243 0 71.147 11.7644 837 102.91 723.882 412.865
1244 0 74.0931 11.4316 847 104.13 724.561 410.128
1245 0 77.1364 11.901 918 103.969 724.302 409.282
1246 0 78.07 10.6827 834 107.924 723.559 408.682
1247 0 81.112 12.0204 975 105.08 724.161 410.696
1248 0 84.0813 11.2986 950 107.517 723.805 406.712
1249 0 87.079 12.2647 1068 105.775 722.85 405.628
1250 0 88.1489 8.91673 786 106.337 722.527 401.128
1251 1 51.0854 9.51349 486 103.479 723.189 421.029
1252 0 52.077 10.254 534 100.783 724.092 422.554
1253 0 55.172 11.002 607 102.124 722.74 422.051
1254 0 55.137 11.0271 608 103.804 722.914 422.242
1255 0 57.1533 11.3379 648 103.702 722.894 421.98
1256 0 57.1427 9.95753 569 106.889 722.527 423.819
1257 0 59.1561 10.2103 604 106.386 722.866 419.641
1258 0 62.2483 10.9401 681 104.17 722.354 418.441
1259 0 65.2696 9.9587 650 106.035 722.565 416.652
1260 0 62.1268 9.72205 604 108.639 722.863 417.323
1261 0 65.1624 9.77558 637 107.374 722.743 416.05
1262 0 67.1451 11.1698 750 104.392 723.149 416.548
1263 0 72.2211 10.8694 785 105.991 723.197 414.743
1264 0 70.0749 8.86195 621 112.9 722.839 412.995
1265 0 75.2192 11.061 832 108.787 723.047 411.713
1266 0 77.144 10.085 778 111.65 723.114 410.244
1267 0 79.1151 10.9966 870 110.069 724.364 406.334
1268 0 82.1635 9.55412 785 112.515 723.352 406.306
1269 0 84.1974 10.131 853 110.914 723.811 406.104
1270 0 89.1262 10.0644 897 111.373 724.139 403.169
1271 0 90.2958 9.52425 860 112.862 723.577 405.326
1272 0 93.1722 10.7114 998 112.514 723.367 400.007
1273 1 46.0584 7.66419 353 104.255 723.38 424.462
1274 0 49.1181 9.0598 445 99.3303 722.917 424.843
1275 0 50.1426 8.53565 428 96.9322 723.079 425.551
1276 0 55.0526 10.1539 559 109.635 725.318 425.869
1277 0 54.1194 8.62906 467 114.422 724.728 425.203
1278 0 56.1271 10.5475 592 113.025 725.231 420.132
1279 0 61.0267 10.52 642 109.477 725.05 422.592
1280 0 61.1472 10.8263 662 110.181 725.13 420.609
1281 0 63.1351 10.0895 637 106.338 724.493 425.683
1282 0 65.1737 10.3109 672 104.78 725.406 431.988
1283 1 49.1026 6.27258 308 105.471 724.133 425.084
1284 1 68.1407 8.96674 611 107.414 724.399 414.273
1285 0 71.16 10.0337 714 105.025 725.242 412.343
1286 0 74.0711 10.4224 772 104.558 724.472 410.791
1287 0 75.1165 9.98449 750 106.743 724.469 408.293
1288 0 75.1234 10.1433 762 106.783 724.47 408.458
1289 0 81.2911 11.0959 902 102.766 725.356 408.308
1290 0 83.2407 12.0374 1002 91.3962 724.828 406.333
1291 0 84.1414 10.1852 857 95.0117 724.944 403.128
1292 0 87.2399 10.9239 953 94.212 724.91 404.893
1293 0 90.2394 11.3254 1022 94.8933 725.526 402.131
1294 0 94.1517 11.7364 1105 96.4986 724.669 404.015
1295 0 94.1245 12.1966 1148 99.7936 725.109 399.753
1296 0 98.2612 12.6398 1242 101.207 725.287 396.356
1297 0 101.135 12.4883 1263 103.8 724.983 397.551
1298 0 100.225 11.095 1112 113.082 726.103 397.22
1299 0 102.231 10.0948 1032 114.973 725.934 397.461
1300 1 53.0612 10.9496 581 108.232 726.048 421.088
1301 0 55.0678 10.6596 587 109.647 726.179 418.136
1302 0 58.084 9.22802 536 113.134 725.69 419.021
1303 0 57.1283 9.27736 530 113.332 725.547 418.053
1304 0 58.0745 11.4336 664 109.264 725.607 416.518
1305 0 60.0587 10.7561 646 111.201 725.937 414.975
1306 0 63.071 12.0499 760 107.42 725.617 414.864
1307 0 64.0365 10.8063 692 111.897 725.279 415.421
1308 0 66.0687 11.4729 758 110.198 725.462 413.343
1309 0 65.0794 10.6332 692 113.669 725.474 412.834
1310 0 69.0955 11.6505 805 111.193 725.513 411.176
1311 0 73.1028 12.4482 910 109.526 725.735 411.874
1312 0 75.1362 11.7121 880 112.098 725.57 413.385
1313 0 76.1541 11.2666 858 103.88 723.904 410.127
1314 0 79.2457 11.4454 907 101.61 724.968 408.278
1315 0 81.2532 11.0519 898 103.143 724.399 407.351
1316 0 82.2099 10.7165 881 103.933 724.824 404.791
1317 0 87.2003 12.2133 1065 98.4967 724.061 403.919
1318 1 44.0389 10.1955 449 97.0111 725.22 423.45
1319 0 47.0545 9.86091 464 95.9892 724.599 423.44
1320 0 48.0101 11.3309 544 93.6397 723.983 424.721
1321 0 46.0305 10.971 505 97.7089 724.42 422.467
1322 0 48.0503 10.6347 511 99.0235 723.245 423.012
1323 0 51.0486 10.4998 536 98.1754 723.72 422.776
1324 0 50.0715 9.84593 493 99.9189 723.521 423.6
1325 0 53.0648 11.2692 598 97.7007 723.878 421.625
1326 0 53.016 10.4119 552 101.027 723.746 423.563
1327 0 54.1704 10.6885 579 101.489 723.242 421.732
1328 0 52.0245 10.2644 534 103.903 723.273 421.455
1329 0 56.1205 11.8139 663 100.715 723.442 420.991
1330 0 58.0938 10.8101 628 102.968 723.368 420.602
1331 0 56.0887 10.3229 579 105.722 722.762 418.755
1332 0 59.0725 10.8511 641 103.579 722.939 419.126
1333 0 61.0535 11.1705 682 103.283 723.113 418.33
1334 0 63.0957 10.3177 651 104.982 722.2 419.564
1335 0 65.2932 11.1803 730 103.36 723.032 417.751
1336 0 65.1017 11.1057 723 104.625 722.462 416.911
1337 0 67.1479 10.0673 676 105.191 721.851 419.345
1338 0 70.1121 11.7241 822 104.019 722.283 416.592
1339 0 72.0946 10.833 781 105.689 721.791 417.259
1340 0 72.1408 10.0359 724 108.196 721.959 416.837
1341 0 74.0949 10.9319 810 108.528 721.253 414.541
1342 0 75.2354 10.6067 798 108.445 721.67 415.462
1343 0 79.1671 11.2673 892 107.947 721.09 412.254
1344 1 42.0368 9.11106 383 111.997 721.292 428.619
1345 0 45.0827 9.98165 450 108.804 721.047 426.909
1346 0 47.1327 9.84454 464 112.039 721.091 425.358
1347 0 49.1139 10.3433 508 110.598 721.567 425.931
1348 0 49.1116 10.7918 530 111.215 720.819 424.896
1349 0 52.191 10.0784 526 111.181 720.971 423.601
1350 0 54.2476 10.2862 558 109.989 721.023 424.061
1351 0 56.1088 11.05 620 108.471 720.956 425.366
1352 0 55.1009 10.4173 574 111.516 721.103 423.883
1353 0 58.09 11.465 666 109.767 720.722 422.462
1354 0 58.0791 10.744 624 111.692 721.082 422.226
1355 0 61.1574 11.6584 713 108.879 721.034 421.391
1356 0 61.1363 10.2394 626 113.772 721.107 419.681
1357 0 66.1719 12.1653 805 106.682 721.978 420.839
1358 0 68.2652 10.3274 705 112.021 722.377 417.433
1359 0 71.2626 10.7069 763 110.028 721.506 418.429
1360 0 72.2682 11.1252 804 110.327 721.152 416.593
1361 0 74.1561 11.2061 831 108.059 721.286 415.184
1362 1 40.0276 10.8675 435 108.766 722.175 432.579
1363 0 39.2126 9.89478 388 104.737 721.477 431.711
1364 0 44.1261 10.4927 463 100.797 722.069 432.011
1365 0 44.1516 10.1695 449 108.494 722.085 432.241
1366 0 43.0748 9.21653 397 104.315 720.879 429.957
1367 0 45.1321 10.2366 462 103.403 720.727 430.446
1368 0 46.2134 10.0836 466 114.47 720.47 430.738
1369 0 50.3613 12.0132 605 108.881 721.01 428.669
1370 0 50.3841 11.4322 576 111.17 720.887 427.564
1371 0 51.2705 10.5129 539 111.855 720.069 429.716
1372 0 52.1763 10.8095 564 113.055 720.592 426.759
1373 0 54.0951 11.9789 648 109.906 720.412 426.69
1374 0 54.1322 9.90168 536 114.576 720.61 426.474
1375 0 58.2152 10.6501 620 112.119 720.04 425.215
1376 0 58.1098 11.6848 679 110.028 720.461 425.538
1377 0 59.136 10.0277 593 113.985 720.494 423.985
1378 0 60.0844 11.8999 715 109.856 720.408 422.094
1379 0 61.1055 10.8501 663 112.807 720.757 421.315
1380 0 63.0959 10.492 662 111.554 720.358 423.743
1381 0 65.0884 11.0619 720 111.562 719.9 420.404
1382 0 68.1798 10.2523 699 112.474 720.239 419.702
1383 0 70.1562 10.8187 759 109.626 720.846 419.556
1384 0 71.1205 11.7547 836 109.287 721.037 418.568
1385 0 73.0753 11.9329 872 109.201 720.479 417.622
1386 0 76.1423 11.7806 897 107.1 720.517 418.367
1387 0 78.1685 11.5264 901 108.968 721.209 415.155
1388 0 79.1879 11.9842 949 106.062 720.895 412.378
1389 0 82.1764 11.5848 952 106.73 721.224 413.119
1390 1 47.1232 12.4355 586 105.788 721.343 430.765
1391 0 47.0685 11.1115 523 110.541 721.145 429.623
1392 0 50.1094 12.4128 622 106.211 720.415 428.955
1393 0 49.0849 12.3256 605 108.76 720.44 428.61
1394 0 51.0748 11.5713 591 109.97 720.281 428.34
1395 0 52.1231 12.7391 664 108.244 720.342 425.498
1396 0 56.2197 12.5401 705 106.562 719.403 427.661
1397 0 56.1677 12.8722 723 107.593 720.041 424.126
1398 0 56.1303 11.5802 650 111.44 720.72 423.5
1399 0 57.1 12.0841 690 110.955 719.474 423.736
1400 0 61.1743 13.3716 818 106.906 719.902 422.809
1401 0 62.1175 12.5246 778 109.627 719.877 422.067
1402 0 63.1783 13.2799 839 109.321 719.406 421.334
1403 0 67.1089 12.7256 854 109.73 720.056 421.149
1404 0 70.1405 14.143 992 105.957 719.477 419.998
1405 0 71.1657 14.4171 1026 107.296 719.487 418.151
1406 0 74.1357 13.6102 1009 108.62 719.707 417.606
1407 0 76.2019 13.9629 1064 108.938 719.576 416.59
1408 0 76.1515 13.8146 1052 111.363 720.106 414.025
1409 0 80.2117 14.362 1152 109.432 720.078 414.589
1410 0 82.1293 13.4179 1102 112.174 720.007 414.716
1411 0 83.1715 13.5263 1125 113.064 719.94 411.277
1412 0 85.2696 11.5281 983 119.932 719.854 410.558
1413 0 87.2687 13.4298 1172 114.946 720.133 411.477
1414 0 92.1149 12.3107 1134 115.035 719.158 411.375
1415 0 95.3425 13.3728 1275 111.867 719.652 407.136
1416 1 48.1937 12.3875 597 109.618 719.417 429.141
1417 0 46.0211 11.2992 520 99.9538 719.573 428.133
1418 0 50.0198 12.0352 602 97.5166 719.935 428.97
1419 0 52.1008 11.401 594 99.037 720.497 428.623
1420 0 52.1139 10.6498 555 102.067 720.099 427.919
1421 0 53.0373 10.3323 548 104.301 720.058 424.509
1422 0 57.0471 11.7272 669 101.755 720.215 424.288
1423 0 57.0786 10.4067 594 105.126 720.157 424.732
1424 0 58.0587 11.0061 639 104.285 720.446 421.909
1425 0 60.0668 11.3041 679 103.823 720.253 422.249
1426 0 63.0774 12.0963 763 101.751 720.377 421.655
1427 0 61.1068 11.8808 726 103.731 720.904 420.24
1428 0 65.142 11.283 735 103.467 720.959 417.785
1429 0 66.0802 10.7143 708 104.374 721.031 418.767
1430 0 71.1104 11.5314 820 110.506 720.393 417.611
1431 0 72.1548 11.5862 836 112.519 721.055 415.159
1432 0 70.0733 9.81829 688 108.602 720.328 413.874
1433 0 73.0864 10.5765 773 106.151 719.7 416.347
1434 0 76.0563 11.4389 870 104.486 720.001 415.159
1435 0 80.102 11.4479 917 105.016 719.918 413.16
1436 0 83.1295 10.4897 872 108.312 720.149 412.68
1437 0 86.107 11.0909 955 107.548 720.402 412.761
1438 0 88.0748 11.933 1051 108.116 720.676 411.34
1439 0 91.071 12.5067 1139 107.757 719.788 408.357
1440 1 47.0137 9.5504 449 107.073 720.345 428.866
1441 0 48.0177 10.996 528 111.178 720.549 427.795
1442 0 53.0101 12.092 641 106.485 719.604 427.846
1443 0 52.1018 12.0149 626 111.141 719.407 425.952
1444 0 55.0654 12.2763 676 109.089 719.214 427.334
1445 0 57.1512 11.1634 638 111.097 719.382 427.071
1446 0 60.1215 12.6411 760 107.37 719.729 424.841
1447 0 61.08 10.7073 654 112.012 719.537 425.153
1448 0 64.1407 12.4726 800 107.886 719.511 423.262
1449 0 65.1322 11.8221 770 109.892 719.796 423.704
1450 0 66.0992 12.33 815 108.925 718.49 422.939
1451 0 69.1235 13.4397 929 106.337 719.728 422.068
1452 0 71.0584 11.779 837 111.421 719.687 419.668
1453 0 73.0975 13.8172 1010 106.05 719.222 420.116
1454 0 74.0662 12.7049 941 111.066 719.965 414.373
1455 0 76.1405 11.0585 842 112.014 719.891 418.749
1456 0 80.1303 12.3798 992 110.509 720.442 415.013
1457 0 86.0793 13.8477 1192 106.995 720.152 413.521
1458 0 87.1781 13.134 1145 108.565 720.109 413.623
1459 0 91.1863 12.8089 1168 109.173 720.362 412.692
1460 0 93.1359 12.8844 1200 109.975 719.469 410.086
1461 0 96.1739 12.7893 1230 111.083 719.565 407.711
1462 0 98.1434 12.441 1221 110.996 719.474 407.207
1463 1 51.0502 10.4603 534 104.678 720.208 429.897
1464 0 56.0691 11.3075 634 101.282 719.787 427.199
1465 0 54.0862 11.2598 609 111.411 719.768 424.345
1466 0 59.0738 10.6985 632 109.1 719.296 426.562
1467 0 59.0865 11.0008 650 110.434 719.454 425.697
1468 0 59.0444 11.5676 683 110.873 719.893 424.413
1469 0 64.0781 12.2039 782 107.717 720.619 423.94
1470 0 66.054 11.4603 757 110.417 720.712 422.412
1471 0 66.1289 10.9634 725 110.939 720.568 422.051
1472 0 68.0465 11.5068 783 111.215 720.46 420.014
1473 0 71.0659 11.5949 824 112.113 720.018 417.222
1474 0 74.1578 11.017 817 112.02 720.144 418.464
1475 0 76.1776 12.0902 921 106.958 720.388 415.8
1476 0 79.037 12.0829 955 106.305 720.354 414.707
1477 0 82.126 12.0181 987 105.78 720.714 412.627
1478 0 83.0901 11.2047 931 107.62 720.477 413.18
1479 0 88.1543 12.0244 1060 107.892 720.293 408.807
1480 0 89.1021 12.4913 1113 110.532 720.608 405.845
1481 0 93.1232 10.7707 1003 112.597 720.363 408.597
1482 0 98.0931 12.8959 1265 108.792 720.053 399.402
1483 0 101.141 12.9918 1314 107.323 720.661 404.411
1484 0 103.104 11.9588 1233 113.745 720.296 399.925
1485 1 50.1245 10.055 504 105.349 720.185 428.226
1486 0 52.1081 10.6317 554 104.06 720.753 428.264
1487 0 55.0815 12.89 710 105.656 720.87 426.224
1488 0 57.1815 12.2068 698 106.613 720.875 426.543
1489 0 57.0351 12.7991 730 108 721.641 424.5
