time division length width area intensity CMx CMy
0 0 29.0106 11.9267 346 129.694 1259.99 492.358
1 0 30.0167 13.6924 411 125.8 1260.7 490.577
2 0 31.0144 11.9622 371 129.353 1260.06 490.811
3 0 34.0391 11.8981 405 125.38 1260.37 491.669
4 0 33.0547 11.7684 389 127.902 1261.23 491.607
5 0 34.041 11.7799 401 127.436 1261.29 490.688
6 0 35.0148 11.7379 411 129.19 1260.09 490.477
7 0 35.0457 11.271 395 131.506 1260.21 490.218
8 0 36.0144 12.6061 454 125.974 1260.7 490.954
9 0 35.0183 11.5654 405 131.237 1260.98 490.444
10 0 37.1034 12.6943 471 126.34 1260.68 490.42
11 0 39.0712 13.4626 526 124.084 1261.12 489.502
12 0 40.0377 11.7639 471 127.875 1260.72 489.469
13 0 42.064 14.0262 590 119.281 1260.28 488.722
14 0 44.0264 14.2415 627 118.695 1259.59 487.467
15 0 41.025 12.1877 500 127.652 1260.1 488.644
16 0 45.0508 13.1185 591 121.689 1260.1 488.191
17 0 47.032 13.5865 639 118.911 1259.86 488.16
18 0 47.0645 12.451 586 120.944 1259.39 488.882
19 0 48.0609 12.2345 588 121.134 1259.74 487.917
20 0 51.0757 13.3136 680 116.59 1259.45 486.209
21 0 50.0723 12.2822 615 120.067 1259.48 486.646
22 0 54.1964 13.4142 727 115.508 1258.86 486.018
23 0 54.0569 13.2083 714 116.679 1259.04 485.241
24 0 57.0689 13.1245 749 115.067 1259.41 485.907
25 0 58.0321 13.8889 806 113.937 1258.95 483.143
26 0 61.0861 13.9966 855 111.306 1258.93 484.637
27 0 62.1045 13.0103 808 114.702 1258.4 483.328
28 0 65.0901 13.1971 859 113.653 1259.47 481.761
29 0 68.1158 13.3302 908 111.753 1259.39 482.069
30 0 68.1711 12.6593 863 113.746 1258.98 480.781
31 0 70.0486 12.6769 888 113.459 1258.69 478.282
32 0 74.1198 12.3044 912 115.544 1258.62 476.401
33 0 77.1786 12.9181 997 114.203 1258.26 474.628
34 0 80.1751 14.0318 1125 110.548 1258.21 474.669
35 1 44.072 13.478 594 112.495 1257.84 492.584
36 0 45.1206 12.7215 574 115.657 1258.11 491.974
37 0 44.0156 12.2457 539 119.156 1258 492.113
38 0 48.163 13.2051 636 113.774 1257.92 491.115
39 0 48.0494 12.9866 624 113.76 1257.21 490.511
40 0 51.0621 13.8459 707 110.777 1257.53 488.663
41 0 52.0307 13.6458 710 111.09 1257.55 487.334
42 0 54.0816 12.3332 667 113.436 1257.78 488.327
43 0 56.0304 13.1714 738 110.55 1257.59 488.799
44 0 58.1521 13.8258 804 109.02 1257.44 487.148
45 0 61.0618 14.5918 891 107.391 1257.35 484.682
46 0 63.1006 13.8509 874 108.585 1256.59 484.984
47 0 64.0826 14.4813 928 115.362 1256.01 483.622
48 0 66.0592 14.2902 944 116.751 1256.7 481.853
49 0 68.0633 13.3699 910 116.598 1256.34 481.794
50 0 71.1092 13.7676 979 116.019 1256.47 479.736
51 0 72.0878 14.3852 1037 113.521 1256.36 479.685
52 0 74.1039 14.3042 1060 114.209 1256.19 477.637
53 0 78.1161 14.6065 1141 113.317 1256.37 475.777
54 0 81.0936 13.7495 1115 114.947 1255.77 474.76
55 0 83.0997 14.7052 1222 112.479 1254.9 475.442
56 0 86.1378 14.9876 1291 111.862 1255.58 474.258
57 0 90.0673 15.5883 1404 109.486 1255.95 474.017
58 0 90.194 13.8258 1247 115.339 1255.92 470.869
59 0 93.1125 16.4747 1534 110.029 1256.42 467.821
60 0 98.3337 16.1186 1585 110.589 1256.48 463.266
61 0 100.21 14.3798 1441 114.659 1256.3 462.792
62 0 105.275 14.7233 1550 114.108 1256.91 460.3
63 0 107.272 14.384 1543 116.277 1256.69 458.557
64 1 58.2773 14.0707 820 111.076 1256.7 485.139
65 0 59.3963 14.3948 855 111.967 1256.2 483.007
66 0 61.1926 14.1847 868 113.69 1256.67 483.366
67 0 63.1118 13.9435 880 116.374 1256.36 484.393
68 0 65.1296 13.6344 888 110.17 1255.97 484.45
69 0 67.0998 13.8301 928 112.307 1255.33 482.266
70 0 69.0734 14.0141 968 111.855 1255.23 481.949
71 0 73.0429 14.0329 1025 110.993 1254.89 481.634
72 0 76.0733 13.8419 1053 111.293 1255.19 481.177
73 0 79.0711 15.328 1212 110.533 1254.78 477.472
74 0 83.0906 15.1762 1261 108.362 1254.79 477.041
75 0 87.1391 15.699 1368 109.154 1255.69 474.569
76 0 88.0973 14.484 1276 114.397 1254.8 473.071
77 0 91.1175 14.8599 1354 114.577 1255.25 469.946
78 0 96.2599 15.188 1462 114.195 1255.06 468.744
79 0 98.182 15.9703 1568 112.201 1255.55 466.658
80 0 103.263 14.9812 1547 112.869 1255.43 465.692
81 0 106.316 15.5575 1654 112.399 1255.12 462.296
82 1 58.297 12.7279 742 111.073 1254.97 487.574
83 0 61.461 14.0252 862 108.63 1255.3 487.267
84 0 61.156 13.114 802 111.231 1255.38 487.703
85 0 63.0807 12.6822 800 105.824 1256.1 487.389
86 0 65.0509 13.574 883 104.781 1256.2 485.361
87 0 65.0604 13.0033 846 107.388 1256.24 484.24
88 0 70.0822 12.0145 842 107.886 1256.12 484.089
89 0 71.1036 12.4888 888 108.354 1255.4 482.378
90 0 74.0638 13.1238 972 109.25 1255.39 479.609
91 0 79.2092 13.3192 1055 109.406 1255.29 479.163
92 0 81.1168 13.8319 1122 108.891 1255.05 479.69
93 0 83.1938 13.5226 1125 112.123 1254.41 473.615
94 0 86.1346 13.9433 1201 114.042 1253.97 471.747
95 0 89.217 13.4391 1199 115.336 1254.44 469.792
96 0 94.4335 13.9357 1316 113.445 1254.47 468.748
97 0 97.2797 13.8364 1346 113.925 1254.49 467.297
98 0 99.2453 13.7336 1363 114.574 1254.22 464.39
99 1 50.2191 12.087 607 106.969 1254.6 488.557
100 0 53.0761 12.3973 658 104.564 1254.86 492.544
101 0 53.0293 12.05 639 106.895 1254.95 490.767
102 0 54.0925 12.0349 651 107.598 1255.43 489.594
103 0 55.1147 11.9387 658 108.733 1255.36 489.116
104 0 59.1385 11.8704 702 107.134 1255.44 489.937
105 0 60.2124 12.3397 743 108.973 1255.31 485.853
106 0 64.05 12.7244 815 106.49 1255.55 486.92
107 0 66.1559 12.3798 819 110.43 1255.79 483.429
108 0 69.1839 14.1362 978 106.493 1255.57 483.084
109 0 71.1156 13.6538 971 107.523 1254.84 481.334
110 0 73.1481 11.9347 873 112.113 1254.46 481.513
111 0 75.1873 13.2735 998 108.781 1254.78 478.202
112 0 76.2169 12.635 963 110.416 1254.38 478.644
113 0 80.3905 12.9617 1042 109.005 1254.57 475.204
114 0 83.3486 14.0734 1173 105.864 1255.07 471.454
115 0 86.394 12.7439 1101 108.216 1254.75 471.955
116 0 89.3244 12.7177 1136 107.445 1254.83 469.966
117 0 93.3849 11.9827 1119 108.23 1254.69 468.429
118 0 96.2839 12.6293 1216 106.731 1255.58 465.575
119 1 50.2117 11.6307 584 100.154 1255.25 491.873
120 0 51.051 11.8705 606 100.922 1254.04 491.855
121 0 53.2637 11.9969 639 100.987 1254.24 488.232
122 0 56.0524 12.0958 678 105.594 1254.47 487.103
123 0 59.0696 11.1902 661 105.676 1255.1 486.014
124 0 61.043 12.8106 782 102.662 1255.68 484.657
125 0 62.0487 11.1203 690 105.304 1255.47 485.148
126 0 63.018 10.7271 676 106.581 1254.79 482.769
127 0 67.0777 12.5973 845 101.215 1255.46 483.273
128 0 68.0763 10.8555 739 103.949 1254.89 484.055
129 0 72.1535 11.6141 838 103.1 1255.41 479.116
130 0 73.1376 12.497 914 100.379 1254.33 479.212
131 0 75.2324 11.2717 848 103.945 1253.94 474.873
132 0 79.2924 11.3504 900 103.118 1253.46 472.093
133 0 82.2449 11.7819 969 102.305 1253.21 469.112
134 0 85.2118 10.7497 916 102.905 1253.59 471.628
135 0 87.3935 10.344 904 103.762 1253.34 468.997
136 0 89.31 10.9506 978 103.371 1253.51 468.678
137 0 94.1728 12.0098 1131 101.678 1252.51 465.45
138 1 49.0841 12.611 619 94.4443 1253.26 488.136
139 0 50.0584 11.6264 582 98.835 1253.62 486.32
140 0 52.0414 12.2018 635 98.1102 1256.66 487.946
141 0 52.0433 12.2782 639 126.106 1257.66 487.975
142 0 51.1148 11.5231 589 98.9457 1254.75 490.903
143 0 53.0687 11.5134 611 98.8314 1254.72 489.953
144 0 54.0773 11.8349 640 99.9516 1254.62 488.788
145 0 58.0401 12.0434 699 99.3562 1254.52 488.75
146 0 58.2181 12.2642 714 99.8165 1255.41 485.55
147 0 59.084 10.3581 612 105.155 1254.05 486.796
148 0 63.1341 12.5289 791 100.558 1254.41 485.662
149 0 66.1731 11.9686 792 101.429 1254.37 484.186
150 0 68.1135 12.9637 883 99.5062 1253.78 482.581
151 0 71.0685 12.5935 895 101.651 1253.82 481.297
152 0 73.1184 12.09 884 103.726 1254.08 481.137
153 0 75.1838 14.0722 1058 99.6285 1254.17 480.247
154 0 77.2259 12.7289 983 103.427 1254.59 478.841
155 0 78.2688 12.687 993 104.965 1254.09 478.988
156 0 80.1008 12.0224 963 107.21 1253.58 477.685
157 0 83.1834 12.8391 1068 107.288 1253.79 474.98
158 0 83.2487 11.9521 995 111.103 1254.1 473.826
159 0 88.3028 12.7969 1130 108.303 1254.01 473.3
160 0 92.1352 13.7407 1266 106.669 1253.53 471.296
161 0 94.2944 13.1503 1240 108.366 1252.92 471.648
162 0 98.1987 12.9024 1267 110.114 1254.14 468.819
163 0 102.306 13.8701 1419 107.844 1254.32 466.337
164 1 52.2788 11.9551 625 108.995 1254.68 489.466
165 0 53.0807 10.1167 537 103.346 1253.4 483.529
166 0 52.0368 9.35876 487 106.177 1253.06 481.39
167 0 56.1531 11.344 637 100.746 1254.21 484.546
168 0 59.1402 12.3266 729 99.1385 1254.65 482.875
169 0 61.0933 11.5561 706 99.4632 1254.49 483.466
170 0 64.1538 12.1583 780 98.8372 1254.7 482.003
171 0 67.1336 12.7954 859 98.9336 1254.69 479.962
172 0 67.2043 12.648 850 97.8129 1253.92 482.752
173 0 68.1108 10.3655 706 103.622 1253.74 477.878
174 0 70.1597 12.5856 883 100.091 1253.96 477.632
175 0 74.1354 12.2479 908 98.261 1254.56 480.8
176 0 74.0664 12.0703 894 99.4441 1254.6 480.872
177 0 78.2344 13.5107 1057 98.4692 1255 477.805
178 0 81.1637 12.136 985 100.942 1254.75 478.411
179 0 84.0697 12.9179 1086 99.8554 1254.85 475.587
180 0 86.116 12.5064 1077 101.326 1254.17 473.439
181 0 89.0889 12.9197 1151 100.415 1255.12 473.289
182 0 92.1674 13.5406 1248 99.1258 1255.36 471.754
183 0 92.1674 13.5189 1246 134.262 1256.36 471.755
184 0 99.1642 12.918 1281 101.051 1254.99 468.79
185 0 101.151 12.0612 1220 103.389 1254.88 468.024
186 1 53.0801 12.9992 690 97.8333 1255.25 490.916
187 0 55.1507 13.0914 722 99.8587 1253.42 485.979
188 0 54.2243 12.8724 698 102.718 1253.13 486.244
189 0 58.0784 13.1202 762 98.9738 1254.6 489.064
190 0 59.2475 13.452 797 97.2396 1254.65 489.334
191 0 62.1099 13.2829 825 97.9952 1254.21 485.882
192 0 64.0871 12.5922 807 98.6208 1254.77 485.349
193 0 65.0697 13.3703 870 98.2299 1254.82 484.674
194 0 67.1337 13.3167 894 99.0951 1254.75 482.662
195 0 70.1696 13.9662 980 98.3306 1254.47 482.389
196 0 70.0954 11.0136 772 105.063 1254.92 482.589
197 0 73.0712 12.8779 941 101.605 1255.19 480.174
198 0 78.0791 14.4213 1126 98.2433 1255.36 479.255
199 0 79.1746 13.7418 1088 101.46 1255.32 476.306
200 0 80.0959 12.0855 968 106.33 1255.07 474.645
201 0 85.0878 12.8103 1090 104.441 1255.22 475.117
202 0 88.2039 13.242 1168 105.242 1254.83 473.423
203 1 46.0671 11.3096 521 110.071 1255.45 493.476
204 0 48.0384 12.4276 597 107.328 1255.26 492.737
205 0 49.0986 12.3833 608 104.916 1255.39 492.66
206 0 50.1118 11.9732 600 107.735 1255.72 492.305
207 0 52.1244 13.4294 700 104.097 1255.43 490.844
208 0 54.0743 14.628 791 99.9785 1255.06 490.134
209 0 55.065 13.6747 753 102.421 1254.46 488.87
210 0 58.1864 15.1582 882 98.0136 1255.15 487.693
211 0 58.183 13.32 775 103.039 1254.85 486.685
212 0 59.0632 13.5279 799 103.3 1255.08 487.16
213 0 63.1342 14.4771 914 99.6149 1254.42 484.838
214 0 63.1071 13.9762 882 102.011 1254.57 484.008
215 0 67.1328 13.8233 928 102.207 1255.21 483.306
216 0 69.0981 14.0959 974 101.409 1254.67 483.316
217 0 69.1636 12.8825 891 105.019 1254.73 483.147
218 0 72.0903 13.2057 952 104.663 1254.86 480.901
219 0 73.0766 13.4243 981 104.933 1255.87 478.615
220 0 77.1043 12.736 982 105.526 1255.84 479.162
221 0 78.1434 12.733 995 106.043 1254.96 476.321
222 0 81.1414 13.7414 1115 104.006 1255.23 475.112
223 0 85.1297 12.9332 1101 105.351 1254.91 475.084
224 0 85.0992 12.6206 1074 106.264 1253.63 473.792
225 0 90.0833 14.0315 1264 101.616 1253.71 473.229
226 1 47.011 11.0825 521 104.152 1252.98 491.708
227 0 49.0178 10.9552 537 101.412 1252.74 492.561
228 0 50.0561 13.6647 684 95.2105 1254.97 492.368
229 0 51.0597 12.3973 633 98.3175 1254.76 491.081
230 0 50.0631 12.4443 623 98.6292 1255.06 490.258
231 0 54.1229 12.6194 683 97.1069 1255.01 487.587
232 0 56.0705 12.7875 717 95.5955 1255.26 489.611
233 0 58.0772 12.9139 750 94.9733 1254.84 486.825
234 0 58.0534 12.144 705 96.5404 1254.69 486.953
235 0 62.0612 13.2611 823 92.8578 1255.58 486.39
236 0 63.0787 12.7777 806 93.8102 1255.63 485.952
237 0 64.0447 13.1002 839 93.1097 1254.79 483.149
238 0 68.0442 13.5647 923 91.0466 1255.07 484.248
239 0 68.0812 11.9269 812 94.7672 1255.41 483.171
240 0 73.1066 13.2546 969 92.8462 1254.69 479.578
241 0 76.0828 13.183 1003 93.4058 1254.62 480.161
242 0 76.0636 12.4633 948 95.1076 1254.13 478.68
243 0 81.0591 12.7191 1031 94.0563 1254.49 478.955
244 0 80.0885 12.686 1016 96.8543 1253.99 476.284
245 1 42.0905 10.715 451 98.7384 1254.48 494.949
246 0 44.0596 12.0292 530 96.9679 1254.31 493.896
247 0 46.0631 12.0921 557 97.9713 1253.18 493.348
248 0 47.0968 14.7356 694 94.281 1254.76 492.251
249 0 50.0372 13.2501 663 96.0075 1254.9 491.204
250 0 52.0333 13.1646 685 96.873 1254.8 490.888
251 0 54.0542 14.06 760 95.3066 1254.07 490.292
252 0 54.081 13.6832 740 97.1932 1255.09 487.451
253 0 57.1846 13.7974 789 97.3587 1255.62 487.359
254 0 59.1142 13.7192 811 98.4007 1254.6 488.748
255 0 59.0493 13.4464 794 100.484 1254.44 487.107
256 0 62.1049 13.8153 858 99.8788 1254.81 486.935
257 0 62.0814 13.0635 811 103.157 1254.29 484.79
258 0 65.1617 13.3974 873 100.951 1255.45 483.617
259 0 66.1917 12.4789 826 104.195 1255.28 482.245
260 0 71.1092 13.6832 973 100.347 1255.57 480.508
261 0 74.2248 13.3648 992 99.5534 1255.52 479.832
262 0 76.1806 13.0479 994 100.473 1254.64 478.427
263 0 79.1746 12.3651 979 100.596 1254.44 475.676
264 0 79.1793 10.6467 843 105.501 1254.22 474.193
265 0 85.239 12.9049 1100 99.7073 1254.58 475.754
266 0 89.0711 13.6969 1220 97.9139 1254.46 470.5
267 0 91.079 12.4617 1135 103.761 1253.75 470.951
268 1 47.0878 9.51415 448 103.873 1254.23 492.516
269 0 46.0503 9.92393 457 108.54 1254.12 491.109
270 0 49.1062 10.63 522 106.577 1254.21 491.259
271 0 52.0863 10.8858 567 97.4727 1255.8 491.818
272 0 53.0967 11.6956 621 96.1787 1255.62 489.229
273 0 56.1797 12.7448 716 93.1145 1255.92 487.099
274 0 57.1304 11.4475 654 95.5948 1255.62 485.968
275 0 59.1282 12.0755 714 94.5448 1255.37 485.895
276 0 59.1792 11.237 665 96.5774 1255.22 485.316
277 0 61.0504 11.7444 717 95.6039 1255.7 484.679
278 0 63.0964 12.8534 811 92.619 1255.44 484.411
279 0 65.1571 12.6003 821 93.1425 1255.73 482.842
280 0 66.1089 11.5264 762 96.1588 1255.41 482.175
281 0 67.1456 11.2591 756 96.8664 1255.86 480.597
282 0 70.1667 10.7743 756 96.9365 1255.63 480.171
283 0 72.1496 12.9315 933 93.9325 1254.62 476.881
284 0 75.1304 12.099 909 94.637 1255.37 478.27
285 0 76.0858 11.2767 858 95.655 1255.07 479.118
286 0 79.1991 11.2501 891 96.6386 1255.42 476.576
287 0 82.136 11.7123 962 95.9844 1255.17 473.444
288 0 83.1526 11.5811 963 96.9377 1255.23 473.74
289 0 85.1704 11.659 993 96.5509 1254.72 470.648
290 0 90.173 12.4095 1119 94.9786 1254.71 470.47
291 0 90.0931 11.4437 1031 98.5412 1255.6 471.302
292 0 93.1033 11.3422 1056 98.1742 1255.17 467.034
293 0 97.1302 13.3223 1294 94.6221 1255.18 463.002
294 0 101.183 12.5021 1265 97.9992 1255.51 463.813
295 0 104.355 12.9557 1352 96.7226 1255.8 461.982
296 0 107.228 12.0771 1295 98.5892 1255.06 462.804
297 0 111.308 11.2481 1252 102.58 1255.24 461.879
298 1 63.0958 10.5237 664 102.735 1256.13 483.914
299 0 66.115 11.9186 788 95.3198 1255.27 481.871
300 0 66.0902 11.3784 752 100.152 1254.93 480.934
301 0 68.0739 11.3259 771 97.31 1255.29 483.044
302 0 70.0778 11.6014 813 96.9742 1254.6 482.386
303 0 72.2151 11.8396 855 97.4234 1254.71 481.647
304 0 75.091 11.1997 841 99.1296 1254.73 482.752
305 0 79.0547 11.764 930 99.4742 1255.06 478.918
306 0 80.0992 12.1724 975 99.4913 1255.39 478.93
307 0 84.1404 13.1447 1106 97.6528 1254.87 476.465
308 0 86.2053 11.4494 987 98.2736 1254.41 475.566
309 0 90.22 11.4387 1032 97.8798 1254.77 474.497
310 1 46.0196 12.6468 582 95.3162 1255.36 492.251
311 0 48.0713 10.7757 518 94.2606 1254 493.4
312 0 49.0982 12.0575 592 95.3412 1254.74 493.044
313 0 51.0552 12.4571 636 95.0063 1254.88 490.022
314 0 52.074 12.8279 668 95.0404 1254.88 490.561
315 0 53.0882 12.3945 658 97.7736 1254.86 490.862
316 0 56.0854 12.0887 678 97.9528 1254.49 490.615
317 0 59.0554 14.1393 835 93.3928 1254.84 487.647
318 0 58.0572 12.3671 718 96.7716 1254.44 487.577
319 0 59.2029 12.8034 758 97.3707 1254.76 488.133
320 0 62.1744 12.3845 770 95.6675 1254.55 488.794
321 0 61.0843 12.2781 750 98.3773 1254.91 486.197
322 0 64.1123 12.4937 801 97.0524 1254.53 485.051
323 0 65.0864 11.8458 771 98.3671 1254.49 487.043
324 0 68.0997 12.3789 843 97.4709 1253.57 482.789
325 0 70.19 12.5516 881 96.5596 1253.82 481.868
326 0 73.1487 13.1513 962 95.4002 1253.95 480.375
327 0 76.2963 12.4908 953 96.6432 1254.23 480.337
328 0 77.141 12.9244 997 96.1906 1254.58 478.902
329 0 80.0848 12.2121 978 97.8425 1254.6 478.311
330 0 84.1089 13.1853 1109 96.6763 1254.18 474.981
331 0 84.2002 12.019 1012 99.9289 1254.44 475.835
332 0 90.1752 14.1946 1280 97.1562 1254.5 473.518
333 0 92.1441 11.3626 1047 104.761 1253.95 471.075
334 0 98.1836 13.546 1330 99.9165 1253.57 470.158
335 0 100.26 15.1706 1521 92.4997 1254.02 470.176
336 0 101.166 12.4647 1261 103.854 1253.28 467.869
337 0 107.33 13.2488 1422 101.432 1253.74 464.134
338 0 111.363 14.0352 1563 97.7582 1253.7 463.303
339 0 113.402 14.603 1656 96.6328 1253.58 459.008
340 1 61.3417 13.221 811 94.7238 1254.58 484.006
341 0 62.4148 11.9042 743 96.0256 1254.92 484.258
342 0 62.2927 12.7463 794 97.8325 1254.45 482.713
343 0 65.1885 11.6585 760 93.1763 1255.5 485.551
344 0 69.1692 11.3779 787 92.7382 1255.71 484.133
345 0 73.176 13.406 981 88.0846 1255.54 484.409
346 0 73.1049 12.9677 948 90.2278 1255.43 479.576
347 0 77.1398 13.3524 1030 89.1068 1255.62 481.464
348 0 80.2065 12.2309 981 91.4526 1254.89 480.715
349 0 80.0995 14.1699 1135 89.6 1255.18 477.368
350 0 84.2386 12.797 1078 91.8006 1255.37 477.465
351 0 86.1656 13.3464 1150 91.6 1255.61 477.317
352 0 88.1785 12.7922 1128 93.5 1256.2 475.6
353 0 91.2424 12.8887 1176 94.3971 1255.58 473.642
354 0 93.171 12.8688 1199 95.4195 1255.29 470.411
355 0 97.2392 13.4411 1307 94.4713 1255.5 468.523
356 0 99.1568 12.576 1247 97.5742 1254.8 469.092
357 0 102.193 13.3864 1368 95.8165 1254.81 468.55
358 1 52.095 12.458 649 94.282 1256.01 492.442
359 0 54.0523 12.4694 674 94.4674 1256.17 491.908
360 0 55.0441 11.6271 640 97.2484 1255.67 491.77
361 0 57.0556 13.0049 742 95.9609 1254.91 491.279
362 0 58.136 12.7976 744 97.5551 1255.2 489.781
363 0 62.0888 13.5612 842 94.5451 1255.82 488.621
364 0 61.0608 12.4957 763 99.1088 1256.06 486.98
365 0 64.1322 12.942 830 98.6916 1256.09 485.995
366 0 66.0775 14.5587 962 96.0956 1256.09 486.2
367 0 67.0886 13.4896 905 100.888 1255.79 485.362
368 0 71.0551 14.3551 1020 98.9971 1255.76 482.676
369 0 72.1119 13.5761 979 102.095 1256.26 481.44
370 0 74.1161 15.1249 1121 99.2971 1255.96 480.277
371 0 75.1023 13.4084 1007 103.855 1255.72 481.132
372 0 80.1165 15.5024 1242 99.1932 1255.66 478.608
373 0 79.0564 14.1292 1117 104.082 1256.08 479.366
374 0 83.0828 13.9981 1163 105.232 1255.73 478.669
375 0 85.1622 13.6211 1160 106.297 1255.43 474.003
376 0 90.251 14.8807 1343 102.41 1255.21 475.987
377 0 91.1733 13.8747 1265 106.957 1254.41 474.066
378 0 93.145 14.6868 1368 105.165 1254.79 473.104
379 0 96.1846 14.0979 1356 107.563 1255.06 469.869
380 0 96.1823 13.1937 1269 109.186 1253.74 470.686
381 0 102.14 13.7948 1409 106.751 1253.14 467.298
382 0 105.171 13.5779 1428 107.316 1253.33 467.807
383 0 109.176 13.6569 1491 107.062 1253.5 465.005
384 1 58.1361 12.7632 742 105.012 1254.2 489.771
385 0 58.0622 11.8149 686 108.528 1253.71 488.383
386 0 63.0941 13.678 863 104.067 1253.97 486.181
387 0 65.063 14.3246 932 100.898 1254.15 485.911
388 0 66.0732 12.8797 851 105.571 1254.28 484.911
389 0 67.0384 12.724 853 106.551 1253.7 484.243
390 0 72.178 14.395 1039 101.537 1253.87 483.213
391 0 73.1088 14.6631 1072 102.63 1254.08 481.578
392 0 76.0814 14.3531 1092 102.882 1254.16 481.231
393 0 78.0639 13.0278 1017 107.068 1254.04 479.016
394 0 80.1541 14.8464 1190 103.108 1253.78 477.8
395 0 82.0668 13.9277 1143 106.079 1253.95 476.143
396 0 85.1299 13.0624 1112 107.155 1253.92 477.305
397 0 88.1169 13.6637 1204 105.864 1254.1 474.178
398 0 90.1252 13.9251 1255 105.715 1254.6 471.542
399 0 93.1367 13.5392 1261 106.407 1255 472.913
400 0 96.1368 13.4912 1297 105.57 1255.87 471.907
401 0 100.14 15.5881 1561 87.041 1255.2 468.366
402 0 104.214 15.305 1595 102.347 1255.12 466.253
403 0 108.138 14.7126 1591 111.475 1255.52 464.761
404 1 56.1008 12.7449 715 109.312 1255.26 487.957
405 0 59.0993 12.4198 734 101.695 1256.13 490.489
406 0 58.12 12.0785 702 104.905 1256.4 489.128
407 0 61.0695 13.0016 794 102.961 1256.82 487.443
408 0 62.0953 12.6097 783 103.704 1256.88 486.332
409 0 63.0714 12.0974 763 104.779 1256.54 486.583
410 0 66.1035 13.6906 905 101.779 1256.11 485.327
411 0 67.1406 12.5855 845 106.338 1256.37 482.69
412 0 70.1377 13.3024 933 104.337 1256.46 483.909
413 0 74.1406 13.4204 995 104.096 1256.09 484.049
414 0 77.1155 13.59 1048 105.031 1255.41 478.928
415 0 80.1697 14.2448 1142 102.687 1255.91 479.494
416 0 83.1964 13.5583 1128 105.509 1255.7 477.849
417 0 85.1964 14.1673 1207 104.496 1255.64 476.091
418 0 86.2821 12.5866 1086 107.927 1255.71 476.385
419 1 45.0284 11.8814 535 110.045 1256.19 496.041
420 0 45.0389 10.9017 491 111.287 1253.3 497.002
421 0 45.1057 11.9941 541 106.736 1254.21 495.745
422 0 49.0504 12.7216 624 109.361 1253.9 492.982
423 0 51.1186 10.9745 561 112.988 1254.1 493.2
424 0 53.1077 12.2769 652 110.771 1254 491.508
425 0 52.1558 12.1751 635 111.356 1254.35 492.638
426 0 55.1967 11.9391 659 111.194 1253.62 491.46
427 0 55.1074 12.2488 675 110.953 1254.26 491.099
428 0 57.1441 12.2497 700 110.343 1253.58 491.514
429 0 57.078 12.0186 686 111.844 1253.94 489.108
430 0 59.1119 12.9246 764 109.368 1254.46 489.589
431 0 61.1124 13.0743 799 109.504 1253.61 487.1
432 0 62.1106 13.009 808 109.033 1253.81 487.983
433 0 64.1387 12.6912 814 109.488 1252.95 487.279
434 0 67.0438 12.723 853 110.175 1252.77 485.79
435 0 69.1194 13.3682 924 109.155 1253.55 484.31
436 0 70.0585 13.1604 922 109.846 1253.77 484.636
437 0 72.1506 13.0976 945 110.844 1253.34 484.171
438 0 74.1182 12.9658 961 111.561 1253.56 481.66
439 0 77.072 13.2863 1024 110.155 1253.39 480.722
440 0 80.1162 13.1559 1054 109.661 1254.08 479.797
441 0 83.1343 12.8828 1071 108.77 1254.06 478.793
442 0 84.0499 12.4688 1048 110.315 1253.94 478.046
443 1 44.1118 11.8563 523 105.692 1254.15 495.098
444 0 45.1417 10.7439 485 100.39 1254.24 496.454
445 0 50.0896 12.4377 623 100.668 1254.72 492.778
446 0 53.0942 12.9016 685 97.7898 1255.57 493.159
447 0 52.0714 12.1756 634 95.4763 1255.94 491.513
448 0 54.026 11.8276 639 93.5962 1255.73 490.2
449 0 53.0934 10.9618 582 97.0361 1255.93 489.129
450 0 56.1195 10.9766 616 96.1834 1255.41 488.968
451 0 56.0357 10.5647 592 98.9003 1255.22 487.87
452 0 57.0462 10.4827 598 98.9799 1255.26 487.99
453 0 62.2495 11.4218 711 97.2025 1254.32 485.589
454 0 63.1012 10.9665 692 98.1199 1255.11 484.186
455 0 64.1254 11.3683 729 98.3525 1255.14 482.305
456 0 68.154 11.342 773 98.0246 1255.84 481.979
457 0 69.1942 10.0442 695 101.24 1254.82 480.83
458 0 71.0756 9.8768 702 101.795 1254.94 481.717
459 0 75.1201 11.0889 833 101.248 1254.71 478.493
460 0 78.2213 11.966 936 100.663 1254.41 475.28
461 1 41.0246 10.5547 433 97.7298 1254.25 496.707
462 0 43.0482 10.1514 437 101.22 1254.08 495.368
463 0 44.0377 12.8072 564 104.367 1253.44 495.044
464 0 47.15 12.9162 609 106.181 1256.15 495.25
465 0 47.1297 12.6459 596 107.565 1256.46 493.938
466 0 48.0576 13.4838 648 106.466 1256.94 494.494
467 0 51.1226 13.6926 700 105.727 1255.94 493.916
468 0 52.2926 14.3232 749 104.825 1255.3 492.439
469 0 52.0253 11.629 605 111.851 1255.92 492.886
470 0 56.0161 13.2462 742 107.681 1256 492.368
471 0 56.0982 13.4051 752 107.943 1255.57 489.888
472 0 58.0926 12.9104 750 107.368 1255.17 491.5
473 0 60.0379 12.1423 729 109.147 1255.12 490.915
474 0 63.0838 13.2522 836 106.205 1255.06 488.641
475 0 65.0274 13.8403 900 103.18 1255.18 487.432
476 0 67.1056 14.6039 980 101.483 1255.82 485.75
477 0 67.0925 13.0715 877 105.275 1256.17 484.39
478 0 70.1498 12.901 905 105.164 1255.78 485.245
479 0 73.097 13.4479 983 103.567 1255.52 483.612
480 0 76.0707 13.5137 1028 102.351 1255.19 482.637
481 0 77.1766 14.266 1101 101.757 1255.56 479.593
482 0 80.0769 14.6984 1177 100.468 1254.99 478.585
483 0 83.0665 13.9406 1158 101.35 1254.59 477.353
484 0 86.1344 13.8156 1190 101.391 1255.21 478.254
485 0 91.0893 13.7887 1256 101.359 1255.48 475.4
486 0 92.0805 13.7271 1264 103.661 1255.52 473.723
487 0 96.1671 14.0589 1352 104.39 1255.27 472.263
488 0 100.076 12.9102 1292 109.314 1255.46 468.437
489 0 101.155 11.5071 1164 115.102 1254.32 467.173
490 1 54.1033 12.4392 673 102.594 1254.99 494.685
491 0 54.2528 12.11 657 104.95 1253.72 487.74
492 0 57.2048 12.027 688 105.394 1253.87 487.641
493 0 58.042 13.3179 773 103.25 1253.68 490.468
494 0 60.0708 12.9514 778 104.434 1254.13 491.012
495 0 61.0756 13.033 796 105.592 1254.31 488.011
496 0 64.0354 12.8679 824 105.739 1254.08 487.209
497 0 66.0523 13.02 860 105.715 1253.88 486.004
498 0 69.0754 14.3032 988 103.054 1254.43 484.317
499 0 69.1387 13.6826 946 105.666 1254.94 484.371
500 0 74.2066 13.5298 1004 106.908 1255.8 483.263
501 0 76.1652 14.1009 1074 107.673 1255.67 481.276
502 0 80.1313 14.0519 1126 108.424 1255.49 480.243
503 0 83.1913 13.5952 1131 109.311 1255.48 479.939
504 0 84.0806 12.714 1069 111.279 1255.66 477.294
505 0 88.1038 12.6101 1111 112.27 1255.6 476.489
506 0 90.1171 12.8388 1157 113.263 1255.95 476.128
507 0 94.3227 13.7401 1296 110.9 1256.07 472.086
508 0 97.1884 12.8102 1245 112.488 1255.76 472.328
509 0 100.318 12.7793 1282 114.317 1256.1 468.628
510 1 51.1688 11.4327 585 108.467 1256.82 493.974
511 0 53.0335 12.1998 647 106.688 1256.67 493.066
512 0 56.1141 12.1538 682 105.578 1254.44 492.721
513 0 57.1453 13.9119 795 103.975 1254.05 491.125
514 0 58.0361 11.7341 681 109.358 1253.69 491.345
515 0 60.074 12.8841 774 107.911 1254.24 489.901
516 0 61.1768 12.5047 765 110.525 1254.2 488.427
517 0 65.0468 13.1136 853 107.263 1254.03 488.951
518 0 67.1941 12.8583 864 107.584 1254.21 488.064
519 0 69.1369 13.7119 948 106.416 1254.52 484.688
520 0 69.0935 13.5469 936 107.916 1254.26 485.63
521 0 72.2165 12.9472 935 109.464 1256.19 482.717
522 0 76.0541 13.99 1064 105.03 1255.8 483.214
523 0 76.1141 12.4681 949 109.425 1255.11 481.859
524 0 80.0552 14.5899 1168 103.548 1255.55 479.244
525 0 83.0772 12.4102 1031 107.763 1256.09 479.104
526 0 86.0498 13.8292 1190 104.969 1255.84 479.235
527 1 45.0442 11.7884 531 104.714 1255.73 499.292
528 0 45.019 12.0172 541 105.811 1255.94 497.377
529 0 46.0933 11.6286 536 105.563 1256.26 497.776
530 0 49.0278 12.6255 619 103.577 1255.9 496.081
531 0 51.1643 12.3914 634 103.358 1255.5 495.52
532 0 52.1471 13.1935 688 101.465 1255.1 492.282
533 0 53.0954 12.4304 660 102.985 1255.25 494.014
534 0 55.152 12.9098 712 102.015 1255.68 493.351
535 0 59.1308 12.3793 732 101.952 1255.13 492.844
536 0 60.0548 13.8374 831 99.4501 1255.7 490.395
537 0 61.0739 13.3609 816 101.172 1255.58 489.782
538 0 61.1024 12.9291 790 102.634 1255.25 490.709
539 0 64.1176 13.3661 857 102.356 1255.14 487.683
540 0 64.139 12.395 795 105.294 1255.05 488.122
541 0 68.1557 13.7333 936 102.822 1255.68 486.509
542 0 69.1656 13.6484 944 103.769 1255.15 486.149
543 0 71.146 13.9994 996 103.468 1255.12 484.251
544 0 74.0805 14.3088 1060 102.651 1255.06 483.037
545 0 76.0771 13.7624 1047 104.426 1255.69 482.657
546 0 79.112 13.5251 1070 105.612 1255.9 482.809
547 0 80.1806 13.6442 1094 106.824 1255.25 481.789
548 0 82.1407 12.8195 1053 108.853 1256.01 481.625
549 0 85.1048 13.7243 1168 107.159 1255.58 479.848
550 0 88.2365 12.9085 1139 110.663 1255.51 476.662
551 0 91.1056 13.1715 1200 108.917 1254.99 473.544
552 0 93.0889 12.4505 1159 110.069 1254.85 474.327
553 0 99.1859 13.147 1304 110.799 1255.52 470.974
554 1 52.0239 13.7245 714 104.454 1254.61 494.235
555 0 52.1101 12.3585 644 108.47 1255.81 492.366
556 0 52.0717 14.0191 730 110.437 1255.35 492.586
557 0 54.1176 14.3207 775 109.352 1256.21 492.364
558 0 58.0714 14.1033 819 108.8 1255.66 491.546
559 0 59.101 15.0082 887 107.256 1255.98 489.861
560 0 60.0819 14.5468 874 108.641 1255.07 489.407
561 0 64.061 13.8774 889 109.078 1256.2 488.3
562 0 63.0513 13.8617 874 111.506 1256.44 487.278
563 0 67.0905 14.8754 998 107.531 1256.53 485.198
564 0 71.0717 15.7447 1119 105.088 1256.31 484.457
565 0 70.1174 13.9766 980 111.565 1256.7 482.043
566 0 75.1332 14.5475 1093 109.265 1256.81 482.192
567 0 77.1054 14.6034 1126 109.398 1256.39 479.949
568 0 79.214 15.5402 1231 107.467 1255.82 476.934
569 0 82.1299 14.5501 1195 110.063 1255.85 473.526
570 0 84.1325 14.6673 1234 110.418 1255.54 471.262
571 0 87.2319 14.536 1268 111.161 1255.95 472.047
572 0 90.1442 15.2866 1378 109.495 1255.03 466.04
573 1 48.1254 12.2596 590 112.903 1255.29 489
574 0 50.1608 12.1011 607 113.568 1254.7 489.59
575 0 54.0773 13.3882 724 104.088 1254.76 491.267
576 0 54.0941 12.1455 657 107.42 1254.4 492.37
577 0 57.0638 11.9515 682 107.994 1254.5 489.919
578 0 57.2136 12.8815 737 106.277 1254.89 490.775
579 0 60.1384 12.0722 726 107.292 1255.16 489.117
580 0 64.0985 13.1828 845 104.109 1254.75 486.819
581 0 64.0834 11.6411 746 107.328 1255.05 487.564
582 0 68.1458 12.5466 855 104.233 1254.86 486.453
583 0 70.1347 12.5045 877 104.106 1255.3 486.555
584 0 71.1723 12.7999 911 105.142 1255.01 484.834
585 0 75.1056 13.7273 1031 103.978 1255.09 482.241
586 0 78.1907 13.2241 1034 105.038 1254.89 482.207
587 0 81.0967 13.2558 1075 106.516 1254.92 479.319
588 0 83.1264 13.4735 1120 105.25 1255.86 479.029
589 0 87.2749 12.9591 1131 105.482 1255.72 478.618
590 0 90.1587 13.8755 1251 104.145 1255.73 477.882
591 0 92.1367 14.9886 1381 103.493 1255.11 476.607
592 0 95.1555 12.2746 1168 110.074 1255.23 477.293
593 0 96.2411 11.6374 1120 113.573 1254.59 474.676
594 0 101.317 13.4924 1367 110.909 1253.98 466.688
595 0 104.344 13.7525 1435 109.617 1253.9 467.931
596 0 108.301 13.6933 1483 109.759 1253.93 464.023
597 0 112.308 13.1425 1476 110.343 1253.96 465.73
598 0 116.268 13.7613 1600 109.581 1254.39 462.088
599 0 118.433 13.5688 1607 110.492 1253.97 460.3
600 1 59.2297 13.3379 790 105.215 1253.69 489.258
601 0 60.0622 13.8024 829 106.064 1253.9 485.733
602 0 62.0992 13.5428 841 105.556 1255.55 490.017
603 0 65.0869 14.4883 943 104.706 1256.03 488.051
604 0 66.1905 13.1892 873 109.81 1255.78 489.167
605 0 69.0679 14.1745 979 107.255 1255.55 487.566
606 0 71.1056 13.2338 941 110.768 1255.7 486.888
607 0 74.0672 13.3932 992 111.26 1255.26 484.168
608 0 77.2308 14.4373 1115 109.03 1255.57 484.016
609 0 80.2114 15.2597 1224 107.35 1255.41 482.894
610 0 83.2246 15.2359 1268 108.374 1255.75 479.356
611 0 87.3099 15.4049 1345 108.509 1254.95 477.306
612 0 87.369 13.4602 1176 114.594 1254.7 474.81
613 0 92.3048 14.1921 1310 110.474 1254.7 473.986
614 0 95.2016 14.8842 1417 110.44 1254.73 469.474
615 0 98.2579 14.4925 1424 111.14 1254.43 469.544
616 1 50.0973 11.8968 596 116.174 1254.76 494.034
617 0 51.1274 12.0679 617 111.175 1254.76 488.058
618 0 53.1257 12.1034 643 107.81 1254.2 491.463
619 0 54.0382 11.899 643 108.826 1254.28 490.238
620 0 56.183 12.9755 729 106.649 1254.75 488.778
621 0 58.0691 12.3646 718 107.961 1254.73 488.792
622 0 62.0972 13.9459 866 102.734 1254.89 488.167
623 0 62.066 12.4062 770 107.19 1254.61 487.045
624 0 62.1483 11.199 696 109.431 1254.77 486.645
625 0 67.1374 13.6883 919 105.127 1254.1 485.783
626 0 70.1418 13.5297 949 104.665 1254.25 485.369
627 0 72.0633 13.3355 961 104.386 1254.23 485.979
628 0 74.1104 13.7902 1022 105.302 1254.73 483.753
629 0 76.0957 12.9968 989 108.339 1254.77 482.394
630 0 78.1926 13.3133 1041 108.058 1254.1 482.812
631 0 80.1138 13.3061 1066 108.903 1254.49 481.086
632 0 83.1838 13.2838 1105 109.182 1254.3 481.043
633 0 85.0757 14.0228 1193 109.527 1254.38 478.842
634 0 88.3332 14.1623 1251 109.237 1254.14 476.426
635 0 92.3659 13.8471 1279 110.431 1253.28 473.113
636 0 96.1223 14.0862 1354 110.638 1252.8 470.258
637 0 98.2793 13.6143 1338 112.754 1253.89 469.997
638 0 102.346 15.6918 1606 108.89 1254.02 467.432
639 1 51.1173 11.816 604 111.459 1252.61 494.887
640 0 52.0844 12.2109 636 113.049 1252.13 494.332
641 0 55.0462 13.1526 724 112.465 1254.94 494.151
642 0 55.0675 12.7298 701 106.809 1254.91 491.414
643 0 56.0642 11.5225 646 110.375 1253 489.031
644 0 59.0619 12.3938 732 109.619 1253.15 487.746
645 0 61.061 12.5121 764 109.106 1253.4 486.395
646 0 63.0622 12.3846 781 110.023 1253.4 484.977
647 0 65.0701 11.9717 779 111.352 1253.71 483.8
648 0 65.1254 12.4068 808 109.469 1253.48 485.118
649 0 69.0769 12.0156 830 108.063 1254.42 484.363
650 0 71.0918 12.4065 882 108.371 1254.13 482.753
651 0 75.1655 13.743 1033 105.465 1253.8 481.074
652 0 78.1338 12.8242 1002 108.621 1253.61 478.274
653 0 78.1119 12.5845 983 110.295 1252.96 476.589
654 0 82.2412 12.7795 1051 109.384 1253.8 478.921
655 0 85.1509 12.8713 1096 110.684 1254.15 475.279
656 0 89.0663 12.5412 1117 110.47 1254.37 474.785
657 0 91.2254 12.4636 1137 112.412 1253.69 473.082
658 0 95.1528 12.4221 1182 112.188 1253.48 471.643
659 0 98.1583 13.142 1290 110.858 1253.05 472.529
660 0 101.25 13.521 1369 112.59 1253.56 467.821
661 1 48.0142 11.1842 537 105.996 1253.89 496.95
662 0 48.0248 11.2442 540 106.887 1254.87 495.163
663 0 49.0299 11.5236 565 106.542 1254.72 494.954
664 0 54.0375 12.4358 672 103.478 1254.19 493.866
665 0 55.0868 13.0703 720 101.286 1254.54 494.769
666 0 57.0315 13.7468 784 103.731 1254.54 493.824
667 0 58.1274 14.2962 831 102.639 1255.05 493.846
668 0 60.1117 12.3769 744 107.918 1254.79 491.997
669 0 62.0894 12.627 784 108.283 1254.28 489.32
670 0 64.1094 13.477 864 106.462 1254.11 488.618
671 0 67.1872 13.5145 908 106.566 1254.6 488.286
672 0 69.1585 13.751 951 107.286 1253.87 485.834
673 0 73.0835 13.2725 970 110.606 1253.23 484.879
674 0 74.0417 13.8976 1029 109.125 1253.25 484.492
675 0 76.2843 13.0171 993 113.263 1253.72 484.147
676 0 80.1164 13.5802 1088 111.533 1254.78 482.989
677 0 82.2919 13.5858 1118 112.833 1254.57 480.44
678 0 82.2919 13.5007 1111 157.864 1253.54 480.364
679 1 47.0405 12.181 573 112.253 1253.84 499.541
680 0 49.1035 11.9543 587 113.678 1254.23 498.521
681 0 49.2033 12.4179 611 112.998 1255.01 498.897
682 0 53.088 13.5436 719 104.662 1254.79 496.312
683 0 54.1533 12.9447 701 107.979 1254.74 495.835
684 0 52.1387 12.5051 652 111.413 1254.87 495.018
685 0 57.0935 14.1522 808 105.848 1255.37 493.469
686 0 57.0929 13.0664 746 108.95 1255.14 494.523
687 0 61.1701 13.7812 843 106.408 1254.7 492.706
688 0 62.1821 12.576 782 109.249 1255.07 491.969
689 0 65.0541 13.9884 910 106.751 1254.49 489.047
690 0 67.0471 14.0349 941 108.213 1254.75 487.539
691 0 70.0314 13.8938 973 108.55 1254.93 485.843
692 0 72.067 14.2645 1028 108.005 1254.42 486.055
693 0 74.056 14.7996 1096 108.086 1254.05 482.914
694 0 77.1078 13.8767 1070 110.094 1253.95 482.72
695 0 80.0505 13.9162 1114 114.206 1254.36 479.118
696 0 84.2959 13.7492 1159 113.894 1254.15 478.756
697 0 85.2028 12.7695 1088 116.517 1254.32 478.128
698 0 90.1529 12.7117 1146 118.445 1254.26 477.002
699 1 47.2174 12.8342 606 109.094 1254.95 498.449
700 0 50.1215 13.3276 668 117.919 1255.22 495.484
701 0 50.2254 12.9018 648 120.333 1254.59 494.978
702 0 54.2434 14.0109 760 115.614 1254.66 493.417
703 0 54.1424 12.4671 675 119.901 1254.7 493.293
704 0 58.1048 13.5101 785 115.389 1254.24 492.704
705 0 58.1324 13.3316 775 110.009 1253.81 490.137
706 0 58.0897 12.6012 732 112.634 1254.25 490.971
707 0 61.1717 12.5385 767 113.63 1254.4 489.95
708 0 63.155 12.5247 791 114.168 1254.21 487.737
709 0 66.1404 13.5318 895 111.105 1253.76 486.708
710 0 68.0932 12.9675 883 112.11 1254.24 486.108
711 0 71.1499 13.071 930 113.376 1254 484.526
712 0 74.1025 12.4827 925 114.529 1253.84 482.747
713 0 75.2265 12.7748 961 114.792 1253.42 481.111
714 0 79.1502 13.1143 1038 111.497 1253.96 479.438
715 0 83.1077 13.1035 1089 111.365 1254.48 477.972
716 1 42.0422 11.6312 489 107.031 1255.12 499.078
717 0 43.0288 10.5976 456 108.629 1255.5 499.785
718 0 44.1954 10.4536 462 111.242 1253.76 493.621
719 0 49.2308 13.9141 685 101.962 1253.53 491.966
720 0 50.0912 12.8765 645 103.85 1256.07 495.784
721 0 51.1244 13.34 682 104.387 1256.03 493.716
722 0 51.1855 12.6989 650 105.192 1255.87 494.246
723 0 54.1398 13.3543 723 102.874 1255.94 493.632
724 0 56.1618 12.8201 720 103.072 1255.13 492.817
725 0 58.0884 13.3073 773 102.343 1255.76 491.365
726 0 60.1314 14.0027 842 100.9 1255.51 490.333
727 0 62.1892 13.0409 811 101.322 1255.33 490.427
728 0 64.1177 13.7872 884 99.9514 1255.49 488.117
729 0 68.1948 13.916 949 100.133 1255.37 487.795
730 0 68.1034 14.2137 968 100.379 1255.14 485.486
731 0 70.1688 13.2395 929 102.623 1254.82 486.488
732 0 73.3082 12.8908 945 103.381 1254.9 485.805
733 0 76.2339 13.1438 1002 103.077 1254.57 483.823
734 0 80.3044 14.2707 1146 99.1239 1254.92 482.158
735 0 80.2878 13.5512 1088 102.124 1254.81 480.816
736 0 81.1967 12.7961 1039 104.265 1255.49 479.72
737 0 86.2327 12.4663 1075 103.763 1254.95 479.901
738 0 89.1565 13.0333 1162 103.534 1254.48 475.965
739 0 91.104 13.4901 1229 88.2929 1254.38 478.146
740 0 93.1628 12.9558 1207 106.015 1254.39 472.819
741 0 98.2596 13.8104 1357 104.947 1254.28 471.699
742 0 99.2082 13.2348 1313 108.177 1254.46 469.973
743 0 101.254 11.5847 1173 113.856 1254.4 467.731
744 0 105.216 13.2395 1393 109.607 1254.35 468.24
745 0 108.242 13.4975 1461 110.648 1254.36 466.468
746 0 113.18 13.0677 1479 111.66 1254.51 465.404
747 0 116.154 13.1721 1530 112.328 1254.41 462.88
748 0 121.284 14.8411 1800 107.597 1253.89 462.186
749 0 124.193 14.3406 1781 110.805 1253.51 457.098
750 0 127.12 12.9563 1647 113.775 1253.45 456.094
751 0 133.224 14.3368 1910 111.942 1253.76 452.025
752 0 139.183 13.572 1889 113.69 1254.02 449.739
753 0 141.309 12.4691 1762 117.293 1253.49 447.53
754 0 149.444 14.6945 2196 112.694 1253.57 445.912
755 1 82.2714 11.0974 913 107.392 1253.6 479.93
756 0 82.2394 11.2841 928 109.351 1253.85 480.747
757 0 88.3609 11.1361 984 108.771 1254.28 478.32
758 0 91.3356 12.6566 1156 102.828 1254.14 472.836
759 0 93.4103 11.2407 1050 103.582 1254.23 468.587
760 0 94.244 11.1837 1054 106.385 1255.27 469.309
761 0 99.204 12.7213 1262 108.223 1255.65 470.573
762 0 103.453 12.2664 1269 109.496 1254.62 468.426
763 1 54.0849 11.7593 636 111.745 1255.28 491.118
764 0 56.2256 11.8629 667 112.691 1255.41 491.432
765 0 56.1272 12.4004 696 110.3 1256.08 491.128
766 0 58.062 12.7794 742 109.345 1256.24 489.128
767 0 61.0556 14.1019 861 104.72 1255.98 487.987
768 0 63.177 13.1693 832 106.48 1256.19 488.346
769 0 65.1165 13.6217 887 106.122 1255.72 486.118
770 0 67.108 12.8748 864 107.826 1255.08 486.645
771 0 66.2777 11.7234 777 112.942 1255.32 483.905
772 0 70.0546 12.8043 897 110.328 1254.16 482.996
773 0 73.1574 14.4073 1054 107.076 1254.44 482.419
774 0 73.1222 12.6637 926 113.857 1254.96 480.512
775 0 77.1765 13.3201 1028 112.554 1255.16 478.961
776 0 78.2998 12.9374 1013 114.799 1254.29 475.074
777 0 83.1956 14.7604 1228 109.615 1254.23 473.789
778 0 83.3531 13.8207 1152 113.431 1254.95 472.398
779 0 86.2922 14.4393 1246 112.96 1254.54 468.624
780 0 85.3006 12.8956 1100 119.348 1254.99 471.264
781 0 90.2095 12.1384 1095 119.235 1254.52 469.567
782 0 93.2712 12.8443 1198 116.956 1254.9 469.841
783 0 97.2072 13.2192 1285 117.321 1254.52 464.349
784 0 99.2674 13.3176 1322 117.753 1254.78 462.927
785 0 103.36 13.5643 1402 116.587 1254.16 462.215
786 0 106.267 12.4592 1324 118.42 1254.54 461.872
787 0 111.287 13.29 1479 118.221 1254.78 457.792
788 0 113.413 13.5082 1532 117.659 1254.54 457.426
789 0 117.27 12.646 1483 117.528 1254.02 457.446
790 0 121.256 13.3354 1617 116.321 1254.77 452.434
791 1 65.0707 11.0188 717 122.506 1254.27 479.842
792 0 69.0703 12.3063 850 119.293 1254.33 476.056
793 0 70.1125 13.2073 926 115.098 1253 482.707
794 0 74.1006 14.0215 1039 112.099 1252.93 481.456
795 0 75.1906 12.5415 943 117.176 1252.8 480.368
796 0 78.0655 12.7713 997 116.044 1253.43 477.52
797 0 81.1903 14.1519 1149 112.647 1253.15 476.004
798 0 82.1563 12.6466 1039 117.09 1252.89 475.043
799 0 87.1307 13.6347 1188 114.662 1253.23 473.448
800 0 90.2051 14.1677 1278 113.631 1253.13 470.311
801 0 93.1084 13.7152 1277 114.612 1253.46 469.679
802 0 94.1487 12.8095 1206 118.312 1253.75 468.034
803 0 98.2916 13.755 1352 115.947 1253.83 465.462
804 0 100.492 12.7273 1279 118.708 1253.09 465.014
805 0 105.704 13.6797 1446 116.574 1254.21 462.329
806 0 107.448 13.8207 1485 116.638 1253.97 460.556
807 0 113.589 14.1298 1605 114.669 1253.73 459.629
808 1 59.2821 13.1574 780 110.822 1254.09 484.596
809 0 60.0982 12.8789 774 112.726 1254.81 481.846
810 0 64.2911 13.7655 885 110.137 1254.55 488.615
811 0 66.152 14.0283 928 109.511 1254.12 488.326
812 0 70.3638 14.8514 1045 105.582 1254.52 488.254
813 0 69.3974 12.8823 894 113.4 1254.18 485.643
814 0 72.351 13.9459 1009 111.856 1253.77 484.996
815 0 72.3387 13.8515 1002 146.791 1253.77 484.95
816 0 78.4387 13.4755 1057 113.515 1253.71 481.699
817 0 81.5022 13.3371 1087 119.15 1254.13 480.661
818 0 83.4295 13.88 1158 117.804 1254.02 479.883
819 0 86.4188 14.3487 1240 117.166 1253.54 479.388
820 0 89.3706 14.3224 1280 119.051 1253.41 477.424
821 0 92.3242 13.7234 1267 120.645 1253.25 476.573
822 0 94.3711 13.4151 1266 121.712 1253.72 474.598
823 0 96.2848 12.7954 1232 123.015 1253.62 472.812
824 0 101.431 12.6391 1282 112.24 1253.39 469.083
825 1 52.0724 12.5018 651 107.568 1252.44 492.272
826 0 54.1727 12.8109 694 110.092 1253.26 491.945
827 0 54.2743 12.1789 661 109.048 1253.3 493.13
828 0 55.1292 12.6067 695 108.944 1253.17 491.124
829 0 56.2443 12.0012 675 111.524 1253.11 490.683
830 0 57.0594 12.7061 725 110.479 1253.01 488.418
831 0 60.1421 13.5845 817 109.321 1253.98 490.036
832 0 64.1777 13.447 863 109.583 1253.45 488.987
833 0 66.3296 13.0862 868 107.677 1252.54 487.302
834 0 67.2472 12.5805 846 108.254 1252.95 486.084
835 0 69.1865 12.5747 870 108.641 1252.96 487.064
836 0 73.105 12.9403 946 106.526 1252.93 483.904
837 0 76.0794 13.9722 1063 104.141 1253.56 483.686
838 0 77.2858 14.854 1148 103.176 1252.99 480.679
839 0 81.1743 13.5511 1100 104.895 1252.61 480.471
840 0 82.2748 14.0505 1156 105.522 1253.08 478.247
841 0 87.0782 13.6429 1188 105.683 1253.23 478.409
842 0 88.0813 13.7941 1215 106.065 1253.24 476.539
843 0 90.2057 13.4692 1215 107.905 1252.57 476.159
844 0 95.07 13.285 1263 107.637 1252.23 474.401
845 0 96.1442 13.5838 1306 107.142 1253.14 471.853
846 1 51.1241 12.1469 621 107.802 1252.92 495.217
847 0 52.089 13.8801 723 108.636 1252.8 493.842
848 0 53.1074 12.6724 673 111.257 1252.93 494.262
849 0 53.1347 12.7788 679 113.096 1252.71 491.688
850 0 55.2096 13.1861 728 109.54 1253.16 491.696
851 0 57.2552 13.0993 750 109.803 1253.92 490.264
852 0 58.2159 12.7285 741 111.408 1253.72 490.725
853 0 59.229 13.4225 795 109.064 1253.61 488.931
854 0 59.229 13.4056 794 134.043 1252.58 488.941
855 0 63.1874 12.8348 811 110.284 1253.19 487.555
856 0 66.2222 13.6359 903 108.205 1253.21 486.414
857 0 65.07 12.7094 827 105.654 1254.24 486.105
858 0 69.071 13.7105 947 102.604 1254.58 486.654
859 0 72.1041 13.2586 956 105.74 1254.55 483.453
860 0 74.117 12.3318 914 108.604 1254.44 481.763
861 0 77.1439 13.7276 1059 106.402 1254.2 479.913
862 0 78.1321 11.1222 869 112.001 1254.63 482.397
863 0 84.1206 13.2072 1111 106.552 1254.22 477.997
864 0 87.1304 12.0509 1050 106.95 1253.76 476.073
865 0 88.2149 13.2631 1170 104.813 1254.19 472.217
866 0 92.1364 12.6009 1161 105.084 1254.39 469.053
867 1 47.0426 11.9891 564 106.906 1254.97 489.493
868 0 50.0886 13.8355 693 103.854 1255.68 486.887
869 0 53.1413 12.9466 688 107.125 1254.72 490.971
870 0 53.1413 12.9278 687 138.859 1253.73 490.987
871 0 55.0542 13.3686 736 106.897 1254.93 488.861
872 0 56.0561 14.4141 808 105.332 1254.25 487.144
873 0 57.0369 13.4299 766 107.291 1254.89 487.303
874 0 57.0492 13.4621 768 108.576 1254.55 484.887
875 0 60.1301 14.0695 846 106.416 1254.1 483.995
876 0 63.058 14.0506 886 104.676 1254.24 480.43
877 0 65.118 13.5446 882 105.907 1253.89 480.946
878 0 65.118 13.5139 880 141.339 1254.9 480.866
879 0 69.0649 14.1751 979 97.2738 1253.2 479.348
880 0 70.1025 13.0238 913 101.238 1253.1 476.447
881 0 74.16 12.8776 955 99.8848 1253.23 475.821
882 0 75.194 13.3122 1001 100.457 1253.61 472.58
883 0 80.1289 14.5516 1166 97.0154 1253.64 472.261
884 0 83.1566 14.4547 1202 96.4443 1253.42 471.24
885 0 86.261 13.3548 1152 98.5234 1253.67 469.401
886 0 88.317 14.0403 1240 97.2992 1254.29 467.609
887 0 94.2664 12.8572 1212 98.6865 1253.99 466.478
888 0 96.2298 12.8962 1241 99.2079 1254.05 465.047
889 0 97.193 11.935 1160 105.19 1253.94 460.602
890 0 103.46 12.5169 1295 103.158 1253.77 460.657
891 1 47.1895 13.52 638 102.5 1253.48 485.865
892 0 49.237 14.6231 720 99.7375 1254.15 485.465
893 0 52.2467 13.5894 710 101.748 1253.64 484.608
894 0 54.3387 14.6673 797 99.1882 1253.73 484.044
895 0 56.1314 14.0385 788 100.867 1252.87 482.5
896 0 55.1548 13.5256 746 104.244 1253.3 481.35
897 0 60.1901 14.7865 890 100.118 1253.9 481.653
898 0 60.1719 14.4253 868 100.035 1253.27 481.181
899 0 63.2965 14.8033 937 99.7641 1253.32 480.419
900 0 65.3052 15.1596 990 100.179 1253.34 479.928
901 0 65.2886 14.7805 965 103.055 1253.42 479.067
902 0 66.427 13.2777 882 106.879 1253.44 479.498
903 0 71.1356 15.0417 1070 102.923 1253.27 476.595
904 0 72.2106 14.4023 1040 105.449 1253.33 476.563
905 0 77.3181 15.5203 1200 102.585 1253.35 475.316
906 0 79.4213 14.2279 1130 105.765 1253.28 474.557
907 0 80.1768 13.3206 1068 108.48 1252.9 472.941
908 0 85.3312 15.1293 1291 104.686 1252.83 470.444
909 0 90.3089 14.1847 1281 106.684 1253.31 470.014
910 1 46.1993 11.0391 510 114.61 1253.35 488.265
911 0 48.1502 13.0841 630 110.294 1253.12 488.76
912 0 49.163 13.5468 666 110.087 1253.23 486.868
913 0 51.0608 15.4522 789 105.738 1253.23 485.754
914 0 53.3312 13.7068 731 108.36 1252.84 485.655
915 0 54.17 13.3469 723 109.974 1253.28 484.772
916 0 56.2979 13.3398 751 110.664 1252.59 482.83
917 0 57.2605 13.098 750 112.235 1252.64 480.231
918 0 60.1119 13.2087 794 110.555 1252.68 480.247
919 0 63.0739 14.9031 940 106.648 1252.85 478.877
920 0 66.2296 16.3824 1085 104.149 1253.24 478.316
921 0 65.0628 14.0172 912 111.607 1253.56 474.284
922 0 69.1756 13.1983 913 112.184 1253.21 475.749
923 0 72.3556 13.7101 992 111.448 1253.74 474.792
924 0 73.1113 12.8708 941 115.421 1253.72 473.823
925 0 77.2194 14.7113 1136 111.42 1253.63 470.637
926 0 78.3949 15.575 1221 110.052 1253.76 473.238
927 0 80.113 13.9803 1120 114.738 1252.98 469.855
928 0 83.1514 14.0707 1170 114.764 1253.17 469.366
929 0 86.3647 13.1188 1133 117.047 1253.45 469.046
930 0 87.1727 13.8002 1203 117.324 1253.5 466.669
931 0 91.2936 14.6232 1335 114.581 1253.59 465.767
932 0 96.3235 14.4098 1388 114.892 1253.9 462.293
933 0 99.2375 13.6239 1352 115.862 1253.18 462.574
934 0 103.322 13.4628 1391 116.482 1253.09 458.321
935 0 108.193 13.7901 1492 117.393 1253.01 457.869
936 1 62.1157 9.88477 614 110.798 1253.87 487.72
937 0 64.1412 10.929 701 110.631 1254.46 485.672
938 0 66.0953 12.2248 808 109.454 1254.79 485.019
939 0 71.0525 12.3289 876 108.744 1254.02 481.56
940 0 74.0584 12.7332 943 107.648 1254.07 480.65
941 0 75.0605 12.6165 947 109.086 1253.98 479.097
942 0 77.0474 12.6935 978 109.315 1254.05 477.96
943 0 81.044 11.8578 961 109.514 1253.92 476.393
944 0 83.0559 12.4735 1036 110.035 1253.92 476.122
945 0 85.1518 12.2957 1047 111.472 1254.43 474.998
946 0 89.0658 12.2831 1094 110.673 1253.68 474.05
947 0 91.1068 12.7982 1166 109.966 1253.39 471.2
948 0 96.2281 13.6343 1312 107.425 1253.83 469.434
949 0 99.0764 11.5971 1149 110.575 1253.72 469.808
950 1 55.0265 11.5217 634 104.916 1254.92 491.028
951 0 56.0614 10.0069 561 103.795 1254.63 488.95
952 0 58.0418 11.6295 675 100.096 1254.19 489.464
953 0 57.0238 11.0305 629 103.626 1254.42 490.486
954 0 59.0588 11.5478 682 102.575 1254.75 489.026
955 0 61.0617 10.7269 655 104.085 1254.41 487.232
956 0 61.0926 10.8033 660 105.356 1254.32 485.571
957 0 65.1126 9.82913 640 105.998 1254.48 487.491
958 0 66.0549 10.4913 693 106.345 1254.35 484.544
959 0 67.0961 10.2689 689 107.97 1255.05 483.393
960 0 69.0335 9.34329 645 111.462 1254.53 484.448
961 0 73.0777 10.8515 793 109.821 1254.3 480.898
962 0 73.0728 10.0858 737 112.612 1254.14 479.886
963 0 78.1078 12.1627 950 108.194 1254.4 478.796
964 0 79.0566 10.347 818 114.018 1254.3 478.257
965 0 83.0694 10.6899 888 113.744 1254.68 475.693
966 0 84.0296 10.4606 879 113.803 1254.55 475.679
967 0 90.2571 11.3564 1025 109.643 1253.62 473.453
968 0 92.4276 10.9058 1008 110.957 1253.87 473.532
969 0 96.2459 12.7902 1231 108.032 1253.97 469.203
970 0 100.368 11.8165 1186 110.377 1253.8 467.255
971 0 100.342 10.7731 1081 111.97 1253.68 467.479
972 1 58.1659 10.4529 608 108.633 1255.04 488.817
973 0 58.0981 10.3446 601 110.018 1254.33 487.045
974 0 57.0622 10.62 606 98.0957 1255.21 489.008
975 0 59.1473 10.1442 600 97.5383 1255.17 488.477
976 0 62.0782 11.5177 715 93.9259 1254.77 486.372
977 0 63.0332 8.36067 527 99.9905 1255.52 486.916
978 0 65.0744 8.667 564 99.3794 1255.19 486.711
979 0 68.2139 10.1739 694 96.9395 1254.95 481.476
980 0 71.1353 9.89663 704 96.1264 1255.63 480.331
981 0 73.2381 10.3498 758 94.9261 1254.62 482.511
982 0 77.2192 10.5285 813 95.3063 1254.42 480.021
983 0 79.1632 11.3437 898 94.2851 1255.1 478.401
984 0 82.2496 10.2858 846 97 1255.59 479.163
985 0 84.2229 10.6859 900 100.631 1255.69 474.218
986 1 47.067 11.0906 522 97.2912 1256.81 493.103
987 0 47.0546 11.6248 547 96.4058 1257.04 491.525
988 0 50.0406 12.2101 611 93.1898 1256.61 491.63
989 0 52.012 10.4784 545 94.3761 1256.87 493.514
990 0 53.058 11.8738 630 93.4095 1256.59 491.96
991 0 52.0721 10.8119 563 96.0089 1257.12 491.652
992 0 53.0817 11.9439 634 94.7066 1256.46 491.886
993 0 55.1049 11.7231 646 95.7229 1256.83 489.424
994 0 59.0815 12.4066 733 93.573 1256.3 489.516
995 0 61.066 13.4117 819 92.6764 1255.7 489.392
996 0 60.1429 12.3539 743 96.6528 1255.95 486.604
997 0 62.0779 12.9031 801 95.6367 1255.84 486.723
998 0 62.06 12.6652 786 99.0153 1255.76 487.349
999 0 65.099 12.5962 820 98.3402 1255.19 486.246
1000 0 66.1097 12.5095 827 100.399 1255.37 486.201
1001 0 69.255 13.573 940 97.5245 1255.2 484.292
1002 0 71.1294 14.1713 1008 97.4186 1254.85 483.191
1003 0 74.1719 14.1159 1047 103.237 1254.8 479.305
1004 0 77.2758 12.0348 930 106.646 1254.66 481.271
1005 0 81.3796 13.48 1097 104.262 1254.92 478.823
1006 0 81.3042 13.0744 1063 109.646 1254.96 478.778
1007 0 84.2596 12.7463 1074 110.96 1255.19 476.584
1008 1 44.0442 10.6484 469 109.687 1255.64 497.111
1009 0 44.2204 11.4201 505 109.202 1254.18 496.578
1010 0 47.0582 13.2389 623 97.9631 1252.5 495.135
1011 0 49.1026 12.9932 638 96.5188 1252.74 496.124
1012 0 49.0623 12.902 633 98.5498 1252.61 493.949
1013 0 49.0373 12.6842 622 101.841 1252.26 491.986
1014 0 51.0877 13.6236 696 99.4224 1252.73 492.412
1015 0 50.0925 11.6984 586 107.195 1251.82 491.77
1016 0 52.0816 13.1524 685 102.629 1252.48 490.219
1017 0 55.0343 13.4825 742 100.873 1252.02 490.842
1018 0 54.0334 11.2893 610 107.289 1252.18 491.195
1019 0 58.0583 14.4682 840 98.2798 1252.4 488.008
1020 0 59.0524 13.107 774 101.54 1252.47 489.149
1021 0 61.0384 12.7952 781 101.75 1252.78 486.168
1022 0 62.1056 13.8796 862 99.2819 1252.39 486.749
1023 0 64.0633 12.3316 790 101.023 1252.48 488.052
1024 0 67.0819 13.5655 910 97.2516 1252.82 486.069
1025 0 67.0764 13.7306 921 97.8198 1252.75 483.872
1026 0 70.0645 13.3734 937 97.762 1252.87 483.306
1027 0 72.195 12.8125 925 99.2086 1252.46 483.635
1028 0 75.232 14.9537 1125 94.136 1252.92 481.414
1029 0 78.246 15.5152 1214 93.2002 1252.75 480.785
1030 0 78.0881 13.5744 1060 98.017 1252.91 479.728
1031 0 82.1882 15.5983 1282 93.9407 1252.87 478.417
1032 0 85.2316 13.6686 1165 96.4094 1252.85 479.063
1033 0 87.183 15.152 1321 95.0999 1253.32 474.086
1034 0 87.1446 12.3358 1075 101.125 1252.85 477.265
1035 1 49.0626 12.2089 599 99.9199 1252.67 496.222
1036 0 50.0742 13.0207 652 99.5997 1252.68 493.16
1037 0 52.3897 13.5332 709 95.3667 1253.41 492.863
1038 0 52.3297 12.7652 668 101.525 1253.26 491.259
1039 0 54.2659 14.2078 771 97.4462 1253.47 490.488
1040 0 54.1932 12.3447 669 102.659 1253.23 490.103
1041 0 56.1806 13.7414 772 98.4961 1252.32 489.846
1042 0 58.2773 12.3719 721 100.928 1253.34 490.024
1043 0 57.0759 12.422 709 103.055 1253.23 488.829
1044 0 63.1788 14.0395 887 97.5333 1253.77 488.778
1045 0 65.1628 14.1185 920 96.1141 1252.94 488.32
1046 0 66.1808 12.7681 845 100.186 1253.44 485.527
1047 0 68.2634 14.1657 967 98.0569 1253.54 484.057
1048 0 70.2463 13.0683 918 101.349 1253.72 482.072
1049 0 73.3532 13.8099 1013 99.3949 1253.46 481.226
1050 0 74.2315 12.8652 955 101.2 1253.88 482.246
1051 0 76.1188 12.7695 972 103.532 1254.47 478.112
1052 0 80.3333 13.7054 1101 101.007 1254.75 479.429
1053 0 84.1777 13.4359 1131 102.065 1254.66 476.582
1054 0 86.2645 14.6642 1265 100.121 1254.44 477.487
1055 0 90.2855 12.8038 1156 104.549 1254.45 473.548
1056 1 46.2244 10.8817 503 101.225 1253.49 497.193
1057 0 49.2148 11.9883 590 101.478 1253.69 494.993
1058 0 52.3817 11.5307 604 102.336 1253.13 493.579
1059 0 53.637 13.6846 734 99.6131 1254.12 489.112
1060 0 55.0309 12.4476 685 102.085 1251.89 490.848
1061 0 55.0246 13.394 737 102.273 1251.87 489.151
1062 0 55.0256 12.4851 687 104.693 1252.04 490.198
1063 0 58.1282 14.1412 822 101.232 1251.74 488.657
1064 0 60.0308 13.9262 836 102.063 1252.42 487.499
1065 0 61.0429 12.2701 749 105.996 1251.99 488.371
1066 0 63.0348 13.1197 827 104.877 1252 484.732
1067 0 65.024 13.718 892 103.442 1252.86 484.526
1068 0 66.1028 12.9798 858 105.599 1253.04 484.332
1069 0 70.0857 13.512 947 103.603 1252.71 483.225
1070 0 71.065 12.763 907 105.28 1252.65 483.623
1071 0 74.046 14.491 1073 101.548 1252.44 482.827
1072 0 76.0849 13.3272 1014 104.96 1252.75 481.172
1073 0 80.0612 14.2016 1137 105.005 1252.83 478.799
1074 0 81.0357 12.8338 1040 109.104 1252.79 477.46
1075 0 85.1088 13.8764 1181 106.805 1253.1 476.332
1076 0 89.1101 13.1747 1174 106.502 1252.74 476.048
1077 0 88.2015 11.8705 1047 103.891 1252.87 477.011
1078 0 91.1074 12.2822 1119 105.021 1252.98 473.668
1079 0 96.2148 13.0957 1260 101.144 1253.22 473.632
1080 0 101.266 13.8644 1404 100.245 1254.26 470.013
1081 0 104.176 13.602 1417 102.21 1253.24 467.244
1082 1 52.0343 13.9331 725 95.5407 1253.85 493.41
1083 0 53.1108 14.0649 747 96.5033 1254.08 491.964
1084 0 53.1297 13.3071 707 98.6407 1253.63 491.072
1085 0 56.1255 13.5767 762 97.1811 1253.2 490.93
1086 0 57.0902 13.067 746 98.4759 1253.37 490.29
1087 0 59.0597 14.7986 874 94.9783 1253.51 490.054
1088 0 60.0687 13.4846 810 98.4667 1253.92 488.936
1089 0 61.0844 14.1771 866 97.4804 1253.46 488.609
1090 0 65.1068 14.3303 933 97.0536 1253.68 487.928
1091 0 65.1295 14.4021 938 97.8241 1253.62 486.611
1092 0 66.0713 13.9244 920 100.932 1254.08 486.185
1093 0 68.0868 12.7484 868 103.198 1253.84 485.881
1094 0 74.0682 14.0006 1037 100.635 1253.68 483.557
1095 0 74.0351 14.9659 1108 99.7969 1253.23 482.044
1096 0 75.1546 13.9446 1048 102.721 1252.51 480.625
1097 0 81.168 14.6979 1193 100.553 1253.03 480.119
1098 0 81.2328 14.1199 1147 104.894 1252.53 476.873
1099 0 85.2364 14.5712 1242 103.44 1252.31 476.238
1100 0 86.1345 14.0478 1210 103.068 1252.36 477.378
1101 1 44.1105 12.3553 545 106.141 1252.64 495.534
1102 0 46.0694 12.2858 566 105.452 1253.02 496.132
1103 0 47.0925 12.6135 594 94.5303 1253.66 490.204
1104 0 46.0536 11.9426 550 96.7782 1253.82 489.8
1105 0 50.0326 12.6917 635 93.6205 1253.47 489.357
1106 0 51.1329 12.9075 660 105.015 1254.5 495.15
1107 0 54.0236 14.142 764 100.208 1254.28 492.758
1108 0 56.0787 12.6073 707 102.887 1254.95 492.273
1109 0 58.1155 12.8021 744 103.263 1255.06 490.91
1110 0 60.1449 13.7169 825 99.7018 1254.78 490.909
1111 0 61.0961 13.5852 830 100.151 1254.7 488.758
1112 0 63.1242 13.1328 829 100.415 1254.6 486.703
1113 0 65.0947 13.7646 896 101.448 1254.44 486.805
1114 0 67.0944 12.4004 832 103.302 1254.8 486.983
1115 0 72.0814 14.4004 1038 97.763 1254.61 485.112
1116 0 73.1578 11.9878 877 102.273 1254.93 484.951
1117 0 77.1055 13.6047 1049 97.2784 1254.68 481.635
1118 0 79.4149 13.4358 1067 93.8107 1253.59 474.324
1119 1 39.064 12.6459 494 99.2105 1252.86 498.31
1120 0 42.2617 11.2868 477 100.04 1252.65 496.962
1121 0 42.0607 12.4106 522 99.7433 1252.17 497.745
1122 0 44.0339 12.7175 560 99.8375 1251.95 496.27
1123 0 45.1283 12.2761 554 101.296 1252.08 495.987
1124 0 47.0764 12.9152 608 98.347 1252.13 493.924
1125 0 48.1709 13.3898 645 98.3705 1252.36 494.549
1126 0 49.0578 11.5578 567 102.954 1252.05 492.427
1127 0 53.1756 15.2137 809 92.8047 1252.83 491.176
1128 0 52.1449 13.1365 685 97.6774 1252.83 490.955
1129 0 54.1363 13.4845 730 96.8164 1252.8 490.126
1130 0 55.1479 11.986 661 99.3026 1252.87 490.153
1131 0 57.1942 11.8019 675 98.5407 1253.26 489.233
1132 0 58.1535 11.7276 682 97.9414 1253.1 489.302
1133 0 61.0945 12.5216 765 95.9386 1252.65 488.085
1134 0 63.1574 12.2551 774 95.8928 1253.01 487.544
1135 0 66.0924 12.1345 802 95.1708 1253.16 487.817
1136 0 67.1211 12.5892 845 94.968 1253.25 484.252
1137 0 70.0905 13.2828 931 92.608 1253.11 482.734
1138 0 73.1048 12.8993 943 92.7253 1253.46 481.813
1139 0 75.0992 13.6752 1027 90.5248 1252.97 480.298
1140 0 79.0833 12.215 966 91.5238 1252.26 478.641
1141 0 81.0766 11.6063 941 91.8948 1251.84 475.597
1142 1 43.025 10.5985 456 91.5066 1251.67 497.743
1143 0 45.026 12.1041 545 89.1156 1252.3 495.594
1144 0 46.0581 10.3131 475 89.2337 1254.57 495.886
1145 0 47.061 10.6245 500 88.892 1255.41 494.254
1146 0 51.0817 12.4702 637 84.7991 1254.75 493.923
1147 0 50.0567 10.4481 523 89.0975 1254.33 493.908
1148 0 53.2409 11.8893 633 85.6682 1253.88 490.506
1149 0 54.144 13.7042 742 83.1577 1253.34 488.702
1150 0 55.1809 11.272 622 86.7588 1253.96 490.325
1151 0 58.139 11.3349 659 86.0091 1253.59 490.53
1152 0 60.0853 10.768 647 86.6275 1253.52 490.167
1153 0 61.1128 11.7488 718 85.4109 1254 486.146
1154 0 62.1026 10.8208 672 86.814 1253.31 486.961
1155 0 64.2352 11.3801 731 85.6197 1253.2 483.981
1156 0 69.1918 12.5159 866 82.4884 1253.54 482.199
1157 0 72.2005 12.119 875 82.5703 1253.98 482.137
1158 0 73.2304 11.498 842 84.6283 1254 481.031
1159 0 77.299 12.2899 950 84.0021 1253.75 478.472
1160 0 79.1552 12.5829 996 82.9267 1253.36 476.381
1161 0 83.2626 14.5804 1214 78.8048 1253.34 478.017
1162 0 85.258 12.4446 1061 83.9821 1253.15 475.632
1163 1 44.1437 9.85418 435 87.3977 1253.94 496.434
1164 0 44.0938 10.0921 445 87.9281 1251.66 495.276
1165 0 47.1532 10.9219 515 87.0854 1251.85 496.239
1166 0 49.0852 11.0624 543 84.1676 1251.64 495.006
1167 0 52.0473 13.0843 681 81.3363 1251.49 491.125
1168 0 53.2451 12.9214 688 81.8227 1254.31 492.951
1169 0 52.2263 11.8331 618 84.1731 1255.02 490.466
1170 0 56.1346 12.0425 676 84.5666 1254.8 491.534
1171 0 56.2218 12.0772 679 86.8719 1254.39 490.012
1172 0 59.185 13.1283 777 85.0335 1254.18 489.574
1173 0 60.1609 13.4805 811 86.1282 1254.8 486.205
1174 0 61.0607 11.4149 697 88.1707 1254.97 489.934
1175 0 64.0376 14.5852 934 82.4775 1254.66 486.919
1176 0 66.1941 14.2762 945 82.8656 1254.57 484.88
1177 0 69.1168 13.9185 962 82.5769 1254.1 484.384
1178 0 72.2406 13.109 947 83.4857 1254.03 484.206
1179 0 70.2241 12.332 866 86.037 1254.07 481.854
1180 0 73.2324 11.5932 849 74.795 1253.36 482.396
1181 0 76.1885 13.2828 1012 85.497 1253.22 480.389
1182 0 80.2271 13.8607 1112 84.3327 1253.45 477.488
1183 0 83.3164 14.823 1235 83.0202 1253.33 477.002
1184 0 85.2836 12.2415 1044 87.2586 1254.13 478.047
1185 0 88.2362 14.0645 1241 85.3594 1253.48 474.545
1186 0 94.2566 13.0707 1232 86.207 1254.06 475.495
1187 0 95.305 13.8503 1320 85.7545 1254.22 470.307
1188 0 99.3761 13.1319 1305 85.0605 1253.68 468.579
1189 1 50.0656 13.762 689 83.5893 1254.08 490.832
1190 0 54.1552 14.4215 781 83.5186 1254.51 488.766
1191 0 56.202 14.3589 807 83.0471 1254.14 491.815
1192 0 56.1197 12.4733 700 86.5314 1254.38 490.023
1193 0 59.118 14.8517 878 83.3303 1254.34 487.869
1194 0 58.168 14.63 851 84.0846 1254.05 488.768
1195 0 59.1283 12.8534 760 87.1171 1254.6 486.776
1196 0 63.1995 15.3482 970 82.9412 1254.79 486.16
1197 0 66.1364 17.0405 1127 80.7294 1254.49 486.431
1198 0 64.0964 12.1692 780 89.0923 1254.34 487.027
1199 0 65.1355 13.2032 860 88.336 1254.53 483.279
1200 0 69.1882 13.3838 926 88.8067 1254.23 483.548
1201 0 71.1402 13.4242 955 89.6576 1254.35 481.616
1202 0 73.16 14.6118 1069 88.4977 1254.08 481.742
1203 0 77.1415 15.6077 1204 86.5548 1253.82 481.729
1204 0 77.0908 15.0083 1157 87.8842 1253.67 480.521
1205 0 80.2076 13.2406 1062 90.5678 1253.98 479.187
1206 0 83.1103 14.5108 1206 89.9486 1253.93 477.406
1207 0 84.2407 11.5621 974 96.2125 1253.96 477.357
1208 0 84.2074 12.2673 1033 96.8906 1253.67 474.687
1209 0 88.0899 14.19 1250 99.8248 1253.79 473.067
1210 1 48.0495 11.4465 550 103.718 1254.62 491.055
1211 0 51.1214 12.4214 635 101.762 1252.34 491.276
1212 0 53.105 12.1457 645 89.9054 1252.64 485.095
1213 0 56.2619 13.4727 758 83.3061 1253.05 487.89
1214 0 55.0687 11.7671 648 95.5679 1252.99 491.205
1215 0 58.0817 13.4466 781 93.4661 1252.19 490.877
1216 0 60.2012 14.2688 859 91.1839 1251.96 489.074
1217 0 60.1442 14.4486 869 91.7008 1251.97 487.71
1218 0 63.1094 15.3068 966 88.764 1252.22 487.213
1219 0 63.0803 12.8091 808 93.7908 1252.51 485.636
1220 0 67.0432 12.216 819 94.5592 1250.89 487.018
1221 0 69.0767 13.4344 928 91.8879 1251.51 485.293
1222 0 70.0524 13.4185 940 93.6649 1250.39 482.806
1223 0 74.0796 14.3764 1065 88.3662 1251.15 484.8
1224 0 77.2152 12.1608 939 91.4292 1251.71 480.988
1225 0 78.197 12.5197 979 91.1696 1251.5 481.279
1226 0 82.1476 14.6931 1207 87.7473 1252.08 476.611
1227 0 86.1366 15.162 1306 86.0697 1252.02 475.103
1228 0 87.1158 12.8794 1122 89.3164 1251.68 476.302
1229 0 90.1815 12.7299 1148 90.0845 1251.89 475.127
1230 0 92.1516 12.6097 1162 89.8098 1251.77 473.294
1231 0 95.0791 12.9261 1229 88.9951 1251.75 470.65
1232 1 50.0773 12.5007 626 87.6789 1251.28 492.639
1233 0 52.1035 13.1661 686 89.1501 1251.7 492.567
1234 0 54.1922 15.9433 864 83.3704 1251.71 490.774
1235 0 54.1801 15.0055 813 86.5055 1251.52 488.202
1236 0 55.0308 12.811 705 90.6525 1253.99 491.373
1237 0 57.0444 13.5333 772 89.1982 1253.29 489.225
1238 0 59.06 13.3085 786 88.514 1253.19 488.398
1239 0 61.0425 12.9254 789 89.0165 1253.39 487.536
1240 0 63.105 12.8833 813 89.3506 1253.37 486.51
1241 0 67.0786 14.5501 976 85.4693 1252.53 487.858
1242 0 68.0685 12.7519 868 89.6325 1253.08 485.135
1243 0 68.1393 12.6652 863 90.0266 1252.88 482.282
1244 0 72.1222 14.1149 1018 89.2711 1252.97 481.591
1245 0 73.1413 12.8792 942 91.6316 1252.67 480.145
1246 0 76.2007 14.2387 1085 90.0562 1253.11 477.975
1247 0 74.2295 12.879 956 132.755 1254.06 480.049
1248 0 80.2352 13.9839 1122 92.3824 1252.66 477.226
1249 0 84.1574 13.4985 1136 93.75 1252.54 477.087
1250 0 86.154 14.5902 1257 92.7796 1253.24 474.084
1251 0 88.1589 13.1581 1160 96.2216 1253.61 471.87
1252 0 88.1684 13.0772 1153 130.257 1253.61 471.791
1253 0 92.2334 12.5334 1156 97.8019 1253.31 470.729
1254 0 96.1088 12.7876 1229 96.8218 1252.8 468.544
1255 1 52.1116 11.7632 613 97.075 1254.45 491.113
1256 0 54.1124 12.3262 667 94.045 1254.45 488.166
1257 0 57.1296 14.966 855 87.4854 1253.92 489.196
1258 0 58.0883 14.7878 859 88.6205 1253.85 487.978
1259 0 60.0916 13.4295 807 90.9405 1253.6 488.234
1260 0 61.1726 13.6499 835 92.3246 1254.18 487.046
1261 0 65.1366 16.1046 1049 87.7331 1253.35 483.456
1262 0 70.2218 15.6789 1101 87.653 1253.14 485.128
1263 0 71.1148 14.4696 1029 90.999 1252.41 482.302
1264 0 69.1563 13.6213 942 93.7643 1253.02 480.816
1265 0 75.2308 15.0337 1131 89.8621 1253.51 482.091
1266 0 78.2586 14.2604 1116 90.7392 1253.15 477.571
1267 0 79.2313 15.1203 1198 89.2396 1252.98 477.743
1268 0 82.2795 13.5149 1112 92.089 1252.99 476.089
1269 0 83.1499 15.0812 1254 91.2735 1253.33 472.878
1270 0 88.204 14.8746 1312 92.7096 1252.69 472.23
1271 0 88.2156 14.0225 1237 92.599 1252.42 467.926
1272 0 92.2613 13.4401 1240 95.5476 1252.68 463.022
1273 0 97.4119 15.2856 1489 90.0107 1252 464.068
1274 1 47.0719 10.8557 511 89.9883 1251.41 484.781
1275 0 52.0247 13.4167 698 81.4814 1251.63 488.86
1276 0 55.1104 12.3933 683 83.4714 1251.8 487.455
1277 0 57.0843 12.8582 734 82.7398 1252.13 485.294
1278 0 58.1713 14.8355 863 80.5991 1252.8 484.212
1279 0 58.1397 11.2316 653 85.8208 1251.94 482.165
1280 0 62.1263 12.3136 765 84.634 1252.18 482.673
1281 0 64.13 12.5994 808 84.1374 1252.65 481.963
1282 0 69.1761 11.1166 769 84.974 1252.32 481.735
1283 0 66.2383 12.0927 801 85.9625 1251.58 478.06
1284 0 71.1811 13.2619 944 84.5932 1252.26 479.691
1285 0 73.0864 12.8205 937 88.2113 1252.13 474.964
1286 0 76.1916 11.5236 878 90.3838 1251.92 477.06
1287 0 77.1572 10.9257 843 94.2313 1251.86 472.845
1288 0 82.1741 13.0455 1072 91.7948 1252.12 471.832
1289 0 83.0583 10.5468 876 99.8756 1252.51 469.449
1290 1 46.0627 9.92126 457 90.8753 1251.53 489.643
1291 0 44.0848 12.3625 545 87.5578 1252.21 490.413
1292 0 50.2352 13.4766 677 96.158 1252.34 492.427
1293 0 52.0811 13.1334 684 97.9313 1254.34 492.877
1294 0 52.0542 13.6396 710 99.2789 1254.88 491.313
1295 0 54.0786 13.7023 741 98.9474 1254.37 489.374
1296 0 56.0509 13.9338 781 98.3547 1254.59 489.676
1297 0 57.0876 11.4386 653 102.998 1254.88 491.651
1298 0 58.0736 12.6736 736 101.311 1255.03 488.122
1299 0 62.093 14.3816 893 96.8466 1254.48 487.813
1300 0 63.162 14.1699 895 97.3642 1254.16 487.208
1301 0 63.1304 14.272 901 98.758 1253.19 486.163
1302 0 66.1036 14.1747 937 98.4792 1254.37 485.047
1303 0 67.1413 13.8216 928 99.6358 1254.26 485.584
1304 0 70.1684 14.9213 1047 98.4881 1253.05 481.595
1305 0 72.1383 12.8503 927 103.46 1252.72 483.899
1306 0 74.1084 13.4263 995 103.635 1253.14 481.266
1307 0 76.1532 13.2627 1010 103.139 1253.63 482.581
1308 0 79.1832 13.5256 1071 103.762 1252.99 478.621
1309 0 84.119 14.7054 1237 99.9466 1253.08 476.267
1310 0 85.1489 13.447 1145 103.82 1253.92 475.963
1311 0 87.1508 12.9431 1128 105.446 1253.7 473.724
1312 0 91.1456 14.7237 1342 101.261 1253.33 474.486
1313 0 93.1349 13.4214 1250 102.5 1253.26 473.678
1314 1 48.0914 12.7882 615 99.1935 1254.34 495.216
1315 0 48.0736 12.0232 578 98.808 1254.42 494.445
1316 0 50.0656 13.702 686 95.4869 1254.1 493.15
1317 0 50.075 11.2631 564 98.4645 1253.67 493.433
1318 0 48.0816 11.2309 540 100.848 1254.19 493.646
1319 0 54.0651 12.9659 701 98.2768 1254.57 491.284
1320 0 54.156 12.6856 687 98.9942 1254.1 490.428
1321 0 55.1657 12.7434 703 99.0441 1253.86 489.229
1322 0 59.1003 12.8257 758 97.9987 1254.18 489.099
1323 0 61.2055 12.0414 737 98.4763 1252.89 490.399
1324 0 61.1839 13.2388 810 97.9691 1253.3 486.037
1325 0 64.2125 13.393 860 95.5291 1253.96 486.566
1326 0 68.2696 13.2709 906 96.1269 1254.04 486.426
1327 0 68.1577 11.7522 801 98.4082 1254.04 485.921
1328 0 70.3018 12.4748 877 96.5017 1253.15 484.441
1329 0 72.173 12.2483 884 97.6493 1253.14 483.542
1330 0 76.109 11.7857 897 98.3144 1253.44 480.724
1331 0 77.1161 12.2932 948 95.2869 1252.76 482.66
1332 0 81.0836 14.5406 1179 92.1874 1252.68 479.846
1333 0 83.2059 11.8261 984 96.5854 1252.82 476.363
1334 0 87.1976 10.5278 918 97.8987 1253.45 477.126
1335 0 89.2506 12.5713 1122 94.7032 1253.23 474.062
1336 0 95.186 13.5734 1292 91.9752 1252.89 472.488
1337 0 96.3694 11.7257 1130 95.1177 1253 469.442
1338 1 52.2322 12.3296 644 95.5963 1253.41 490.289
1339 0 53.1411 13.1725 700 98.9429 1251.07 490.907
1340 0 55.0849 13.1796 726 98.7094 1251.05 491.737
1341 0 57.0375 12.1148 691 102.104 1251.44 489.651
1342 0 60.1021 13.8098 830 99.6386 1251.29 489.029
1343 0 62.0427 14.1838 880 100.05 1250.43 487.867
1344 0 64.1316 13.6282 874 100.685 1250.68 485.492
1345 0 65.3732 14.226 930 100.978 1252.38 485.648
1346 0 68.331 13.259 906 101.292 1252.03 485.215
1347 0 71.2493 13.6984 976 99.2254 1252.36 483.933
1348 0 71.2836 13.3551 952 102.625 1252.73 483.651
1349 0 74.3454 13.9215 1035 101.146 1251.99 483.517
1350 0 76.289 13.6062 1038 103.905 1252 479.486
1351 0 77.2235 13.5063 1043 102.933 1252.43 482.083
1352 0 80.4039 14.85 1194 100.585 1252.96 480.39
1353 0 83.3414 13.4387 1120 103.567 1252.91 478.75
1354 0 85.3458 13.6269 1163 99.9071 1252.61 476.567
1355 0 91.5032 14.6006 1336 97.503 1252.39 472.96
1356 0 93.2836 13.2285 1234 101.836 1252.31 470.781
1357 0 96.3011 13.7278 1322 100.151 1252.55 470.629
1358 0 102.434 14.1555 1450 97.5566 1252.52 466.45
1359 0 103.081 11.2436 1159 97.0397 1252.74 468.706
1360 0 109.249 12.5127 1367 94.9751 1252.45 464.755
1361 0 111.287 10.8368 1206 95.5058 1251.74 467.712
1362 1 59.0847 15.2662 902 85.1962 1251.08 488.803
1363 0 59.0637 14.1373 835 88.6647 1251.6 487.969
1364 0 62.1342 15.4021 957 86.8276 1251.68 487.169
1365 0 63.1597 16.1179 1018 85.5147 1251.56 485.899
1366 0 64.2195 13.3449 857 90.0385 1251.04 484.9
1367 0 68.2418 12.8221 875 90.128 1251.66 484.912
1368 0 70.1487 13.2718 931 89.4597 1251.46 483.726
1369 0 73.1423 13.9181 1018 87.501 1251.43 483.472
1370 0 74.1401 14.6749 1088 86.0101 1251.23 481.566
1371 0 77.1179 13.9267 1074 85.6276 1251.36 478.682
1372 0 81.1234 13.9171 1129 85.3738 1251.86 479.024
1373 0 84.2154 13.3824 1127 86.1881 1251.66 476.731
1374 0 85.1547 15.4542 1316 85.2394 1251.88 474.645
1375 0 88.1114 12.6771 1117 90.0976 1252.25 475.409
1376 0 91.2273 14.0857 1285 88.884 1252.43 470.033
1377 1 49.0536 13.0266 639 90.615 1251.83 493.751
1378 0 51.0774 13.9396 712 90.75 1252.04 491.538
1379 0 52.2432 14.0688 735 92.5116 1252.69 490.839
1380 0 55.1973 13.2253 730 94.7438 1253.15 492.493
1381 0 56.1117 14.1325 793 92.9483 1254.59 490.454
1382 0 56.0317 12.3501 692 96.117 1254.79 489.905
1383 0 59.117 12.9066 763 94.1664 1254.77 489.999
1384 0 63.0631 12.7491 804 94.7848 1254.19 487.111
1385 0 64.084 14.1533 907 92.2238 1254.27 487.146
1386 0 65.0615 13.5103 879 94.1411 1254.42 486.548
1387 0 69.1411 13.9859 967 92.3226 1253.62 485.481
1388 0 70.1429 12.3462 866 95.2864 1253.72 483.815
1389 0 71.1305 12.7231 905 95.6829 1253.9 483.835
1390 0 75.0639 13.8815 1042 96.0096 1254.15 483.251
1391 0 76.0713 15.3409 1167 95.1045 1254.75 480.432
1392 0 79.0867 15.2112 1203 96.049 1253.87 479.121
1393 0 83.1712 14.4401 1201 96.3089 1253.55 479.389
1394 0 84.1884 14.7526 1242 95.3591 1253.14 478.345
1395 0 87.0889 17.1664 1495 91.7191 1253.11 476.221
1396 0 89.1678 13.6372 1216 93.7755 1252.88 475.622
1397 0 92.2897 13.4685 1243 93.3347 1252.96 472.468
1398 0 92.2345 13.2597 1223 97.9248 1253.04 476.805
1399 0 95.3316 16.6891 1591 93.1175 1252.87 470.64
1400 0 96.1204 10.7781 1036 94.473 1252.96 477.036
1401 0 102.162 13.6058 1390 91.9381 1252.67 469.904
1402 1 56.1705 14.5984 820 88.6988 1253.5 491.796
1403 0 58.0514 14.1082 819 87.7888 1253.09 491.033
1404 0 60.1605 15.4088 927 85.603 1253.53 489.659
1405 0 60.2328 14.9918 903 87.0952 1253.23 488.864
1406 0 61.2627 15.4417 946 87.1163 1252.82 486.359
1407 0 63.26 15.8552 1003 86.8225 1252.17 485.2
1408 0 65.3555 13.526 884 89.3303 1251.87 485.902
1409 0 68.4164 15.0841 1032 87.0184 1252.24 484.846
1410 0 69.265 13.0224 902 94.7073 1252.2 482.165
1411 0 71.1179 15.9172 1132 88.8834 1252.32 481.888
1412 0 73.1715 15.1152 1106 91.7504 1252.04 477.954
1413 0 76.21 16.1527 1231 90.2502 1252.79 479.345
1414 0 77.167 15.46 1193 93.4744 1252.56 474.95
1415 0 80.148 15.5712 1248 93.738 1252.15 472.875
1416 0 82.1562 16.566 1361 91.6143 1252.03 470.682
1417 0 85.2725 15.8902 1355 91.5646 1251.91 470.428
1418 0 87.263 16.4789 1438 91.1544 1251.59 468.414
1419 0 86.1382 13.5364 1166 98.4906 1251.65 462.194
1420 0 91.1613 17.2442 1572 92.1412 1252.01 461.838
1421 0 97.219 14.9868 1457 95.6788 1251.61 462.865
1422 0 98.2354 15.2186 1495 98.6896 1251.5 459.274
1423 0 101.322 16.5512 1677 96.2415 1251.27 455.576
1424 0 104.292 16.2716 1697 95.0866 1252.07 454.879
1425 0 110.194 14.8012 1631 96.7909 1252.16 453.937
1426 1 55.1435 13.8185 762 95.1496 1252.4 485.438
1427 0 60.2632 13.7065 826 97.0944 1253.59 483.107
1428 0 60.2632 13.6236 821 143.773 1254.58 483.069
1429 0 64.2183 16.1169 1035 94.9952 1252.74 482.784
1430 0 64.2056 13.8617 890 100.674 1251.79 482.492
1431 0 66.3071 15.2321 1010 98.0248 1251.83 480.526
1432 0 66.0976 12.7387 842 104.271 1252.24 481.713
1433 0 69.1307 14.2628 986 102.522 1252.12 480.068
1434 0 74.171 16.1788 1200 99.4658 1252.33 478.059
1435 0 74.1058 15.7073 1164 102.413 1251.92 474.89
1436 0 76.2045 14.5529 1109 104.344 1251.51 475.015
1437 0 80.1334 13.6647 1095 105.641 1251.99 473.142
1438 0 84.0857 16.947 1425 98.287 1251.82 473.042
1439 0 86.1718 15.8753 1368 100.425 1251.81 472.205
1440 0 88.1224 14.0146 1235 103.082 1252.25 470.824
1441 0 89.1491 13.8981 1239 103.816 1252.09 470.855
1442 0 90.1661 13.7524 1240 103.769 1251.85 463.92
1443 0 94.349 14.4888 1367 99.1258 1251.92 458.476
1444 1 47.1953 11.5054 543 99.9779 1252.01 480.508
1445 0 49.0433 12.4584 611 91.0131 1252.74 486.358
1446 0 51.0699 11.357 580 92 1252.79 484.676
1447 0 52.1635 12.0774 630 91.5476 1252.68 480.965
1448 0 52.1635 12.1158 632 123.441 1252.66 480.837
1449 0 53.0273 12.6727 672 92.997 1253.02 481.195
1450 0 55.1226 10.4676 577 94.0312 1252.63 481.839
1451 0 60.0739 13.6665 821 89.743 1252.68 479.435
1452 0 62.1857 13.1541 818 90.8851 1252.66 479.336
1453 0 63.2045 13.1794 833 91.4118 1251.79 475.256
1454 0 65.0963 13.1651 857 92.0793 1251.75 474.837
1455 0 68.0953 13.7454 936 90.9476 1252.35 475.675
1456 0 68.1373 13.0619 890 92.6315 1252.05 471.715
1457 0 72.212 12.5049 903 92.8959 1252.31 469.69
1458 0 75.1249 13.218 993 90.1319 1251.95 470.752
1459 0 77.1558 13.7644 1062 90.2458 1252.08 467.404
1460 0 81.1801 14.0675 1142 89.8765 1252.61 466.601
1461 0 81.1204 12.8574 1043 91.3222 1252.38 466.062
1462 0 85.2901 13.6475 1164 90.9132 1251.85 465.527
1463 0 89.092 15.0855 1344 91.2798 1252.25 465.091
1464 0 92.1975 13.4928 1244 94.8135 1253.07 460.865
1465 0 94.2913 13.6174 1284 95.25 1253.3 456.2
1466 1 47.1464 12.8536 606 84.0594 1252.14 484.779
1467 0 52.0592 10.4112 542 94.072 1254.13 491.729
1468 0 52.1481 11.4673 598 93.3796 1253.46 488.873
1469 0 56.1723 12.2836 690 91.9652 1254.33 487.372
1470 0 57.1183 11.4324 653 92.8254 1253.76 488.178
1471 0 62.1236 12.5556 780 90.8538 1253.44 487.076
1472 0 62.1886 12.1726 757 92.6143 1252.61 486.675
1473 0 64.1545 10.9735 704 93.6662 1252.8 486.287
1474 0 68.234 14.0839 961 88.4391 1252.87 482.176
1475 0 69.1921 10.5359 729 92.4156 1253.19 483.447
1476 0 73.1715 11.6165 850 91.4212 1252.25 479.886
1477 0 77.2211 12.6779 979 89.8141 1253.04 481.165
1478 0 78.3657 13.2456 1038 89.1262 1252.6 477.613
1479 0 82.2173 12.5886 1035 89.6686 1253 478.055
1480 0 86.1396 15.0105 1293 86.1315 1252.99 476.484
1481 0 87.1435 12.8638 1121 89.9153 1252.81 476.075
1482 0 91.2093 13.1017 1195 91.2753 1252.17 472.052
1483 1 48.0259 12.5141 601 90.6356 1251.77 494.699
1484 0 51.0464 13.7718 703 88.532 1251.63 493.037
1485 0 48.1367 13.1085 631 91.9112 1253.29 493.499
1486 0 51.1112 11.5434 590 93.5186 1253.48 493.836
1487 0 50.1641 12.8777 646 93.4118 1253.08 491.269
1488 0 52.0704 13.1361 684 92.883 1253 491.396
1489 0 56.1889 14.8072 832 87.5276 1253.02 490.857
1490 0 58.164 11.7255 682 91.1584 1252.95 490.836
1491 0 57.0768 12.2116 697 89.7475 1253.12 490.894
1492 0 62.1274 13.1021 814 91.188 1252.9 487.941
1493 0 64.2049 13.27 852 93.3157 1252.82 486.879
1494 0 66.1359 12.4743 825 93.4024 1253.06 489.796
1495 0 68.1654 14.0834 960 91.174 1252.05 484.553
1496 0 71.3107 12.3263 879 92.8419 1252.31 486.332
1497 0 73.2105 13.9188 1019 92.5476 1252.41 481.387
1498 0 73.2524 12.2044 894 96.6476 1252.74 482.7
1499 0 76.1387 14.224 1083 94.4571 1252.69 480.111
1500 0 79.1311 13.2818 1051 96.3454 1252.48 479.872
1501 0 82.182 15.1858 1248 94.1226 1252.69 478.001
1502 0 84.1977 15.0242 1265 95.1787 1252.63 479.206
1503 0 86.1152 13.6794 1178 98.1936 1251.84 477.823
1504 0 89.0851 13.9978 1247 101.334 1252.15 474.208
1505 0 89.0951 13.9851 1246 108.368 1253.04 472.526
1506 0 92.2015 14.067 1297 111.802 1253.26 473.507
1507 0 92.2121 14.0112 1292 111.007 1253.33 474.437
1508 0 93.1055 13.5116 1258 114.708 1251.89 470.515
1509 0 96.221 14.5706 1402 111.596 1252.66 471.45
1510 0 95.1163 12.6687 1205 119.49 1252.01 469.627
1511 0 98.1219 12.8004 1256 118.964 1251.79 470.957
1512 0 102.128 13.3655 1365 116.718 1251.61 470.37
1513 1 56.2561 12.6031 709 115.082 1251.7 489.568
1514 0 58.1708 13.7182 798 110.439 1252.06 489.827
1515 0 58.2003 12.6632 737 114.768 1251.96 486.981
1516 0 60.1631 13.9953 842 113.765 1252.38 488.228
1517 0 62.2316 13.0641 813 116.226 1251.65 488.263
1518 0 64.236 13.6372 876 114.977 1251.2 486.916
1519 0 65.1586 13.5209 881 116.372 1251.55 485.086
1520 0 67.3121 12.9992 875 118.768 1251.17 484.75
1521 0 69.3535 12.9337 897 120.278 1251.88 484.523
1522 0 70.1913 13.2068 927 120.862 1251.36 482.762
1523 0 72.2515 14.6294 1057 117.605 1251.72 481.448
1524 0 75.1962 13.6975 1030 120.334 1251.32 482.219
1525 0 75.2183 13.2282 995 123.172 1251.61 480.86
1526 0 78.3023 13.665 1070 121.894 1252.15 481.849
1527 0 80.3186 13.7453 1104 122.139 1251.28 478.903
1528 0 83.2461 13.4901 1123 123.017 1251.71 478.516
1529 0 83.2867 13.4355 1119 124.528 1251.92 476.917
1530 0 87.3724 13.0934 1144 125.109 1251.47 476.171
1531 0 88.2889 13.0368 1151 127.579 1251.07 472.964
1532 0 91.4896 13.5972 1244 126.746 1250.6 471.191
1533 0 92.279 13.4267 1239 127.969 1250.69 468.67
1534 1 49.1723 11.1445 548 121.181 1251.5 490.805
1535 0 48.1626 11.9803 577 121.938 1252.22 486.562
1536 0 50.1231 12.3296 618 108.141 1251.16 486.595
1537 0 52.1201 12.7014 662 106.719 1251.36 486.563
1538 0 53.1132 12.2568 651 107.966 1251.39 485.966
1539 0 52.1516 11.1981 584 111.664 1251.19 485.562
1540 0 55.1689 11.2201 619 111.51 1250.81 485.153
1541 0 58.1968 13.0763 761 107.742 1250.71 484.883
1542 0 60.313 11.3243 683 112.042 1251.64 483.054
1543 0 60.0783 13.3992 805 108.414 1251.29 483.226
1544 0 64.2732 13.3181 856 107.873 1250.72 481.534
1545 0 64.0578 12.5043 801 110.409 1250.5 481.343
1546 0 70.1182 13.6341 956 107.798 1251.35 479.722
1547 0 69.0732 12.7401 880 111.939 1250.77 478.26
1548 0 72.094 13.2466 955 110.069 1250.62 477.695
1549 0 74.1619 12.4997 927 112.152 1250.38 477.072
1550 0 77.2686 13.5372 1046 109.443 1250.79 475.285
1551 0 81.1638 13.6145 1105 124.225 1250.62 480.043
1552 0 86.2276 14.2182 1226 121.062 1250.61 478.9
1553 0 88.2502 15.7053 1386 117.978 1249.68 475.953
1554 0 91.3106 15.4637 1412 118.461 1249.26 470.846
1555 1 44.0403 11.7165 516 124.913 1250.29 494.085
1556 0 44.0496 12.1 533 113.827 1250.75 487.386
1557 0 47.0277 10.8234 509 105.246 1249.62 495.143
1558 0 50.0113 12.1972 610 101.826 1249.27 492.861
1559 0 51.1101 12.3263 630 101.938 1249.13 490.74
1560 0 53.0723 11.9836 636 102.182 1249.49 491.225
1561 0 54.1069 13.3624 723 100.026 1249.53 489.505
1562 0 55.0606 11.6236 640 103.625 1249.43 488.381
1563 0 57.1105 11.2764 644 103.682 1249.58 488.098
1564 0 61.1041 12.6014 770 100.74 1249.8 486.205
1565 0 63.1291 14.0981 890 96.3022 1249.97 487.169
1566 0 64.036 11.6341 745 101.664 1249.82 484.369
1567 0 68.0877 12.6895 864 98.6424 1249.6 482.514
1568 0 70.048 12.6199 884 97.4627 1249.64 482.526
1569 0 72.0609 12.2674 884 97.2014 1249.99 482.933
1570 0 74.1796 12.6585 939 96.6869 1249.85 479.784
1571 0 78.1216 13.9014 1086 94.0939 1249.71 478.81
1572 0 80.0884 14.1219 1131 93.5818 1248.85 479.027
1573 0 83.0449 13.1856 1095 94.0457 1248.23 479.542
1574 0 87.1159 13.2238 1152 94.349 1248.65 475.058
1575 0 89.1133 12.4336 1108 95.4152 1250 472.417
1576 1 47.0266 13.4817 634 88.1136 1250.23 495.932
1577 0 48.0901 11.6864 562 90.8843 1249.17 494.512
1578 0 49.1644 11.6141 571 91.3783 1249.46 495.545
1579 0 50.1214 12.8688 645 90.4946 1249.39 492.55
1580 0 53.1155 12.8211 681 90.2643 1249.18 493.604
1581 0 55.0831 12.5084 689 91.2975 1248.9 490.07
1582 0 57.1045 11.4001 651 92.5945 1249.61 491.032
1583 0 58.1081 12.6144 733 89.9945 1249.42 490.255
1584 0 60.0476 11.0412 663 92.6003 1249.71 490.302
1585 0 61.0758 12.4272 759 94.5257 1249.96 486.495
1586 0 66.1231 13.7017 906 90.8433 1249.67 486.236
1587 0 68.1231 12.4627 849 95.318 1249.71 485.804
1588 0 68.1672 12.5427 855 96.6304 1250.15 484.498
1589 0 71.0362 12.6133 896 95.9085 1249.9 483.544
1590 0 73.0606 13.0713 955 96.1026 1250.68 482.884
1591 0 74.1719 12.5654 932 99.4882 1250.67 481.39
1592 0 77.1558 12.1961 941 99.2168 1249.89 479.565
1593 0 82.1813 12.6063 1036 99.9971 1249.76 480.125
1594 0 82.1198 12.8593 1056 101.675 1249.73 476.882
1595 0 84.2874 13.4302 1132 101.052 1249.84 477.504
1596 0 89.0996 13.917 1240 98.7427 1249.46 473.174
1597 0 92.1688 13.3451 1230 104.141 1249.89 476.218
1598 1 45.2668 10.8026 489 100.765 1250.34 492.875
1599 0 48.1213 10.7645 518 102.693 1249.46 489.386
1600 0 49.0746 11.2074 550 103.716 1250.53 488.225
1601 0 51.1428 11.5754 592 104.497 1250.06 490.978
1602 0 53.106 12.5033 664 101.896 1250.06 489.566
1603 0 54.0785 11.7422 635 103.647 1249.78 488.874
1604 0 54.1062 11.0523 598 103.848 1250.39 489.533
1605 0 58.0865 11.7583 683 98.9444 1250.14 489.672
1606 0 61.1087 13.5496 828 94.0882 1250.2 489.547
1607 0 63.1135 13.0242 822 95.472 1250.03 486.855
1608 0 63.087 13.2674 837 95.552 1249.77 486.097
1609 0 66.0677 13.0926 865 95.4173 1249.86 485.773
1610 0 68.0893 12.1899 830 98.0904 1250.08 484.551
1611 0 72.2131 12.7678 922 97.333 1249.6 486.039
1612 0 73.0896 13.545 990 105.803 1249.6 484.581
1613 0 76.2459 12.5515 957 98.4587 1249.74 482.79
1614 0 80.2156 13.8626 1112 95.2491 1250.03 481.123
1615 0 82.2422 13.29 1093 96.8161 1249.83 477.069
1616 0 87.2352 13.2286 1154 95.6083 1250.2 478.248
1617 0 90.2933 13.0685 1180 96.1695 1250.09 475.322
1618 0 90.2071 13.3138 1201 94.4646 1249.72 476.849
1619 1 47.1745 12.9731 612 93.2484 1250.74 495.448
1620 0 50.215 13.9201 699 91.4993 1250.84 494.428
1621 0 53.0546 13.5709 720 90.1583 1250.03 494.057
1622 0 54.192 12.4188 673 91.7979 1250.19 492.048
1623 0 56.2183 14.5148 816 88.5552 1250.78 489.708
1624 0 59.2216 13.1033 776 89.683 1250.66 489.567
1625 0 59.2105 13.072 774 90.3773 1250.45 489.5
1626 0 62.074 13.2422 822 88.7032 1249.96 489.686
1627 0 64.2002 12.5856 808 89.0458 1250.79 487.843
1628 0 66.1563 12.1077 801 89.8489 1250.64 487.504
1629 0 70.0904 12.7121 891 88.5354 1250.44 485.025
1630 0 72.0802 14.8446 1070 85.6159 1250.21 481.941
1631 0 77.2211 16.7959 1297 81.1858 1249.77 481.281
1632 0 77.2351 11.8081 912 89.8925 1249.88 479.562
1633 0 81.1456 12.9644 1052 86.9867 1249.39 479.568
1634 0 83.0768 12.7111 1056 88.2756 1248.99 477.237
1635 0 87.2198 15.0425 1312 84.9756 1249.3 475.477
1636 0 90.3065 14.3179 1293 84.0309 1248.92 472.48
1637 1 47.2594 13.0979 619 84.3312 1248.86 492.485
1638 0 48.18 11.7891 568 87.0898 1248.38 491.6
1639 0 50.0951 13.654 684 83.8699 1248.45 493.933
1640 0 53.1181 11.9733 636 86.0755 1248.57 494.404
1641 0 54.1341 12.8939 698 85.3739 1248.55 492.779
1642 0 54.1222 11.2338 608 88.0609 1248.49 493.316
1643 0 57.0234 15.2394 869 82.9114 1248.29 489.776
1644 0 59.224 14.403 853 83.5909 1248.77 490.127
1645 0 61.0604 14.5102 886 83.9582 1248.83 487.974
1646 0 63.0788 14.0618 887 83.6888 1249.07 488.31
1647 0 63.2221 12.1318 767 87.2282 1248.75 489.507
1648 0 67.0923 13.4591 903 84.2835 1248.7 485.997
1649 0 71.1155 14.9756 1065 82.1427 1248.63 484.449
1650 0 72.1296 14.1412 1020 82.8873 1248.59 484.308
1651 0 75.1161 11.8084 887 85.5299 1248.85 485.887
1652 0 78.1002 14.0205 1095 83.2685 1248.99 480.402
1653 0 81.1096 12.7605 1035 85.9275 1248.46 478.449
1654 0 83.1342 13.4361 1117 86.4038 1248.64 475.591
1655 0 85.2311 12.8005 1091 89.4097 1248.42 474.051
1656 0 87.183 12.3533 1077 89.4652 1248.72 472.681
1657 0 91.1913 14.1022 1286 86.6454 1248.21 470.52
1658 0 93.114 12.1894 1135 88.1207 1247.48 470.825
1659 0 94.364 9.262 874 92.1499 1249.35 469.986
1660 1 52.0735 11.8486 617 90.4506 1250.31 495.321
1661 0 54.1102 12.7333 689 88.4949 1250.03 494.797
1662 0 56.2141 13.2351 744 82.1398 1249.08 488.194
1663 0 58.0584 13.4003 778 81.6221 1249.56 489.383
1664 0 58.1794 13.2177 769 79.8947 1250.24 489.23
1665 0 61.2184 14.2768 874 84.8833 1250.17 488.159
1666 0 63.16 12.9671 819 87.0037 1250.32 489.786
1667 0 63.2546 11.3351 717 85.9135 1249.8 483.746
1668 0 66.0912 11.9078 787 84.8158 1249.98 486.738
1669 0 70.1693 12.9686 910 84.8319 1250.34 482.662
1670 0 72.1623 12.4442 898 88.1013 1249.43 481.38
1671 0 72.153 11.9607 863 89.4438 1249.54 481.528
1672 0 76.1378 13.5018 1028 87.8006 1249.22 478.261
1673 0 78.0937 13.6119 1063 88.5315 1249.52 479.516
1674 0 82.2192 13.6343 1121 88.7797 1249.75 477.361
1675 0 81.2882 13.0646 1062 86.5339 1248.81 469.755
1676 0 86.3238 12.65 1092 88.1273 1249.2 466.923
1677 0 87.1462 12.4044 1081 90.6642 1249.17 464.531
1678 0 90.2961 13.7104 1238 88.0848 1249.5 466.784
1679 0 91.5419 12.497 1144 91.5708 1248.93 461.464
1680 0 93.3498 12.6728 1183 93.3254 1248.97 460.506
1681 0 98.5224 13.8953 1369 94.8057 1248.95 460.459
1682 0 100.292 15.1558 1520 97.2671 1249.39 459.127
1683 0 102.479 14.198 1455 93.8055 1249.37 458.909
1684 0 106.438 13.98 1488 94.3011 1249.11 458.226
1685 0 109.244 12.3485 1349 93.8028 1249.17 458.943
1686 1 56.2903 10.4459 588 89.3912 1249.05 487.325
1687 0 57.2117 10.8195 619 88.7625 1248.81 487.128
1688 0 60.1029 11.497 691 88.8987 1249.38 483.891
1689 0 62.2242 10.189 634 90.735 1248.61 483.339
1690 0 64.0959 12.1225 777 88.0901 1249.09 482.798
1691 0 66.2108 12.1128 802 89.3055 1249.58 481.732
1692 0 68.1537 10.8138 737 90.1316 1249.56 481.153
1693 0 71.198 11.6155 827 89.8283 1249.51 479.859
1694 0 74.1395 12.2876 911 90.1361 1249.09 477.979
1695 0 76.2104 13.5677 1034 87.2747 1248.25 474.609
1696 0 79.3325 11.1934 888 93.5709 1248.47 472.008
1697 0 82.2049 11.8971 978 90.0419 1248.18 472.137
1698 0 85.3619 12.6754 1082 90.3022 1248.88 470.108