time division length width area intensity CMx CMy
0 0 47.1591 13.6347 643 118.523 1336.44 485.928
1 0 44.2607 13.5109 598 123.916 1337.03 483.93
2 0 46.1047 12.9488 597 125.129 1336.3 484.116
3 0 47.1236 14.4726 682 120.774 1336.52 482.76
4 0 48.1622 13.413 646 123.52 1337.21 482.974
5 0 49.0892 13.0986 643 124.616 1337.33 482.762
6 0 50.1618 13.0976 657 125.696 1336.34 482.119
7 0 54.1237 13.4507 728 121.672 1336.34 483.478
8 0 53.1156 13.913 739 122.838 1336.36 480.842
9 0 53.2037 13.2134 703 124.994 1336.61 480.866
10 0 57.124 13.602 777 121.122 1336.8 480.414
11 0 60.1183 14.9538 899 115.683 1337.03 479.849
12 0 60.0925 14.511 872 117.466 1336.62 478.789
13 0 61.1141 13.2866 812 119.674 1336.4 478.911
14 0 64.1033 14.1958 910 121.08 1336.05 478.78
15 0 66.1813 13.2817 879 123.423 1336.7 477.429
16 1 34.0106 12.0257 409 118.249 1336.61 492.954
17 0 34.0166 10.2597 349 122.513 1336.42 494.679
18 0 36.0262 11.2973 407 119.047 1335.98 493.585
19 0 37.0637 12.1143 449 117.281 1336.19 493.292
20 0 38.0739 12.9485 493 113.959 1335.72 492.72
21 0 41.098 12.896 530 113.489 1335.88 491.487
22 0 41.0329 13.1358 539 113.913 1335.23 492.501
23 0 41.0134 12.947 531 116.296 1335.15 491.119
24 0 45.037 13.5888 612 114.94 1335.25 489.493
25 0 46.0721 14.282 658 117.451 1335.05 489.131
26 0 48.0866 12.9142 621 125.076 1334.6 490.478
27 0 49.1017 14.1339 694 122.657 1334.34 489.016
28 0 50.0645 14.741 738 122.249 1335.11 487.711
29 0 53.0641 16.3011 865 115.067 1335.03 488.143
30 0 53.0548 13.9855 742 121.439 1334.63 488.323
31 0 53.1525 14.656 779 122.239 1334.42 485.891
32 0 55.1894 14.5861 805 121.304 1334.4 485.855
33 0 58.1259 14.9331 868 117.247 1334.28 485.85
34 0 58.037 14.3012 830 119.993 1334.18 485.334
35 0 61.0308 16.1394 985 114.182 1333.82 483.344
36 0 63.0841 15.0434 949 116.845 1334.15 482.351
37 0 65.0891 15.4557 1006 115.528 1334.03 482.612
38 0 67.1283 15.0011 1007 117.222 1333.95 481.243
39 0 68.0695 15.1463 1031 116.86 1333.52 479.742
40 0 69.1162 15.0616 1041 117.705 1333.38 479.395
41 0 73.1546 14.1481 1035 119.079 1333.68 478.151
42 0 75.0829 15.4096 1157 115.573 1333.85 477.89
43 0 76.2217 15.4024 1174 116.509 1333.63 477.033
44 0 78.1413 15.4336 1206 117.043 1333.43 475.629
45 0 81.1842 15.3601 1247 116.595 1333.29 474.791
46 0 84.1132 15.5861 1311 114.702 1332.56 475.379
47 0 87.2304 14.9718 1306 116.773 1332.33 471.664
48 0 91.2917 15.916 1453 114.519 1332.91 469.489
49 0 93.1331 15.2255 1418 116.013 1332.63 468.915
50 0 95.1625 15.3737 1463 116.536 1332.67 466.761
51 0 100.123 16.4498 1647 112.339 1332.56 466.849
52 0 105.125 15.9143 1673 112.906 1332.23 465.049
53 1 53.0539 12.5721 667 114.427 1332.75 488.21
54 0 54.0422 12.7308 688 115.962 1332.2 488.041
55 0 57.0543 14.0042 799 114.26 1331.27 486.115
56 0 59.0965 13.2833 785 115.329 1331.8 486.973
57 0 63.0674 14.0326 885 112.2 1332.06 485.52
58 0 65.0918 13.4426 875 114.445 1332.32 483.953
59 0 66.062 13.563 896 115.146 1331.8 482.658
60 0 69.0617 13.8137 954 114.734 1332.06 481.067
61 0 72.0769 14.5261 1047 113.372 1332.03 477.473
62 0 77.1361 15.4921 1195 109.661 1332.82 477.174
63 0 76.1974 13.2813 1012 118.115 1332.47 476.961
64 0 80.23 13.9474 1119 114.804 1332.24 476.55
65 0 84.1494 15.2824 1286 112.868 1331.71 472.799
66 0 85.1737 15.2629 1300 114.07 1332.46 470.958
67 0 88.132 14.9775 1320 114.726 1332.71 469.878
68 0 92.1178 13.9929 1289 116.728 1331.99 469.49
69 0 97.1078 15.1996 1476 114.929 1331.41 469.354
70 0 98.1138 14.3609 1409 117.691 1331.32 468.017
71 0 103.115 13.3347 1375 119.812 1330.82 464.546
72 1 54.115 13.9148 753 111.784 1330.75 488.544
73 0 57.0506 13.8298 789 112.364 1330.2 488.502
74 0 59.0264 13.2483 782 108.052 1330.55 487.714
75 0 61.144 13.8689 848 107.482 1331.46 485.843
76 0 63.1103 14.435 911 107.143 1330.59 485.536
77 0 65.0676 13.5859 884 109.277 1330.97 485.564
78 0 65.0777 13.092 852 112.026 1330.78 484.124
79 0 70.1053 13.979 980 107.44 1331.27 482.941
80 0 72.113 13.9642 1007 107.965 1331.32 481.701
81 0 76.0781 14.7874 1125 106.701 1330.92 477.782
82 0 76.073 13.75 1046 108.638 1330.55 477.399
83 0 81.1522 14.9472 1213 106.378 1330.95 477.511
84 0 84.0501 14.2058 1194 108.061 1331.41 475.352
85 0 87.1196 14.4744 1261 104.144 1331.56 473.296
86 0 88.0891 14.088 1241 105.389 1331.56 472.517
87 0 91.1022 13.7538 1253 106.767 1331.55 472.014
88 0 96.1728 14.0788 1354 104.463 1331.44 470.004
89 0 99.0964 13.2901 1317 103.495 1330.82 469.91
90 1 48.1934 11.9726 577 99.6308 1331.82 488.066
91 0 53.2068 13.908 740 94.6932 1331.75 489.128
92 0 54.1224 11.4001 617 97.0502 1331.23 492.71
93 0 55.1823 12.8121 707 95.3706 1330.83 489.706
94 0 56.1221 12.8113 719 98.4659 1330.41 489.7
95 0 59.1438 13.6447 807 96.052 1330.92 487.486
96 0 62.1652 13.3676 831 96.4597 1331.03 486.215
97 0 62.0931 12.4813 775 99.1084 1331.07 486.911
98 0 64.0839 11.9687 767 101.721 1330.7 482.179
99 0 68.1303 12.8577 876 99.218 1331 484.36
100 0 69.1313 13.12 907 101.12 1331.05 484.16
101 0 71.0981 12.968 922 101.027 1331.28 482.267
102 0 73.1526 13.588 994 100.599 1331.34 481.335
103 0 75.0526 13.8969 1043 101.438 1331.1 479.732
104 0 77.0886 12.9072 995 105.844 1331.11 479.746
105 0 79.1584 12.835 1016 107.483 1331.23 477.911
106 0 82.1062 14.4082 1183 103.886 1331.52 476.967
107 0 82.1047 14.3719 1180 138.715 1331.52 476.914
108 0 88.1182 14.1515 1247 105.036 1331.59 472.616
109 0 91.1202 14.212 1295 104.503 1330.56 471.756
110 0 94.2338 12.8722 1213 108.554 1330.42 468.92
111 0 97.1626 12.8959 1253 107.701 1330.14 467.176
112 0 101.202 12.9247 1308 107.555 1329.8 464.873
113 1 54.041 10.9176 590 101.766 1330.45 489.756
114 0 56.1356 11.0447 620 100.29 1331.34 489.442
115 0 58.1657 12.4816 726 96.5138 1331.03 489.028
116 0 60.168 12.8806 775 97.4323 1329.59 486.364
117 0 62.1186 12.9108 802 96.8267 1329.37 485.209
118 0 66.0756 12.6824 838 95.8413 1330.42 485.291
119 0 67.0606 14.2558 956 91.8651 1330.04 483.513
120 0 70.1164 14.4759 1015 90.0473 1329.79 481.801
121 0 72.232 13.1659 951 93.2734 1329.46 482.14
122 0 76.1276 12.2032 929 94.5544 1329.65 480.288
123 0 77.1679 12.1683 939 95.0383 1329.78 480.658
124 0 79.0859 11.7341 928 97.2446 1330.91 477.081
125 0 84.0648 13.5848 1142 93.3319 1330.7 476.906
126 1 40.0566 10.8097 433 94.649 1330.59 496.035
127 0 46.0488 10.6843 492 91.7622 1330.92 497
128 0 47.0723 12.5976 593 91.5025 1330.04 494.556
129 0 48.0807 12.3958 596 95.0956 1329.37 492.359
130 0 49.0474 12.2127 599 93.5075 1330.17 493.155
131 0 50.1028 12.3346 618 93.5938 1330.77 491.61
132 0 51.0365 11.6387 594 94.6987 1330.59 492.429
133 0 53.0258 13.0502 692 91.8569 1330.74 490.743
134 0 55.0514 12.3703 681 93.4009 1330.95 489.344
135 0 57.0723 13.2288 755 92.204 1331.04 488.277
136 0 57.1639 11.6507 666 95.3739 1330.88 489.581
137 0 61.1102 13.4347 821 94.922 1328.82 475.21
138 0 64.1143 13.9126 892 93.6715 1329.72 477.355
139 0 66.1227 14.1555 936 93.7297 1330.48 477.458
140 0 65.1232 12.8065 834 98.9221 1330.42 478.504
141 0 65.1232 12.7451 830 151.799 1330.41 478.451
142 0 71.1791 13.0797 931 94.6756 1331.17 482.669
143 0 73.0348 13.7743 1006 94.337 1331.08 480.087
144 0 75.1066 13.594 1021 95.2605 1331.31 479.987
145 0 76.16 12.6182 961 97.8543 1331.67 476.026
146 0 80.2618 12.4219 997 95.983 1332.11 468.48
147 0 83.1246 13.4737 1120 99.0955 1330.37 476.893
148 0 86.1075 14.6677 1263 96.6896 1330.44 474.801
149 0 88.1467 13.7044 1208 100.359 1330.15 471.233
150 0 90.0727 13.0672 1177 104.916 1329.44 471.445
151 0 95.1488 13.6838 1302 105.235 1330.77 469.066
152 1 46.0145 11.1704 514 100.245 1329.28 495.879
153 0 48.1459 11.7352 565 98.3912 1331.44 494.214
154 0 48.0649 12.0462 579 94.3161 1331.18 492.539
155 0 49.0204 12.811 628 95.949 1330.1 491.533
156 0 51.0092 12.6252 644 96.2795 1329.47 490.174
157 0 52.0783 12.8076 667 95.7271 1329.72 490.727
158 0 54.0368 13.6759 739 94.272 1330.09 489.394
159 0 53.0678 12.55 666 97.6126 1330.17 489.907
160 0 56.0252 12.1374 680 98.0809 1329.46 489.234
161 0 56.1607 12.2506 688 98.7456 1328.68 488.83
162 0 60.0708 13.817 830 95.0542 1329.49 488.519
163 0 61.0386 13.7618 840 96.0226 1329.69 485.014
164 0 63.0319 13.2155 833 96.9148 1329.81 485.857
165 0 64.0727 13.9685 895 95.9989 1329.99 484.948
166 0 66.0674 12.9565 856 97.8154 1329.54 482.412
167 0 71.1624 14.4599 1029 93.7979 1330.51 481.985
168 0 72.1813 14.8931 1075 94.7433 1330.88 479.34
169 0 73.0816 12.876 941 97.7843 1330.39 480.537
170 0 77.0718 12.8062 987 97.619 1330.17 479.917
171 0 79.1063 13.741 1087 97.0626 1330.59 478.546
172 0 82.1775 14.3227 1177 95.2192 1330.18 474.919
173 0 85.1453 13.753 1171 96.1708 1330.05 473.594
174 0 87.2131 13.4727 1175 96.5549 1330.53 471.917
175 0 90.1648 12.9208 1165 97.0858 1330.18 472.058
176 0 93.0852 14.3847 1339 96.2509 1329.27 468.829
177 1 48.0475 11.4054 548 98.3175 1329.5 493.515
178 0 49.0346 12.4402 610 94.723 1329.26 493.356
179 0 51.0907 12.2723 627 95.3062 1329.4 490.469
180 0 53.1303 13.4951 717 90.7169 1330.36 491.139
181 0 55.0593 12.1687 670 93.0672 1331.24 489.163
182 0 57.0708 13.5796 775 90.6297 1330.76 489.254
183 0 55.0695 12.4751 687 139.291 1330.63 487.967
184 0 59.1435 13.2728 785 92.5503 1330.12 486.89
185 0 62.0434 13.3294 827 91.5236 1330.2 485.739
186 0 64.0381 14.1634 907 90.3991 1330.38 484.125
187 0 65.1117 13.2695 864 94.081 1330.22 483.204
188 0 70.154 14.0833 988 90.5769 1329.81 483.468
189 0 71.1578 12.8868 917 94.0371 1330.22 481.915
190 0 71.1027 13.4453 956 94.7856 1329.92 482.28
191 0 72.0604 12.1148 873 101.088 1328.76 481.407
192 0 77.1107 13.6168 1050 97.4381 1329.13 479.323
193 0 80.0936 13.2095 1058 97.0605 1328.88 477.864
194 0 83.1929 13.655 1136 96.3055 1328.71 478.063
195 0 86.0894 13.9971 1205 95.8473 1328.66 475.075
196 1 44.0739 11.1177 490 98.3408 1328.98 495.457
197 0 45.0881 11.7991 532 100.942 1330.16 492.97
198 0 46.0193 11.8429 545 98.3413 1331.63 485.703
199 0 47.02 11.4207 537 87.7933 1330.26 492.335
200 0 46.1039 11.1921 516 91.9205 1329.84 491.318
201 0 48.1236 12.1354 584 96.4127 1330.29 493.705
202 0 54.0662 12.2812 664 95.3298 1329.42 492.387
203 0 52.0301 12.512 651 96.1382 1329.29 491.978
204 0 52.0438 12.7777 665 98.1504 1329.03 490.229
205 0 57.0843 12.2626 700 97.5329 1328.77 483.67
206 0 58.1332 12.4886 726 96.5771 1329.39 490.554
207 0 60.0512 12.9889 780 96.5115 1329.23 488.938
208 0 61.0206 13.225 807 95.7633 1329.15 486.626
209 0 64.0719 11.768 754 97.4443 1328.52 486.654
210 0 66.1168 12.614 834 95.3693 1329.59 485.858
211 0 68.1049 11.5263 785 97.679 1329.76 484.842
212 0 71.0646 13.0726 929 96.1593 1329.31 482.633
213 0 72.0802 12.3474 890 96.8629 1328.86 481.217
214 0 74.0509 11.6541 863 95.9606 1329.03 482.294
215 0 79.0927 12.7572 1009 94.0733 1330.07 479.94
216 0 81.1317 12.6584 1027 95.0769 1329.56 477.143
217 0 82.1678 13.7402 1129 92.0797 1329.1 477.391
218 1 42.1246 12.3443 520 93.5846 1328.97 495.717
219 0 42.1478 11.1038 468 95.485 1331.34 495.35
220 0 44.0381 13.1477 579 90.1589 1331.75 495.938
221 0 44.0404 13.2151 582 92.0498 1329.18 494.182
222 0 46.025 12.2107 562 95.4591 1331.29 493.536
223 0 49.1606 14.0153 689 90.2453 1331.33 492.472
224 0 50.0909 14.9129 747 88.8862 1331.06 492.154
225 0 51.0372 12.9905 663 92.5324 1331.37 492.116
226 0 52.0466 13.2573 690 92.7522 1330.8 490.468
227 0 53.0719 13.3781 710 92.9521 1330.49 489.81
228 0 56.0643 13.4488 754 92.2639 1330.65 488.698
229 0 57.0818 13.5595 774 92.646 1330.49 488.888
230 0 59.1263 12.0082 710 96.8408 1330.75 487.746
231 0 60.0878 12.6315 759 96.5573 1330.8 486.411
232 0 62.081 12.983 806 96.969 1330.97 485.959
233 0 67.0815 15.3694 1031 90.8099 1330.4 483.988
234 0 68.1118 14.2853 973 94.2199 1330.3 483.452
235 0 69.139 14.7095 1017 93.8279 1331.24 482.521
236 0 73.1298 15.0964 1104 91.5272 1331.36 484.017
237 0 77.0424 15.7576 1214 90.1516 1330.49 481.066
238 0 77.103 13.7738 1062 95.9501 1330.71 478.019
239 0 80.1283 13.9277 1116 91.6792 1330.91 477.951
240 0 82.1764 13.8604 1139 91.4197 1329.95 474.095
241 0 85.1859 14.5564 1240 92.6589 1329.53 472.963
242 1 43.106 11.7849 508 92.5413 1329.13 497.085
243 0 44.0789 11.7743 519 94.6224 1329.11 494.222
244 0 47.0685 13.0873 616 91.448 1329.11 495.135
245 0 48.1899 13.2393 638 92.0219 1329.53 493.386
246 0 49.1076 13.1344 645 90.8698 1329.19 495.167
247 0 52.0762 13.4034 698 91.0215 1329.06 493.587
248 0 51.0723 13.2949 679 93.2268 1330.03 491.971
249 0 53.1598 13.2431 704 93.8196 1329.76 490.553
250 0 55.0865 12.9977 716 94.1061 1329.78 490.742
251 0 59.1207 14.5296 859 91.1967 1329.2 488.871
252 0 59.1284 13.6314 806 94.6886 1329.64 487.292
253 0 62.0784 13.048 810 95.7667 1329.94 487.522
254 0 63.0328 13.1995 832 97.131 1329.66 487.63
255 0 65.1341 13.3724 871 98.6142 1329.93 486.022
256 0 67.0656 13.8074 926 98.4579 1330.48 485.268
257 0 67.0982 13.5026 906 101.103 1329.89 483.892
258 0 71.1393 14.6614 1043 98.8763 1329.85 482.597
259 0 74.117 13.8295 1025 100.676 1329.98 482.763
260 0 76.0567 14.6075 1111 100.292 1330.48 480.089
261 0 78.0659 14.5902 1139 101.383 1330.79 479.06
262 0 80.2322 13.8473 1111 103.541 1330.04 477.143
263 0 82.2696 14.6713 1207 102.871 1329.94 472.639
264 0 86.3919 14.9783 1294 102.278 1329.67 470.879
265 0 87.22 14.1252 1232 104.864 1329.92 470.965
266 0 93.1575 13.8797 1293 103.674 1330.24 469.053
267 1 49.2165 11.9675 589 100.842 1330.43 490.847
268 0 51.2717 13.4187 688 96.0988 1330.95 490.141
269 0 52.1032 13.646 711 95.533 1331.02 490.719
270 0 55.0662 12.9662 714 94.1835 1330.48 491.51
271 0 55.1272 12.063 665 97.4075 1329.96 490.359
272 0 57.0734 13.2636 757 95.0753 1329.86 489.107
273 0 56.0491 13.0421 731 96.5103 1330.35 487.414
274 0 62.1772 13.6706 850 93.4035 1329.83 486.498
275 0 65.219 14.4436 942 94.1964 1329.18 478.827
276 0 65.0677 12.6023 820 97.428 1329.46 484.641
277 0 69.0488 13.5846 938 94.5469 1330.19 483.749
278 0 69.0443 12.9917 897 97.0435 1329.82 481.427
279 0 74.1096 13.8309 1025 95.9132 1330.11 480.862
280 0 73.1417 12.2912 899 99.8476 1329.73 478.531
281 0 79.136 12.5733 995 98.9025 1330.23 479.889
282 0 80.2389 12.2135 980 101.872 1329.73 476.448
283 1 40.0172 11.1702 447 98.0291 1329 496.069
284 0 42.0647 11.4348 481 96.948 1329.26 496.164
285 0 43.0388 12.5004 538 92.3755 1330.14 495.45
286 0 44.0887 12.1573 536 94.5205 1330.27 495.065
287 0 46.1494 11.7661 543 94.6482 1330.51 493.048
288 0 46.0453 12.3791 570 95.1649 1330.07 492.5
289 0 49.0627 12.9426 635 92.8677 1329.85 493.613
290 0 50.0757 12.9604 649 93.5208 1329.74 491.723
291 0 51.0516 11.8899 607 96.0824 1330.57 491.423
292 0 52.062 12.1586 633 93.7946 1330.15 491.553
293 0 54.114 12.3443 668 93.518 1330.38 490.141
294 0 56.1723 12.3727 695 95.7525 1330.67 488.544
295 0 57.0412 12.9029 736 93.0516 1330.86 488.688
296 0 60.1237 12.7404 766 93.8773 1330.2 485.718
297 0 62.1054 12.6881 788 94.3566 1330.47 485.147
298 0 64.1605 11.7518 754 96.1525 1330.61 484.63
299 0 64.1235 11.6338 746 98.7265 1329.98 482.521
300 0 67.1096 11.6973 785 98.5312 1329.28 482.595
301 0 69.1219 12.6443 874 98.0034 1329.54 479.26
302 0 73.1162 11.4202 835 99.2994 1328.93 477.366
303 0 76.1026 11.1823 851 99.1657 1329.2 478.173
304 0 80.2958 12.4415 999 98.8218 1328.5 471.463
305 0 81.2212 12.7553 1036 98.5618 1328.84 473.769
306 0 85.1844 14.0401 1196 95.546 1329.45 472.487
307 1 44.3125 10.1326 449 98.1871 1328.67 491.307
308 0 42.2749 10.3608 438 99.6621 1328.64 490.388
309 0 45.1655 10.8269 489 97.6789 1328.9 490.877
310 0 46.0576 10.856 500 96.338 1330.37 491.91
311 0 48.0267 12.6388 607 93.2175 1329.76 491.359
312 0 49.0718 11.2488 552 95.0435 1330.29 490.545
313 0 50.1027 11.9554 599 93.3406 1330.19 489.881
314 0 53.0957 12.6376 671 92.2027 1330.25 488.659
315 0 52.1238 10.9163 569 96.8822 1330.15 488.888
316 0 56.0493 13.3454 748 92.5214 1329.83 487.269
317 0 59.1402 12.7325 753 92.9137 1329.99 486.543
318 0 60.0451 11.991 720 93.5764 1329.85 486.186
319 0 61.1687 12.1631 744 93.5659 1330.16 486.477
320 0 64.1873 12.557 806 92.8263 1329.88 484.636
321 0 66.1461 12.3363 816 94.3468 1330.43 483.347
322 0 68.1825 12.3492 842 94.3147 1330.2 481.918
323 0 72.1708 13.8006 996 91.6938 1330.38 482.107
324 0 73.1718 12.0675 883 94.8766 1329.73 480.075
325 0 76.1507 12.3833 943 94.3574 1330.18 479.74
326 0 78.32 13.9939 1096 94.0411 1330.12 472.998
327 0 82.2405 12.7066 1045 95.1053 1330.55 476.808
328 0 83.2353 12.2184 1017 95.9154 1330.65 478.666
329 1 48.0991 10.8526 522 97.1935 1331.38 495.68
330 0 48.0976 11.8925 572 99.5559 1330.73 493.15
331 0 51.0223 12.1712 621 102.567 1330.53 492.399
332 0 53.0451 12.1972 647 99.0046 1332.26 491.422
333 0 52.0313 13.1075 682 94.4164 1331.25 491.834
334 0 56.1015 12.3348 692 93.9827 1331.41 490.288
335 0 56.1658 12.4097 697 94.7977 1331.4 488.271
336 0 59.0772 13.44 794 92.7897 1330.77 489.635
337 0 61.039 13.4668 822 91.7591 1331.34 487.264
338 0 64.0785 14.5135 930 89.2516 1331.03 485.482
339 0 64.0806 13.1553 843 92.7936 1330.68 485.472
340 0 67.0787 12.7462 855 93.517 1330.65 485.18
341 0 68.1973 13.3436 910 91.4198 1331.23 485.986
342 0 69.1899 11.9093 824 96.7087 1330.7 482.745
343 0 72.1458 12.5856 908 94.6101 1331.44 482.214
344 0 75.0822 13.6118 1022 92.1155 1331.53 481.16
345 0 76.0748 14.4857 1102 91.1751 1331.37 479.214
346 0 79.1343 12.2071 966 95.4793 1331.58 478.787
347 0 81.0481 13.2761 1076 94.8773 1331.38 477.023
348 0 87.1847 12.8348 1119 94.496 1330.77 476.527
349 0 87.1476 12.978 1131 95.1945 1331.54 474.861
350 0 92.1311 12.4279 1145 94.759 1331.3 472.479
351 1 49.1009 10.4275 512 97.666 1332.46 492.09
352 0 53.164 11.1354 592 94.4071 1333.03 491.938
353 0 54.1506 12.022 651 102.194 1331.81 490.172
354 0 54.0791 11.4832 621 103.902 1331.52 490.064
355 0 57.0688 11.4599 654 102.416 1331.83 490.864
356 0 57.0718 12.9311 738 101.389 1330.97 489.794
357 0 60.1305 14.1027 848 97.6828 1330.91 488.723
358 0 63.0537 13.2903 838 98.7184 1331.13 487.653
359 0 63.0739 13.7141 865 98.0509 1331.47 486.705
360 0 64.094 12.7469 817 100.356 1330.8 486.918
361 0 66.0653 13.2596 876 99.3904 1331.5 485.666
362 0 69.0654 13.5813 938 96.7207 1331.61 484.901
363 0 71.0858 13.6314 969 97.3694 1331.76 480.966
364 0 74.1713 12.9969 964 98.5353 1331.36 482.367
365 0 76.1605 12.3424 940 98.8617 1331.28 479.765
366 0 77.1469 11.4457 883 101.058 1331.16 478.941
367 0 80.253 11.8376 950 99.4063 1330.51 478.328
368 0 82.2234 12.1985 1003 99.3559 1330.42 474.704
369 0 84.2142 12.7769 1076 94.5139 1330.79 475.176
370 0 89.3425 12.2674 1096 95.2482 1330.56 474.125
371 1 42.102 9.52448 401 93.3716 1329 497.885
372 0 44.0469 12.237 539 87.4063 1329.36 497.315
373 0 44.1883 11.632 514 90.2918 1331.31 495.053
374 0 45.2644 11.7311 531 90.4765 1331.53 494.36
375 0 47.1761 11.4041 538 95.3922 1329.38 496.177
376 0 48.0611 12.172 585 94.4615 1329.05 495.323
377 0 48.0068 11.6858 561 97.6542 1328.39 494.75
378 0 51.0267 13.7575 702 92.4473 1328.82 492.303
379 0 53.0605 13.1171 696 92.1365 1329.06 492.599
380 0 53.1725 11.773 626 95.8403 1328.8 493.252
381 0 55.0407 11.5187 634 95.8265 1328.52 491.885
382 0 56.041 12.1518 681 94.8855 1328.62 489.996
383 0 58.0486 13.2131 767 90.6897 1328.85 490.698
384 0 58.0877 12.9804 754 93.0252 1329.6 488.411
385 0 62.2179 13.4849 839 90.4625 1329.6 486.994
386 0 65.0724 13.6924 891 88.9832 1329.7 487.928
387 0 65.1167 12.7156 828 91.0205 1329.83 486.377
388 0 67.1785 12.6529 850 91.3188 1330.04 484.208
389 0 69.1191 12.4278 859 90.908 1329.35 485.788
390 0 73.1497 13.9987 1024 88.2354 1329.58 482.871
391 0 75.3422 13.8568 1044 88.9732 1329.52 481.962
392 0 78.1702 14.2509 1114 88.9381 1329.65 480.163
393 0 79.1502 12.988 1028 93.4874 1329.33 480.396
394 0 82.09 13.2294 1086 93.0322 1329.23 479.874
395 0 84.1225 13.4685 1133 94.3107 1329.43 477.378
396 0 85.2796 13.6844 1167 94.5801 1329.47 475.374
397 0 90.329 14.0708 1271 95.6074 1329.65 472.452
398 0 92.4643 12.9888 1201 99.8535 1329.76 471.505
399 0 94.4985 12.942 1223 97.7457 1329.49 471.454
400 1 49.1639 13.0584 642 93.6963 1330.12 494.838
401 0 52.1681 14.0124 731 75.5294 1329.91 495.291
402 0 52.1189 14.3902 750 94.0947 1329.49 492.368
403 0 52.056 12.8131 667 97.991 1329.57 493.136
404 0 54.1156 12.0113 650 99.3708 1330.2 492.171
405 0 56.0899 13.2288 742 96.7965 1329.61 492.59
406 0 56.1763 13.0838 735 98.7619 1329.73 490.393
407 0 56.0954 13.2275 742 99.9623 1330.24 488.853
408 0 59.113 12.7383 753 98.9774 1330.38 489.296
409 0 61.1865 13.3526 817 98.4284 1330.05 487.231
410 0 62.0674 12.9214 802 98.6035 1329.81 488.865
411 0 64.0341 12.5558 804 100.708 1329.95 485.275
412 0 66.0288 12.6157 833 100.317 1329.99 486.262
413 0 68.0417 13.0214 886 100.489 1329.61 485.292
414 0 68.0744 13.2355 901 101.206 1329.26 483.485
415 0 72.1286 12.9075 931 100.388 1329.55 483.582
416 0 72.102 12.8013 923 102.992 1329.43 479.501
417 0 75.0685 13.1746 989 101.462 1329.86 480.272
418 0 79.0907 13.5414 1071 100.289 1330.77 479.39
419 0 82.0705 14.9628 1228 93.9186 1331.24 479.756
420 0 84.1018 13.5074 1136 94.1637 1329.96 475.787
421 0 86.0886 12.6033 1085 96.7714 1329.91 474.427
422 0 90.0754 13.5331 1219 94.0205 1331.29 473.418
423 0 92.263 12.9521 1195 95.877 1331.61 472.499
424 0 96.1628 14.2051 1366 94.6237 1331.33 469.989
425 0 98.1516 13.2754 1303 99.4482 1331.04 468.335
426 1 49.0393 10.8077 530 92.9698 1331.39 484.074
427 0 49.0621 10.823 531 91.9284 1330.41 487.006
428 0 53.0345 12.7464 676 95.8639 1329.12 491.111
429 0 54.0833 12.4438 673 96.2021 1330.29 491.143
430 0 56.0589 12.7723 716 95.0014 1330.02 489.514
431 0 58.1663 13.1691 766 93.5483 1330.16 488.077
432 0 62.1163 13.1689 818 92.4266 1330.45 487.861
433 0 61.0266 12.683 774 94.5801 1329.52 486.196
434 0 64.0638 13.2368 848 93.1333 1328.51 487.268
435 0 66.0795 11.8948 786 95.3982 1329.48 486.084
436 0 70.0519 13.7327 962 91.7308 1329.56 483.556
437 0 70.0625 11.9893 840 96.2357 1329.1 482.298
438 0 73.1638 12.3832 906 95.1347 1329.44 481.501
439 0 75.0567 13.27 996 94.507 1329.93 478.679
440 0 78.1386 13.3737 1045 92.7502 1331.82 477.314
441 0 80.2009 12.5684 1008 94.6498 1331.74 476.906
442 0 82.2618 12.29 1011 96.3739 1331.55 474.653
443 0 87.3776 13.8022 1206 92.0556 1331.76 473.347
444 0 88.2787 13.1968 1165 95.8644 1330.01 473.241
445 1 48.0412 10.6159 510 99.3157 1330.39 493.81
446 0 49.0213 12.0356 590 97.5051 1330.44 490.651
447 0 51.0203 11.564 590 95.7102 1330.07 491
448 0 52.0999 13.1862 687 94.508 1330.37 490.108
449 0 54.0214 12.421 671 94.4054 1330.38 491.94
450 0 56.0462 11.3656 637 95.5071 1330.09 491.622
451 0 58.0515 12.799 743 94.9906 1329.74 487.556
452 0 59.0863 12.2702 725 96.0138 1329.61 486.09
453 0 62.1014 13.1076 814 93.8145 1328.86 486.172
454 0 65.2185 13.1251 856 92.6589 1329.83 484.314
455 0 67.1769 12.9062 867 91.9043 1330.47 484.797
456 0 70.2306 13.8117 970 90.5371 1331.02 481.984
457 0 72.1324 13.503 974 91.0493 1330.76 481.968
458 0 71.2514 11.27 803 96.7435 1330.67 479.255
459 0 75.2057 11.9672 900 95.4356 1330.64 477.624
460 0 77.1682 12.3367 952 94.4422 1330.55 476.018
461 0 82.2131 12.6987 1044 93.7759 1330.6 474.629
462 0 86.1908 12.3215 1062 93.3795 1330.69 474.898
463 0 90.2796 14.3443 1295 89.8965 1330.5 471.266
464 0 92.2276 13.792 1272 88.1682 1331.05 472.227
465 0 94.169 13.5501 1276 86.5462 1331.55 471.386
466 0 99.1322 13.3055 1319 85.3685 1332.04 466.984
467 1 51.0596 10.9872 561 91.2763 1330.93 492.333
468 0 53.0248 12.2207 648 88.8025 1328.43 485.191
469 0 50.0978 10.759 539 79.2783 1330.46 486.579
470 0 55.1529 11.4047 629 79.2114 1331.25 486.609
471 0 54.1439 10.7307 581 81.7917 1331.13 486.325
472 0 58.3266 12.8758 751 81.7217 1331.07 488.294
473 0 59.1286 12.0585 713 83.7279 1330.9 485.877
474 0 62.0649 11.6813 725 83.9228 1330.96 486.644
475 0 64.2064 12.0393 773 82.1345 1331.11 484.913
476 0 68.2353 13.9224 950 78.7168 1331.73 482.677
477 0 71.0957 12.8559 914 79.7396 1332.53 484.165
478 0 71.1397 12.4263 884 82.5181 1331.98 480.836
479 0 74.1673 13.2538 983 81.5219 1331.86 480.23
480 0 77.1909 13.3047 1027 81.6436 1331.44 478.241
481 0 79.1917 13.2084 1046 82.8059 1331.85 478.202
482 0 83.1971 13.7385 1143 81.8504 1330.97 476.024
483 0 86.1779 13.1124 1130 84.369 1330.74 477.02
484 1 44.0823 11.8642 523 84.7801 1332.47 496.205
485 0 46.1365 11.2926 521 86.2745 1332.68 495.691
486 0 49.1927 11.9123 586 85.1706 1332.82 494.852
487 0 47.1414 12.3246 581 83.926 1332.85 495.596
488 0 48.0557 12.3607 594 84.0572 1332.98 493.106
489 0 49.1832 12.1993 600 85.4683 1331.61 492.93
490 0 52.1256 11.4915 599 86.5175 1332.34 493.144
491 0 55.1898 12.2486 676 85.0488 1331.57 491.953
492 0 57.2889 13.0043 745 82.5799 1331.49 492.281
493 0 58.2624 12.5982 734 84.173 1330.63 490.422
494 0 59.3236 11.1254 660 86.3773 1331.23 491.917
495 0 60.2218 14.0481 846 82.4456 1331.2 487.621
496 0 62.1153 11.865 737 86.2212 1331.03 486.866
497 0 66.1956 15.4089 1020 79.2235 1330.8 485.454
498 0 66.1562 12.9995 860 84.407 1331.32 486.921
499 0 69.1339 13.6547 944 83.5583 1331.17 485.426
500 0 71.1195 13.1469 935 85.184 1332.02 483.79
501 0 73.1661 13.2028 966 87.0383 1331.92 482.486
502 0 75.1233 12.6858 953 89.7377 1331.41 479.857
503 0 77.1281 13.2247 1020 89.4588 1331.25 477.574
504 0 79.2141 13.8107 1094 88.5786 1331.43 475.019
505 0 81.1759 12.4668 1012 91.7826 1331.32 475.563
506 0 82.1833 11.4257 939 94.3813 1331.62 475.017
507 0 87.2795 13.1302 1146 91.5916 1332.04 471.975
508 0 92.1036 14.0385 1293 91.6752 1330.22 465.254
509 0 93.2091 13.5931 1267 91.0939 1331.98 470.897
510 0 97.2417 12.217 1188 93.4512 1331.85 470.12
511 0 99.194 12.8738 1277 92.9522 1331.24 468.023
512 1 51.1076 11.2508 575 95.2539 1331.81 491.318
513 0 54.0875 11.0931 600 94.7883 1331.7 491.46
514 0 54.1028 11.2748 610 95.0475 1331.93 489.177
515 0 55.1552 12.3289 680 95.3765 1329.09 490.379
516 0 57.0965 12.6978 725 93.1697 1328.88 490.159
517 0 59.1213 12.6012 745 93.7195 1328.68 488.35
518 0 60.0637 12.0372 723 96.0042 1328.81 489.595
519 0 61.1113 11.9618 731 96.7962 1329.03 487.603
520 0 66.0844 13.74 908 93.6013 1329 487.349
521 0 67.1544 12.9254 868 96.167 1330.21 486.429
522 0 68.0362 12.6256 859 97.8382 1329.4 485.567
523 0 70.2918 13.0741 919 96.9358 1329.04 484.005
524 0 72.1358 13.8073 996 95.1978 1329.45 485.833
525 0 74.1302 14.0564 1042 95.2207 1330.16 483.013
526 0 77.1699 14.2543 1100 95.18 1330.29 482.917
527 0 77.1204 12.474 962 100.971 1329.6 480.978
528 0 83.1123 14.5105 1206 95.3615 1329.91 479.178
529 0 81.2532 12.5164 1017 100.161 1330.7 478.447
530 0 86.2414 13.7057 1182 97.742 1330.94 474.915
531 0 87.2742 13.2571 1157 98.726 1330.51 471.769
532 0 90.3309 15.0668 1361 94.5283 1329.56 440.162
533 1 45.1405 12.3836 559 91.5242 1331.15 472.326
534 0 47.1623 12.7432 601 89.9068 1331.92 478.774
535 0 48.0602 13.0253 626 88.6885 1331.49 484.49
536 0 48.0619 11.2563 541 90.6691 1332.29 495.218
537 0 50.0207 14.1142 706 85.8612 1331.98 492.458
538 0 53.1176 13.7054 728 85.8956 1331.54 492.334
539 0 52.0672 12.2342 637 89.2025 1331.69 492.144
540 0 55.0647 11.8406 652 88.7163 1331.46 493.357
541 0 55.089 12.0169 662 88.781 1332.07 492.974
542 0 56.0677 11.7358 658 89.8587 1331.58 490.427
543 0 59.1467 12.2746 726 87.9298 1331.5 488.738
544 0 60.0895 12.0986 727 88.0798 1331.21 489.871
545 0 63.1113 13.2623 837 86.1087 1331.55 486.335
546 0 64.0481 13.3337 854 87.1897 1331.74 485.361
547 0 66.0805 12.5907 832 89.3149 1331.24 487.482
548 0 69.2738 13.2085 915 88.2995 1332.08 484.682
549 0 74.1794 13.4 994 86.5533 1331.52 486.309
550 0 75.1412 14.9718 1125 85.5733 1331.04 482.203
551 0 77.1685 14.2804 1102 87.3367 1330.67 480.237
552 0 79.3364 13.1592 1044 89.4626 1330.08 478.763
553 0 79.1551 12.7724 1011 91.271 1330.03 476.857
554 1 41.1397 12.3725 509 89.4067 1329.28 497.572
555 0 40.0346 10.6408 426 94.1854 1329.59 497.793
556 0 44.0858 12.5664 554 91.713 1329.77 497.87
557 0 45.1271 13.0964 591 91.8849 1330.49 497.594
558 0 47.0954 13.0586 615 90.4667 1330.15 496.615
559 0 49.295 11.705 577 93.3414 1330.46 497.841
560 0 48.0476 12.2587 589 93.9983 1329.65 495.912
561 0 49.0378 13.7445 674 91.7864 1330.76 496.03
562 0 52.0382 13.5862 707 91.6648 1331 494.782
563 0 53.1965 13.6287 725 91.4966 1330.99 493.811
564 0 55.0744 13.5635 747 92.7376 1330.81 492.846
565 0 55.0841 13.6519 752 93.5904 1331.62 492.178
566 0 57.0866 13.0153 743 94.7052 1331.65 491.252
567 0 58.1445 13.4493 782 92.8977 1331.41 490.488
568 0 63.0948 14.1691 894 90.3758 1331.38 489.79
569 0 64.0985 13.0736 838 92.8031 1331.48 488.539
570 0 67.1392 13.2262 888 93.1059 1331.23 486.93
571 0 70.0627 15.0009 1051 91.4995 1331.98 485.939
572 0 72.057 12.6844 914 95.9902 1330.89 482.845
573 1 36.0181 10.3559 373 97.571 1331.48 502.032
574 0 40.0237 11.743 470 94.1915 1331.13 500.838
575 0 41.3788 12.7118 526 94.73 1329.72 495.65
576 0 41.1173 12.5008 514 96.93 1329.56 496.22
577 0 43.0854 12.7421 549 97.051 1331.46 497.851
578 0 45.1474 13.4227 606 96.3218 1331.03 495.837
579 0 46.0593 13.2655 611 96.198 1331.85 495.054
580 0 49.0552 12.4961 613 96.7912 1332.03 493.63
581 0 49.0332 13.705 672 96.3021 1329.85 493.653
582 0 51.0377 11.9715 611 99.1718 1329.79 493.547
583 0 53.0973 12.9573 688 97.4113 1330.16 492.199
584 0 55.0394 13.1905 726 96.5468 1329.77 491.736
585 0 55.0545 13.4049 738 96.7547 1330.02 491.855
586 0 57.1014 12.9944 742 98.1105 1329.73 490.106
587 0 59.0709 14.1694 837 95.7814 1330.34 489.419
588 0 62.1995 14.0516 874 93.3684 1332.19 489.043
589 0 60.2026 13.6041 819 97.0159 1332.03 487.103
590 0 64.1613 13.2011 847 97.6694 1331.86 485.255
591 0 66.2208 12.9869 860 99.4698 1331.35 483.121
592 0 66.2375 14.2215 942 98.2112 1331.59 482.416
593 0 69.166 13.4893 933 100.388 1331.26 481.553
594 0 71.146 12.7484 907 102.237 1330.94 481.086
595 0 74.2342 13.5113 1003 101.025 1330.95 478.48
596 0 73.1811 12.2709 898 103.626 1330.93 475.268
597 0 76.1786 13.0745 996 102.309 1330.8 473.185
598 0 82.201 13.3453 1097 103.637 1331.59 477.986
599 0 83.291 12.4743 1039 107.749 1331.25 475.613
600 1 43.0856 11.4191 492 102.797 1330.83 498.191
601 0 44.015 11.0417 486 99.2737 1330.83 496.72
602 0 44.0542 10.9638 483 101.511 1329.72 495.536
603 0 44.0778 12.0922 533 98.8124 1331.26 497.171
604 0 45.1422 12.0508 544 101.044 1332.35 493.63
605 0 47.0499 10.7971 508 102.608 1332.4 495.191
606 0 47.0579 12.2827 578 101.689 1332.07 495.978
607 0 48.0854 11.2092 539 103.51 1332.11 495.703
608 0 49.1267 11.5619 568 104.43 1332.19 493.53
609 0 52.107 12.1673 634 102.339 1332.14 493.368
610 0 53.1471 12.4372 661 103.169 1332.39 491.865
611 0 55.1141 11.9026 656 104.877 1331.59 491.306
612 0 57.1358 12.1115 692 105.717 1331.4 489.824
613 0 58.1454 12.0732 702 107.081 1331.5 489.526
614 0 58.1548 12.5011 727 108.109 1331.53 488.763
615 0 62.1328 13.2136 821 106.726 1331.07 486.402
616 0 63.1589 11.7165 740 109.635 1331.22 487.659
617 0 67.1549 12.7764 858 107.444 1331.3 484.769
618 0 69.0959 12.3162 851 108.511 1331.02 485.986
619 0 70.1024 13.8084 968 106.183 1331.36 482.06
620 0 75.1925 13.1795 991 107.155 1331.95 480.678
621 0 76.0995 12.8779 980 108.305 1331.9 481.171
622 0 78.1262 13.555 1059 108.573 1331.82 479.034
623 0 80.1196 12.2068 978 111.677 1331.73 478.508
624 0 83.0827 12.2288 1016 111.372 1330.79 478.15
625 0 87.0758 13.5974 1184 109.56 1329.82 476.324
626 1 46.0397 11.4249 526 110.253 1330.69 495.249
627 0 49.0409 12.3774 607 104.919 1330.63 493.369
628 0 52.0244 13.0516 679 102.186 1329.59 494.66
629 0 51.1418 11.9472 611 103.367 1329.71 492.633
630 0 52.0619 11.7168 610 102.29 1330.08 495.005
631 0 55.0222 12.8494 707 98.8458 1330.43 493.137
632 0 56.105 12.1914 684 101.618 1329.76 491.675
633 0 58.0602 13.3138 773 99.1087 1329.83 491.132
634 0 59.1452 13.1541 778 99.4203 1329.62 490.81
635 0 59.0522 12.5313 740 102.127 1328.96 490.096
636 0 61.0788 12.8195 783 101.176 1329.12 488.306
637 0 62.0508 12.5381 778 102.431 1329.82 488.704
638 0 64.0251 12.1359 777 103.768 1329.96 488.489
639 0 68.1172 12.9776 884 101.687 1328.82 486.456
640 0 70.0332 14.3932 1008 99.2044 1328.29 485.618
641 0 72.107 13.2581 956 103.062 1329.25 484.033
642 0 71.0959 12.3214 876 105.535 1329.47 482.763
643 0 77.0423 14.6024 1125 98.9191 1329.04 482.08
644 0 78.1197 13.7865 1077 101.328 1330.05 481.321
645 0 79.0765 12.2034 965 105.779 1330.19 481.515
646 0 84.0775 14.4391 1214 100.722 1330.02 479.445
647 0 85.053 12.5922 1071 106.068 1330.47 477.641
648 0 89.1371 13.1707 1174 103.282 1330.05 476.146
649 0 92.2198 13.4461 1240 102.939 1330.81 473.123
650 0 95.1388 14.0952 1341 103.138 1329.41 473.222
651 0 96.129 13.5755 1305 104.402 1329.05 472.76
652 0 100.055 13.3927 1340 104.932 1329.12 469.428
653 0 103.084 13.9013 1433 103.709 1328.86 466.874
654 0 107.259 14.4789 1553 101.831 1329.96 469.399
655 1 58.0548 11.5925 673 105.413 1330.91 492.741
656 0 61.2062 13.1359 804 103.276 1330.51 490.6
657 0 62.106 13.6219 846 112.928 1330.69 488.189
658 0 65.0296 12.8557 836 112.438 1330.77 489.142
659 0 67.0239 14.0547 942 108.708 1330.45 487.085
660 0 66.0621 13.3359 881 112.134 1330.77 486.244
661 0 70.0653 12.1315 850 113.978 1330.65 485.747
662 0 72.0375 14.3536 1034 109.436 1331.14 482.848
663 0 73.0403 12.7875 934 113.12 1331.11 483.951
664 0 78.0364 15.0699 1176 106.435 1330.29 482.394
665 0 77.0745 13.2599 1022 111.656 1330.79 481.258
666 0 81.1085 14.3142 1161 108.612 1330.66 479.735
667 0 83.0629 13.5078 1122 110.216 1331.09 479.362
668 0 86.0889 13.8578 1193 112.013 1330.58 473.713
669 0 89.0944 13.7607 1226 111.312 1330.18 473.928
670 0 92.1105 14.1135 1300 108.752 1330.48 475.341
671 0 94.098 13.9748 1315 109.506 1331.05 474.63
672 0 96.1636 13.7994 1327 110.657 1330.38 473.132
673 0 99.096 14.269 1414 111.29 1330.32 467.79
674 0 103.128 14.8942 1536 109.04 1330.28 469.677
675 0 104.145 13.7116 1428 112.24 1330.05 467.86
676 0 110.174 15.1034 1664 107.63 1330.91 467.419
677 0 113.247 13.3691 1514 107.92 1330.23 461.466
678 0 112.242 13.1858 1480 156.432 1329.22 460.702
679 1 63.1325 13.638 861 97.7108 1329.8 487.048
680 0 63.0579 10.8789 686 101.646 1330.83 489.152
681 0 66.0957 12.5727 831 98.1095 1330.96 486.72
682 0 69.0957 13.0978 905 97.1094 1331.03 485.457
683 0 71.0982 11.9412 849 98.8245 1330.83 484.166
684 0 73.0915 12.3544 903 98.1705 1330.84 483.437
685 0 78.1215 12.9542 1012 96.1334 1331.49 482.376
686 0 78.1412 13.4244 1049 95.7083 1331.2 481.083
687 0 80.0605 13.265 1062 97.2373 1330.79 478.042
688 0 84.0746 13.0242 1095 96.6721 1331.04 477.339
689 0 86.1235 14.2354 1226 94.4543 1330.8 477.909
690 0 88.1381 11.9472 1053 100.202 1331.08 476.437
691 0 92.0895 12.9005 1188 98.5547 1330.61 475.316
692 1 46.0321 10.2754 473 102.082 1330.86 497.482
693 0 47.0566 11.4331 538 102.981 1330.91 496.796
694 0 50.0417 11.3106 566 103.352 1331.02 493.825
695 0 52.0263 11.4173 594 105.434 1330.87 494.204
696 0 52.0987 12.7642 665 95.3053 1329.03 492.986
697 0 52.1954 11.5719 604 96.9917 1329.21 493.844
698 0 54.0223 13.7351 742 92.9879 1330.07 492.662
699 0 56.2405 12.1265 682 95.478 1330.15 491.875
700 0 60.0628 13.336 801 92.0175 1330.45 490.268
701 0 61.0976 13.4539 822 94.3187 1329.27 488.376
702 0 62.1359 13.1808 819 95.6325 1329.31 487.936
703 0 63.0785 12.3338 778 97.7738 1329.35 487.703
704 0 65.1069 14.3917 937 94.5368 1328.96 486.013
705 0 68.152 13.8807 946 94.3911 1328.38 485.753
706 0 70.0941 13.6388 956 96.0324 1328.9 484.81
707 0 70.0951 13.8098 968 97.5062 1329.15 483.361
708 0 73.1008 12.4622 911 100.257 1329 483.885
709 0 77.1618 14.7612 1139 97.0834 1328.65 481.107
710 0 80.2018 14.5882 1170 98.6624 1329.03 480.144
711 0 82.1126 13.4328 1103 107.345 1328.85 480.009
712 0 85.2089 13.8718 1182 106.459 1328.89 477.196
713 0 85.2025 13.4503 1146 109.401 1328.53 473.213
714 0 88.1666 13.7467 1212 108.129 1328.53 473.571
715 0 93.2684 14.4744 1350 105.361 1329.52 470.715
716 0 97.3155 13.4511 1309 104.445 1330.02 462.306
717 1 48.0877 10.876 523 91.5927 1331.28 495.809
718 0 48.0462 11.3641 546 90.8168 1330.23 490.892
719 0 50.0569 12.3459 618 99.0162 1329.36 492.825
720 0 53.2423 13.0348 694 96.4784 1330 494.007
721 0 55.0584 13.295 732 96.7432 1330.33 492.049
722 0 55.241 12.4364 687 98.5007 1330.08 491.489
723 0 56.0691 12.3776 694 98.3545 1330.19 490.5
724 0 60.12 12.9241 777 96.7967 1329.44 489.098
725 0 64.0719 13.8126 885 93.565 1330.13 488.07
726 0 65.0217 12.9495 842 95.8539 1329.98 486.625
727 0 69.2293 13.3614 925 93.2335 1329.85 486.683
728 0 70.146 12.9017 905 94.3193 1330.05 485.032
729 0 73.2578 13.5549 993 93.6878 1329.9 482.534
730 0 76.1221 15.1073 1150 88.8991 1329.92 481.669
731 0 76.0303 11.5349 877 96.4208 1329.18 482.398
732 0 80.0862 11.8622 950 96.119 1329.37 479.813
733 0 81.0457 12.1166 982 96.9623 1328.94 477.022
734 0 87.136 13.0141 1134 92.7742 1329.48 477.863
735 0 90.1915 13.4935 1217 91.894 1329.6 476.266
736 0 91.072 12.6384 1151 94.0304 1330.47 475.427
737 1 49.0284 11.1772 548 94.8029 1331.04 493.704
738 0 48.1783 9.73467 469 90.3817 1330.18 487.382
739 0 53.0965 11.1118 590 86.1017 1331.06 493.43
740 0 54.064 11.8378 640 100.141 1331.16 491.747
741 0 55.0839 11.3282 624 100.992 1331.16 491.771
742 0 58.0127 12.1525 705 99.4 1331.31 490.959
743 0 57.0648 12.1616 694 100.484 1331.42 490.326
744 0 63.1136 13.0241 822 97.219 1331.38 488.436
745 0 64.0542 12.0835 774 100.491 1331.52 488.561
746 0 66.0941 12.3763 818 99.3741 1331.56 479.727
747 0 69.0638 13.1183 906 99.777 1331.25 477.111
748 0 71.1236 12.9071 918 99.2353 1330.74 484.229
749 0 71.1486 12.1014 861 102.99 1330.42 482.626
750 0 74.11 12.5354 929 101.592 1330.3 482.65
751 0 76.2765 12.6251 963 99.2679 1330.45 479.119
752 0 80.1489 12.9259 1036 97.8523 1330.73 479.341
753 1 43.0452 11.0814 477 101.86 1330.87 497.461
754 0 44.0257 10.9709 483 98.2588 1330.96 497.439
755 0 46.0515 10.9008 502 94.8227 1331.22 497.747
756 0 44.0508 11.0781 488 97.3258 1329.37 499.043
757 0 44.0247 10.3578 456 98.0504 1330.06 498.461
758 0 47.0415 9.6298 453 98.3422 1330.47 498.225
759 0 50.1182 12.1114 607 93.028 1330.37 495.013
760 0 50.031 11.233 562 94.895 1330.42 493.941
761 0 52.0832 10.2528 534 97.706 1330.76 494.927
762 0 54.0633 12.1524 657 94.5799 1330.06 493.676
763 0 55.0829 12.4721 687 94.294 1329.98 490.745
764 0 58.1105 11.22 652 96.4248 1330.05 491.152
765 0 59.1604 11.2237 664 95.6973 1330.97 491.703
766 0 62.1086 11.5765 719 94.5967 1331.14 489.802
767 0 63.0391 11.5008 725 96.3669 1330.69 488.517
768 0 65.0936 11.0149 717 96.6011 1330.82 488.604
769 0 67.0725 11.2117 752 97.496 1330.25 488.654
770 0 71.2144 13.1996 940 94.3787 1330.4 483.235
771 0 73.0821 12.3833 905 97.3768 1330.47 484.644
772 0 75.1183 12.5269 941 98.0956 1329.37 482.296
773 0 78.1717 13.2913 1039 96.487 1329.95 480.482
774 0 81.1056 12.6995 1030 98.0369 1330.5 480.906
775 0 84.0938 13.2828 1117 97.4763 1330.91 478.827
776 0 87.162 12.9414 1128 98.836 1329.84 478.314
777 0 91.1555 12.5061 1140 98.6509 1330.26 476.729
778 1 49.0394 13.4178 658 98.4802 1331.36 497.21
779 0 50.0534 12.167 609 101.437 1328.92 495.146
780 0 53.0788 13.6589 725 99.4248 1331.38 495.88
781 0 52.0728 12.3481 643 104.387 1331.09 494.128
782 0 55.0269 13.7933 759 101.904 1331.39 493.12
783 0 56.1009 13.3688 750 102.669 1331.09 494.669
784 0 56.0539 12.595 706 106.329 1331.2 490.955
785 0 56.0864 14.0319 787 104.826 1330.71 490.31
786 0 60.1023 14.1592 851 103.181 1331.03 490.725
787 0 61.0259 14.1907 866 105.182 1331.44 489.582
788 0 63.1386 13.4941 852 106.176 1331.06 489.952
789 0 66.0323 14.5232 959 103.844 1330.65 487.581
790 0 67.0721 14.4621 970 104.865 1331.48 486.55
791 0 70.1269 14.9586 1049 104.365 1330.48 485.73
792 0 71.0968 14.4451 1027 106.352 1330.52 484.44
793 0 71.0876 13.8421 984 108.168 1330.44 480.578
794 0 75.0372 13.6066 1021 106.162 1330.38 478.654
795 0 77.1014 13.8908 1071 103.738 1329.87 478.201
796 0 80.2142 13.8255 1109 104.17 1329.66 472.559
797 0 83.1231 14.2319 1183 108.466 1329.54 476.628
798 0 87.2505 14.6131 1275 107.313 1329.29 475.364
799 0 89.2424 15.2394 1360 109.649 1329.75 475.879
800 0 92.2471 15.5886 1438 108.551 1329.54 475.113
801 0 96.2611 14.7204 1417 109.748 1329.86 472.262
802 1 50.1376 13.7621 690 112.597 1330.78 493.161
803 0 51.1572 11.924 610 113.944 1330.65 493.025
804 0 55.3 12.0976 669 105.904 1329 487.111
805 0 55.1297 13.0964 722 100.748 1330.8 491.015
806 0 57.1398 12.9332 739 100.356 1330.69 491.269
807 0 59.0918 12.6583 748 100.765 1330.34 489.594
808 0 61.1846 12.8791 788 98.986 1330.8 489.258
809 0 62.061 13.7284 852 97.8216 1330.23 487.454
810 0 64.0572 13.566 869 97.1116 1330.25 485.565
811 0 67.0513 13.8551 929 96.2659 1329.9 483.447
812 0 71.0479 15.0884 1072 92.6772 1330.48 485.204
813 0 71.0874 12.7871 909 98.9989 1330.11 484.098
814 0 74.1353 13.4619 998 97.1162 1329.69 483.422
815 0 74.1353 13.3944 993 134.523 1329.69 483.394
816 0 80.14 14.0254 1124 95.5365 1329.79 478.241
817 0 81.1685 14.0695 1142 95.8932 1330.16 476.655
818 1 43.0568 12.7738 550 96.5273 1328.88 495.664
819 0 45.082 11.5789 522 98.6801 1328.58 495.295
820 0 49.0583 12.8826 632 104.775 1328.32 495.978
821 0 50.053 13.226 662 102.882 1328.55 496.556
822 0 50.1538 13.6979 687 103.031 1329.13 495.234
823 0 51.1003 13.1897 674 104.007 1328.86 494.583
824 0 53.1146 13.2167 702 103.306 1329.19 492.456
825 0 55.0871 12.8705 709 103.354 1328.71 493.179
826 0 58.0743 13.1039 761 103.375 1328.82 489.206
827 0 57.0543 12.6371 721 104.675 1329.12 490.132
828 0 60.0932 13.8285 831 97.7569 1329.13 490.082
829 0 60.1663 12.748 767 100.025 1329.49 490.403
830 0 63.0587 12.8135 808 99.2017 1329.27 487.519
831 0 66.029 13.9787 923 96.0108 1329.37 486.944
832 0 68.0722 13.9998 953 95.7901 1328.88 486.942
833 0 69.1207 11.6608 806 95.7258 1329.66 485.49
834 0 72.1422 12.6694 914 93.6149 1330.02 483.996
835 0 74.2274 12.4482 924 95.2294 1329.88 480.752
836 0 77.233 11.9508 923 94.8223 1329.73 478.096
837 0 82.1051 13.8359 1136 90.7377 1330.35 480.038
838 0 85.244 13.2913 1133 92.3839 1329.63 477.365
839 0 86.1709 13.1599 1134 91.9427 1329.21 477.31
840 0 90.1411 14.5217 1309 90.5951 1329.72 476.189
841 1 44.2384 11.4154 505 99.2495 1330.06 497.374
842 0 45.0681 10.3399 466 96.0215 1329.79 492.921
843 0 50.1952 14.3041 718 88.0237 1329.43 494.798
844 0 52.3084 12.3116 644 91.0171 1329.1 494.807
845 0 52.1859 11.8423 618 92.5178 1330.12 494.919
846 0 54.3278 12.5166 680 92.3721 1329.84 492.625
847 0 56.0912 12.6758 711 90.8776 1329.92 491.774
848 0 57.1472 11.1117 635 93.6598 1329.97 492.395
849 0 60.1517 12.2524 737 91.5889 1329.83 491.088
850 0 61.0841 12.3109 752 91.5412 1328.93 489.238
851 0 66.1704 13.027 862 90.355 1329.75 486.298
852 0 68.0748 12.6479 861 92.2648 1329.39 484.669
853 0 69.076 12.5514 867 93.2007 1329.36 483.746
854 0 67.0718 12.1959 818 134.215 1329.28 482.921
855 0 77.0883 13.6467 1052 91.1749 1329.13 483.314
856 0 77.0916 13.9704 1077 92.0409 1329.21 479.353
857 0 80.1545 12.4884 1001 94.1409 1329.34 477.438
858 0 83.3407 12.7429 1062 92.8362 1329.68 479.734
859 0 85.0793 13.0819 1113 92.8985 1329.67 476.491
860 0 88.1626 12.0006 1058 95.4669 1329.55 473.814
861 0 92.2837 13.5885 1254 92.9761 1329.33 472.928
862 0 96.219 13.2822 1278 93.9077 1329.75 470.326
863 0 98.6278 12.0554 1189 95.413 1329.55 468.511
864 0 103.156 12.9803 1339 93.9537 1329.01 464.474
865 0 107.144 13.1972 1414 93.355 1329.51 465.982
866 0 112.222 13.6069 1527 94.6025 1329.5 462.003
867 1 60.0579 13.3538 802 85.5362 1329.97 491.011
868 0 62.0357 13.9275 864 84.6458 1330.67 489.058
869 0 64.209 11.0732 711 93.3263 1330.32 486.674
870 0 64.209 11.1511 716 130.071 1329.32 486.723
871 0 69.1236 12.89 891 86.633 1330.32 482.424
872 0 68.133 11.0519 753 90.8048 1329.61 482.442
873 0 74.0762 12.3791 917 88.6074 1330.3 483.028
874 0 76.1497 12.5673 957 90.0324 1329.89 479.269
875 0 79.1358 13.1041 1037 90.1157 1329.57 478.1
876 0 81.0744 13.3088 1079 91.6311 1329.46 461.879
877 0 84.0586 13.2051 1110 91.1865 1330.1 467.204
878 0 84.0586 13.1694 1107 139.209 1331.11 467.283
879 0 88.2426 13.7122 1210 89.276 1329.2 475.988
880 0 93.1261 14.1743 1320 90.2114 1329.08 470.82
881 0 94.1675 12.4034 1168 93.1276 1329.18 472.932
882 0 96.4029 12.427 1198 94.4199 1329.47 467.565
883 0 100.34 12.7766 1282 94.2605 1329.52 465.969
884 0 104.581 14.496 1516 90.6517 1329.22 465.83
885 0 106.364 13.6418 1451 92.7967 1329.54 463.746
886 0 111.455 14.0594 1567 92.9145 1330.2 462.008
887 0 115.399 12.9031 1489 93.8899 1329.72 461.85
888 0 119.384 12.8661 1536 94.9479 1329.66 455.395
889 0 123.567 14.2919 1766 92.3862 1329.88 452.05
890 1 68.3002 12.9575 885 87.8475 1329.51 482.41
891 0 69.4557 11.7773 818 93.8056 1328.99 483.038
892 0 72.3313 12.0418 871 90.0276 1330.72 483.132
893 0 75.2354 13.2252 995 88.807 1329.87 481.644
894 0 78.0599 13.6434 1065 88.9268 1329.41 481.884
895 0 80.1544 12.5009 1002 92.4122 1328.63 479.447
896 0 84.3179 14.5758 1229 89.2335 1328.49 474.169
897 0 86.1733 12.939 1115 93.6888 1328.91 475.148
898 0 91.1152 14.6079 1331 89.3171 1328.27 474.942
899 0 95.1857 15.2544 1452 88.053 1328.36 474.701
900 0 97.2447 14.0676 1368 92.9364 1328.49 468.977
901 0 102.516 14.4368 1480 91.9284 1328.53 468.611
902 0 102.286 13.9217 1424 94.552 1328.41 468.22
903 0 103.352 14.0974 1457 95.6314 1328.31 463.754
904 0 106.531 14.2963 1523 95.1064 1328.28 464.789
905 0 112.284 14.8018 1662 93.6811 1328.41 463.558
906 0 114.247 14.1098 1612 94.6824 1328.34 463.162
907 0 117.378 13.0092 1527 97.5881 1327.94 458.5
908 0 123.328 13.6709 1686 96.5872 1327.98 455.361
909 0 127.399 15.0158 1913 94.7073 1328.54 452.649
910 0 131.299 14.0366 1843 96.3337 1328.38 450.907
911 1 68.0978 11.8359 806 89.5558 1328.92 485.159
912 0 71.0706 10.7921 767 93.4381 1328.29 484.237
913 0 72.1183 13.5472 977 89.8598 1328.1 481.205
914 0 75.2276 12.7746 961 90.4173 1327.79 481.865
915 0 78.0634 13.5915 1061 90.0254 1328.22 478.794
916 0 81.2166 12.8668 1045 90.5359 1327.63 478.481
917 0 84.1811 13.1977 1111 90.73 1327.66 477.194
918 0 85.1432 12.9781 1105 90.4163 1327.8 476.237
919 0 87.0624 13.0251 1134 90.7637 1327.95 474.973
920 0 89.289 12.0508 1076 93.9349 1328.28 473.46
921 0 94.1373 12.673 1193 92.684 1328.55 470.984
922 0 99.2005 14.5665 1445 88.3965 1328.36 470.124
923 0 100.096 13.0675 1308 91.6697 1328.86 469.184
924 0 101.276 13.1325 1330 92.9105 1328.59 466.27
925 0 108.276 13.3363 1444 91.401 1328.62 466.085
926 1 56.0651 10.9694 615 92.3057 1328.75 491.941
927 0 59.0686 13.9837 826 88.1671 1327.86 488.163
928 0 60.2001 13.4717 811 89.9988 1328.5 487.232
929 0 64.1678 13.0439 837 89.4755 1328.59 487.329
930 0 64.1651 12.7484 818 92.1907 1328.69 484.874
931 0 67.094 11.9087 799 94.8473 1328.71 484.283
932 0 70.131 14.2448 999 90.5556 1329.03 483.254
933 0 73.2524 13.2965 974 91.1191 1328.5 484.504
934 0 73.2164 12.2923 900 94.7989 1328.35 481.049
935 0 77.1868 13.0722 1009 92.2478 1328.17 480.302
936 0 79.2583 12.9324 1025 93.4927 1328.26 478.491
937 0 83.4183 13.5342 1129 91.2223 1328.93 472.356
938 0 85.3903 11.9451 1020 94.3853 1329.67 476.394
939 0 88.3312 13.3928 1183 92.3381 1329.2 473.454
940 0 90.2444 14.0396 1267 90.2826 1329.41 473.062
941 0 92.3339 12.379 1143 93.4794 1329.5 470.241
942 0 96.1853 12.6838 1220 92.6098 1329.36 470.33
943 1 50.1647 12.6583 635 86.7906 1329.84 492.42
944 0 53.107 12.7855 679 86.0574 1330.15 492.617
945 0 55.0759 15.3788 847 80.1181 1331.18 489.545
946 0 53.0114 12.5445 665 84.8962 1330.32 490.198
947 0 55.1296 10.0853 556 88.3831 1330.15 492.5
948 0 55.086 12.1446 669 86.8834 1330.57 490.091
949 0 57.0915 12.261 700 86.01 1330.31 490.141
950 0 61.0693 12.625 771 84.9922 1331.14 488.641
951 0 64.0643 12.3001 788 86.5 1331.2 487.39
952 0 64.1259 13.3332 855 85.9743 1330.54 486.709
953 0 65.0799 10.9865 715 90.2671 1330.7 486.898
954 0 69.152 11.9447 826 89.2107 1330.82 484.26
955 0 70.0684 11.0035 771 89.5344 1330.61 486.476
956 0 73.0457 12.9508 946 88.4609 1330.4 481.227
957 0 76.1382 12.8451 978 88.3793 1330.21 480.676
958 0 77.0704 12.7286 981 89.3099 1330.22 481.626
959 0 80.1628 13.4352 1077 88.0074 1330.74 479.206
960 0 84.2193 13.6192 1147 89.3217 1330.14 476.713
961 0 86.0791 12.8603 1107 91.7046 1329.77 476.258
962 0 90.2926 13.4341 1213 91.1377 1329.54 473.973
963 0 94.1773 13.8675 1306 90.7557 1330 471.723
964 0 97.123 13.1689 1279 93.7991 1329.63 469.378
965 0 101.285 12.6376 1280 92.3227 1330.25 469.392
966 1 56.1215 12.0987 679 92.6495 1330.71 490.265
967 0 55.1142 11.6122 640 94.5141 1330.42 488.973
968 0 55.139 10.6095 585 89.3932 1330.31 483.79
969 0 57.1912 11.855 678 87.9086 1330.52 481.603
970 0 57.0697 10.6887 610 90.7328 1330.26 481.356
971 0 63.0635 11.7976 744 87.3858 1330 481.719
972 0 65.0836 10.9859 715 88.4014 1330.48 481.496
973 0 66.0467 11.8552 783 87.2158 1329.91 477.692
974 0 70.1516 11.7888 827 86.4764 1330.15 479.817
975 0 72.0398 11.5214 830 87.4494 1329.82 477.255
976 0 75.132 11.4598 861 86.3484 1329.69 478.842
977 0 78.1496 12.0922 945 87.3302 1330.23 475.942
978 0 80.0998 11.4982 921 88.6656 1329.79 472.699
979 0 86.1249 13.643 1175 92.9336 1330.11 475.367
980 0 90.307 13.5095 1220 92.9377 1330.78 474.607
981 0 91.2008 13.3771 1220 94.0803 1329.72 472.844
982 0 95.3727 13.8719 1323 92.8881 1329.24 469.991
983 1 44.0628 9.98575 440 96.6659 1330.84 495.27
984 0 48.0326 12.2209 587 91.7615 1331.08 495.21
985 0 50.1693 12.9362 649 92.47 1329.59 491.094
986 0 47.0553 11.4334 538 87.8216 1330.55 487.043
987 0 48.0474 10.1774 489 85.3313 1330.54 487.697
988 0 52.1271 11.5103 600 82.0467 1330 490.307
989 0 52.0829 12.5761 655 81.4198 1330.43 488.195
990 0 55.1213 14.459 797 79.059 1330.14 487.06
991 0 56.1122 11.3701 638 83.8182 1330.76 485.984
992 0 57.0634 11.7238 669 84.2212 1330.18 485.807
993 0 62.0297 12.6875 787 83.0445 1330.37 483.443
994 0 64.1395 11.4594 735 83.8735 1330.22 484.713
995 0 66.11 14.0372 928 82.9052 1329.85 482.495
996 0 70.1889 12.965 910 84.5352 1330.12 483.144
997 0 71.1944 14.4393 1028 87.4241 1330.04 483.026
998 0 73.2138 13.2625 971 90.8877 1330.25 483.828
999 0 77.0977 14.6567 1130 88.6345 1329.7 481.458
1000 0 77.0813 13.622 1050 92.2448 1330.02 479.22
1001 0 81.0929 14.5019 1176 89.7449 1330.04 477.443
1002 0 84.2237 14.4496 1217 89.7543 1330.01 476.725
1003 0 87.2139 15.8346 1381 88.2281 1330.02 474.587
1004 0 90.1289 16.0326 1445 86.8595 1329.93 474.367
1005 0 91.212 15.1954 1386 89.7381 1330.15 472.086
1006 0 96.2029 15.1555 1458 91.1214 1330.03 472.98
1007 0 101.242 15.7741 1597 89.871 1329.56 467.356
1008 1 55.1367 13.2217 729 92.7229 1328.91 490.737
1009 0 57.145 13.4395 768 90.9427 1328.65 491.349
1010 0 55.1207 11.3932 628 96.5016 1328.75 490.728
1011 0 59.2056 15.387 911 89.6345 1329.13 488.267
1012 0 60.2374 13.646 822 93.1703 1329.02 488.614
1013 0 63.1104 14.641 924 92.0703 1328.8 486.212
1014 0 64.0565 13.7223 879 94.6394 1329.19 486.798
1015 0 66.1006 14.251 942 94.9034 1328.42 484.909
1016 0 69.1417 14.868 1028 93.0506 1328.96 483.807
1017 0 70.1132 14.2627 1000 94.588 1328.43 483.283
1018 0 73.1089 14.9913 1096 93.0256 1328.9 480.875
1019 0 74.0647 14.1633 1049 94.0419 1329.97 482.019
1020 0 76.1185 14.8716 1132 93.7482 1330.01 479.949
1021 0 79.0663 14.7092 1163 93.6328 1329.95 479.949
1022 0 81.1876 15.0146 1219 93.2198 1329.48 476.847
1023 0 83.1173 14.7623 1227 93.4059 1329.4 478.435
1024 0 86.2058 15.7298 1356 92.3134 1329.68 475.732
1025 0 88.2873 14.5547 1285 96.5704 1329.21 467.917
1026 0 90.2983 14.4632 1306 95.8821 1329.25 471.485
1027 0 93.344 13.6056 1270 96.5654 1328.83 470.802
1028 0 95.3269 13.8576 1321 96.6419 1329.08 467.995
1029 1 52.1548 12.3095 642 92.0405 1329.1 488.29
1030 0 51.1166 12.227 625 90.3216 1329.52 489.248
1031 0 55.06 12.6044 694 86.6225 1330.29 488.042
1032 0 52.108 11.5721 603 88.534 1330.1 482.046
1033 0 56.0435 11.5981 650 88.2877 1330.4 482.12
1034 0 54.0352 10.7522 581 91.63 1330.22 481.071
1035 0 59.0758 11.5445 682 88.5762 1330.25 481.139
1036 0 62.1236 13.4731 837 85.9904 1330.1 479.986
1037 0 65.0344 12.3319 802 88.8379 1330.1 480.657
1038 0 64.1072 12.8223 822 89.6241 1330.42 479.347
1039 0 69.2549 12.7644 884 92.5011 1330.43 483.361
1040 0 72.1643 12.9981 938 92.6631 1330.31 481.578
1041 0 75.1003 14.1677 1064 89.6833 1329.38 478.974
1042 0 77.1491 13.8822 1071 90.3072 1330.38 478.084
1043 0 79.1268 13.0929 1036 91.6892 1330.36 478.32
1044 0 81.1766 13.8094 1121 90.6182 1330.52 477.793
1045 0 84.2405 14.0431 1183 90.2629 1329.75 475.646
1046 0 87.2629 14.909 1301 89.3444 1330.5 472.88
1047 1 42.1071 11.3995 480 90.7729 1329.99 494.669
1048 0 43.0598 11.0776 477 85.9518 1330.6 493.786
1049 0 45.018 10.5069 473 85.7801 1330.42 492.584
1050 0 47.0895 14.2919 673 85.8217 1330.57 494.205
1051 0 47.0895 14.3132 674 127.635 1330.59 494.082
1052 0 47.0368 12.267 577 84.7019 1330.74 493.222
1053 0 49.0568 11.925 585 84.0513 1330.72 494.166
1054 0 52.0163 11.977 623 83.7368 1330.36 494.25
1055 0 53.1096 13.3121 707 81.3508 1330.5 493.134
1056 0 55.1106 12.6473 697 81.3831 1329.58 490.491
1057 0 57.1068 13.0107 743 80.965 1329.93 489.03
1058 0 59.0686 11.7152 692 82.0621 1329.13 488.097
1059 0 62.0661 11.8906 738 82.3442 1329.32 487.298
1060 0 64.1513 12.907 828 79.9348 1329.27 485.197
1061 0 63.1279 13.1004 827 80.6904 1329.4 485.149
1062 0 67.1052 13.069 877 80.301 1329.78 483.273
1063 0 69.2529 12.6204 874 81.5995 1329.48 483.366
1064 0 72.3036 12.8071 926 82.2322 1330.39 481.311
1065 0 75.2806 13.1375 989 81.4115 1329.77 481.079
1066 0 73.1513 11.5377 844 85.6528 1329.68 478.655
1067 0 78.1688 11.9485 934 89.6927 1330.3 478.956
1068 0 80.1207 13.4297 1076 86.474 1330.11 476.687
1069 0 83.1766 12.5636 1045 88.2593 1329.93 475.425
1070 0 85.1272 12.9688 1104 87.558 1329.91 472.009
1071 0 88.2281 13.6124 1201 86.3655 1329.46 470.922
1072 0 90.1823 12.7963 1154 87.7054 1329.85 471.837
1073 0 92.2855 11.9195 1100 91.0718 1329.67 468.23
1074 0 96.2419 13.8505 1333 87.3623 1329.75 468.395
1075 0 98.2303 14.5271 1427 86.7575 1330.02 465.197
1076 1 51.0723 11.3173 578 86.763 1330.1 492.078
1077 0 52.051 13.0641 680 84.7676 1329.98 491.371
1078 0 53.1229 12.3111 654 84.7141 1330.22 492.612
1079 0 57.0739 12.0896 690 86.1101 1330.78 490.838
1080 0 57.0568 12.5314 715 86.6014 1331.62 488.403
1081 0 60.111 11.7283 705 86.9745 1330.79 488.498
1082 0 60.1538 11.9693 720 87.4097 1331.18 488.131
1083 0 66.2471 11.8043 782 87.5243 1331.01 485.916
1084 0 65.1688 11.5086 750 89.1493 1330.38 483.431
1085 0 69.2152 14.0143 970 85.0175 1329.75 481.2
1086 0 70.1988 12.3649 868 87.1993 1329.94 484.213
1087 0 74.268 13.4109 996 85.004 1329.89 484.688
1088 0 75.2098 13.11 986 86.6694 1330.45 482.75
1089 0 77.203 13.4969 1042 87.238 1329.88 480.316
1090 0 79.176 12.9837 1028 88.6518 1330.1 476.908
1091 1 42.0405 12.702 534 82.7884 1329.96 498.657
1092 0 41.1554 11.6874 481 85.9148 1332.16 494.47
1093 0 43.0584 12.007 517 90.5919 1331.54 496.505
1094 0 46.1293 12.3566 570 90.5088 1331.33 495.647
1095 0 46.0999 13.0803 603 90.8093 1330.39 493.687
1096 0 47.11 11.4838 541 94.4603 1329.66 494.168
1097 0 48.0472 12.7375 612 92.1062 1330.31 494.931
1098 0 49.0784 11.3492 557 95.9372 1329.84 492.131
1099 0 51.0627 12.3182 629 94.4595 1329.38 492.7
1100 0 53.0526 11.7054 621 94.8518 1329.4 491.618
1101 0 52.077 11.8478 617 95.6499 1329.67 491.934
1102 0 56.0528 12.7023 712 93.1404 1329.93 490.514
1103 0 59.2362 13.2689 786 92.8079 1330.29 489.291
1104 0 57.0712 11.8273 675 96.7407 1329.8 488.474
1105 0 61.0766 12.9837 793 93.6696 1329.9 486.944
1106 0 64.102 12.1369 778 94.3432 1331.06 484.708
1107 0 65.145 12.3263 803 94.462 1330.73 483.731
1108 0 66.0672 13.3803 884 92.6663 1330.54 485.092
1109 0 68.052 12.8578 875 94.0651 1331.3 482.038
1110 0 72.2863 14.4426 1044 89.4655 1331.14 482.202
1111 0 72.1542 11.9744 864 94.2801 1330.85 478.594
1112 0 77.1653 13.672 1055 90.6228 1328.88 481.804
1113 0 77.0761 12.1049 933 95.5916 1328.32 478.417
1114 0 79.0911 12.8965 1020 93.4912 1328.56 479.287
1115 0 83.0734 12.6996 1055 93.4379 1328.67 478.065
1116 1 42.077 11.8592 499 90.4409 1329.1 496.964
1117 0 42.0542 10.5578 444 87.8153 1328.77 495.182
1118 0 45.0719 11.2265 506 84.2075 1328.89 493.808
1119 0 48.0348 12.0538 579 80.171 1330.88 493.755
1120 0 49.1344 10.1355 498 81.9859 1331.02 496.402
1121 0 49.058 12.2916 603 80.476 1330.24 493.643
1122 0 49.0373 11.1752 548 84.2792 1330.11 491.527
1123 0 52.09 10.4818 546 85.5659 1329.87 492.958
1124 0 53.0855 11.0388 586 84.9027 1329.85 491.956
1125 0 55.057 11.3882 627 85.8373 1330.05 491.753
1126 0 55.0281 10.8308 596 87.4195 1329.79 489.933
1127 0 59.1102 11.7746 696 85.3664 1330.23 485.388
1128 0 62.0539 12.5375 778 83.6118 1330.45 488.315
1129 0 64.0573 11.8488 759 84.722 1330.48 485.484
1130 0 66.0553 12.6409 835 83.8958 1330.49 486.023
1131 0 68.1356 10.0095 682 85.6774 1330.89 488.201
1132 0 71.0898 11.6472 828 84.0519 1330.56 484.097
1133 0 75.1378 13.1625 989 81.7755 1330.15 482.757
1134 0 76.1114 11.3649 865 84.3711 1330.78 482.998
1135 0 79.1203 11.8806 940 83.8574 1330.11 480.396
1136 1 41.0213 10.2142 419 86.7446 1330.29 498.554
1137 0 44.1108 12.4913 551 82.8929 1329.33 495.92
1138 0 46.1976 12.7929 591 81.6819 1329.28 491.149
1139 0 47.1545 13.4876 636 80.8774 1328.88 494.401
1140 0 49.1202 12.9478 636 80.5865 1328.34 493.017
1141 0 51.2284 11.8099 605 82.3174 1327.78 492.747
1142 0 52.0549 12.5829 655 81.0397 1328.28 493.56
1143 0 53.1 11.5254 612 83.3399 1328.66 492.092
1144 0 56.0184 14.5131 813 78.8266 1328.15 491.936
1145 0 56.1963 13.3817 752 82.2726 1328.78 491.65
1146 0 58.024 12.5638 729 84.369 1328.3 491.919
1147 0 60.1077 13.5424 814 83.1929 1327.84 488.135
1148 0 62.0809 12.2904 763 85.4377 1327.62 489.672
1149 0 64.0587 14.0184 898 84.6002 1327.11 487.321
1150 0 66.0642 13.8804 917 85.4526 1327.82 485.231
1151 0 70.1013 14.8357 1040 83.0721 1327.59 483.988
1152 0 72.0908 14.024 1011 84.9238 1327.46 482.782
1153 0 75.1151 14.6575 1101 84.9773 1328.07 480.236
1154 0 77.1562 13.518 1043 87.8476 1327.2 478.816
1155 0 82.2563 14.1752 1166 86.1166 1327.02 479.349
1156 0 85.1757 14.0533 1197 85.3709 1327.63 475.16
1157 0 87.2113 12.7277 1110 84.6622 1328.84 473.943
1158 1 43.0566 10.4049 448 91.8504 1327.3 496.94
1159 0 47.0984 13.2064 622 87.4244 1327.73 495.595
1160 0 50.0551 13.0656 654 86.3578 1329.65 496.868
1161 0 49.0512 12.2321 600 88.7983 1329.8 496.587
1162 0 51.0414 12.3625 631 91.0983 1329.53 492.693
1163 0 52.065 12.542 653 89.8974 1329.61 493.603
1164 0 53.0444 13.649 724 88.0028 1329.84 492.093
1165 0 56.093 13.7807 773 88.0582 1330.09 491.005
1166 0 58.1607 14.4771 842 86.3147 1330.02 490.203
1167 0 62.1781 14.748 917 85.145 1329.78 487.473
1168 0 62.1136 12.783 794 88.738 1330.16 486.351
1169 0 64.0943 13.0901 839 87.9952 1330.81 485.64
1170 0 65.0837 12.8143 834 88.9808 1330.43 485.857
1171 0 70.1172 14.3474 1006 85.9503 1329.97 484.12
1172 0 72.0978 13.3846 965 88.6124 1329.76 482.045
1173 0 76.0844 13.6427 1038 88 1330.58 481.366
1174 0 76.1805 12.4441 948 88.6097 1330.53 480.854
1175 0 80.2088 13.1282 1053 86.0475 1330.31 479.821
1176 0 81.2387 12.691 1031 87.5015 1329.98 477.389
1177 1 43.1692 11.1422 481 89.9044 1330.06 495.168
1178 0 41.1731 10.7109 441 91.059 1330.04 496.578
1179 0 44.0353 12.1721 536 88.2631 1330.45 495.998
1180 0 45.0496 9.8114 442 76.8937 1329.69 496.357
1181 0 48.0231 12.0983 581 89.3408 1329.58 494.059
1182 0 49.0821 14.3841 706 84.7337 1329.74 492.744
1183 0 50.0061 12.4985 625 87.3472 1329.81 492.267
1184 0 53.098 14.4073 765 84.634 1330.11 483.996
1185 0 53.1021 14.1237 750 85.496 1329.79 489.693
1186 0 56.0459 12.7574 715 85.9538 1330.2 491.189
1187 0 56.074 12.109 679 88.1075 1330.88 488.012
1188 0 60.0493 14.9877 900 82.8567 1329.97 487.511
1189 0 60.1096 13.8081 830 84.9952 1329.36 486.649
1190 0 62.1169 14.1346 878 87.1765 1329.66 485.108
1191 0 63.1089 14.784 933 85.5016 1329.31 485.684
1192 0 65.2027 13.4964 880 87.058 1329.68 484.218
1193 0 67.1199 14.4666 971 86.0556 1329.68 483.888
1194 0 71.2257 14.4751 1031 84.7255 1329.2 483.575
1195 0 72.2999 14.6888 1062 84.7458 1329.94 481.206
1196 0 72.1995 14.4599 1044 85.2615 1329.46 479.494
1197 0 76.1607 15.5855 1187 83.6066 1329.29 479.53
1198 0 75.2729 14.2946 1076 87.0874 1329.01 478.305
1199 0 80.2653 15.4363 1239 82.339 1329.52 478.26
1200 0 82.2601 14.7945 1217 84.2317 1329.28 472.389
1201 0 85.295 14.3033 1220 85.4082 1329.28 474.778
1202 0 88.1732 15.7191 1386 83.1263 1329.34 475.465
1203 0 91.3538 14.2851 1305 85.5954 1328.83 475.168
1204 0 93.336 14.9246 1393 85.1917 1328.73 469.268
1205 0 98.242 16.9174 1662 81.4525 1328.62 468.572
1206 0 100.248 15.2122 1525 86.5534 1328.68 469.09
1207 0 103.26 14.4974 1497 86.0681 1328.6 467.53
1208 1 50.1328 11.9084 597 78.4891 1328.45 485.893
1209 0 51.1377 9.62107 492 86.4492 1328.46 487.055
1210 0 52.2482 9.91422 518 85.6834 1327.97 482.459
1211 0 57.0522 12.5674 717 77.5844 1328.13 483.544
1212 0 59.1404 11.6164 687 79.4833 1328.22 479.635
1213 0 58.1139 12.4755 725 80.4428 1328.23 479.314
1214 0 62.1318 12.5218 778 79.6954 1328.72 480.036
1215 0 65.2313 13.1225 856 79.0572 1328.8 478.996
1216 0 68.1755 12.2478 835 79.6778 1328.61 475.628
1217 0 69.267 12.1847 844 79.564 1328.45 478.761
1218 0 70.258 13.0092 914 80.6937 1328.66 474.613
1219 0 73.2837 14.4916 1062 79.9755 1329.02 471.049
1220 0 77.2299 15.4474 1193 79.228 1327.79 475.586
1221 0 78.1614 14.0223 1096 83.0338 1328.25 476.372
1222 0 81.2745 13.9281 1132 89.2385 1327.28 477.399
1223 0 82.3314 15.9963 1317 86.8891 1327.8 471.61
1224 0 84.298 12.5388 1057 93.351 1328.72 468.693
1225 0 87.2262 15.5573 1357 87.1496 1328.43 469.864
1226 0 90.2169 16.6155 1499 86.2849 1328.52 464.201
1227 0 94.5474 15.8333 1497 85.67 1328.65 466.365
1228 0 95.3128 14.2373 1357 89.8335 1328.45 463.843
1229 0 101.498 15.3402 1557 87.6654 1328.32 460.956
1230 1 50.2345 12.0236 604 88.4139 1328.04 486.929
1231 0 50.2771 12.8687 647 84.5425 1328.1 484.077
1232 0 53.2345 13.1306 699 83.6109 1327.74 481.843
1233 0 54.1595 12.6478 685 85.0263 1328.23 481.634
1234 0 55.1885 12.557 693 87.8889 1328.05 480.202
1235 0 57.3412 11.6147 666 90.8739 1327.7 478.797
1236 0 60.2963 12.6873 765 86.7438 1329.19 478.077
1237 0 62.4028 11.8905 742 88.6078 1328.33 476.619
1238 0 64.3371 12.7764 822 88.5085 1327.78 476.234
1239 0 65.1949 13.3446 870 88.9621 1327.8 474.906
1240 0 69.2085 13.9145 963 87.8193 1327.62 473.756
1241 0 72.4204 13.2835 962 89.4054 1327.01 473.49
1242 0 74.3931 15.3643 1143 86.1934 1327.67 474.366
1243 0 76.241 13.4573 1026 90.8538 1327.28 476.81
1244 0 81.3549 15.3894 1252 87.4904 1327.53 472.304
1245 0 83.3628 14.179 1182 89.2217 1327.16 472.948
1246 0 85.304 13.8681 1183 89.1327 1327.43 467.206
1247 0 85.304 13.9618 1191 149.442 1327.41 467.265
1248 0 88.4985 13.1867 1167 93.7746 1327 464.597
1249 0 93.1935 13.8529 1291 93.0449 1326.69 463.384
1250 0 95.0721 13.9473 1326 93.4842 1327.06 462.084
1251 0 100.182 15.951 1598 87.9912 1327.76 460.408
1252 0 100.182 15.9709 1600 143.02 1326.76 460.318
1253 0 104.125 12.5042 1302 95.5269 1327.03 457.986
1254 1 56.1941 10.7129 602 95.3771 1326.48 480.537
1255 0 61.0635 12.9046 788 90.0723 1328.55 479.783
1256 0 62.202 12.797 796 88.7261 1329.36 479.79
1257 0 61.2445 11.3643 696 92.3736 1328.98 476.366
1258 0 67.2996 11.798 794 90.4975 1328.94 478.762
1259 0 67.2184 12.0056 807 90.9281 1328.67 476.974
1260 0 72.371 14.7158 1065 86.8798 1329.35 474.938
1261 0 74.4794 13.6145 1014 88.3097 1328.67 473.079
1262 0 75.4203 14.9297 1126 85.7087 1328.51 474.777
1263 0 79.2308 14.0476 1113 88.115 1327.68 471.162
1264 0 80.1814 14.7416 1182 84.4941 1328.25 470.075
1265 0 84.2118 14.511 1222 84.9378 1328.77 468.833
1266 0 87.2148 12.7501 1112 86.696 1328.42 469.094
1267 0 90.148 13.8994 1253 86.3424 1328.24 465.082
1268 0 92.1583 14.3991 1327 86.3406 1328.2 462.778
1269 0 98.4365 14.0497 1383 86.4454 1328.79 462.393
1270 0 99.2203 15.0473 1493 85.9324 1327.73 462.735
1271 1 52.2384 11.4284 597 83.9447 1327.38 485.665
1272 0 52.0306 12.5887 655 89.3832 1327.07 486.418
1273 0 53.0941 11.3007 600 91.7983 1327.21 482.273
1274 0 55.082 12.9625 714 89.7661 1326.66 483.297
1275 0 60.0446 12.3575 742 89.4986 1326.77 484.042
1276 0 62.1391 13.9204 865 92.4 1327.76 488.184
1277 0 66.2508 15.4413 1023 88.8915 1327.95 485.894
1278 0 67.211 13.6585 918 92.3998 1327.8 482.728
1279 0 72.0892 14.6485 1056 89.625 1327.13 483.206
1280 0 71.1505 13.3801 952 93.437 1327.65 482.587
1281 0 76.2686 14.3834 1097 91.3701 1328.1 480.275
1282 0 79.2614 14.7991 1173 91.1091 1327.61 477.036
1283 0 81.1154 13.5856 1102 91.0408 1326.53 479.174
1284 0 84.1108 13.8389 1164 90.5833 1327.12 479.179
1285 0 88.1363 13.0366 1149 93.0661 1327.14 477.111
1286 1 46.0884 14.8628 685 89.0467 1328.58 497.546
1287 0 49.2463 12.5695 619 93.2779 1328.06 495.002
1288 0 49.1336 14.1044 693 91.7114 1328.71 495.456
1289 0 50.0774 13.2195 662 97.7447 1329.23 493.79
1290 0 54.0292 14.1775 766 95.6084 1328.73 493.843
1291 0 53.0601 14.0972 748 97.4465 1329.23 492.679
1292 0 55.0138 14.3782 791 96.4918 1329.47 491.411
1293 0 58.0947 14.8723 864 96.6609 1329.55 481.917
1294 0 58.1341 14.3806 836 97.0132 1329.83 491.475
1295 0 60.0948 14.4272 867 96.4752 1329.19 490.589
1296 0 61.1242 14.2824 873 96.858 1329.57 491.1
1297 0 63.0826 13.9341 879 98.0819 1329.68 488.578
1298 0 67.0871 15.4426 1036 93.7761 1329.92 487.046
1299 0 66.1371 14.6665 970 96.2979 1329.57 486.629
1300 0 68.0826 14.453 984 97.1006 1329.25 485.528
1301 0 70.134 14.4295 1012 97.5919 1328.31 485.543
1302 0 73.1661 14.9386 1093 95.0412 1329.6 483.683
1303 0 74.1727 15.1538 1124 95.3327 1329.37 482.182
1304 0 78.1219 14.4134 1126 96.6998 1328.26 481.843
1305 0 80.2296 14.633 1174 96.5835 1327.78 481.042
1306 0 83.1193 14.5574 1210 97.3215 1328.34 478.258
1307 1 40.0616 12.1063 485 93.4969 1328.78 500.701
1308 0 42.0681 13.5019 568 95.8451 1328.16 497.989
1309 0 43.1157 13.0811 564 95.3067 1328.56 496.824
1310 0 45.2159 12.9158 584 95.9503 1329.66 494.024
1311 0 45.0751 12.8009 577 96.9116 1329.57 496.083
1312 0 47.0975 13.3978 631 96.7591 1329.22 494.285
1313 0 47.2046 12.4988 590 98.6322 1329.07 494.12
1314 0 51.2988 14.5033 744 93.0645 1328.98 492.522
1315 0 52.2732 14.5008 758 92.839 1329.42 492.943
1316 0 52.1908 14.6194 763 93.0524 1328.95 492.374
1317 0 54.3596 14.3857 782 91.5332 1328.28 490.125
1318 0 56.3221 14.4526 814 91.1609 1328.62 487.119
1319 0 60.3188 13.9923 844 91.327 1328.85 487.959
1320 0 61.5659 14.651 902 92.2894 1327.41 486.213
1321 0 65.3345 15.5507 1016 89.7165 1327.43 486.239
1322 0 64.2962 14.4021 926 93.5583 1327.62 485.357
1323 0 66.6709 15.704 1047 92.0124 1326.41 484.866
1324 0 68.8089 16.4659 1133 90.9426 1327.1 484.209
1325 0 71.2294 16.0748 1145 90.6507 1327.68 482.548
1326 0 75.4746 18.0591 1363 87.1599 1327.81 482.943
1327 0 76.2385 15.5696 1187 92.6386 1327.87 480.426
1328 0 78.4883 16.2699 1277 91.3955 1327.23 479.306
1329 0 80.3983 16.2441 1306 91.9449 1327.04 477.44
1330 0 81.5229 15.235 1242 94.3736 1327.33 476.971
1331 0 87.3586 17.5026 1529 87.6926 1326.54 475.185
1332 0 89.4276 16.2142 1450 90.4476 1326.51 474.474
1333 0 91.6019 17.7289 1624 87.1952 1326.89 477.704
1334 0 95.5859 16.7493 1601 90.3404 1327.27 473.214
1335 0 99.2648 16.1991 1608 91.0249 1326.96 470.871
1336 0 102.258 17.1917 1758 87.6416 1327.11 470.685
1337 1 53.1232 14.9464 794 91.7128 1327.03 493.761
1338 0 53.1094 13.5381 719 97.3282 1326.93 491.663
1339 0 57.0908 14.2755 815 95.0405 1327 489.842
1340 0 58.1921 15.002 873 93.8007 1327.05 490.261
1341 0 62.4066 16.4566 1027 90.5521 1327.68 489.771
1342 0 65.2411 14.3468 936 95.9434 1327.24 488.927
1343 0 67.1742 14.6783 986 96.9706 1326.52 486.789
1344 0 68.0991 15.8886 1082 95.2357 1326.7 484.888
1345 0 72.1665 15.104 1090 95.8835 1326.55 484.252
1346 0 71.2983 15.5964 1112 95.0567 1326.2 482.983
1347 0 74.2813 15.0105 1115 94.5695 1326.69 480.497
1348 0 75.1837 16.2003 1218 94.1338 1326.99 481.388
1349 0 80.1902 15.3635 1232 94.2679 1326.45 479.925
1350 0 84.1618 17.5614 1478 90.4323 1326.55 478.419
1351 0 85.518 15.3067 1309 93.8839 1326.79 478.794
1352 0 87.3812 15.0719 1317 94.9749 1327.42 475.222
1353 0 90.3153 15.158 1369 93.6041 1327.56 475.463
1354 0 95.2374 15.9181 1516 88.4189 1327.29 473.342
1355 0 97.3774 17.0779 1663 86.2375 1327.21 471.065
1356 0 99.2252 15.4598 1534 89.8853 1327.2 470.126
1357 0 103.335 17.7867 1838 84.3602 1327.71 470.691
1358 0 108.196 15.6013 1688 87.9384 1327.84 465.693
1359 0 112.285 14.9352 1677 87.6524 1327.88 464.998
1360 1 54.1303 14.3173 775 89.6903 1327.7 491.254
1361 0 58.157 14.9423 869 86.8285 1326.9 489.946
1362 0 58.1951 13.5063 786 89.9224 1326.71 488.176
1363 0 63.0471 14.3543 905 86.9845 1327.15 488.352
1364 0 65.1952 14.6483 955 87.4869 1327.31 485.191
1365 0 67.0722 15.8933 1066 85.7392 1327.19 484.108
1366 0 71.1403 15.9544 1135 84.7753 1326.78 484.25
1367 0 72.1926 15.0846 1089 86.9192 1327.3 482.059
1368 0 75.1184 15.8017 1187 85.9301 1327.12 480.944
1369 0 78.1894 15.6415 1223 85.5151 1327.08 481.114
1370 0 80.1131 15.6529 1254 85.3923 1326.77 482.64
1371 0 82.1977 15.4749 1272 84.7091 1327.03 481.637
1372 0 84.3416 16.3146 1376 85.0501 1327.37 478.041
1373 0 88.0755 16.5653 1459 84.1768 1327.19 476.379
1374 0 90.2547 15.3011 1381 87.2795 1327.49 476.555
1375 0 95.1366 16.6918 1588 86.1644 1328.09 472.336
1376 0 96.239 16.1889 1558 87.9942 1327.75 469.445
1377 0 98.3653 14.5377 1430 89.4657 1327.88 470.899
1378 0 103.253 18.0333 1862 84.8996 1328.02 469.39
1379 0 106.244 16.8293 1788 87.3635 1328.12 466.64
1380 0 108.202 16.4969 1785 90.5591 1328.54 464.366
1381 0 112.328 17.0037 1910 89.8639 1328.3 462.354
1382 0 114.306 16.0796 1838 91.2688 1328.51 463.078
1383 0 118.297 17.4054 2059 89.6523 1328.49 457.404
1384 0 122.303 16.2301 1985 92.2247 1327.95 455.737
1385 0 126.199 16.1728 2041 92.6889 1328.01 454.522
1386 0 129.353 16.1497 2089 93.8296 1328.1 450.404
1387 0 135.309 17.9959 2435 90.2288 1327.5 450.733
1388 0 140.396 18.8183 2642 88.8017 1327.59 446.914
1389 0 146.339 17.0085 2489 90.9715 1327.6 448.561
1390 0 148.399 15.7346 2335 96.2039 1327.95 438.859
1391 0 154.285 16.5602 2555 95.0074 1328.7 439.269
1392 0 160.267 17.4834 2802 94.0592 1327.88 437.449
1393 0 165.529 17.133 2836 94.9027 1327.67 433.727
1394 0 170.485 17.4619 2977 94.3275 1327.34 430.217
1395 0 174.521 14.9896 2616 99.3092 1327.45 429.137
1396 0 183.602 17.2492 3167 94.5182 1327.68 425.578
1397 1 96.5266 12.3282 1190 99.0807 1328.24 463.781
1398 0 103.781 12.9311 1342 95.4471 1328.54 465.406
1399 0 106.46 14.2213 1514 91.8989 1328.46 463.607
1400 0 107.289 12.3871 1329 93.5786 1327.52 451.788
1401 0 112.4 12.4466 1399 93.9257 1327.66 448.894
1402 0 118.436 12.0825 1431 91.8952 1327.78 450.368
1403 0 121.485 13.8701 1685 87.054 1327.44 448.701
1404 0 126.454 13.7679 1741 86.9546 1327.98 444.087
1405 0 131.616 9.53533 1255 92.8462 1327.75 441.402
1406 0 140.577 13.4446 1890 88.1349 1327.65 440.94
1407 0 147.588 14.9538 2207 84.9628 1327.26 442.363
1408 0 150.413 14.5865 2194 86.0912 1326.65 435.218
1409 0 155.599 12.0116 1869 88.6843 1327.04 432.205
1410 0 157.72 8.87013 1399 94.0522 1327.19 424.069
1411 0 163.434 10.5792 1729 90.6698 1327.06 425.309
1412 0 167.698 10.5845 1775 91.7566 1326.74 420.43
1413 0 174.513 12.6409 2206 88.4157 1327.75 425.432
1414 0 179.839 11.7105 2106 91.0579 1327.34 420.441
1415 0 182.527 9.65339 1762 97.4654 1326.66 400.443
1416 1 104.285 3.5192 367 76.4169 1328.4 467.42
1417 0 106.305 6.10506 649 74.1633 1328.58 464.652
1418 0 111.292 9.80308 1091 71.3281 1328.02 456.871
1419 1 57.2527 5.57179 319 69.373 1329.36 487.633
1420 0 62.2087 10.8184 673 63.9569 1328.58 481.58
1421 0 61.3186 5.57743 342 69.3275 1329.17 486.845
1422 0 65.2258 6.88377 449 69.5546 1328.97 486.225
1423 0 62.2915 6.18062 385 69.7844 1328.36 483.561
1424 0 64.5415 9.54425 616 67.3149 1328.91 482.403
1425 0 66.2902 8.70416 577 68.1196 1328.92 479.969
1426 0 68.1514 11.8413 807 65.3036 1329.3 483.084
1427 0 59.2569 6.95278 412 69.8277 1330.86 489.779
1428 0 59.2569 6.81777 404 102.134 1332.89 489.735
1429 0 58.2365 8.60285 501 69.9661 1330.15 488.804
1430 1 78.2389 8.55073 669 71.9581 1328.44 477.117
1431 0 78.3245 7.23911 567 72.328 1328.75 482.381
1432 0 83.4421 8.01753 669 73.1883 1329.02 478.783
1433 0 83.2861 10.1698 847 72.8489 1328.47 472.489
1434 0 88.4191 7.91684 700 76.2629 1328.75 473.53
1435 0 90.4447 9.87344 893 74.1277 1328.11 470.592
1436 1 190.305 8.92777 1699 88.6327 1327.68 410.218
1437 0 198.24 9.71046 1925 87.2358 1328.08 410.726
1438 1 152.028 8.24848 1254 82.5845 1328.32 436.117
1439 1 55.4135 8.96894 497 73.493 1329.43 487.264
1440 0 55.2224 9.38025 518 73.3958 1329.75 486.502
1441 0 58.3547 12.8353 749 68.6969 1329.39 482.931
1442 0 60.2759 9.34038 563 73.2806 1329.36 484.988
1443 0 60.0845 6.64065 399 75.1579 1329.84 489.411
1444 0 58.3758 10.5866 618 74.1165 1329.48 485.134
1445 0 59.2882 8.19725 486 76.1605 1330.01 488.021
1446 0 59.2475 12.1018 717 73.0628 1329.54 484.039
1447 0 60.1747 8.32576 501 76.1996 1330.32 490.09
1448 0 60.1747 8.44209 508 111.049 1331.33 490.077
1449 0 67.2735 10.3161 694 75.5418 1330.05 483.762
1450 0 74.2036 7.91067 587 76.6508 1330.01 486.146
1451 0 75.3269 9.01404 679 76.9131 1329.7 481.539
1452 0 74.3664 11.1206 827 75.4946 1329.55 481.378
1453 0 76.3324 10.9783 838 75.6396 1328.47 478.013
1454 0 81.389 11.7092 953 74.83 1328.5 478.455
1455 0 83.3659 12.1393 1012 74.9862 1329.05 475.773
1456 0 85.3085 11.7222 1000 74.853 1328.54 477.306
1457 0 89.3057 11.4662 1024 74.916 1328.88 475.478
1458 0 89.701 10.5796 949 74.9968 1328.6 474.989
1459 0 93.3607 11.793 1101 73.8038 1328.61 470.061
1460 0 96.3253 12.5616 1210 72.924 1329.26 471.709
1461 1 50.017 13.1355 657 73.3851 1329.94 491.12
1462 0 52.1122 11.1298 580 75.8586 1329.59 491.009
1463 0 54.1103 13.2692 718 72.5 1329.82 491.086
1464 0 54.1188 13.3595 723 73.6902 1330.47 487.802
1465 0 55.2103 13.3127 735 74.7184 1330.54 486.581
1466 0 57.0592 13.9329 795 74.2981 1329.7 487.018
1467 0 58.0983 12.8575 747 76.7684 1330.42 488.26
1468 0 60.1595 13.3312 802 76.7369 1329.71 487.244
1469 0 60.3282 12.2331 738 79.1599 1330.49 488.24
1470 0 62.2553 14.4887 902 77.592 1329.64 486.788
1471 0 63.1652 14.4542 913 78.9211 1328.98 484.173
1472 0 66.2815 14.1216 936 79.3739 1328.34 484.939
1473 0 66.2312 14.389 953 77.148 1328.44 485.586
1474 0 69.1863 13.6732 946 77.408 1328.72 484.889
1475 0 69.1747 15.9596 1104 74.5598 1328.52 480.964
1476 0 70.4327 14.2973 1007 76.9374 1327.92 482.765
1477 0 71.174 13.0806 931 79.3351 1328.66 481.11
1478 0 75.2789 14.1607 1066 77.091 1328.38 483.145
1479 0 76.3791 13.577 1037 78.6924 1328.51 479.927
1480 0 79.5793 13.5462 1078 78.3701 1328.78 479.988
1481 0 81.4756 13.2432 1079 79.7822 1328.55 479.422
1482 0 84.3162 14.2084 1198 79.99 1327.2 472.736
1483 0 86.4745 14.1313 1222 81.1866 1327.27 473.526
1484 0 88.3323 14.9662 1322 81.7451 1326.97 468.809
1485 0 90.461 14.4593 1308 82.6154 1327.42 470.814
1486 0 94.5394 13.8778 1312 83.5069 1327.53 467.887
1487 0 96.4973 14.5807 1407 82.6041 1327.24 466.867
1488 0 97.5115 14.1009 1375 84.5549 1327.3 464.922
1489 0 103.536 14.874 1540 80.6429 1327.38 466.773
1490 0 106.411 17.7049 1884 76.785 1327.24 462.451
1491 0 108.743 14.6032 1588 80.0088 1327.3 462.688
1492 0 112.553 14.8997 1677 82.4222 1327.2 460.038
1493 1 60.1811 12.4458 749 88.6769 1327.36 487.068
1494 0 59.1546 12.3405 730 86.5466 1327.75 473.258
1495 0 59.1953 13.3963 793 84.4224 1326.9 474.507
1496 0 64.3071 12.6114 811 83.8693 1326.96 475.466
1497 0 63.3936 14.3074 907 82.4112 1327.19 474.989
1498 0 65.2352 12.7385 831 86.3911 1327.31 472.166
1499 0 69.2567 13.4283 930 84.0828 1327.35 472.708
1500 0 69.1085 11.9522 826 87.4697 1327.24 469.028
1501 0 75.2262 13.7984 1038 83.2736 1327.38 468.451
1502 0 77.3222 12.4673 964 85.1193 1327.39 469.128
1503 0 81.2279 12.9758 1054 83.9146 1326.7 468.161
1504 0 81.2062 13.398 1088 88.6838 1326.68 465.38
1505 0 85.2329 13.3869 1141 93.4566 1327.75 467.403
1506 0 84.286 14.0237 1182 96.824 1327.86 466.424
1507 0 87.3205 13.0439 1139 96.8411 1328 465.414
1508 0 91.2651 13.1814 1203 95.4123 1326.8 469.933
1509 0 88.2344 13.1468 1160 98.0026 1327.37 466.469
1510 0 94.3176 12.2565 1156 98.4611 1326.79 467.593
1511 0 97.2645 12.9544 1260 96.5627 1326.45 464.056
1512 0 97.2227 14.2045 1381 93.0471 1326.37 459.757
1513 0 99.1885 13.7617 1365 93.3092 1325.87 459.623
1514 0 108.219 12.2345 1324 93.9751 1326.36 443.667
1515 0 112.285 13.0026 1460 92.1863 1326.31 447.154
1516 0 116.341 12.2914 1430 92.3469 1327.27 448.2
1517 0 117.313 12.6584 1485 90.2754 1326.76 452.467
1518 0 116.129 12.3914 1439 91.1126 1326.64 448.272
1519 0 122.268 11.2785 1379 87.4003 1326.74 454.231
1520 0 129.24 13.146 1699 85.9317 1326.33 452.255
1521 1 64.0964 11.0927 711 83.7764 1327.69 485.411
1522 0 68.1423 12.9288 881 81.5051 1327.14 483.28
1523 0 69.1197 12.2541 847 82.8477 1327.5 483.081
1524 0 70.07 12.8443 900 83.7944 1327.11 481.701
1525 0 73.1132 13.2261 967 82.8738 1327.23 482.109
1526 0 73.2023 11.2838 826 87 1327.67 481.069
1527 0 74.0711 11.84 877 87.4265 1327.09 478.465
1528 0 78.2526 11.3479 888 88.0236 1327.58 480.62
1529 0 79.1119 12.2232 967 95.3682 1327.45 462.205
1530 0 80.1978 11.7584 943 95.7031 1327.11 463.571
1531 0 82.1382 12.2842 1009 93.0614 1326.9 465.538
1532 0 81.1783 12.2693 996 92.256 1326.71 469.052
1533 0 85.2021 12.7579 1087 90.758 1326.69 473.733
1534 0 85.1434 12.4613 1061 94.2375 1327.13 470.243
1535 0 89.1977 12.1079 1080 93.4815 1327.09 469.26
1536 0 89.2518 9.98299 891 98.0168 1326.68 466.055
1537 0 94.2256 11.6847 1101 94.9337 1327.14 470.091
1538 0 97.255 11.0843 1078 101.131 1327.27 468.445
1539 1 49.115 9.93587 488 92.9836 1326.44 481.436
1540 0 54.1632 10.2837 557 91.6032 1326.17 482.738
1541 0 55.1852 9.73086 537 90.0782 1326.63 488.238
1542 0 57.2016 9.96476 570 89.9439 1327.41 486.446
1543 0 56.0538 8.7416 490 92.7531 1326.89 484.739
1544 1 8.00098 7.37409 59 69.678 1327.61 515.237
1545 0 9.009 6.54901 59 70.4576 1326.68 515.356
1546 0 9.0022 3.4436 31 75.871 1326.81 514.839
1547 0 9.00078 6.33278 57 73.1754 1325.46 515.439
1548 0 11.0101 4.81376 53 72.9434 1325.25 515.264
1549 0 9.00074 3.33306 30 76.0667 1325.1 515.233
1550 0 10.0038 7.19729 72 72.7361 1325.62 513.431
1551 0 9.00094 6.77707 61 70.9016 1324.82 516.328
1552 1 79.1776 10.2175 809 88.848 1325.93 477.944
1553 0 82.3599 12.4332 1024 86.1719 1325.47 476.718
1554 0 85.2646 12.127 1034 86.3472 1325.17 476.162
1555 0 89.2244 13.0009 1160 85.7784 1324.53 474.774
1556 0 90.1525 11.891 1072 88.1185 1325.49 472.065
1557 0 95.3267 12.5463 1196 86.5234 1325.44 473.026
1558 1 53.0676 12.437 660 80.0576 1326.07 494.388
1559 0 56.2614 13.4195 755 77.0609 1325.47 493.758
1560 0 56.1101 11.6022 651 79.7634 1325.47 491.842
1561 0 57.1178 12.6931 725 79.6441 1325.76 491.403
1562 0 55.1938 11.3237 625 80.5488 1325.24 487.874
1563 0 60.1736 9.1236 549 80.5537 1325.44 491.78
1564 0 61.0917 11.982 732 79.6653 1325.79 486.645
1565 0 63.0789 10.0192 632 81.6835 1325.68 484.519
1566 0 64.0797 8.16171 523 83.0459 1325.72 486.878
1567 0 70.126 11.3225 794 79.2998 1325.49 482.108
1568 0 72.1521 13.4854 973 75.7482 1325.59 484.486
1569 0 72.1674 10.8082 780 79.9833 1326 482.532
1570 0 74.4863 10.8342 807 80.2565 1325.73 482.569
1571 0 77.2446 13.7744 1064 77.1297 1325.51 480.214
1572 0 80.2568 10.89 874 81.3238 1324.89 478.957
1573 0 82.2857 12.5538 1033 81.1675 1324.2 472.981
1574 0 84.5601 11.8496 1002 82.7056 1324.67 474.081
1575 0 87.3783 13.287 1161 80.6761 1325.38 474.049
1576 0 90.132 11.4499 1032 84.2888 1324.34 472.758
1577 1 48.1185 11.8873 572 76.5874 1324.74 492.504
1578 0 50.1732 10.2644 515 79.6 1325.02 491.425
1579 0 54.4746 12.9051 703 73.9075 1325.65 492.341
1580 0 52.3365 10.3943 544 77.375 1325.56 493.384
1581 0 55.5357 11.0019 611 77.964 1325.22 490.525
1582 0 57.1252 12.2888 702 76.0926 1326.03 489.709
1583 0 56.22 11.6151 653 77.6355 1325.76 488.436
1584 0 58.2508 10.3861 605 79.9207 1326.25 482.299
1585 0 61.1951 10.8505 664 81.5211 1326.3 486.128
1586 0 64.2768 12.0261 773 80.0556 1326.19 485.499
1587 0 67.4376 10.8841 734 83.6471 1326.07 479.914
1588 0 69.0426 11.9347 824 82.1141 1326.58 480.436
1589 0 72.2254 10.7857 779 83.1271 1326.2 480.501
1590 0 75.2522 11.4548 862 83.4165 1326.39 477.624
1591 0 78.2253 11.6075 908 85.1619 1326.43 474.413
1592 0 78.2466 11.2848 883 86.1563 1325.85 472.821
1593 0 83.2347 13.6241 1134 84.1226 1325.54 472.564
1594 0 86.1854 11.6145 1001 87.1518 1325.72 473.912
1595 0 91.179 13.468 1228 84.066 1325.67 472.616
1596 0 93.1565 11.6041 1081 88.6614 1325.48 466.464
1597 0 95.4422 11.5253 1100 90.1809 1326 463.89
1598 1 49.1634 11.8584 583 80.7084 1325.99 489.317
1599 0 49.2245 11.5187 567 87.381 1325.02 488.432
1600 0 51.1 11.8395 605 89.6099 1324.79 487.23
1601 0 51.2307 11.6336 596 90.7752 1324.5 487.196
1602 0 55.1977 11.2505 621 90.2786 1324.4 486.113
1603 0 55.2267 13.5442 748 87.2286 1324.6 486.207
1604 0 57.1309 13.2678 758 87.6069 1325.41 484.88
1605 0 57.1376 12.6537 723 89.5961 1325.71 484.019
1606 0 60.121 11.5434 694 89.8919 1325.9 484.533
1607 0 60.1311 9.84515 592 92.8328 1325.77 481.453
1608 0 62.1758 10.6151 660 92.1333 1325.72 479.72
1609 0 66.1949 11.6625 772 90.3601 1325.83 478.527
1610 0 68.0909 12.1455 827 88.9867 1326.17 479.145
1611 0 69.1501 11.9595 827 89.4039 1325.89 478.33
1612 0 74.0716 12.0019 889 96.8335 1325.49 478.362
1613 0 76.1568 11.8177 900 89.2411 1325.98 477.951
1614 0 78.0558 11.8249 923 89.6685 1325.91 475.221
1615 0 80.3127 11.0692 889 90.7739 1325.14 475.339
1616 0 85.3102 14.078 1201 86.7669 1325.28 471.074
1617 0 86.0923 12.022 1035 90.0184 1325.46 467.933
1618 0 89.08 9.96857 888 93.0687 1325.06 464.886
1619 1 45.0732 10.3387 466 79.6094 1325.49 490.268
1620 0 48.1886 11.4758 553 77.3255 1326.12 487.854
1621 0 51.2188 11.8511 607 76.8715 1325.6 488.68
1622 0 51.0623 12.0833 617 83.0502 1324.6 489.084
1623 0 53.1658 11.3419 603 85.7745 1325.42 486.091
1624 0 51.1033 11.3496 580 87.319 1325.41 484.395
1625 0 56.1882 12.7073 714 83.7465 1325.58 485.055
1626 0 57.1412 11.0953 634 86.0647 1325.21 485.235
1627 0 58.0658 11.952 694 86.0922 1325.91 480.85
1628 0 60.1668 11.8005 710 85.6845 1325.76 482.465
1629 0 62.1368 11.2816 701 87.5007 1325.72 478.151
1630 0 65.188 11.6586 760 86.5026 1325.59 480.324
1631 0 67.1796 11.9828 805 86.0398 1325.02 477.681
1632 0 69.24 11.5251 798 87.3408 1325.27 476.65
1633 0 73.1764 10.7002 783 87.1047 1325.1 476.816
1634 0 75.3328 12.6505 953 83.5289 1325.39 474.785
1635 0 79.2923 13.3178 1056 79.5938 1325.42 476.744
1636 0 81.3367 12.0733 982 83.3462 1325.46 475.198
1637 0 83.3323 11.5201 960 85.2896 1325.45 473.411
1638 0 86.3016 12.6649 1093 84.9973 1324.58 472.994
1639 0 90.4176 12.3759 1119 85.479 1324.21 470.553
1640 0 93.2393 12.7414 1188 84.4411 1324.35 470.112
1641 0 97.1479 14.3698 1396 83.9628 1324.28 466.872
1642 1 49.0912 12.9758 637 77.6672 1324.68 492.848
1643 0 50.0775 12.5206 627 77.8947 1324.72 490.073
1644 0 50.076 11.2229 562 79.411 1325.81 487.76
1645 0 53.122 12.9137 686 75.7915 1325.33 486.15
1646 0 55.1532 12.293 678 76.6991 1325.56 486.127
1647 0 57.3495 12.4325 713 75.8654 1325.09 487.088
1648 0 60.2315 12.6014 759 74.9302 1325.08 484.837
1649 0 60.289 12.3571 745 75.4403 1324.76 485.286
1650 0 64.438 13.2375 853 73.8452 1324.92 485.102
1651 0 65.1717 11.9991 782 76.078 1325.29 482.162
1652 0 68.2136 13.4137 915 75.2688 1325.21 482.756
1653 0 72.2514 13.4392 971 75.6416 1324.88 480.055
1654 0 72.1209 11.9244 860 78.7698 1325.12 480.336
1655 0 77.245 14.4993 1120 77.0661 1324.77 479.746
1656 0 78.5851 13.0559 1026 78.3899 1325.33 476.862
1657 0 82.5566 12.7185 1050 77.8943 1325.04 476.421
1658 0 83.5963 11.0412 923 80.4453 1324.21 473.22
1659 0 87.3769 12.2916 1074 80.1406 1325.17 474.92
1660 0 91.601 13.799 1264 79.6068 1324.96 471.603
1661 0 96.6427 12.9549 1252 80.7236 1324.93 471.481
1662 0 100.822 13.2709 1338 80.6091 1323.75 470.881
1663 0 102.608 15.4276 1583 76.7397 1325.31 468.356
1664 0 106.644 13.8874 1481 78.553 1325.92 467.198
1665 0 110.801 13.3212 1476 79.2331 1325.47 458.168
1666 0 113.326 14.101 1598 77.3867 1326.02 466.461
1667 0 117.723 16.1226 1898 74.6143 1325.94 463.779
1668 0 119.461 13.1089 1566 79.0977 1326.02 463.156
1669 0 122.567 16.0402 1966 76.9034 1326.27 458.691
1670 1 61.4976 11.0899 682 81.6716 1326.13 486.872
1671 0 66.4189 13.5805 902 78.7029 1326.16 487.741
1672 0 65.3323 11.4951 751 82.0719 1325.89 487.961
1673 0 68.2722 12.4941 853 80.4537 1326.3 487.495
1674 0 69.1727 11.1749 773 82.3066 1326.35 485.821
1675 0 71.3334 13.2476 945 79.8444 1325.59 482.889
1676 0 73.3873 12.9723 952 81.1113 1325.82 479.26
1677 0 76.3198 11.5828 884 83.819 1325.7 481.538
1678 0 81.3977 11.8185 962 83.6019 1326.05 481.192
1679 0 83.5897 13.8294 1156 81.154 1325.32 477.716
1680 0 82.4625 11.7751 971 84.9217 1325.29 478.061
1681 0 83.5035 12.4186 1037 83.6364 1325 477.331
1682 0 91.475 12.4515 1139 81.9342 1325.73 476.87
1683 0 95.724 13.8523 1326 81.0709 1325.86 474.646
1684 0 97.5275 14.724 1436 80.0668 1325.86 472.345
1685 1 50.2089 11.5717 581 84.3907 1326.26 493.991
1686 0 54.1646 13.5144 732 79.2555 1325.82 494.578
1687 0 54.3859 12.6687 689 81.1001 1325.71 494.199
1688 0 57.1914 12.5718 719 83.2086 1325.94 492.841
1689 0 58.1441 14.722 856 80.9708 1325.39 490.111
1690 0 60.1082 14.9231 897 80.4348 1325.89 489.356
1691 0 62.1242 13.6501 848 83.0495 1326.44 490.126
1692 0 65.1552 13.3527 870 83.9598 1326.17 482.508
1693 0 65.1541 13.7674 897 82.8562 1326.26 488.736
1694 0 70.1539 14.8388 1041 80.8021 1325.84 487.914
1695 0 70.2491 15.203 1068 82.1236 1325.21 483.065
1696 0 73.1952 14.1812 1038 83.8218 1325.98 484.251
1697 0 76.3164 15.7371 1201 81.1016 1325.14 482.959
1698 0 77.1795 15.4704 1194 83.2563 1325.77 480.199
1699 0 77.2606 13.9269 1076 86.487 1326.35 482.142
1700 0 80.371 15.3414 1233 84.6967 1326.35 479.554
1701 0 83.3426 15.8502 1321 84.5382 1325.63 474.093
1702 0 85.4451 14.126 1207 89.0845 1325.35 476.507
1703 0 88.3556 14.6114 1291 79.5035 1325.65 473.47
1704 0 94.4528 14.5364 1373 89.4516 1325.26 474.198
1705 0 95.2933 14.1668 1350 86.8607 1325.23 473.011
1706 0 99.3273 14.8398 1474 86.3236 1324.84 467.621