time division length width area intensity CMx CMy
0 0 115.161 13.6243 1569 105.17 1028.04 438.372
1 1 61.2455 11.511 705 102.61 1027.78 465.379
2 0 62.1846 11.4176 710 98.4141 1028.85 463.175
3 0 61.1737 11.5899 709 100.621 1028.38 465.398
4 0 64.0755 11.5957 743 101.227 1028.34 463.51
5 0 65.1617 12.4613 812 99.9778 1028.69 461.919
6 0 68.1259 11.5228 785 100.07 1028.29 462.343
7 0 69.173 12.1146 838 100.061 1029.19 461.567
8 0 72.0824 12.2915 886 99.5023 1028.87 462.059
9 0 76.1581 12.0014 914 99.5077 1028.76 459.85
10 0 78.2523 13.8143 1081 96.5809 1027.64 457.645
11 0 79.101 13.6787 1082 98.3845 1027.82 457.248
12 0 81.1084 11.984 972 102.267 1029.75 456.225
13 0 82.1621 11.3921 936 101.115 1029.91 457.436
14 0 85.2126 11.1369 949 101.87 1029.74 456.453
15 0 89.1636 13.0883 1167 98.3008 1029.54 453.455
16 0 89.1497 11.3966 1016 101.896 1029.78 452.394
17 0 97.099 13.5429 1315 97.1544 1029.57 447.685
18 0 97.1774 13.2541 1288 99.5885 1028.99 447.929
19 0 99.231 12.1736 1208 101.709 1029.33 445.777
20 0 102.108 13.0647 1334 97.7151 1028.73 440.778
21 1 58.2513 10.7637 627 100.802 1028.58 464.544
22 0 62.1486 13.3551 830 96.0735 1028.23 463.557
23 0 62.0784 11.2438 698 99.4212 1028.04 464.162
24 0 65.1533 12.0025 782 97.8159 1028.57 461.983
25 0 65.1425 11.4672 747 99.8568 1028.59 461.529
26 0 70.0875 12.142 851 97.9095 1029.08 460.328
27 0 69.1241 12.0797 835 101.48 1030.04 460.811
28 0 74.1851 11.4174 847 99.9669 1029.36 462.057
29 0 75.1842 11.2923 849 102.781 1029.48 457.651
30 0 78.1733 12.1909 953 99.9349 1029.5 455.981
31 0 82.1189 13.5048 1109 96.9675 1029.24 456.023
32 0 84.0791 13.297 1118 98.5152 1029.21 453.527
33 0 86.0586 11.7362 1010 101.273 1029.91 452.42
34 0 89.1932 11.3125 1009 102.957 1029.73 452.851
35 0 98.1518 15.5473 1526 93.5092 1028.81 441.371
36 0 98.1566 13.7026 1345 98.8052 1028.81 447.923
37 0 98.2518 12.2441 1203 103.5 1028.19 444.775
38 1 54.1165 11.6046 628 101.772 1028.35 466.161
39 0 57.1125 12.1164 692 101.658 1028.57 465.21
40 0 58.0515 11.6104 674 101.516 1028.29 463.858
41 0 62.0457 14.1509 878 96.0057 1028.57 464.272
42 0 62.037 11.5254 715 101.973 1029.17 464.643
43 0 64.0808 13.3113 853 99.1383 1029.74 461.796
44 0 61.0788 11.4279 698 106.202 1030.54 463.62
45 0 67.1231 11.9929 805 104.888 1030.08 461.057
46 0 68.0775 12.5151 852 105.296 1029.59 457.763
47 0 71.172 13.0248 927 102.926 1029.67 458.004
48 0 73.1726 13.2153 967 102.81 1030.43 456.631
49 0 75.1009 12.5964 946 105.588 1029.43 455.159
50 0 78.0876 12.7805 998 104.927 1029.42 456.229
51 0 79.061 12.3322 975 109.384 1029.4 454.449
52 0 83.104 13.814 1148 105.848 1029.61 453.75
53 0 84.1327 12.6705 1066 108.626 1029.96 455.459
54 0 88.1552 13.5443 1194 107.39 1029.39 452.117
55 0 89.1192 11.3892 1015 112.698 1029.77 450.062
56 0 94.1456 14.8812 1401 104.39 1029.71 447.821
57 0 95.0662 13.2118 1256 110.257 1029.41 446.686
58 1 54.0296 11.5492 624 112.675 1030.09 464.05
59 0 56.0405 10.3853 582 111.729 1029.28 461.797
60 0 59.1127 10.9114 645 106.757 1029.79 465.746
61 0 60.0811 11.7009 703 105.889 1029.28 465.337
62 0 65.3023 13.6136 889 101.294 1029.66 461.205
63 0 65.0687 12.433 809 104.604 1029.51 462.581
64 0 69.1587 12.4496 861 103.508 1029.7 458.148
65 0 71.1124 13.3169 947 99.5755 1029.6 458.57
66 0 73.149 12.8368 939 101.184 1029.31 458.365
67 0 76.1155 12.3628 941 102.677 1029.38 457.189
68 0 79.2124 13.7857 1092 100.995 1029.43 454.305
69 0 81.1602 13.2824 1078 103.229 1029.78 452.878
70 0 79.1471 12.0661 955 105.695 1029.75 449.839
71 1 148.41 10.2756 1525 80.7705 1029.06 425.807
72 1 88.218 12.7865 1128 104.383 1029.72 453.072
73 0 92.1744 11.4891 1059 108.378 1029.4 448.963
74 0 101.241 14.1148 1429 101.635 1029.46 443.666
75 0 102.213 14.0883 1440 104.728 1029.4 443.494
76 1 54.0394 11.4546 619 109.174 1028.45 466.788
77 0 56.0791 12.3932 695 106.529 1029.26 466.542
78 0 53.0313 11.0689 587 117.549 1029.79 464.77
79 0 55.0484 10.6452 586 110.648 1029.23 468.283
80 0 59.0408 11.9917 708 108.619 1029.31 466.719
81 0 60.074 12.5845 756 107.769 1029.33 465.499
82 0 64.0365 12.1962 781 105.723 1029.29 462.656
83 0 65.0477 12.0834 786 109.506 1029.19 463.837
84 0 67.0928 12.6839 851 109.208 1028.74 461.84
85 0 66.0427 11.6288 768 112.109 1030.06 463.02
86 0 71.1693 12.7021 904 109.882 1029.26 460.176
87 0 73.0509 12.0464 880 111.728 1029.21 458.497
88 0 76.0597 13.0687 994 110.377 1028.58 458.172
89 0 78.0847 13.242 1034 110.761 1029.08 457.349
90 0 79.1447 11.9781 948 114.944 1029.54 457.024
91 0 83.0905 13.1664 1094 112.928 1029.17 455.591
92 0 84.108 12.4483 1047 115.468 1029.07 452.202
93 0 91.057 14.4854 1319 108.632 1028.78 447.786
94 0 90.1735 12.4538 1123 115.071 1028.62 449.139
95 0 94.077 13.7547 1294 112.172 1028.29 448.299
96 0 96.1165 12.6513 1216 114.318 1028.94 448.114
97 0 99.1003 11.4329 1133 115.8 1029.42 443.953
98 0 104.088 12.6335 1315 112.795 1028.82 442.011
99 0 113.216 15.9783 1809 104.794 1029.69 434.285
100 0 112.209 13.6086 1527 98.8494 1028.72 438.392
101 0 116.167 12.1894 1416 103.492 1028.98 439.284
102 1 65.0846 9.63361 627 100.295 1028.19 462.957
103 0 66.0961 10.2275 676 99.9438 1028.7 463.151
104 0 71.1166 12.6693 901 96.3152 1028.73 454.219
105 0 72.1195 11.9108 859 98.4657 1028.04 455.111
106 0 75.2083 12.2859 924 98.026 1028.15 456.885
107 0 77.1342 13.846 1068 94.78 1028.65 457.188
108 0 81.0671 13.2729 1076 104.65 1027.74 454.132
109 0 82.1072 11.4119 937 111.382 1028.7 452.004
110 0 88.168 14.9601 1319 99.508 1028.52 449.745
111 0 88.1147 12.3929 1092 109.034 1029.46 451.561
112 0 89.0781 12.0119 1070 111.16 1029.23 449.145
113 0 94.1082 12.4963 1176 109.287 1028.4 450.75
114 0 92.1175 12.8423 1183 107.02 1028.47 448.768
115 1 104.183 14.129 1472 96.0183 1028.59 442.692
116 0 108.277 15.9867 1731 91.8076 1029.15 438.516
117 0 107.147 14.7555 1581 95.4503 1028.66 438.84
118 0 112.212 16.5848 1861 91.7953 1028.23 435.521
119 0 119.187 16.6041 1979 89.7251 1027.95 428.145
120 0 120.255 17.2218 2071 93.4288 1028.2 423.204
121 1 63.1083 10.4265 658 102.661 1028 462.562
122 0 67.1073 12.1 812 100.283 1027.7 460.85
123 0 70.0786 12.7999 897 99.2776 1028.33 460.065
124 0 71.0553 11.3433 806 99.0459 1028.39 460.712
125 0 73.1268 11.145 815 101.659 1027.36 457.303
126 0 75.1327 12.1785 915 100.225 1027.69 458.204
127 0 77.0926 13.7108 1057 98.3595 1027.6 455.064
128 0 82.1155 12.6286 1037 97.3905 1027.96 457.685
129 0 80.1278 11.4817 920 102.425 1027.4 457.005
130 0 84.114 12.7327 1071 100.033 1027.85 452.988
131 0 87.2045 11.6622 1017 101.352 1028.99 452.469
132 0 90.1296 13.0701 1178 99.6409 1028.27 447.183
133 0 97.1745 12.812 1245 99.3968 1028.43 442.855
134 0 98.1367 12.5539 1232 100.045 1028.95 445.622
135 0 100.151 12.5411 1256 100.455 1028.8 446.36
136 0 104.104 11.9112 1240 103.156 1028.96 441.761
137 0 106.121 13.3055 1412 101.267 1028.52 441.277
138 0 110.23 13.0545 1439 101.924 1029.41 440.052
139 1 62.2421 10.7323 668 99.3967 1028.98 461.295
140 0 63.1086 9.28558 586 97.6587 1028.84 463.568
141 0 66.0396 11.16 737 94.9077 1028.84 460.547
142 0 69.1119 11.2137 775 93.9329 1028.73 460.765
143 0 69.0471 11.3546 784 95.0574 1029.3 460.047
144 0 72.0687 12.5575 905 93.2818 1029.6 459.969
145 0 74.105 12.3743 917 94.2694 1029.62 455.89
146 0 78.0665 12.0282 939 95.656 1029.57 457.229
147 0 76.0931 11.0917 844 99.4502 1028.68 454.121
148 0 80.1221 11.3452 909 98.2563 1028.41 454.828
149 0 82.1209 10.996 903 98.485 1028.87 455.434
150 0 87.1151 12.1449 1058 96.3422 1028.94 453.938
151 0 90.1617 12.2558 1105 97.1538 1028.42 448.934
152 0 91.1635 11.7371 1070 98.8551 1028.14 449.911
153 0 94.1126 11.7519 1106 99.4195 1028.8 448.204
154 0 97.1557 10.8794 1057 100.449 1028.56 447.859
155 0 99.2575 10.6994 1062 101.983 1028.4 445.143
156 0 106.234 12.0677 1282 101.1 1027.42 440.885
157 1 61.0856 10.5426 644 100.879 1028.57 463.669
158 0 61.0958 11.572 707 98.8925 1028.28 461.446
159 0 66.176 11.1219 736 90.3397 1028.95 463.14
160 0 66.2023 11.48 760 91.9882 1028.56 462.267
161 0 69.2321 11.8731 822 91.5937 1028.51 460.011
162 0 70.1144 12.3085 863 93.6165 1027.9 458.377
163 0 71.0496 12.1605 864 95.1296 1028.03 458.257
164 0 75.364 13.0434 983 92.2533 1027.55 456.247
165 0 77.1404 12.0171 927 94.3366 1026.91 458.753
166 0 78.2054 12.9786 1015 94.2591 1027.8 455.964
167 0 79.0967 10.6958 846 100.106 1027.56 453.89
168 0 80.1036 10.424 835 100.558 1027.73 457.895
169 0 84.1019 11.498 967 99.5222 1027.85 454.207
170 0 87.1381 11.4301 996 100.686 1027.23 452.873
171 0 93.1737 13.1904 1229 96.9284 1027.3 449.869
172 0 95.1626 12.4314 1183 98.7202 1027.7 450.51
173 0 100.15 14.2786 1430 95.2385 1027.39 445.153
174 0 99.2825 11.6234 1154 103.169 1027.33 443.101
175 0 102.156 12.2068 1247 101.368 1028.21 445.077
176 1 57.0943 12.2254 698 103.673 1028.31 466.16
177 0 60.0816 12.7993 769 100.385 1027.92 464.9
178 0 61.0831 13.146 803 99.1357 1027.96 465.94
179 0 63.1255 12.293 776 100.715 1028.01 464.93
180 0 64.0629 12.4721 799 101.118 1028.25 462.12
181 0 66.0992 13.2982 879 98.1866 1028.46 462.725
182 0 66.2602 12.6773 840 101.757 1028.09 462.405
184 0 71.2191 13.999 997 97.652 1027.08 460.084
185 0 73.052 11.5123 841 102.625 1027.53 461.985
186 0 75.0504 12.5915 945 100.511 1027.15 458.443
187 0 77.144 12.9757 1001 98.976 1028.27 455.713
188 0 79.128 12.8905 1020 99.7088 1027.56 455.678
189 0 82.1427 14.0365 1153 97.8005 1027.69 453.283
190 1 50.0863 7.04784 353 103.547 1028.97 473.521
191 0 50.1421 8.795 441 102.376 1029.02 471.05
192 0 50.2141 8.94171 449 102.227 1028.93 471.822
193 0 51.0855 10.2965 526 101.696 1028.87 469.232
194 0 51.1146 12.3644 632 98.5759 1028.76 468.174
195 0 53.1568 11.1933 595 99.6891 1028.88 468.961
196 0 53.1929 11.1669 594 102.185 1028.61 466.678
197 0 56.096 12.1399 681 101.022 1029.14 466.571
198 0 59.1155 12.095 715 99.3259 1028.51 465.143
199 0 59.1071 12.3674 731 99.4596 1028.91 464.298
200 0 63.1873 13.1672 832 98.0721 1028.83 463.272
201 0 64.1131 13.6166 873 97.5544 1026.82 460.889
202 0 67.1768 12.9955 873 97.7743 1026.69 461.501
203 0 67.259 13.2919 894 97.8043 1027.3 460.8
204 0 68.0303 11.6272 791 100.279 1027.49 461.717
205 0 71.0837 12.1688 865 99.8486 1026.72 459.649
206 0 74.0624 11.8279 876 99.1998 1027.2 458.947
207 0 76.0884 11.5392 878 98.3941 1026.76 459.588
208 0 78.1857 10.5006 821 100.842 1026.79 457.531
209 0 80.2438 9.98209 801 100.675 1027.73 458.501
210 0 78.1149 7.36095 575 105.332 1026.96 457.798
211 0 87.2236 12.1756 1062 100.967 1027.96 452.699
212 0 89.1503 11.1385 993 101.267 1028.05 453.509
213 0 94.2129 14.4354 1360 96.1743 1027.15 446.104
214 0 95.2469 12.3574 1177 100.683 1027.64 449.056
215 0 96.1795 11.1978 1077 99.9749 1028.67 447.073
216 0 105.179 13.2727 1396 97.5165 1028.97 439.617
217 0 108.302 14.0164 1518 95.9499 1028.39 438.993
218 1 54.2188 11.6196 630 98.1603 1027.94 459.232
219 0 58.1178 12.6811 737 96.0122 1026.9 457.478
220 0 58.1983 11.1 646 97.8746 1027.6 453.398
221 0 64.2789 11.3879 732 97.9139 1027.91 454.63
222 0 68.2127 12.0212 820 98.6317 1027.75 456.024
223 0 69.1532 11.4239 790 98.0861 1028.1 458.484
224 0 74.2725 13.5447 1006 93.9821 1028.01 455.061
225 0 75.1236 12.2598 921 96.9305 1028.45 452.885
226 0 80.2124 13.3894 1074 93.8845 1028.07 452.76
227 0 80.2167 12.5909 1010 96.5851 1026.96 451.742
228 0 84.1778 12.6161 1062 96.5358 1027.35 450.939
229 0 84.1297 11.7319 987 99.1429 1027.44 449.333
230 0 92.2928 14.8441 1370 91.2883 1027.57 445.564
231 0 91.1115 12.9731 1182 96.3274 1027.47 446.709
232 0 92.1327 13.9039 1281 95.6136 1027.27 441.728
233 0 96.2007 13.1704 1267 97.2857 1027.61 443.257
234 0 96.229 12.1793 1172 100.445 1027.96 437.452
235 0 101.186 11.5727 1171 100.193 1027.8 440.333
236 0 103.284 11.7927 1218 101.438 1027.37 433.019
237 0 107.198 12.4816 1338 100.564 1027.39 432.724
238 1 59.0974 11.608 686 99.7828 1027.51 456.262
239 0 67.1545 12.3744 831 96.2359 1027.69 461.961
240 0 68.3664 13.3545 913 94.6692 1027.5 459.894
241 0 70.1191 11.9083 835 97.5868 1027.64 461.201
242 0 73.0942 12.9012 943 95.4019 1027.45 458.587
243 0 73.2783 12.6368 926 96.987 1027.49 457.044
244 0 78.216 12.7595 998 96.6924 1027.84 454.368
245 0 82.231 13.8026 1135 93.9859 1027.94 452.796
246 0 80.2105 12.8412 1030 97.1408 1027.47 453.663
247 0 83.3582 13.0881 1091 97.2071 1027.7 450.121
248 0 84.3494 13.1477 1109 98.5059 1028.04 448.907
249 0 88.1768 13.1441 1159 98.5669 1027.7 447.874
250 0 88.1167 13.3005 1172 97.5435 1027.71 443.87
251 0 91.3034 13.7563 1256 98.3002 1027.94 442.332
252 0 91.1954 13.0599 1191 102.086 1027.46 436.882
253 0 96.1518 13.3019 1279 100.776 1028.62 441.094
254 0 102.095 13.2328 1351 101.789 1028.09 438.098
255 0 103.232 13.3388 1377 104.086 1027.45 434.601
256 0 105.24 12.9894 1367 104.986 1027.96 433.015
257 0 109.183 12.328 1346 107.968 1027.48 428.193
258 0 113.318 11.128 1261 110.091 1026.68 429.971
259 0 119.262 13.1307 1566 105.897 1027.16 428.952
260 0 124.237 14.4885 1800 103.396 1027.48 424.55
261 0 125.198 12.7159 1592 109.147 1027.92 418.881
262 0 130.439 12.9639 1691 108.771 1027.56 418.369
263 0 137.345 12.4868 1715 108.486 1026.74 420.251
264 0 143.438 14.4871 2078 105.719 1027.24 418.423
265 0 147.576 13.0509 1926 109.504 1027.34 416.015
266 0 150.237 13.319 2001 109.141 1027.55 412.748
267 0 155.61 13.5916 2115 108.968 1027.79 412.787
268 0 164.396 14.4712 2379 105.14 1027.34 404.005
269 0 167.265 14.3365 2398 105.847 1027.65 401.789
270 0 176.587 13.9025 2455 106.815 1027.58 399.464
271 0 179.231 13.0111 2332 109.505 1027.59 394.415
272 0 188.295 14.1374 2662 105.99 1027.22 396.017
273 0 195.399 13.429 2624 108.918 1027.51 389.98
274 0 200.483 13.6271 2732 108.833 1027.77 384.094
275 0 206.398 14.0651 2903 107.944 1027.42 380.655
276 0 215.569 13.3739 2883 109.21 1027.63 382.46
277 1 161.268 12.2343 1973 113.503 1028.86 408.184
278 0 165.438 13.1227 2171 111.883 1027.6 403.265
279 0 169.369 13.4677 2281 111.904 1027.66 403.969
280 0 175.39 12.8342 2251 112.799 1028.63 400.531
281 0 183.291 12.6793 2324 111.839 1027.68 398.005
282 0 189.358 14.8449 2811 106.492 1027.77 393.627
283 0 197.33 14.0577 2774 107.07 1028.41 387.04
284 0 201.229 13.83 2783 107.565 1028.12 386.527
285 0 210.384 13.7511 2893 109.077 1028.13 376.349
286 0 219.436 14.3595 3151 107.98 1027.35 372.423
287 0 228.5 13.7243 3136 109.879 1027.32 371.313
288 0 234.524 12.1267 2844 112.743 1028.33 370.748
289 1 176.192 13.3377 2350 105.977 1028.02 396.767
290 0 178.243 12.3876 2208 107.792 1027.79 393.799
291 0 185.184 13.2895 2461 110.199 1028.18 386.483
292 0 190.362 12.1032 2304 109.776 1027.9 387.672
293 0 199.476 11.8761 2369 109.54 1028.3 386.577
294 0 209.353 13.9716 2925 104.679 1028.12 378.593
295 1 69.1902 10.9119 755 100.103 1027.69 447.767
296 0 74.1862 11.3633 843 97.8837 1026.41 444.839
297 0 70.0639 12.3601 866 98.3568 1026.73 443.531
298 0 77.0562 12.3157 949 96.0727 1026.35 447.747
299 0 77.1119 11.3082 872 94.9564 1027.41 443.545
300 0 78.097 12.2284 955 93.488 1028.72 444.094
301 0 81.2243 12.1639 988 95.4018 1028.03 441.555
302 0 89.0806 12.1463 1082 93.4584 1028.51 443.579
303 0 97.0718 13.7733 1337 90.1915 1027.72 438.079
304 0 94.1846 13.1763 1241 92.8243 1027.87 436.709
305 0 98.191 11.885 1167 96.2117 1028.13 434.263
306 0 99.1743 11.2126 1112 99.9595 1027.22 430.993
307 1 55.0665 9.47945 522 99.1054 1027.64 455.565
308 0 61.0732 9.70967 593 95.8179 1027.88 455.29
309 0 59.068 11.3598 671 87.4888 1028.57 450.218
310 0 65.1122 11.6568 759 86.9934 1028.19 450.003
311 0 66.0936 8.8057 582 93.2818 1027.93 449.141
312 0 72.1062 11.0809 799 97.7247 1028.02 457.239
313 0 75.2088 11.9401 898 96.8931 1027.69 456.682
314 0 78.1898 12.8533 1005 95.6915 1028.22 454.054
315 0 79.082 11.8358 936 96.5278 1027.85 449.583
316 0 81.0887 12.2952 997 95.1414 1028.18 453.91
317 0 84.1385 12.5032 1052 95.7376 1027.88 451.534
318 0 85.1738 13.0439 1111 96.2376 1027.94 450.221
319 0 86.1144 11.7866 1015 94.5034 1027.36 447.255
320 0 90.1194 12.3947 1117 99.4557 1027.39 447.907
321 0 93.0695 12.12 1128 97.3564 1028.04 449.225
322 0 97.2194 12.0038 1167 97.1971 1027.84 450.231
323 0 103.106 14.102 1454 87.6733 1027.21 438.856
324 0 102.248 12.0589 1233 93.4193 1027.57 438.167
325 0 107.034 12.4167 1329 98.1603 1027.28 441.275
326 0 111.129 13.4258 1492 92.5168 1027.02 434.231
327 0 115.279 12.0143 1385 102.731 1029.2 436.508
328 0 117.179 12.2206 1432 97.7249 1028.46 431.256
329 1 69.0992 9.78303 676 83.8994 1029.41 460.515
330 0 70.087 11.714 821 82.7661 1028.06 458.587
331 0 72.1655 11.0441 797 86.7215 1029.26 458.567
332 0 75.2105 13.3891 1007 82.6236 1029.39 458.863
333 0 79.1472 12.3315 976 94.5891 1028.86 456.274
334 0 79.2009 10.2398 811 98.1023 1028.78 457.911
335 0 81.2019 9.8643 801 100.114 1028.44 452.331
336 0 86.2112 13.9193 1200 86.3825 1028.71 449.058
337 0 83.1588 9.81255 816 89.6863 1028.69 445.352
338 0 86.1626 10.2829 886 89.0124 1029.15 449.894
339 0 88.1304 10.9497 965 87.7575 1028.91 451.967
340 0 93.087 12.1177 1128 86.1427 1028.79 448.837
341 0 96.0971 12.5394 1205 86.5012 1027.98 443.579
342 0 98.2893 10.8048 1062 90.5132 1027.82 443.414
343 0 101.125 10.9073 1103 95.3908 1027.52 443.938
344 0 102.109 10.3517 1057 95.8221 1028.14 443.851
345 0 105.106 11.5217 1211 95.6177 1027.48 438.48
346 0 113.169 13.7582 1557 87.7983 1027.32 434.976
347 0 113.299 12.0654 1367 92.7337 1027.19 432.231
348 0 114.29 13.0545 1492 92.2319 1028.61 430.28
349 0 116.153 11.5192 1338 95.9649 1027.59 433.43
350 0 121.118 11.6828 1415 95.5731 1027.89 428.479
351 0 126.248 12.2061 1541 93.5834 1028.01 428.163
352 0 131.276 12.9117 1695 92.1381 1027.24 424.741
353 0 133.247 11.9928 1598 93.9906 1027.56 421.966
354 0 138.258 11.6666 1613 94.3428 1027.89 419.699
355 0 145.385 12.0714 1755 93.6587 1027.98 417.191
356 0 148.317 10.9293 1621 95.2431 1027.57 421.303
357 1 80.1511 9.03294 724 91.8163 1027.85 448.435
358 0 85.2097 10.6913 911 87.4863 1027.19 446.872
359 0 88.2633 11.3411 1001 88.9051 1027.38 449.165
360 0 89.2744 9.68923 865 91.6555 1028.02 445.899
361 0 93.2284 9.33192 870 92.2724 1028.23 444.378
362 0 98.2237 11.5858 1138 88.8568 1027.93 439.968
363 0 99.3458 9.935 987 91.4113 1028.74 442.311
364 0 102.252 9.19296 940 92.666 1027.96 439.718
365 0 105.18 9.31739 980 92.8286 1027.88 434.963
366 0 110.184 9.69287 1068 91.0899 1028.65 437.728
367 0 118.295 14.075 1665 82.8535 1027.34 429.208
368 0 119.264 11.7135 1397 88.3386 1028.28 432.377
369 0 122.377 11.2031 1371 89.6069 1028.04 430.654
370 0 127.329 11.0736 1410 89.0844 1029.29 430.613
371 0 132.359 12.9345 1712 88.9276 1028.4 426.105
372 0 135.421 11.5787 1568 90.7117 1028.36 425.774
373 0 138.403 9.5157 1317 97.1906 1028.2 417.541
374 1 75.2061 11.9405 898 80.2428 1028.8 460.136
375 0 75.1492 9.83377 739 84.6103 1028.63 454.969
376 0 83.327 14.0411 1170 76.9179 1028.94 452.151
377 0 84.194 11.1766 941 82.4155 1029.16 453.896
378 0 86.2847 13.6409 1177 80.0977 1028.62 449.364
379 0 88.2634 13.8789 1225 81.0155 1029.09 451.953
380 0 92.3037 13.5206 1248 81.7917 1028.91 449.915
381 0 93.207 11.9412 1113 85.664 1028.15 445.884
382 0 95.1754 11.379 1083 87.9428 1028.75 448.121
383 0 95.1309 11.111 1057 89.649 1028.07 447.447
384 0 100.298 11.3163 1135 89.5674 1028.34 448.142
385 0 103.187 12.9668 1338 88.4552 1028.71 445.568
386 0 112.357 15.3529 1725 82.589 1028.37 436.194
387 0 114.226 14.2874 1632 85.2145 1028.28 434.002
388 0 115.33 14.8791 1716 85.3683 1028.22 431.794
389 0 116.298 12.2788 1428 92.0966 1028.53 436.2
390 0 122.528 12.3237 1510 94.2132 1027.02 434.804
391 0 125.382 14.7629 1851 91.8876 1026.64 430.407
392 0 127.275 12.2647 1561 95.9846 1027.63 433.923
393 0 132.349 13.0866 1732 96.1316 1027.06 428.315
394 0 134.143 11.6517 1563 100.893 1027.74 428.61
395 1 76.1689 12.2622 934 94.2687 1028.28 459.529
396 0 77.0919 12.738 982 96.0611 1027.65 455.404
397 0 78.111 11.7013 914 94.8578 1029.23 459.186
398 0 80.3031 10.8838 874 96.9142 1029.24 458.119
399 0 82.2692 12.5442 1032 94.8178 1028.78 455.649
400 1 178.309 13.7907 2459 97.5295 1027.39 406.597
401 0 177.202 12.8159 2271 101.799 1027.84 401.725
402 0 177.419 11.6898 2074 105.367 1028.18 406.304
403 0 180.448 13.9431 2516 101.069 1027.55 402.957
404 0 184.242 13.7319 2530 103.399 1027.85 403.945
405 1 101.219 13.1596 1332 93.5188 1027.92 445.847
406 0 102.213 11.613 1187 96.0362 1028.39 446.559
407 0 105.181 12.6353 1329 95.0263 1028.25 442.703
408 0 109.149 12.4142 1355 99.2598 1028.01 436.512
409 0 112.324 13.0871 1470 97.4163 1027.37 439.775
410 0 113.312 11.3492 1286 102.086 1027.38 442.836
411 0 118.458 12.2575 1452 102.074 1027.78 435.161
412 0 120.371 12.4199 1495 102.189 1027.67 434.323
413 0 125.415 13.0208 1633 101.267 1027.53 426.941
414 0 128.272 12.4735 1600 101.758 1027.57 429.672
415 0 134.512 12.3929 1667 101.019 1026.97 428.361
416 0 138.278 12.7352 1761 101.25 1027.68 427.776
417 0 141.266 12.4021 1752 101.872 1027.88 424.618
418 0 145.3 12.457 1810 101.197 1027.14 414.256
419 0 150.272 12.9964 1953 99.3651 1027.78 418.985
420 0 155.279 13.3437 2072 99.2973 1027.23 409.591
421 0 160.375 13.2377 2123 100.99 1027.2 404.99
422 0 165.372 10.9511 1811 104.609 1027.72 407.014
423 1 91.3604 11.077 1012 92.7589 1027.6 449.77
424 0 94.192 12.3153 1160 91.869 1028.03 450.434
425 0 97.1177 11.7074 1137 94.27 1028.03 450.064
426 0 99.1667 11.5462 1145 95.6157 1027.89 449.082
427 0 103.059 11.8961 1226 98.4837 1027.51 445.837
428 0 106.243 12.1231 1288 98.3292 1027.37 442.735
429 0 114.165 17.1419 1957 86.4354 1027.26 435.88
430 0 115.322 14.4552 1667 93.1662 1027.63 437.292
431 0 116.089 12.2664 1424 97.3862 1027.61 438.038
432 0 121.138 13.1586 1594 97.0678 1026.92 436.59
433 0 123.234 12.3992 1528 95.8737 1027.5 435.556
434 0 125.375 10.9511 1373 101.92 1028.08 427.466
435 0 133.425 11.1749 1491 99.5225 1027.99 429.966
436 1 76.236 12.7499 972 89.0154 1027.95 459.778
437 0 75.1097 12.2354 919 98.9423 1027.39 459.077
438 0 78.1532 12.4371 972 98.1965 1027.06 459.433
439 0 80.1565 11.2904 905 96.9425 1027.43 455.642
440 0 83.0957 11.6252 966 90.9431 1028.21 456.356
441 0 86.0842 9.95536 857 91.098 1027.8 449.007
442 0 86.1151 8.38413 722 93.4446 1027.82 448.414
443 0 90.2035 10.0994 911 91.7947 1027.88 447.427
444 0 95.3467 11.9878 1143 88.4611 1028.24 444.659
445 0 96.1006 11.1134 1068 91.1779 1027.76 439.679
446 0 100.063 9.92374 993 93.7311 1027.53 439.59
447 0 104.308 11.0346 1151 91.8983 1027.61 440.95
448 0 109.146 12.0481 1315 90.4205 1027.56 438.563
449 0 112.233 12.3137 1382 90.335 1027.7 435.866
450 0 116.14 11.8822 1380 94.671 1027.39 441.501
451 1 67.2412 11.9421 803 91.2491 1027.5 463.818
452 0 67.0855 11.4928 771 90.7185 1028.04 463.42
453 0 69.1418 11.527 797 86.0201 1027.41 458.787
454 0 70.1242 8.8985 624 91.0385 1027.09 450.678
455 0 72.1003 11.8307 853 86.3318 1028.32 455.256
456 0 73.1108 10.0943 738 89.2629 1027.75 457.367
457 0 74.0833 10.1777 754 92.1485 1028.14 460.68
458 0 78.0544 9.80086 765 90.7791 1028.04 463.914
459 0 79.0694 10.2948 814 92.613 1028.02 454.757
460 0 83.2003 10.1202 842 91.6722 1028.12 456.987
461 0 90.1616 12.522 1129 85.8742 1027.89 450.143
462 0 92.2242 11.3528 1047 88.0258 1027.62 450.817
463 0 93.2253 11.381 1061 88.754 1026.45 451.164
464 0 96.1585 10.8051 1039 89.9605 1026.86 452.407
465 0 97.1088 10.5243 1022 91.817 1027.17 445.523
466 0 100.252 10.6133 1064 91.672 1027.18 447.146
467 0 104.158 10.5993 1104 91.3478 1027.19 445.641
468 0 108.167 11.7596 1272 92.9009 1027.11 439.695
469 0 113.197 11.6699 1321 92.4118 1026.77 434.232
470 0 117.238 11.9415 1400 93.4171 1026.6 433.938
471 0 122.234 12.0015 1467 94.8739 1026.66 430.953
472 1 68.2234 9.71808 663 90.5415 1027.82 458.808
473 0 74.0798 10.8937 807 87.5675 1028.42 460.362
474 0 76.1707 10.2533 781 88.169 1027.46 458.876
475 0 78.0379 11.3663 887 87.097 1027.38 458.464
476 0 82.0714 10.0766 827 89.8549 1027.82 454.108
477 0 87.1787 12.9275 1127 86.1606 1026.59 449.073
478 0 88.0888 12.828 1130 88.9195 1027.14 451.074
479 0 87.1122 9.53942 831 97.769 1027.19 448.377
480 0 93.1083 11.8464 1103 93.8903 1027.41 446.843
481 0 96.1152 12.3394 1186 93.0725 1027.02 448.283
482 0 99.1541 10.4383 1035 97.2058 1027.07 446.678
483 0 104.103 11.8152 1230 95.5049 1027.4 442.192
484 0 109.105 10.5953 1156 97.5026 1027.1 439.92
485 0 111.078 11.8025 1311 95.5057 1026.91 434.059
486 0 116.106 10.6971 1242 97.6795 1027.39 439.378
487 1 68.302 11.8298 808 90.8688 1027.42 461.02
488 0 66.1622 8.70588 576 96.0069 1027.4 457.995
489 0 71.2377 11.1177 792 91.4318 1027.6 458.832
490 0 74.0432 9.95364 737 95.1845 1027.51 455.703
491 0 75.2581 10.2713 773 96.3299 1027.87 458.26
492 0 79.1925 10.9101 864 97.1123 1027.43 456.291
493 0 81.1517 12.3349 1001 95.8591 1027.07 454.143
494 0 83.1434 10.8848 905 99.3834 1027.24 453.536
495 0 88.3727 10.5349 931 100.956 1027.08 450.345
496 0 91.0397 11.8849 1082 97.2643 1028.01 450.583
497 0 92.3141 12.9883 1199 96.2018 1027.67 440.672
498 0 94.1511 11.8639 1117 99.4924 1027.99 441.359
499 0 99.3958 11.1977 1113 100.1 1028.5 441.233
500 0 100.3 12.1834 1222 100.526 1027.69 436.886
501 0 105.382 14.4806 1526 95.614 1028.43 434.155
502 0 106.438 11.3682 1210 102.479 1027.57 435.81
503 0 112.344 12.6042 1416 100.194 1027.57 434.827
504 0 117.337 14.0365 1647 95.9107 1027.37 436.851
505 0 121.29 12.9194 1567 98.3803 1028.12 433.299
506 1 71.2839 10.0864 719 92.3227 1028.67 460.369
507 0 71.1219 10.9952 782 94.8427 1027.32 459.394
508 0 73.2756 10.9859 805 102.062 1027.68 458.239
509 0 77.1798 11.8554 915 88.4197 1027.22 458.973
510 0 79.2772 11.2769 894 97.3579 1028.17 455.906
511 0 80.2146 9.92337 796 97.4397 1027.68 459.263
512 0 82.1302 9.48494 779 100.13 1026.99 454.824
513 0 86.1943 10.1747 877 96.1517 1027.89 457.408
514 0 88.338 11.8748 1049 94.0315 1027.64 449.024
515 0 90.4943 11.9676 1083 95.4137 1027.99 449.042
516 0 93.1907 10.8487 1011 97.6439 1028.43 449.636
517 0 94.1402 10.1551 956 100.009 1028.48 447.025
518 0 102.328 13.6815 1400 91.9421 1028.01 443.738
519 0 101.271 10.8718 1101 99.7257 1027.02 441.34
520 0 105.251 12.4654 1312 96.8674 1027.82 441.819
521 0 109.201 11.6666 1274 98.2575 1027.77 442.648
522 0 110.163 12.8355 1414 97.2822 1027.37 441.47
523 0 109.108 9.88008 1078 103.118 1027.49 441.138
524 0 120.202 13.4273 1614 96.22 1026.96 436.716
525 0 120.235 11.5274 1386 101.185 1027.19 428.563
526 0 125.311 12.9119 1618 99.2633 1027.04 429.311
527 0 128.164 11.2903 1447 102.436 1027.22 427.93
528 0 133.158 10.7091 1426 103.462 1026.96 426.944
529 0 139.134 12.5706 1749 99.9897 1026.81 426.193
530 0 142.235 10.8974 1550 103.866 1026.76 421.055
531 1 83.0271 10.2978 855 92.5731 1027.88 451.198
532 0 86.0496 11.6212 1000 90.277 1027.52 454.563
533 0 92.1364 12.959 1194 86.8802 1026.3 448.786
534 0 92.2251 8.25155 761 95.389 1026.82 450.041
535 0 94.2136 10.9326 1030 92.2495 1028.26 446.765
536 0 99.0847 11.9796 1187 91.0463 1028.24 446.564
537 0 97.1133 7.64056 742 98.4528 1028.17 446.028
538 0 103.143 10.306 1063 95.826 1027.84 443.037
539 0 107.214 11.6869 1253 94.8204 1027.94 443.032
540 0 109.162 11.7441 1282 95.7722 1027.59 436.362
541 0 112.217 11.8699 1332 96.1314 1027.5 438.758
542 0 115.187 10.5307 1213 99.9646 1027.64 434.342
543 0 119.244 11.3381 1352 102.065 1028.19 435.425
544 0 122.172 13.1126 1602 102.942 1028.04 432.367
545 0 126.187 12.0139 1516 106.954 1028.62 432.485
546 0 129.194 12.578 1625 104.045 1027.17 422.038
547 0 135.205 11.6046 1569 109.202 1028.29 429.203
548 0 137.239 10.5437 1447 111.782 1028.3 421.789
549 0 146.18 12.2999 1798 106.709 1028.24 423.083
550 0 152.252 11.6189 1769 111.465 1027.97 420.507
551 0 155.383 11.7194 1821 110.946 1027.02 405.901
552 0 164.251 13.5403 2224 107.79 1027.03 415.716
553 0 157.356 13.174 2073 108.81 1026.91 399.832
554 1 96.1718 11.5522 1111 96.5311 1026.77 450.563
555 0 97.1583 10.4675 1017 97.3245 1028.6 447.111
556 0 102.086 10.5695 1079 92.9166 1028.18 449.214
557 0 102.211 10.3707 1060 98.416 1027.77 447.68
558 0 101.109 11.3837 1151 99.5604 1027.87 442.908
559 0 105.18 10.078 1060 94.1821 1027.63 448.9
560 0 102.088 9.6681 987 97.6545 1027.65 445.541
561 0 101.086 10.3674 1048 100.51 1027.5 439.665
562 0 102.086 10.6381 1086 101.053 1027.59 443.466
563 0 105.124 10.3878 1092 104.028 1026.91 441.494
564 0 106.073 10.9925 1166 104.682 1026.49 437.948
565 0 109.116 10.8417 1183 102.084 1027.34 440.296
566 0 106.079 9.90772 1051 105.339 1027.17 436.939
567 0 118.067 12.6708 1496 99.0889 1026.74 433.529
568 1 66.0639 10.1266 669 101.51 1026.55 459.795
569 0 67.1715 10.6146 713 98.2525 1026.71 457.621
570 0 70.1917 10.9272 767 95.8475 1027.9 457.361
571 0 71.0682 10.497 746 98.4517 1027.04 456.665
572 0 73.1412 10.842 793 99.1047 1026.98 456.72
573 0 76.1028 11.445 871 91.2308 1027.76 454.786
574 0 78.1289 10.8027 844 92.7618 1028.67 454.396
575 0 80.0999 13.8452 1109 88.2633 1027.94 453.996
576 0 82.0873 9.91627 814 96.3477 1027.73 453.819
577 0 82.1035 9.45149 776 99.2487 1027.92 453.657
578 0 83.0907 11.1806 929 98.3412 1027.27 452.123
579 0 85.121 8.95196 762 102.923 1027.12 456.029
580 0 89.2179 10.3342 922 105.4 1027.49 451.172
581 0 89.1136 10.279 916 107.983 1027.25 450.552
582 0 95.1515 12.2121 1162 104.842 1027.9 448.502
583 0 100.148 13.0007 1302 102.727 1027.9 442.837
584 0 102.158 12.7939 1307 105.008 1027.31 442.721
585 1 55.0792 10.6755 588 104.932 1026.82 467.522
586 0 55.0925 10.7456 592 106.213 1027.2 467.897
587 0 56.258 10.3452 582 109.49 1026.26 465.457
588 0 59.0511 10.9566 647 106.847 1027.72 467.291
589 0 60.0736 11.7023 703 106.56 1027.88 463.579
590 0 62.1206 12.2182 759 103.826 1028.17 463.552
591 0 63.2152 12.0224 760 106.288 1027.17 462.688
592 0 66.0891 11.8325 782 106.891 1027.38 462.62
593 0 66.0872 11.7723 778 108.476 1027.39 462.207
594 0 67.0698 12.0919 811 109.231 1027.39 460.921
595 0 68.103 10.5869 721 114.437 1027.72 459.725
596 0 72.1594 10.7263 774 113.57 1028.32 461.884
597 0 70.0266 11.4671 803 114.365 1028.09 458.8
598 0 76.1528 12.5143 953 110.192 1027.17 459.416
599 0 78.0402 10.8149 844 114.273 1026.99 460.538
600 0 81.1026 12.552 1018 110.205 1027.35 457.142
601 0 80.1841 11.1493 894 115.164 1027.11 457.273
602 0 83.0513 11.4869 954 113.2 1027.4 458.193
603 0 87.1514 12.0595 1051 111.785 1027.96 453.707
604 0 96.1173 14.836 1426 104.27 1027.5 448.281
605 0 95.1293 13.098 1246 111.116 1027.4 449.474
606 0 95.1992 11.8699 1130 115.759 1027.53 448.203
607 0 99.1324 11.2879 1119 115.529 1027.51 449.634
608 0 102.118 11.7413 1199 114.981 1027.67 444.025
609 0 104.214 12.1001 1261 114.556 1026.65 446.476
610 0 110.094 12.6892 1397 112.081 1026.8 444.657
611 1 59.0763 10.8673 642 112.731 1026.54 468.033
612 0 62.0208 10.69 663 113.546 1026.25 465.615
613 0 59.1083 9.37263 554 102.94 1028.09 460.61
614 0 65.1194 10.5191 685 107.438 1028.47 462.526
615 0 66.0713 11.2152 741 109.258 1028.11 463.854
616 0 69.0846 10.5089 726 107.335 1028.26 466.93
617 0 72.082 11.6534 840 107.339 1027.97 463.025
618 0 72.1313 11.1879 807 108.466 1027.62 459.269
619 0 76.2042 11.4298 871 106.614 1027.85 462.258
620 0 81.1211 12.845 1042 105.212 1026.58 456.301
621 0 82.1251 11.032 906 108.153 1027.94 460.011
622 0 84.0983 11.546 971 108.984 1027.79 455.483
623 0 87.1015 12.0434 1049 108.649 1027.49 454.254
624 0 79.0879 9.02793 714 107.408 1026.46 441.812
625 0 82.1639 10.406 855 106.584 1026.08 442.814
626 1 96.1769 12.1131 1165 109.658 1026.87 449.633
627 0 87.0905 11.5856 1009 104.81 1025.81 436.168
628 1 100.11 11.827 1184 103.862 1025.65 433.562
629 0 98.1624 10.2076 1002 110.811 1025.42 433.581
630 0 109.144 13.1936 1440 102.648 1026.32 426.056
631 0 107.186 11.4474 1227 109.134 1027.24 426.456
632 0 112.209 10.9528 1229 108.891 1026.22 428.67
633 1 60.0572 9.3411 561 102.986 1026.59 451.636
634 0 70.1821 11.2564 790 91.2911 1027.05 458.375
635 0 72.1915 10.6107 766 93.5339 1027.01 454.555
636 0 78.1429 11.5685 904 94.1305 1025.66 457.465
637 0 80.1302 10.7949 865 94.8393 1026.06 457.006
638 0 84.2403 10.8618 915 94.5049 1026.28 446.128
639 0 86.2281 10.681 921 95.1585 1026.31 445.094
640 0 87.1012 9.49471 827 97.3047 1026.57 444.534
641 0 92.0954 10.6194 978 94.3487 1026.2 450.455
642 0 94.2176 11.6114 1094 93.0375 1027.3 448.864
643 0 97.217 10.6154 1032 95.4893 1026.25 442.656
644 0 100.105 10.1593 1017 96.2861 1026.64 442.758
645 0 103.254 10.2465 1058 105.375 1026.04 440.354
646 0 102.179 11.5385 1179 99.6701 1026.14 433.126
647 0 110.205 11.0522 1218 97.009 1026.71 436.136
648 0 115.144 12.758 1469 94.6222 1026.16 434.201
649 0 118.383 10.8377 1283 98.7576 1027.04 433.828
650 0 122.179 10.501 1283 103.419 1026.33 435.477
651 0 128.341 12.6304 1621 94.3109 1026.61 428.283
652 1 69.1065 9.26106 640 94.0641 1026.37 457.244
653 0 74.1189 10.7125 794 91.2947 1026.75 456.621
654 0 78.1348 11.3266 885 91.3921 1026.64 457.729
655 0 79.1606 10.4976 831 92.6185 1027.79 451.266
656 0 80.2704 9.99123 802 91.6135 1027.91 453.085
657 0 83.252 10.5823 881 91.0295 1027.81 453.822
658 0 85.1414 11.0287 939 91.5644 1028.29 451.696
659 0 87.2148 11.6609 1017 91.3206 1028.09 450.096
660 0 89.1641 9.55542 852 95.1549 1027.77 447.84
661 0 94.2432 12.3404 1163 87.6225 1026.8 435.497
662 0 95.167 12.2416 1165 90.1528 1027.03 441.074
663 0 99.1501 11.4473 1135 93.0018 1027.83 443.13
664 0 104.199 12.4858 1301 91.8409 1027.82 440.228
665 0 107.285 12.6578 1358 91.2312 1028.55 435.77
666 0 111.113 11.0248 1225 96.4833 1027.42 435.393
667 0 112.196 10.2232 1147 99.1918 1027.1 432.086
668 0 113.223 10.0333 1136 100.882 1028.13 430.987
669 0 119.174 10.5225 1254 99.1515 1027.67 431.833
670 0 122.311 11.1356 1362 102.693 1027.6 427.17
671 1 66.0548 8.65947 572 91.4318 1026.89 463.33
672 0 69.0803 8.67107 599 92.5726 1026.6 460.262
673 0 69.1175 8.99917 622 93.0627 1026.81 458.045
674 0 72.144 9.27312 669 93.1734 1027.4 457.193
675 0 73.1674 10.4418 764 92.0314 1026.78 456.509
676 0 79.1221 9.90874 784 92.7768 1026.89 455.142
677 0 83.1012 11.8049 981 89.2793 1027.57 455.182
678 0 85.2444 11.25 959 90.6423 1027.34 451.117
679 0 86.1549 9.57578 825 94.1321 1028.11 451.04
680 0 91.0728 11.3975 1038 92.2495 1027.38 451.576
681 0 97.2506 12.3084 1197 90.1905 1027.09 446.206
682 0 98.1667 11.7555 1154 99.0295 1027.03 444.224
683 0 102.278 12.3781 1266 99.2346 1026.53 442.99
684 0 106.183 11.4425 1215 101.635 1026.74 444.036
685 0 110.367 13.2105 1458 91.3251 1027.78 433.792
686 0 112.36 13.4835 1515 93.0429 1027.43 433.306
687 0 114.337 11.781 1347 98.1448 1027.2 435.808
688 0 115.427 12.2415 1413 99.8202 1026.99 434.412
689 0 120.422 12.5143 1507 101.02 1027.19 431.955
690 0 125.432 13.019 1633 100.296 1027.36 429.508
691 0 126.238 12.1992 1540 103.688 1026.59 426.492
692 0 129.243 12.6428 1634 104.266 1027.17 426.056
693 0 136.257 13.4892 1838 103.748 1027.29 424.223
694 0 140.225 12.8294 1799 107.237 1027.31 423.149
695 0 145.24 13.3366 1937 106.426 1027.28 419.829
696 0 150.269 13.1697 1979 108.65 1027.52 418.133
697 0 157.308 14.3922 2264 106.92 1027.34 417.398
698 1 88.0747 11.2405 990 102.04 1027.07 454.154
699 0 92.1603 11.8923 1096 103.295 1026.72 430.968
700 0 92.2262 12.5236 1155 103.15 1026.98 429.487
701 0 95.2734 10.9579 1044 105.28 1027.43 435.05
702 0 97.1448 11.6424 1131 105.044 1027.24 435.487
703 0 103.121 13.0624 1347 100.716 1027.22 437.526
704 0 106.255 14.4747 1538 98.1925 1028.02 437.663
705 0 108.221 13.0566 1413 102.577 1027.85 437.096
706 0 109.156 13.6777 1493 102.255 1026.92 438.89
707 0 112.291 13.75 1544 102.483 1027.77 436.361
708 0 116.357 12.7367 1482 107.072 1027.91 435.251
709 0 117.18 12.1266 1421 108.17 1027.41 434.818
710 1 133.279 12.9053 1720 103.84 1027.2 427.902
711 0 132.241 16.2279 2146 97.7283 1027.23 422.798
712 0 136.3 15.2458 2078 101.948 1027.3 423.548
713 0 138.11 15.5239 2144 103.729 1027.72 421.778
714 0 143.372 14.41 2066 109.172 1028.16 417.225
715 0 146.246 13.4978 1974 111.82 1027.6 414.793
716 0 151.383 13.8721 2100 109.95 1027.5 417.678
717 0 158.517 13.3298 2113 111.507 1027.55 412.305
718 0 164.446 14.0776 2315 109.098 1027.93 411.208
719 1 90.2319 11.7475 1060 102.259 1028.17 451.734
720 0 91.2095 12.0601 1100 102.089 1028.15 448.807
721 0 91.3999 10.7331 981 102.381 1029.03 443.801
722 0 94.191 11.5298 1086 102.769 1028.72 445.965
723 0 97.1298 11.706 1137 102.761 1028.56 440.809
724 0 105.219 14.3415 1509 97.0848 1028.97 441.259
725 0 107.15 11.8619 1271 101.989 1028.61 439.908
726 0 112.126 14.0289 1573 97.9421 1028.1 434.367
727 0 115.237 12.496 1440 103.642 1028.22 436.483
728 0 119.27 12.4591 1486 105.799 1028.52 432.831
729 0 122.356 12.8723 1575 104.481 1028.07 428.101
730 0 129.333 14.08 1821 100.312 1028.29 426.937
731 0 132.168 14.822 1959 100.026 1027.51 427.828
732 0 136.216 12.3627 1684 109.597 1027.36 421.098
733 0 142.241 11.7196 1667 109.379 1027.95 418.698
734 0 145.338 11.69 1699 109.038 1027.32 418.239
735 0 153.236 12.1969 1869 109.66 1027.18 417.346
736 0 159.334 12.8598 2049 111.388 1026.87 414.994
737 0 150.298 13.1605 1978 118.209 1025.76 401.453
738 0 161.174 14.2393 2295 115.021 1026.51 401.468
739 0 166.227 14.3298 2382 115.613 1026.08 398.095
740 0 174.427 13.8625 2418 112.641 1026.93 390.813
741 1 95.2468 10.898 1038 108.617 1027.36 430.878
742 0 97.2304 9.61634 935 112.776 1027.16 431.728
743 0 106.168 11.3028 1200 108.056 1026.64 437.791
744 0 113.09 16.4648 1862 94.7401 1026.43 424.584
745 0 116.163 15.8742 1844 100.239 1026.38 422.531
746 0 116.089 13.8084 1603 109.389 1025.84 421.197
747 0 117.159 12.5641 1472 113.84 1025.75 421.99
748 0 124.133 12.5752 1561 112.825 1026.6 420.275
749 0 126.146 11.5264 1454 115.51 1026.82 413.756
750 0 132.237 12.6894 1678 114.819 1026.61 412.353
751 0 135.067 13.5193 1826 113.284 1026.42 412.051
752 0 140.142 12.4017 1738 116.36 1026.34 408.391
753 0 144.172 11.8608 1710 117.533 1025.98 401.713
754 0 155.239 11.9364 1853 116.544 1026.16 402.566
755 1 88.0742 9.76449 860 112.869 1026.42 432.464
756 0 92.0405 12.0599 1110 105.203 1027 433.266
757 0 93.12 11.5872 1079 102.327 1027.17 431.984
758 0 100.132 11.2052 1122 102.916 1027.26 433.532
759 0 102.139 11.3375 1158 107.438 1026.37 428.133
760 0 105.337 11.335 1194 110.812 1026.23 424.832
761 0 108.131 11.6988 1265 113.13 1025.71 423.315
762 0 108.18 11.2682 1219 114.968 1025.85 420.58
763 0 116.213 11.8403 1376 111.523 1025.99 422.336
764 1 137.154 8.89509 1220 112.298 1025.39 427.998
765 1 72.1895 9.57203 691 103.819 1025.63 447.182
766 0 82.195 9.51396 782 98.5946 1027.71 453.188
767 0 84.2017 9.61976 810 100.436 1027.25 453.422
768 0 86.1216 10.5665 910 99.4604 1027.89 452.044
769 0 90.1452 11.2929 1018 96.4499 1026.97 455.819
770 0 92.2614 10.8821 1004 99.8596 1026.79 447.941
771 0 96.1594 10.9714 1055 99.2815 1026.77 450.679
772 0 101.16 12.4456 1259 95.7514 1027.15 446.646
773 0 102.145 11.4347 1168 98.9983 1027.18 446.535
774 0 105.192 10.7898 1135 100.759 1027.43 445.987
775 0 111.245 13.4118 1492 96.5134 1027.1 440.487
776 0 108.208 10.1749 1101 104.639 1027.31 441.836
777 0 115.173 10.3496 1192 104.125 1026.79 438.014
778 0 117.109 11.0581 1295 100.589 1026.65 435.449
779 0 122.275 11.1062 1358 103.183 1026.56 430.588
780 0 126.182 11.4596 1446 107.14 1026.85 429.871
781 0 120.11 11.8225 1420 107.756 1026.08 422.256
782 0 126.18 12.3791 1562 108.859 1026.53 421.517
783 0 130.226 12.7548 1661 119.047 1026.77 419.46
784 0 140.364 10.9287 1534 185.278 1027.53 415.303
785 0 132.175 10.1003 1335 105.241 1025.69 404.124
786 0 138.179 10.6528 1472 105.993 1025.85 405.49
787 0 139.219 10.444 1454 110.697 1026.2 398.979
788 0 138.219 10.9681 1516 111.063 1025.53 397.66
789 0 144.145 11.3289 1633 110.99 1025.74 396.844
790 0 150.207 12.1698 1828 110.925 1026.15 390.186
791 1 138.219 9.2679 1281 140.37 1025.21 247.485
792 0 133.378 8.38972 1119 137.88 1024.12 251.369
793 1 293.691 6.52727 1917 124.065 1026.11 360.678
794 1 182.351 11.4888 2095 119.747 1024.83 352.658
795 0 191.35 13.6033 2603 110.216 1024.94 363.629
796 0 198.296 11.2559 2232 117.365 1024.78 355.022
797 1 139.188 9.41175 1310 116.469 1025.38 392.038
798 0 145.371 10.9857 1597 112.565 1025.23 402.299
799 0 149.148 11.2305 1675 110.976 1024.31 378.806
800 0 149.185 10.7652 1606 114.722 1024.77 368.212
801 0 159.373 11.815 1883 110.089 1024.25 376.762
802 0 163.233 11.4438 1868 112.379 1025.19 371.526
803 0 168.239 10.7645 1811 113.328 1024.52 369.304
804 0 172.159 10.5019 1808 114.508 1024.88 369.543
805 0 181.39 11.6434 2112 112.287 1024.62 366.883
806 0 187.225 11.2218 2101 113.44 1024.56 368.269
807 0 191.352 11.3978 2181 113.567 1025.61 367.417
808 0 199.368 13.5127 2694 109.91 1024.57 370.523
809 0 209.317 12.7796 2675 111.938 1024.8 369.419
810 1 149.24 11.3776 1698 103.624 1025.11 408.564
811 0 153.121 10.9064 1670 104.946 1025.79 402.605
812 0 157.174 10.5616 1660 107.304 1025.33 402.963
813 0 163.219 12.2902 2006 104.17 1024.97 407.973
814 0 167.12 10.651 1780 107.665 1024.97 403.616
815 0 173.195 11.0338 1911 109.167 1024.66 402.827
816 0 180.227 10.5589 1903 109.205 1025.21 402.421
817 0 183.217 12.1386 2224 106.133 1025.27 396.578
818 0 189.288 12.0081 2273 106.118 1024.48 391.967
819 0 194.216 12.172 2364 105.298 1025.19 390.02
820 0 202.306 11.6062 2348 105.294 1024.73 381.981
821 0 210.375 10.9519 2304 106.098 1024.39 380.458
822 0 217.337 12.9476 2814 103.489 1024.71 377.507
823 0 226.301 11.193 2533 105.951 1024.58 379.332
824 1 168.416 10.2484 1726 102.038 1025.36 405.531
825 0 176.228 11.7802 2076 101.692 1025.12 400.398
826 0 181.259 9.94156 1802 107.57 1024.47 398.147
827 0 190.327 10.9916 2092 106.911 1024.51 395.541
828 0 197.447 11.9981 2369 105.287 1025.55 393.455
829 0 202.434 11.2382 2275 106.709 1024.29 390.914
830 0 204.616 10.1068 2068 105.221 1024.68 396.177
831 0 202.66 5.07746 1029 102.888 1025.01 425.564
832 0 201.589 6.50828 1312 103.499 1024.97 415.316
833 0 206.479 5.41459 1118 101.242 1025.65 426.51
834 1 168.364 9.72889 1638 99.3071 1025.97 409.834
835 0 174.512 11.2485 1963 98.5644 1025.37 403.866
836 0 179.411 11.0695 1986 101.831 1025.21 398.54
837 0 184.403 10.6343 1961 105.976 1024.62 396.727
838 0 191.262 11.5392 2207 104.903 1025.18 393.546
839 0 199.461 11.4358 2281 103.911 1025.45 394.248
840 0 204.465 11.6939 2391 105.22 1025.54 384.366
841 0 211.713 11.8509 2509 104.762 1026.02 377.918
842 0 221.646 13.0388 2890 100.566 1025.51 382.467
843 0 229.567 12.4582 2860 103.478 1025.38 373.552
844 1 63.318 8.939 566 82.7385 1028.11 464.057
845 0 66.3669 10.4721 695 82.3727 1026.72 461.242
846 0 68.1905 9.1655 625 85.0528 1026.18 462.854
847 0 72.3593 12.8525 930 77.2849 1026.97 456.563
848 0 73.4122 9.6578 709 84.1975 1026.5 460.147
849 0 74.4275 10.8562 808 82.8577 1026.51 457.056
850 0 77.5123 12.2561 950 81.1168 1027.04 458.717
851 0 77.3621 11.4139 883 83.145 1026.51 457.882
852 0 81.565 11.0954 905 84.5945 1026.7 453.609
853 0 84.3941 10.7827 910 84.9242 1027.07 455.631
854 0 87.3154 11.9796 1046 83.4761 1026.71 454.837
855 0 87.2432 11.061 965 89.5026 1026.6 451.87
856 0 90.2101 11.6062 1047 90.0124 1026.86 449.887
857 0 92.2672 10.2528 946 92.1934 1025.6 449.823
858 0 95.1374 10.6688 1015 91.1025 1025.88 448.571
859 0 99.1404 11.0147 1092 94.1905 1024.74 448.58
860 0 102.155 11.8643 1212 94.2715 1024.6 443.387
861 0 103.352 13.0041 1344 86.968 1025.47 443.209
862 0 107.137 13.646 1462 86.3782 1025.09 437.679
863 0 109.167 11.8442 1293 92.2065 1024.54 435.852
864 0 114.324 11.5374 1319 92.7331 1025.86 437.373
865 0 116.166 13.782 1601 89.3454 1025.13 437.705
866 1 70.0329 9.49554 665 87.5955 1026.09 464.301
867 0 71.0583 10.1888 724 88.1464 1026.04 460.492
868 0 73.2111 10.6814 782 88.7136 1026.01 457.33
869 0 70.3366 8.87163 624 87.9006 1025.82 451.667
870 0 79.1376 9.83098 778 91.2326 1024.48 457.486
871 0 81.1288 11.377 923 88.9404 1025.08 456.661
872 0 83.2023 11.9348 993 88.5901 1025.83 455.72
873 0 85.2952 10.9033 930 90.9871 1025.22 452.181
874 0 88.0949 12.0438 1061 89.1235 1025.46 450.61
875 0 88.1245 10.5986 934 92.318 1025.28 453.202
876 1 101.284 15.1159 1531 81.0849 1025.87 443.862
877 0 100.071 13.94 1395 84.5441 1026.29 444.449
878 0 101.163 14.1257 1429 85.6214 1026.14 443.585
879 0 102.124 13.5032 1379 88.0906 1025.99 443.234
880 0 105.162 11.9054 1252 91.3371 1025.77 445.199
881 0 107.199 11.7725 1262 92.3954 1025.51 442.922
882 0 110.247 11.583 1277 94.5591 1025.44 438.356
883 1 62.0723 11.7605 730 89.5918 1025.22 466.477
884 0 66.1038 12.0568 797 89.1205 1024.92 463.652
885 0 67.1858 11.431 768 89.6341 1026.69 463.102
886 0 68.3685 12.4326 850 89.5929 1026.29 460.876
887 0 70.2127 11.7358 824 90.7197 1026.45 460.067
888 0 72.1446 11.7819 850 92.0424 1026.76 457.531
889 0 75.1235 12.6991 954 90.2296 1026.28 459.177
890 0 76.1742 11.7494 895 95.7709 1026.61 456.063
891 0 76.0871 11.1583 849 95.5265 1026.56 455.6
892 0 83.1647 14.4412 1201 86.9908 1027.02 449.913
893 0 87.3195 14.3496 1253 88.0383 1027.2 451.002
894 0 87.1201 15.6106 1360 87.7213 1025.64 450.65
895 0 88.1032 12.9848 1144 93.986 1025.29 449.156
896 0 90.111 13.8607 1249 93.5909 1025.64 450.011
897 0 92.083 13.0643 1203 95.4131 1026.09 449.422
898 0 94.1367 12.4819 1175 96.2391 1026.5 449.303
899 0 97.181 11.6998 1137 98.2902 1026.93 447.811
900 0 103.093 15.2484 1572 85.2106 1026.87 427.781
901 0 99.1782 13.3396 1323 92.3386 1026.76 426.914
902 0 102.133 14.4419 1475 91.2122 1026.6 430.918
903 0 100.096 10.5599 1057 100.782 1027.51 430.032
904 0 104.212 12.0236 1253 96.8372 1026.79 432.488
905 0 110.23 11.5214 1270 98.7039 1026.83 427.819
906 0 113.188 11.7504 1330 99.5 1026.73 422.774
907 0 115.223 11.7425 1353 101.092 1026.12 423.503
908 0 122.15 12.5501 1533 99.6654 1026.83 422.522
909 0 129.23 12.2418 1582 100.74 1026.72 420.928
910 1 71.1453 9.15029 651 98.1751 1025.77 445.08
911 0 81.5391 11.148 909 95.0308 1026.16 449.812
912 0 83.2567 11.5306 960 93.849 1027.01 451.835
913 0 85.1694 12.3871 1055 84.3536 1027.03 452.39
914 0 88.1414 9.88185 871 87.8301 1026.92 454.115
915 0 92.3045 11.6246 1073 86.5368 1026.73 449.924
916 0 99.2427 14.0967 1399 82.3595 1026.49 444.507
917 0 96.3571 10.6375 1025 89.2683 1026.34 446.468
918 0 99.1919 11.0392 1095 89.6658 1026.38 445.359
919 0 103.217 11.8294 1221 87.5749 1026.52 445.331
920 0 106.233 10.9476 1163 89.8091 1026.75 443.248
921 0 111.169 11.8918 1322 90.0976 1026.29 431.22
922 0 112.378 11.4791 1290 93.0248 1027.35 436.836
923 0 114.131 10.9961 1255 94.5538 1026.99 434.693
924 0 125.342 14.999 1880 85.9021 1027.15 426.477
925 0 128.35 13.1827 1692 91.1076 1026.56 426.439
926 1 70.1348 8.74031 613 89.3148 1026.77 458.22
927 0 73.0671 10.2235 747 86.3574 1026.9 456.378
928 0 77.2119 10.3093 796 86.2299 1026.87 455.616
929 0 79.1089 8.6463 684 88.2544 1026.95 456.627
930 0 83.0981 12.0099 998 85.0772 1027.11 451.603
931 0 85.0778 12.4357 1058 85.6749 1027.33 451.428
932 0 88.0717 11.1841 985 88.9431 1026.57 444.09
933 0 92.0926 12.1508 1119 87.3181 1026.76 447.559
934 0 94.1605 11.2574 1060 89.4057 1027.08 445.938
935 0 98.1141 11.0076 1080 90.2074 1026.54 442.709
936 0 99.1492 12.9098 1280 89.0688 1026.75 445.785
937 0 105.266 13.3662 1407 88.4634 1026.49 441.172
938 0 108.102 12.5715 1359 90.3561 1026.45 438.029
939 0 113.214 11.9684 1355 93.1454 1026.96 436.588
940 0 114.187 10.6492 1216 96.0469 1027.19 436.44
941 0 118.172 11.2886 1334 95.0885 1027.07 428.742
942 0 122.129 11.0949 1355 97.414 1026.94 433.049
943 0 128.101 12.5917 1613 94.4061 1026.93 430.588
944 0 132.167 12.2875 1624 95.9969 1026.35 423.843
945 0 138.249 14.2424 1969 93.0046 1026 424.536
946 1 74.124 8.75559 649 93.2589 1026.72 460.595
947 0 78.1332 11.698 914 90.7626 1026.7 455.809
948 0 80.1581 12.7373 1021 90.4025 1026.7 454.175
949 0 83.0981 11.5526 960 93.95 1026.13 451.176
950 0 87.1005 12.2732 1069 91.8915 1027.26 454.857
951 0 90.1172 12.1287 1093 93.7795 1027.14 451.402
952 0 94.1996 12.3674 1165 93.9365 1026.51 449.912
953 0 96.0748 12.5631 1207 94.0224 1027.16 449.979
954 0 99.2634 11.3033 1122 98.5829 1026.15 443.573
955 0 102.105 12.546 1281 96.7908 1026.53 444.806
956 0 106.349 12.1957 1297 97.7548 1026.7 443.198
957 0 109.218 12.6078 1377 97.9216 1026.9 440.777
958 0 111.201 12.6528 1407 98.7022 1026.59 440.443
959 0 116.114 12.7031 1475 98.682 1027.31 439.783
960 0 120.202 13.5772 1632 97.8407 1027.47 431.279
961 0 127.164 13.6124 1731 97.8879 1027.43 435.292
962 0 130.059 13.4708 1752 100.252 1027.58 430.922
963 0 136.146 12.9861 1768 102.059 1027.06 430.378
964 0 140.265 12.6618 1776 107.164 1026.57 413.19
965 1 78.0619 11.9649 934 100.309 1027.12 444.884
966 0 81.1021 11.8246 959 101.247 1026.94 450.392
967 0 82.1187 13.1639 1081 99.5606 1027.15 450.689
968 0 87.1456 14.4012 1255 97.1586 1026.7 454.359
969 0 86.0683 11.1423 959 105.409 1026.95 452.717
970 0 91.0984 11.3943 1038 104.785 1026.8 451.666
971 0 95.0808 13.7883 1311 102.437 1026.54 444.195
972 0 101.204 16.8275 1703 95.2601 1026.54 440.798
973 0 104.21 15.6991 1636 98.5709 1025.9 440.467
974 0 104.187 12.5735 1310 106.544 1026.09 440.405
975 0 106.164 13.4321 1426 105.661 1025.48 439.79
976 0 111.066 15.2432 1693 102.131 1025.89 437.23
977 0 114.103 13.9524 1592 104.917 1025.49 435.96
978 0 117.092 12.5201 1466 107.332 1026.23 435.928
979 0 126.142 15.0386 1897 101.56 1025.8 425.582
980 0 126.167 12.7371 1607 107.288 1026.78 430.61
981 0 129.19 12.741 1646 108.642 1026.45 422.697
982 1 75.099 10.879 817 101.284 1026.52 456.743
983 0 79.0814 11.0013 870 102.316 1026.29 457.6
984 0 82.1145 13.335 1095 98.8721 1026.44 456.091
985 0 87.1036 14.3163 1247 96.6455 1026.54 449.488
986 0 87.2227 13.0241 1136 101.36 1026.85 447.114
987 0 91.0788 13.2962 1211 100.803 1026.08 448.126
988 0 93.1084 12.9419 1205 101.228 1026.65 448.018
989 0 99.246 14.9729 1486 96.9145 1026.72 442.38
990 0 100.212 13.661 1369 100.966 1027.42 440.845
991 0 103.078 12.5051 1289 103.883 1027.05 441.445
992 0 108.245 13.9036 1505 100.807 1026.99 437.935
993 0 111.168 13.727 1526 101.321 1027 438.363
994 0 115.195 12.7175 1465 103.627 1027.13 435.776
995 0 120.184 14.3197 1721 100.239 1026.86 427.905
996 0 122.179 13.071 1597 104.332 1027.01 430.371
997 0 128.25 13.9259 1786 103.394 1025.69 428.441
998 0 132.192 13.2005 1745 105.14 1026.17 427.54
999 0 138.319 14.0907 1949 103.958 1026.24 426.158
1000 0 142.129 13.0444 1854 107.438 1026.59 424.216
1001 0 149.16 14.1124 2105 106.634 1026.62 421.257
1002 0 153.199 14.85 2275 107.218 1025.89 419.11
1003 0 159.254 13.243 2109 112.338 1026.52 414.861
1004 1 88.218 11.1428 983 104.826 1027.2 454.294
1005 0 94.1981 13.2168 1245 102.918 1027.02 444.117
1006 0 95.2086 12.7194 1211 106.052 1026.51 446.665
1007 0 101.145 12.8726 1302 105.496 1027.19 446.011
1008 0 104.236 13.882 1447 104.597 1026.56 443.692
1009 1 115.191 17.4666 2012 93.8544 1027.16 428.717
1010 0 117.185 16.9816 1990 97.4186 1027.35 431.214
1011 0 118.207 14.8046 1750 103.271 1027.02 434.362
1012 0 121.157 14.6009 1769 105.042 1026.58 431.3
1013 0 125.414 13.0049 1631 108.426 1026.76 430.357
1014 0 130.226 13.2309 1723 108.101 1027.15 426.887
1015 0 134.122 12.5483 1683 110.275 1026.84 426.694
1016 0 139.188 13.6865 1905 109.804 1026.71 423.675
1017 0 143.528 12.7153 1825 110.281 1027.5 423.322
1018 0 151.48 15.0647 2282 106.872 1027.27 417.054
1019 0 158.419 14.7268 2333 108.279 1027.68 417.215
1020 1 87.1074 12.651 1102 102.723 1028.32 452.564
1021 0 92.1544 13.5316 1247 99.8404 1028.21 452.121
1022 0 92.0487 11.646 1072 105.638 1027.37 444.395
1023 0 96.1282 13.1491 1264 104.654 1026.78 444.186
1024 0 100.155 12.8102 1283 105.906 1027.41 445.288
1025 0 105.134 12.2796 1291 107.19 1027.12 444.109
1026 0 107.098 12.9134 1383 107.792 1026.7 440.586
1027 0 114.212 15.2873 1746 101.99 1026.66 431.636
1028 0 118.313 14.5124 1717 104.37 1027 431.631
1029 0 120.106 12.1309 1457 109.038 1027.31 434.03
1030 0 127.236 13.2353 1684 106.407 1027.26 430.096
1031 0 130.176 12.6828 1651 108.672 1027.68 424.618
1032 0 138.302 14.2876 1976 105.359 1026.97 424.819
1033 0 142.4 14.2978 2036 107.366 1026.68 420.522
1034 1 79.197 12.0333 953 104.289 1025.91 454.455
1035 0 85.1419 13.3189 1134 101.429 1026.73 452.478
1036 0 86.1954 12.8777 1110 106.622 1026.57 447.074
1037 0 93.1938 14.8937 1388 102.692 1026.83 446.548
1038 0 94.202 13.5772 1279 108.073 1026.64 444.483
1039 0 99.2107 15.7241 1560 103.346 1026.47 442.849
1040 0 99.2102 14.2526 1414 109.312 1027.17 439.151
1041 0 104.184 13.5242 1409 111.837 1026.89 439.77
1042 0 105.17 13.4829 1418 113.676 1026.73 437.64
1043 0 112.33 15.1607 1703 110.971 1026.53 434.852
1044 0 113.359 13.7704 1561 115.681 1026.56 434.949
1045 0 118.348 14.8545 1758 114.294 1026.88 432.482
1046 0 125.186 18.4605 2311 104.366 1026.76 425.863
1047 0 128.224 17.6722 2266 107.48 1026.16 426.507
1048 0 128.161 14.1853 1818 118.163 1026.9 429.8
1049 0 133.258 14.9035 1986 117.163 1027.73 426.698
1050 0 138.402 15.1515 2097 117.728 1027.59 422.429
1051 0 143.218 15.452 2213 117.25 1027.54 420.323
1052 0 148.343 15.3293 2274 118.266 1027.29 417.138
1053 0 155.414 15.9638 2481 116.767 1027.57 415.763
1054 0 157.256 14.7276 2316 121.396 1026.97 413.305
1055 0 164.337 15.6143 2566 119.708 1027.51 408.846
1056 0 169.3 14.7962 2505 122.042 1027.33 406.17
1057 0 176.348 16.4108 2894 117.98 1026.21 404.955
1058 0 181.17 15.2895 2770 121.585 1026.5 399.903
1059 0 189.276 15.2264 2882 121.787 1026.69 399.826
1060 0 193.442 15.5344 3005 121.993 1027.25 394.159
1061 0 200.331 14.8853 2982 123.745 1026.32 390.732
1062 0 209.324 16.0708 3364 120.971 1026.09 388.305
1063 0 214.246 15.1135 3238 123.477 1026.66 385.604
1064 0 224.442 14.721 3304 124.423 1026.58 380.206
1065 0 232.547 15.141 3521 124.146 1026.94 376.237
1066 1 59.283 13.0223 772 112.447 1026.98 460.526
1067 0 62.174 13.221 822 112.578 1026.79 459.021
1068 0 64.085 13.6225 873 115.654 1026.91 454.805
1069 0 65.1522 13.2152 861 116.49 1027.01 456.033
1070 0 68.2106 12.9159 881 118.511 1027.72 453.076
1071 0 71.0877 13.0262 926 119.703 1028.02 453.425
1072 0 72.0766 14.0961 1016 117.859 1027.45 452.846
1073 0 74.0972 13.4958 1000 120.264 1028.32 452.663
1074 0 77.2431 14.5644 1125 118.164 1027.57 451.164
1075 0 80.1008 14.7564 1182 119.632 1027.12 449.284
1076 0 82.1836 14.3094 1176 122.701 1027.12 447.026
1077 0 83.2633 13.8837 1156 123.426 1027.83 446.887
1078 0 87.0982 14.6042 1272 122.716 1027.25 445.138
1079 0 90.1462 14.9757 1350 122.399 1027.17 444.464
1080 0 92.0641 14.9135 1373 124.18 1027.12 440.137
1081 0 98.1625 15.6679 1538 121.135 1027.3 437.88
1082 0 102.181 17.0579 1743 117.459 1027.39 436.084
1083 0 103.119 15.8457 1634 123.343 1028.12 434.276
1084 0 107.24 14.1086 1513 128.638 1028.13 433.697
1085 0 111.144 15.5024 1723 124.933 1027.95 432.698
1086 0 115.335 15.598 1799 126.375 1027.8 428.818
1087 0 123.191 18.1181 2232 116.379 1027.7 422.228
1088 0 129.222 18.9829 2453 114.012 1027.72 420.203
1089 0 132.242 21.1657 2799 108.824 1027.57 415.854
1090 0 373.469 15.7925 5898 123.535 1026.91 287.628
1091 0 371.711 14.6323 5439 129.052 1027.67 287.623
1092 0 373.595 16.4751 6155 124.825 1027.11 290.241
1093 0 373.836 15.6646 5856 128.034 1026.55 290.513
1094 0 376.473 9.29947 3501 122.808 1027.15 343.607
1095 0 373.486 8.70715 3252 127.716 1027.16 341.911
1096 0 151.146 16.0507 2426 132.394 1027.15 405.59
1097 0 156.133 17.5811 2745 128.863 1027.28 405.58
1098 0 161.297 16.634 2683 132.723 1027.81 402.098
1099 0 168.326 17.2225 2899 132.274 1027.59 398.782
1100 0 173.292 17.7273 3072 131.375 1027.96 397.981
1101 0 181.243 17.6559 3200 132.188 1027.46 393.02
1102 0 187.208 16.2707 3046 136.933 1027.11 380.017
1103 0 193.437 17.4889 3383 133.078 1027.09 382.331
1104 0 200.518 16.612 3331 136.354 1026.72 379.668
1105 0 209.507 16.8205 3524 136.466 1027.36 379.61
1106 0 216.472 16.5102 3574 137.801 1027.05 375.472
1107 0 225.402 18.1454 4090 132.282 1027.94 374.62
1108 0 231.215 16.7463 3872 137.715 1026.94 367.319
1109 0 240.337 16.8389 4047 137.425 1027.15 359.851
1110 0 246.255 16.3855 4035 139.53 1027.22 357.37
1111 0 257.38 17.1187 4406 137.909 1027.6 350.281
1112 1 13.0357 5.90685 77 91.1688 1028.4 483.987
1113 0 13.0029 4.30672 56 93.6964 1028.45 482.536
1114 0 10.0031 7.19779 72 90.4444 1027.9 484.653
1115 0 13.0106 6.76372 88 90.0227 1027.77 482.75
1116 0 13.0097 7.84031 102 90.4314 1027.7 462.775
1117 1 2 5 10 84.1 1025.9 471.7
1118 1 15.0214 5.05944 76 91.3816 1026.12 477.842
1119 0 17.0156 6.05328 103 90.3107 1027.56 478.01
1120 0 11.0114 6.99274 77 89.1558 1026.75 480.987
1121 0 11.0247 2.26763 25 95.16 1029.68 481.68
1122 0 12.0073 4.3307 52 91.3269 1029.52 483.25
1123 0 7 2.71429 19 92.1053 1028.89 483.105
1124 0 14.0147 6.84996 96 85.6042 1029.11 482.198
1125 0 17.0471 5.16217 88 86.9773 1028.61 480.034
1126 0 13.0052 2.76813 36 90 1029.25 481.5
1127 0 12.0025 4.33242 52 88.9231 1029.42 481.192
1128 0 12.0095 3.08089 37 89.1351 1028.89 483.378
1129 0 10.0008 2.49981 25 91.64 1028.16 482.6
1130 0 11.0175 3.44906 38 90.5263 1029.34 477.5
1131 0 13.008 4.53569 59 88.3559 1029.34 481.881
1132 0 12.0277 3.49195 42 88.8095 1030.45 479.952
1133 0 14.0132 3.35397 47 88.8936 1030.23 477.745
1134 0 13.013 7.53092 98 84.8367 1029.89 482.765
1135 1 118.273 12.3613 1462 104.05 1028.52 429.311
1136 0 124.308 14.1825 1763 100.529 1029.15 422.077
1137 0 126.319 12.7772 1614 105.167 1028.75 421.983
1138 0 128.179 12.2563 1571 107.071 1028.29 425.734
1139 0 134.504 11.323 1523 109.443 1028.42 416.371
1140 1 80.4285 10.8544 873 97.3769 1028.68 450.029
1141 0 81.1768 11.2224 911 98.8738 1027.88 450.733
1142 0 84.1549 11.3838 958 101.852 1029.52 449.956
1143 0 90.4458 13.544 1225 97.1959 1028.71 438.787
1144 0 91.2543 12.5693 1147 101.969 1028.6 444.538
1145 0 91.4027 10.8093 988 108.801 1028.7 441.049
1146 0 93.3071 12.775 1192 106.557 1028.87 440.838
1147 0 98.4641 11.2935 1112 109.817 1028.57 439.638
1148 0 100.365 11.8966 1194 110.148 1028.81 437.516
1149 0 102.32 11.3956 1166 112.709 1028.28 438.137
1150 0 105.331 11.0508 1164 115.561 1028.28 433.904
1151 0 107.281 11.8567 1272 115.48 1028.18 435.486
1152 0 112.409 13.4509 1512 113.308 1028.16 431.939
1153 0 115.408 11.8536 1368 118.114 1028.27 429.261
1154 0 120.376 12.7268 1532 116.338 1028.14 428.149
1155 0 122.337 12.4328 1521 117.604 1027.44 427.881
1156 0 126.444 11.6653 1475 120.835 1027.49 426.112
1157 0 129.383 14.7624 1910 113.084 1027.82 420.966
1158 0 131.235 11.5594 1517 123.639 1027.76 422.841
1159 0 138.443 12.5106 1732 121.969 1027.84 420.096
1160 0 141.486 13.5632 1919 121.271 1027.73 416.828
1161 0 146.417 13.7006 2006 120.609 1028.42 416.088
1162 0 149.457 13.8167 2065 119.598 1028.19 417.256
1163 0 154.416 13.6385 2106 121.642 1028.28 414.2
1164 0 159.384 13.2448 2111 123.363 1027.7 410.304
1165 1 92.2672 9.79764 904 118.591 1026.76 440.348
1166 0 95.397 11.1324 1062 117.122 1027.77 442.335
1167 0 99.3271 12.5948 1251 114.452 1026.66 440.691
1168 0 99.191 11.7954 1170 119.133 1027.2 435.406
1169 0 102.237 11.8059 1207 118.437 1027.58 434.4
1170 0 108.226 13.4071 1451 114.625 1028.18 432.551
1171 0 109.4 11.9653 1309 119.91 1027.39 426.384
1172 0 115.211 13.0717 1506 116.466 1027.56 428.624
1173 0 116.295 12.666 1473 118.503 1028.33 427.329
1174 0 122.155 13.7694 1682 114.677 1028.06 427.746
1175 0 123.34 11.9507 1474 121.011 1028.11 423.133
1176 0 129.219 13.3958 1731 115.686 1028.26 424.209
1177 0 132.247 12.4389 1645 118.533 1027.57 424.004
1178 0 136.385 12.1274 1654 119.711 1028.05 423.698
1179 1 74.363 11.4842 854 108.111 1028.68 454.196
1180 0 77.1485 12.0547 930 106.869 1028.52 453.286
1181 0 80.1723 12.8598 1031 105.125 1028.86 452.689
1182 0 80.1089 12.87 1031 105.293 1028.71 451.871
1183 0 83.1476 11.5578 961 108.709 1028.66 450.002
1184 0 86.1131 12.7855 1101 106.304 1028.75 449.115
1185 0 88.0918 11.2383 990 112.595 1028.17 439.851
1186 0 93.2266 12.8826 1201 109.535 1027.71 435.081
1187 0 96.2038 13.2843 1278 107.291 1027.97 438.059
1188 0 96.3283 12.9246 1245 108.672 1028.13 436.25
1189 0 100.197 11.677 1170 110.685 1027.99 435.156
1190 0 104.242 13.2576 1382 106.708 1028.49 434.438
1191 0 105.328 13.0355 1373 108.352 1028.4 432.074
1192 0 105.073 10.9067 1146 112.987 1028.11 429.058
1193 0 110.333 11.8731 1310 110.325 1027.95 429.282
1194 0 113.476 11.9409 1355 109.623 1027.83 428.578
1195 0 116.268 13.2367 1539 107.26 1027.8 430.185
1196 0 119.264 11.9483 1425 110.275 1027.71 424.621
1197 0 122.289 13.1983 1614 106.653 1027.18 426.104
1198 0 128.288 13.5399 1737 105.032 1028.14 426.223
1199 0 132.396 12.5457 1661 107.375 1028.27 420.597
1200 0 134.243 13.5128 1814 106.732 1028.4 419.997
1201 0 139.221 14.5955 2032 104.469 1028.19 421.737
1202 0 143.347 13.8615 1987 107.397 1028.74 418.137
1203 0 147.177 13.0388 1919 110.553 1027.53 416.744
1204 0 152.315 13.7676 2097 110.685 1027.45 415.585
1205 0 157.251 14.0985 2217 109.382 1027.7 411.13
1206 1 18.0063 7.66397 138 79.6449 1029.25 484.326
1207 0 15.0159 5.86044 88 79.0455 1030.62 485.841
1208 0 16.0628 7.53292 121 77.5041 1030.68 484.207
1209 0 16.0266 4.80451 77 79.6623 1030.18 486.078
1210 0 16.0642 8.34155 134 77.2388 1030.35 485.157
1211 0 14.0009 5.21396 73 80.0822 1030.32 485.521
1212 0 17.0258 3.34786 57 83.0877 1029.47 486.211
1213 0 14.0074 9.70916 136 77.5294 1028.58 484.61
1214 0 6 1.33333 8 85.125 1025.75 480.75
1215 0 4 6.25 25 70.32 1025.16 479.64
1216 0 6 3.16667 19 79.2105 1027.21 480.737
1217 0 11.0013 8.45351 93 74.957 1026.62 483.043
1218 0 10.0007 6.39958 64 77.875 1027.16 485.75
1219 0 16.0119 5.68329 91 77.5385 1028.08 485.912
1220 0 18.0016 7.33267 132 75.5985 1028.86 486.409
1221 0 15.002 8.46552 127 76.6535 1028.64 485.134
1222 0 17.0833 7.37564 126 76.6032 1029.99 484.087
1223 0 14.0063 9.21013 129 74.4419 1030.29 484.147
1224 0 16.0211 7.55255 121 75.9339 1030.67 484.752
1225 0 15.0071 6.53024 98 75.1327 1030.15 486.418
1226 0 19.0159 6.46828 123 76.4065 1030.45 484.569
1227 0 17.0025 6.11674 104 77.8173 1030.76 483.394
1228 0 14.0152 4.99457 70 81.0857 1029.34 482.929
1229 0 12.022 6.57127 79 79.7089 1028.62 484.924
1230 0 22.0604 8.25007 182 76.7473 1028.89 483.418
1231 0 20.0542 9.42445 189 76.1376 1029.55 484.175
1232 0 26.1418 10.3283 270 75.4741 1028.22 477.019
1233 0 28.0409 9.91409 278 77.3345 1028.41 477.96
1234 0 31.0615 8.94999 278 78.2086 1030.56 479.18
1235 0 30.037 7.15784 215 80.7535 1029.56 480.153
1236 0 32.1349 6.9395 223 81.0897 1029.48 480.632
1237 0 33.1124 9.36206 310 79.4516 1029.96 478.852
1238 0 34.1011 8.56277 292 81.0514 1029.47 479.027
1239 0 36.1217 8.942 323 81.7368 1028.09 472.793
1240 0 37.2936 8.92915 333 82.4114 1027.79 474.162
1241 0 36.3221 10.1866 370 81.9622 1029.52 476.516
1242 0 32.0407 6.64779 213 89.2535 1029.5 481.244
1243 0 40.1308 6.50373 261 89.4176 1030.03 480.617
1244 0 38.2459 7.9747 305 88.2787 1029.73 476.216
1245 0 36.1593 9.01567 326 88.6196 1029.78 474.408
1246 0 34.0122 10.555 359 88.8357 1028.68 478.198
1247 0 33.2005 9.51793 316 91.3734 1029.2 478.535
1248 0 37.0982 9.3805 348 89.8046 1028.88 478.845
1249 0 36.0446 9.54374 344 91.7965 1027.94 478.89
1250 0 37.0477 10.8239 401 90.0848 1028.29 478.035
1251 0 38.0451 9.96187 379 90.9947 1027.85 479.069
1252 0 39.2133 12.1388 476 88.3613 1028.15 477.54
1253 0 38.0542 12.1406 462 89.5779 1028.46 477.736
1254 0 37.1166 10.8846 404 92.6436 1028.65 478.22
1255 0 37.1467 11.3873 423 93.0993 1028.61 477.215
1256 0 38.1417 11.2475 429 94.0979 1028.21 477.34
