time division length width area intensity CMx CMy
0 0 40.019 15.5926 624 129.361 1109.43 484.019
1 0 41.0269 14.8683 610 131.372 1109.55 483.048
2 0 43.0286 16.2218 698 125.971 1108.93 482.52
3 0 41.0218 14.7482 605 134.688 1109.13 482.402
4 0 43.0816 14.6698 632 133.297 1109.89 483.054
5 0 45.0295 16.2116 730 126.692 1110.05 482.384
6 0 45.0172 16.1494 727 129.869 1109.07 481.704
7 0 47.0793 15.3146 721 131.531 1108.94 481.781
8 0 47.0608 14.8744 700 133.931 1109.24 481.67
9 0 49.0579 16.2053 795 128.986 1109.42 481.413
10 0 49.0489 15.087 740 133.65 1109.87 481.214
11 0 51.0551 17.295 883 126.958 1109.89 479.524
12 0 50.0325 15.33 767 136.505 1109.24 479.58
13 0 55.0449 16.0778 885 130.038 1109.18 478.538
14 0 57.1087 17.9482 1025 122.749 1108.12 478.889
15 0 57.1345 16.2774 930 130.357 1109.02 478.483
16 0 58.0426 16.8669 979 129.415 1108.44 477.951
17 0 59.0651 16.5411 977 131.422 1108.32 477.599
18 0 61.0512 16.8219 1027 126.648 1107.81 476.243
19 0 62.0313 15.6373 970 130.354 1108.13 477.06
20 0 66.1255 16.9375 1120 130.48 1107.96 475.489
21 0 68.0696 17.5115 1192 129.923 1108.17 474.72
22 0 69.0763 16.9957 1174 132.768 1107.31 474.556
23 0 72.0914 17.1172 1234 132.266 1107.43 474.372
24 0 74.0744 17.3474 1285 132.163 1108.04 473.298
25 0 77.0523 16.5732 1277 134.608 1107.33 471.754
26 0 79.0669 17.2259 1362 134.094 1107.32 470.199
27 1 43.1168 12.2226 527 146.266 1106.91 490.353
28 0 46.1372 14.4569 667 139.507 1107.63 489.772
29 0 47.0627 14.4913 682 140.748 1107.83 488.56
30 0 48.1075 13.8856 668 142.644 1107.28 489.412
31 0 48.1125 14.7363 709 132.928 1107.18 488.221
32 0 47.1649 13.315 628 138.217 1107.1 489.306
33 0 50.0879 14.235 713 133.77 1106.83 488.32
34 0 52.0983 14.6262 762 131.336 1106.8 488.426
35 0 54.0186 14.458 781 131.127 1106.3 485.837
36 0 54.0476 13.6916 740 134.438 1106.71 486.665
37 0 57.0267 14.8001 844 129.912 1106.54 486.903
38 0 58.0819 13.7392 798 140.37 1106.64 483.858
39 0 61.0131 15.5376 948 134.15 1106.19 482.957
40 0 62.0875 15.2688 948 134.735 1105.99 482.815
41 0 65.1031 15.1913 989 132.427 1106.5 481.378
42 0 67.0364 15.6482 1049 132.615 1106.59 479.345
43 0 68.1184 14.4895 987 135.426 1106.16 480.741
44 0 70.0353 14.9068 1044 133.714 1105.84 477.883
45 0 73.0621 16.1233 1178 128.552 1105.78 478.256
46 0 75.0924 14.036 1054 133.37 1105.07 477.91
47 0 77.0913 15.2027 1172 130.761 1104.88 475.875
48 0 77.1558 14.2569 1100 134.645 1105.45 475.114
49 0 82.1421 15.5341 1276 128.871 1105.3 473.498
50 0 84.087 14.7823 1243 131.853 1105.36 470.731
51 0 88.1806 15.8425 1397 128.382 1104.91 469.95
52 0 89.2457 14.264 1273 133.26 1104.55 466.929
53 0 93.1553 15.9626 1487 128.191 1104.58 466.099
54 0 96.3274 14.3573 1383 132.702 1104.01 464.559
55 0 101.465 15.9759 1621 127.469 1103.31 461.934
56 0 104.333 15.7955 1648 127.823 1103.9 460.147
57 0 108.244 15.1972 1645 128.4 1104.38 457.044
58 0 113.189 15.6729 1774 127.256 1104.47 455.578
59 1 59.194 12.3492 731 127.893 1103.98 484.067
60 0 61.1811 13.0759 800 125.776 1103.94 481.57
61 0 65.0569 13.5727 883 125.956 1104.83 482.168
62 0 66.2465 13.0875 867 126.827 1105.55 482.669
63 0 69.0944 15.1242 1045 123.532 1105.38 478.931
64 0 72.1201 14.1292 1019 124.946 1104.82 479.012
65 0 74.0449 14.059 1041 124.814 1104.37 479.233
66 0 77.2304 13.0648 1009 127.313 1105.17 476.729
67 0 78.1436 12.9377 1011 128.692 1105.3 475.094
68 0 82.1093 13.9814 1148 126.083 1104.85 472.573
69 0 84.0466 13.207 1110 130.107 1104.17 472.149
70 0 88.0919 14.8254 1306 125.781 1104.04 468.819
71 0 91.0963 13.7108 1249 128.485 1103.81 469.658
72 0 93.1622 14.405 1342 127.127 1104.05 466.698
73 0 96.1102 13.9319 1339 129.251 1103.49 464.333
74 0 99.1681 13.8956 1378 127.017 1103.41 464.715
75 0 102.226 12.8343 1312 130.9 1104.36 459.714
76 0 109.373 14.702 1608 125.405 1103.49 460.989
77 0 112.288 13.5722 1524 129.658 1103.84 457.752
78 1 58.2468 10.7474 626 126.454 1103.8 484.522
79 0 64.108 12.3698 793 120.875 1104.36 483.711
80 0 64.0699 11.9713 767 122.05 1104.82 483.481
81 0 69.093 12.5483 867 117.699 1104.17 482.975
82 0 70.0739 13.1005 918 118.608 1103.82 480.749
83 0 73.1529 12.2893 899 120.167 1104.07 480.266
84 0 74.0853 12.5801 932 122.536 1104.35 479.294
85 0 79.1987 12.4623 987 121.39 1104.62 477.305
86 0 83.2166 14.1919 1181 117.881 1104.6 473.831
87 0 85.1803 13.4773 1148 115.732 1104.56 473.276
88 0 85.0607 12.7086 1081 119.01 1104.64 473.347
89 0 90.1611 12.6995 1145 118.571 1103.78 471.828
90 0 93.1684 13.1053 1221 119.346 1103.96 471.365
91 0 97.4467 14.0077 1365 117.013 1103.69 468.018
92 0 102.233 14.7604 1509 114.836 1103.51 466.832
93 1 53.101 11.3369 602 113.877 1103.52 491.819
94 0 51.0586 9.67516 494 118.933 1102.76 490.81
95 0 55.2035 11.992 662 113.168 1102.77 490.054
96 0 56.0483 11.7399 658 113.649 1103.11 489.714
97 0 59.0506 13.463 795 110.22 1103.48 488.371
98 0 61.1422 12.9207 790 111.629 1103.02 486.384
99 0 62.0272 12.7202 789 113.011 1103.45 485.807
100 0 63.0529 13.7028 864 111.465 1103.32 485.182
101 0 66.1147 13.764 910 111.434 1103.33 484.46
102 0 65.0189 12.8578 836 115.19 1103.18 482.656
103 0 68.0497 13.0934 891 113.861 1103.24 481.898
104 0 70.0418 12.7924 896 114.645 1103.38 482.23
105 0 73.0541 13.3463 975 113.799 1103.27 479.99
106 0 74.1666 13.1865 978 115.114 1103.36 478.946
107 0 78.0319 12.0848 943 116.96 1102.86 476.978
108 0 80.1348 13.053 1046 115.482 1103.12 474.95
109 0 82.0903 12.2304 1004 116.373 1102.37 475.818
110 0 84.1495 12.1807 1025 119.421 1102.01 473.866
111 0 88.1186 14.2989 1260 113.501 1102.06 471.591
112 0 91.121 13.74 1252 115.165 1101.61 472.007
113 0 93.3088 13.0963 1222 116.637 1101.82 465.599
114 0 98.1772 12.9358 1270 115.003 1102.5 466.518
115 0 102.225 14.0278 1434 113.15 1102.18 464.932
116 1 53.2455 11.3625 605 111.564 1102.74 489.688
117 0 53.1767 11.8285 629 111.347 1101.91 488.612
118 0 55.0527 12.6061 694 106.533 1103.95 488.354
119 0 57.0915 12.8566 734 105.206 1102.45 487.134
120 0 58.0146 11.8936 690 106.854 1102.03 486.557
121 0 60.1137 12.4764 750 106.476 1101.92 484.555
122 0 64.0405 12.2266 783 105.907 1101.83 484.032
123 0 63.1185 11.6131 733 109.738 1101.87 482.915
124 0 67.1458 13.4632 904 105.949 1102.65 480.127
125 0 71.0626 13.2418 941 105.499 1102.53 481.132
126 0 72.0926 13.3162 960 106.72 1102.26 479.092
127 0 74.0349 12.1159 897 109.671 1103.07 477.01
128 0 76.0739 13.4343 1022 106.192 1102.59 480.118
129 0 78.0946 14.6233 1142 105.217 1103.11 476.531
130 0 81.0588 12.9906 1053 109.185 1102.12 475.369
131 0 84.1716 13.0685 1100 109.285 1102.62 473.424
132 0 88.07 13.6255 1200 108.189 1102.5 472.091
133 0 92.1496 12.827 1182 109.222 1102.23 470.283
134 0 93.0869 12.0425 1121 111.194 1102.53 467.889
135 0 96.1298 12.3375 1186 110.124 1102.25 469.394
136 0 96.1689 10.9599 1054 114.882 1102.24 465.516
137 1 56.1039 10.231 574 110.918 1102.22 487.826
138 0 58.0588 11.8501 688 108.914 1102.89 485.939
139 0 60.2202 12.2052 735 110.269 1104.25 484.676
140 0 61.1092 12.8949 788 108.201 1104.39 483.905
141 0 61.1092 12.9931 794 131.574 1104.38 483.806
142 0 64.0899 11.359 728 102.915 1104.27 484.65
143 0 67.1078 11.6827 784 100.834 1104.78 483.309
144 0 71.1618 12.2538 872 99.7856 1104.86 482.041
145 0 72.1433 12.1841 879 100.785 1104.48 479.207
146 0 77.1978 13.6662 1055 97.2294 1105.13 478.406
147 0 76.1028 12.0232 915 101.302 1104.42 478.72
148 0 79.0859 10.2294 809 104.544 1104.28 476.99
149 0 84.1333 12.8605 1082 99.159 1103.71 473.957
150 0 86.1693 11.6515 1004 101.593 1103.23 471.58
151 0 89.1426 11.1058 990 102.726 1103.41 472.029
152 1 49.0752 12.0427 591 97.8223 1104.37 491.294
153 0 51.0852 12.1562 621 98.9211 1104.38 490.894
154 0 54.1014 12.6984 687 104.295 1103.56 489.275
155 0 53.1059 12.2585 651 99.1905 1103.82 489.293
156 0 55.1224 12.2092 673 99.1724 1103.45 487.007
157 0 55.0779 10.8574 598 100.923 1102.88 489.276
158 0 59.044 12.9226 763 98.3657 1103.2 486.201
159 0 59.0499 11.2278 663 100.258 1103.41 487.778
160 0 63.0462 13.3077 839 97.7366 1102.74 482.952
161 0 64.1164 12.5865 807 98.6952 1102.26 484.962
162 0 66.1184 11.7668 778 101.388 1102.46 483.674
163 0 67.095 11.6104 779 102.28 1102.68 483.661
164 0 69.0937 12.0561 833 101.552 1103.14 481.923
165 0 72.076 11.3352 817 104.252 1103.26 480.982
166 0 74.0605 13.2594 982 100.838 1102.66 479.525
167 0 76.0768 13.2892 1011 101.777 1102.51 478.255
168 0 80.137 14.0884 1129 100.794 1103.14 476.18
169 0 82.0857 11.6586 957 104.863 1102.87 476.62
170 0 84.135 12.5869 1059 105.178 1103.25 473.216
171 0 88.055 12.1061 1066 105.763 1103.15 473.703
172 0 91.0511 13.2453 1206 104.524 1102.34 469.863
173 0 94.1277 13.0992 1233 106.034 1102.34 467.552
174 1 47.0428 10.7136 504 104.052 1102.5 491.974
175 0 50.0374 12.4107 621 101.982 1102.09 490.116
176 0 51.0888 11.3136 578 103.68 1103.55 490.349
177 0 52.0202 12.2645 638 103.503 1102.72 489.451
178 0 53.1778 10.9632 583 107.067 1102.35 489.199
179 0 53.0298 10.8807 577 107.912 1102.45 488.198
180 0 58.0578 12.4531 723 104.138 1102.03 486.452
181 0 60.0631 11.8542 712 105.001 1103.02 485.379
182 0 63.049 12.6092 795 103.034 1103.19 484.932
183 0 63.0583 12.5122 789 123.531 1103.19 485.004
184 0 66.1133 12.5391 829 105.729 1103 482.511
185 0 69.0681 12.3501 853 106.826 1102.75 482.571
186 0 70.1117 12.637 886 107.629 1102.55 480.383
187 0 74.0684 13.474 998 106.699 1102.77 478.55
188 0 77.061 11.8867 916 110.333 1102.4 478.292
189 0 79.0579 12.4972 988 110.588 1102.31 477.636
190 0 81.1222 12.3517 1002 111.45 1102.16 475.637
191 0 85.0867 13.4334 1143 109.945 1102.12 472.971
192 0 89.2434 13.5136 1206 110.042 1102.9 471.186
193 1 43.0903 10.1879 439 110.421 1103.08 495.182
194 0 46.0331 11.2962 520 110.185 1102.19 493.217
195 0 49.0295 12.1967 598 106.177 1102.13 491.923
196 0 47.0401 11.1182 523 111.696 1102.32 491.382
197 0 50.0269 12.7132 636 108.219 1102.66 490.028
198 0 51.0426 12.0096 613 109.388 1102.72 490.437
199 0 54.0457 12.5634 679 107.85 1102.82 488.66
200 0 55.1057 11.8137 651 108.602 1102.8 490.052
201 0 58.0278 11.236 652 109.891 1102.9 487.781
202 0 57.0548 10.9544 625 112.222 1102.71 488.474
203 0 60.0747 12.3679 743 109.097 1102.68 484.867
204 0 63.1648 12.3328 779 109.714 1102.54 484.272
205 0 66.1279 13.6856 905 107.586 1102.83 482.209
206 0 65.0719 12.2326 796 111.445 1103.19 481.691
207 0 70.1017 14.5218 1018 106.221 1103.03 480.584
208 0 73.1414 13.3303 975 106.384 1102.85 481.496
209 0 75.1115 12.7943 961 108.59 1102.75 479.019
210 0 78.1033 13.559 1059 106.653 1103.41 478.876
211 0 80.1193 12.6936 1017 109.578 1103.11 475.871
212 0 84.0961 12.4381 1046 110.841 1103.28 472.676
213 0 85.1416 11.6629 993 112.06 1102.59 473.226
214 1 46.0149 11.3224 521 111.871 1103.11 491.298
215 0 48.0293 11.9927 576 111.08 1104.06 491.399
216 0 49.0278 13.5637 665 103.86 1102.41 492.014
217 0 50.0809 12.6396 633 106.81 1103.1 490.784
218 0 51.0726 13.099 669 107.511 1103.1 489.706
219 0 53.0832 12.6782 673 107.569 1104.19 490.092
220 0 54.1318 12.7836 692 108.384 1104.35 488.347
221 0 55.0764 13.0909 721 108.386 1103.24 487.042
222 0 57.051 12.0944 690 110.813 1103.63 487.186
223 0 59.0569 11.9038 703 110.447 1103.44 489.213
224 0 61.1332 12.7263 778 111.383 1103.19 484.814
225 0 64.1966 13.116 842 111.014 1103.37 484.115
226 0 65.1193 13.0837 852 112.177 1103.12 483.602
227 0 67.0887 12.2077 819 115.397 1102.73 483.482
228 0 69.0619 13.0463 901 115.827 1102.79 480.606
229 0 71.0977 12.4477 885 118.088 1102.57 480.195
230 0 75.0751 13.0536 980 116.368 1103.08 481.117
231 0 77.1228 13.0571 1007 118.044 1103.05 475.882
232 0 80.1081 13.4194 1075 118.329 1103.24 476.559
233 1 45.0385 11.7011 527 120.67 1103.83 493.383
234 0 47.0804 11.5122 542 121.609 1103.49 492.194
235 0 50.1718 12.7562 640 118.306 1102.57 490.239
236 0 49.08 12.7751 627 122.373 1104.05 491.083
237 0 49.069 12.7779 627 117.463 1102.26 490.402
238 0 51.12 12.011 614 118.676 1102.62 491.127
239 0 53.0256 11.7679 624 119.314 1102.72 490.635
240 0 56.0773 11.6981 656 119.869 1102.33 489.529
241 0 57.0979 12.5399 716 118.605 1102.07 489.035
242 0 60.0466 13.4895 810 114.749 1101.55 487.59
243 0 59.0574 11.3618 671 121.757 1102 487.674
244 0 62.1422 12.3105 765 119.017 1101.59 486.468
245 0 63.1154 12.7544 805 118.394 1101.9 486.112
246 0 64.0653 11.1449 714 121.401 1101.82 484.996
247 0 67.17 13.0118 874 116.407 1101.91 483.021
248 0 69.0888 11.7096 809 119.739 1102.88 482.361
249 0 70.0371 12.0793 846 118.894 1102.4 482.483
250 0 74.0418 13.1412 973 116.885 1102.54 479.777
251 0 73.1242 11.4873 840 122.267 1102.06 479.454
252 0 80.1694 12.8603 1031 116.874 1102.46 478.644
253 0 80.1836 12.6834 1017 118.942 1102.97 476.555
254 0 82.162 12.7066 1044 120.585 1103.46 476.845
255 0 84.162 14.1394 1190 118.939 1103.61 473.11
256 0 88.0779 13.5335 1192 119.756 1104.11 473.318
257 0 88.0853 11.9543 1053 124.863 1103.56 471.953
258 1 50.1103 11.8339 593 121.356 1103.46 491.857
259 0 50.1018 12.2351 613 124.52 1103.32 488.967
260 0 52.1168 11.6469 607 124.437 1103.75 488.442
261 0 55.309 13.6506 755 118.83 1103.55 489.817
262 0 56.169 12.4624 700 122.376 1102.83 489.087
263 0 57.181 12.7315 728 121.104 1102.76 488.306
264 0 59.1582 13.4892 798 120.253 1102.51 487.321
265 0 61.1525 13.5236 827 119.479 1102.75 486.987
266 0 62.0505 13.5535 841 121.176 1102.93 483.721
267 0 65.1672 13.7953 899 117.601 1103 484.571
268 0 65.0996 12.2274 796 123.026 1103.53 483.122
269 0 68.0728 12.9714 883 120.593 1104.02 482.81
270 0 72.1878 14.2406 1028 116.366 1103.58 481.952
271 0 72.0902 13.3444 962 119.918 1103.05 481.736
272 0 76.0434 13.5843 1033 119.417 1102.89 480.024
273 0 78.2812 13.0044 1018 122.329 1103.42 476.754
274 0 79.1545 13.5684 1074 122.668 1102.9 476.297
275 0 84.1309 14.0495 1182 121.457 1102.73 475.331
276 0 85.2571 14.0633 1199 122.123 1102.44 474.047
277 0 90.1469 14.2101 1281 121.316 1102.97 473.208
278 0 92.251 14.7424 1360 120.566 1102.69 470.026
279 0 93.1493 13.7736 1283 124.698 1102.9 469.228
280 0 96.267 15.4362 1486 121.26 1102.58 465.475
281 0 99.2737 14.5557 1445 125.001 1103.01 463.307
282 0 104.452 13.9011 1452 124.441 1102.63 462.059
283 1 55.3081 12.6744 701 122.225 1101.67 486.566
284 0 56.4337 13.4494 759 126.63 1102.63 483.926
285 0 58.0941 14.5454 845 120.037 1102.93 485.209
286 0 60.0351 14.5915 876 120.993 1102.2 482.256
287 0 62.2475 13.4463 837 124.325 1102.96 482.526
288 0 64.08 14.0918 903 123.152 1102.81 481.309
289 0 66.0843 14.5269 960 123.179 1102.74 482.293
290 0 65.0716 13.4775 877 128.1 1102.65 480.001
291 0 70.0627 15.0865 1057 123.698 1102.78 480.263
292 0 71.0611 14.1709 1007 124.493 1102.21 479.491
293 0 74.0771 14.2554 1056 122.936 1102.57 477.577
294 0 75.1525 14.0381 1055 126.57 1103.05 476.054
295 0 78.0807 14.152 1105 124.381 1103.32 475.422
296 0 82.0534 15.3315 1258 121.421 1102.5 473.155
297 0 84.1562 13.6057 1145 127.086 1102.99 469.005
298 0 84.0747 13.9043 1169 127.057 1103.04 467.062
299 0 89.0856 14.357 1279 124.418 1102.44 466.113
300 0 92.0962 14.9518 1377 123.075 1101.76 462.575
301 0 97.0802 14.9979 1456 121.791 1101.96 463.232
302 1 48.0945 10.9784 528 120.667 1101.16 484.964
303 0 49.0723 12.6752 622 118.375 1101.72 484.195
304 0 53.1422 12.1937 648 121.566 1103.12 488.082
305 0 54.0527 12.6358 683 120.313 1102.87 490.807
306 0 55.1331 13.2044 728 119.647 1103.36 487.462
307 0 59.0907 13.1154 775 118.35 1102.92 486.653
308 0 60.1061 15.1066 908 113.501 1102.88 485.559
309 0 60.0954 13.6616 821 117.543 1103.22 486.407
310 0 65.0618 13.6486 888 116.486 1102.92 484.69
311 0 66.1 14.1452 935 116.299 1102.08 481.827
312 0 68.0629 14.2074 967 115.809 1102.53 481.767
313 0 71.0987 13.1648 936 117.98 1102.53 479.749
314 0 74.1029 12.6446 937 119.001 1102.42 479.364
315 0 76.1054 13.2054 1005 119.616 1101.58 476.722
316 0 79.283 12.7518 1011 121.938 1101.53 475.32
317 0 82.0444 13.0052 1067 121.628 1101.72 474.069
318 0 84.0802 13.2136 1111 119.781 1102.57 473.293
319 1 44.0369 12.0126 529 114.119 1102.78 495.508
320 0 44.0802 13.0671 576 108.842 1102.32 493.526
321 0 45.1388 12.8492 580 109.559 1102.66 493.11
322 0 46.0496 11.4659 528 111.792 1103.32 493.733
323 0 47.0579 12.3465 581 110.795 1103.45 491.757
324 0 49.0558 13.7191 673 107.881 1102.78 491.117
325 0 50.0407 13.6089 681 109.001 1103.4 490.909
326 0 51.1486 11.2417 575 115.894 1103.43 490.358
327 0 53.1538 13.4515 715 111.124 1103.74 489.885
328 0 55.134 12.9321 713 109.635 1103.96 490.203
329 0 56.141 12.8427 721 110.24 1104.07 488.763
330 0 59.0868 13.9794 826 108.288 1103.44 487.692
331 0 60.1345 11.8069 710 113.513 1103.71 487.958
332 0 62.1186 13.3132 827 111.071 1104.35 485.88
333 0 63.1374 12.8292 810 111.823 1103.99 486.504
334 0 66.121 13.2787 878 110.487 1103.84 485.069
335 0 66.0903 12.9369 855 113.6 1103.81 483.708
336 0 70.0485 13.1195 919 113.343 1103.15 482.362
337 0 71.1187 12.444 885 115.624 1103.63 480.809
338 0 76.0735 14.5649 1108 109.953 1103.23 478.519
339 0 79.1256 13.4343 1063 113.173 1102.83 476.797
340 0 79.0821 12.7589 1009 116.734 1102.83 477.309
341 0 83.1241 13.0287 1083 118.107 1103.42 474.114
342 0 86.1284 13.1083 1129 118.326 1103.28 473.889
343 1 43.0515 10.1042 435 120.743 1104.49 493.568
344 0 44.0791 10.8668 479 119.793 1104.62 493.102
345 0 47.0936 12.3371 581 113.578 1104.63 492.978
346 0 47.0816 12.1491 572 114.818 1104.67 492.434
347 0 48.192 12.1389 585 113.427 1104.56 494.169
348 0 50.0671 14.0212 702 109.379 1103.59 491.878
349 0 50.1207 12.1307 608 114.715 1104.23 491.107
350 0 52.0714 13.8848 723 110.503 1104.03 490.158
351 0 53.1802 12.7491 678 113.773 1104.21 490.01
352 0 56.1412 12.8604 722 113.281 1104.99 487.181
353 0 59.1618 13.6406 807 110.721 1104.39 488.665
354 0 61.084 14.1281 863 110.036 1104.08 486.117
355 0 62.1092 13.4763 837 112.467 1104.19 485.848
356 0 63.0949 12.7427 804 115.623 1103.37 485.116
357 0 64.0927 12.7784 819 115.452 1103.39 484.068
358 0 69.1071 13.7034 947 112.546 1103.5 482.779
359 0 73.1214 13.7306 1004 111.319 1103.93 483.65
360 0 75.1023 13.6481 1025 112.26 1103.22 481.583
361 0 77.1068 14.4734 1116 110.195 1103.83 478.382
362 0 80.0915 13.7468 1101 110.975 1103.78 477.14
363 0 82.1303 13.3203 1094 111.453 1103.87 479.133
364 0 86.1891 13.2964 1146 112.01 1103.71 475.349
365 0 88.2162 13.5576 1196 111.992 1103.84 474.225
366 0 93.1667 14.9088 1389 108.019 1103.86 473.463
367 0 95.1952 13.6246 1297 111.817 1103.44 471.615
368 0 98.1632 14.6389 1437 109.781 1103.49 470.447
369 0 100.126 13.8925 1391 113.042 1104.2 467.988
370 1 49.0244 12.6672 621 115.68 1104.18 492.752
371 0 51.082 12.9987 664 107.745 1103.66 491.241
372 0 52.0727 12.7706 665 106.283 1103.85 489.066
373 0 51.0595 12.0448 615 110.304 1103.95 492.958
374 0 55.1099 12.8833 710 106.723 1103.81 492.394
375 0 57.0336 12.9748 740 107.065 1103.28 489.824
376 0 59.1581 13.7935 816 105.162 1103.05 488.909
377 0 59.0574 11.6328 687 111.865 1102.32 488.75
378 0 62.0968 13.2052 820 107.709 1102.76 486.835
379 0 66.0858 13.4976 892 106.059 1103.18 485.677
380 0 67.0904 12.8781 864 108.878 1102.92 485.549
381 0 70.0498 13.8901 973 106.203 1102.61 483.512
382 0 70.0685 13.3441 935 110.175 1102.76 481.985
383 0 73.0749 12.9319 945 109.873 1102.84 481.932
384 0 75.1406 12.3103 925 112.485 1103.74 479.463
385 0 79.2948 12.2707 973 113.371 1103.55 478.02
386 0 81.0559 11.2638 913 115.783 1103.46 476.912
387 0 87.1403 13.9086 1212 108.534 1103.57 475.936
388 0 86.1262 12.2495 1055 113.297 1103.66 475.16
389 1 44.1092 10.9047 481 110.898 1103.47 494.751
390 0 47.0255 11.9722 563 108.943 1103.8 493.893
391 0 46.0495 10.467 482 112.716 1103.91 493.757
392 0 51.038 13.5585 692 104.844 1104.06 493.665
393 0 52.0494 12.1039 630 106.67 1103.66 494.213
394 0 52.0573 12.0636 628 107.373 1103.36 492.414
395 0 56.2538 13.3324 750 104.605 1103.57 490.808
396 0 55.1805 11.9426 659 109.308 1103.29 489.487
397 0 59.2316 13.7258 813 104.968 1103.48 487.499
398 0 61.0587 12.4634 761 108.175 1103.76 487.855
399 0 62.0466 12.5228 777 108.593 1103.4 486.247
400 0 65.1456 13.278 865 106.851 1104.05 486.905
401 0 68.0549 14.3707 978 91.5266 1103.59 484.74
402 0 69.0592 13.4957 932 108.695 1103.79 483.308
403 0 69.1165 12.5151 865 112.943 1103.93 481.783
404 0 72.1187 12.5904 908 112.025 1104.59 481.544
405 0 74.0398 12.2637 908 112.868 1103.8 483.017
406 0 78.2911 13.7436 1076 111.464 1104.16 477.967
407 0 80.1752 13.2709 1064 113.652 1104.74 475.78
408 0 83.1978 13.2095 1099 112.534 1104.95 475.823
409 0 86.2578 13.2858 1146 113.231 1104.65 473.56
410 0 88.1952 12.8125 1130 113.526 1104.51 473.842
411 1 45.0699 10.1842 459 112.466 1105.62 494.553
412 0 48.0965 11.1858 538 111.335 1105.43 491.825
413 0 51.1354 12.9851 664 106.378 1104.98 490.992
414 0 50.0651 12.9232 647 108.705 1103.65 490.235
415 0 54.0872 12.8311 694 105.256 1104.14 493.298
416 0 55.0226 13.14 723 105.867 1103.88 490.903
417 0 56.0378 13.6336 764 104.369 1103.91 490.662
418 0 58.0962 11.9973 697 107.222 1104.4 491.076
419 0 59.0994 12.4705 737 108.134 1104.43 487.769
420 0 64.0696 13.3917 858 104.218 1104.15 487.371
421 0 66.0389 12.7955 845 105.978 1104.02 486.321
422 0 68.1031 14.0963 960 103.877 1104.19 484.693
423 0 66.0454 11.9766 791 110.263 1103.8 485.412
424 0 70.203 13.5179 949 107.65 1103.51 483.654
425 0 74.0808 12.5809 932 109.923 1103.83 481.571
426 0 77.0477 13.8615 1068 106.075 1103.46 481.6
427 0 79.1234 12.7649 1010 109.148 1103.7 479.807
428 0 79.2906 11.4263 906 113.69 1103.24 477.753
429 0 83.0661 11.8219 982 112.989 1104.09 475.997
430 1 42.0272 11.8733 499 108.421 1104.36 497.295
431 0 44.0453 11.8514 522 102.99 1104.83 495.464
432 0 43.0238 12.0166 517 101.946 1105.09 497.685
433 0 43.0244 12.2721 528 101.892 1103.07 497.064
434 0 45.1028 13.3473 602 99.3505 1102.67 495.605
435 0 43.0322 11.1544 480 105.225 1103.79 494.71
436 0 48.0532 12.5486 603 101.547 1104.66 494.857
437 0 50.0151 12.5362 627 101.209 1104.38 494.705
438 0 50.1217 11.6915 586 103.307 1104.2 493.671
439 0 52.0928 12.5737 655 101.733 1103.74 492.623
440 0 54.0976 12.6808 686 100.471 1104.58 491.685
441 0 56.0939 12.1938 684 101.282 1105 490.791
442 0 57.0415 12.7451 727 101.607 1104.81 488.862
443 0 57.1064 11.6449 665 104.412 1104.67 488.293
444 0 59.0549 10.9898 649 104.394 1104.47 490.259
445 0 62.0915 12.3044 764 102.105 1104.87 485.829
446 0 65.1107 14.4523 941 97.593 1105.54 486.139
447 0 67.0802 11.3595 762 103.031 1105.16 484.911
448 0 70.0971 12.2544 859 100.249 1105.09 484.673
449 0 71.098 10.9708 780 102.16 1104.95 482.708
450 0 75.0771 10.9088 819 97.7985 1103.9 484.065
451 0 78.1285 11.5835 905 97.8298 1103.75 481.918
452 0 79.0744 11.0782 876 100.018 1103.58 479.548
453 0 80.1088 10.286 824 101.917 1102.96 479.076
454 0 84.181 13.0314 1097 98.9098 1104.06 475.688
455 1 46.0803 12.565 579 98.7858 1104.8 493.482
456 0 47.0872 11.4681 540 98.8407 1104.14 493.031
457 0 47.0771 10.5359 496 96.5847 1104.45 489.77
458 0 49.0298 12.727 624 92.3413 1102.79 492.024
459 0 48.0259 10.4527 502 98.4283 1102.72 493.41
460 0 49.0551 11.5992 569 96.0352 1102.6 491.926
461 0 53.0722 12.2098 648 94.1836 1102.61 492.134
462 0 53.0345 11.2003 594 96.0219 1102.37 493.077
463 0 54.0363 12.251 662 95.6737 1102.21 488.657
464 0 55.0815 9.93075 547 99.5996 1102.32 488.881
465 0 58.1246 10.6151 617 97.893 1102.82 489.021
466 0 60.1114 12.8096 770 95.348 1103.45 486.264
467 0 62.1722 11.5325 717 97.9386 1102.5 487.948
468 0 66.1692 11.3648 752 98.242 1102.07 486.774
469 0 66.042 11.4775 758 99.2889 1102.58 485.714
470 0 70.1552 12.4153 871 97.9173 1102.7 484.761
471 0 74.1216 13.1001 971 97.2389 1102.34 481.034
472 0 75.0788 12.4403 934 100.957 1102.04 478.998
473 0 78.1151 12.5968 984 101.409 1102.06 477.516
474 0 81.1679 13.4413 1091 99.7342 1102.08 477.96
475 0 83.1724 12.1435 1010 103.033 1102.27 474.077
476 0 87.1594 12.5747 1096 102.295 1102.97 473.83
477 0 90.1778 13.2627 1196 101.949 1103.46 471.889
478 0 95.1912 12.7743 1216 104.475 1103.47 470.435
479 1 47.0778 11.8527 558 100.073 1104.69 493.384
480 0 46.1103 10.8002 498 103.4 1104.64 494.251
481 0 50.0777 11.6219 582 102.079 1104.97 492.906
482 0 53.0594 13.6828 726 97.8278 1104.18 491.769
483 0 54.0539 11.3035 611 101.393 1103.87 494.345
484 0 55.0794 12.7271 701 101.698 1104.5 491.071
485 0 56.0377 11.9027 667 103.565 1104.6 490.391
486 0 59.085 11.3904 673 103.07 1104.88 490.877
487 0 62.0801 13.4182 833 100.911 1104.8 487.166
488 0 63.064 12.9392 816 102.062 1104.86 484.874
489 0 66.0889 12.6042 833 102.513 1103.7 485.208
490 0 68.096 12.2768 836 104.634 1104.34 483.638
491 0 71.0988 11.5614 822 105.078 1103.61 483.074
492 0 74.1868 12.2394 908 103.236 1103.75 481.721
493 0 76.0979 13.7717 1048 100.203 1103.19 481.995
494 0 80.1201 12.4563 998 103.857 1103.45 478.716
495 0 82.1419 13.7567 1130 102.419 1103.67 476.73
496 0 86.1423 12.1427 1046 106.304 1103.45 474.91
497 0 86.1501 12.6988 1094 106.958 1103.18 473.581
498 1 46.2033 11.7957 545 107.332 1104.03 495.472
499 0 46.0326 12.8605 592 107.667 1103.77 492.963
500 0 49.0861 14.7088 722 103.832 1104.53 492.338
501 0 51.0671 11.5926 592 111.139 1104.71 491.73
502 0 54.1219 11.8436 641 109.462 1104.2 491.373
503 0 54.1832 11.7933 639 104.521 1103.81 487.003
504 0 55.1228 13.606 750 100.995 1104.02 487.168
505 0 58.1245 12.6453 735 103.431 1104.3 486.004
506 0 57.0294 12.1867 695 105.619 1104.56 485.037
507 0 62.0822 12.8861 800 102.388 1104.82 484.125
508 0 62.1703 12.3853 770 103.847 1103.93 483.201
509 0 66.1048 12.4197 821 103.127 1104.3 482.339
510 0 69.1163 14.5262 1004 99.1902 1104.2 480.473
511 0 71.1255 12.4569 886 103.275 1104.13 479.032
512 0 72.1929 12.4666 900 103.718 1103.75 478.363
513 0 77.0876 12.7777 985 103.36 1103.11 477.544
514 0 79.1678 13.3261 1055 103.132 1102.89 475.147
515 0 82.1066 12.8735 1057 104.939 1103.48 474.238
516 0 84.0857 11.8807 999 107.665 1103.66 472.944
517 0 87.1018 12.2386 1066 106.71 1102.72 471.729
518 1 44.0984 11.2022 494 102.702 1102.92 493.435
519 0 46.0336 11.2526 518 104.071 1103.19 491.71
520 0 47.0497 12.7737 601 99.8902 1103.49 491.75
521 0 48.0594 11.1321 535 103.772 1104.84 490.561
522 0 49.1076 12.3199 605 100.679 1103.9 489.702
523 0 50.1371 10.8502 544 103.862 1103.62 489.353
524 0 53.266 11.6397 620 100.223 1103.88 490.032
525 0 54.1544 11.3195 613 101.01 1104.31 488.171
526 0 55.2034 10.9232 603 102.493 1104.09 488.146
527 0 58.0935 10.7757 626 102.727 1103.54 485.419
528 0 59.1739 11.2043 663 101.508 1103.67 485.563
529 0 64.2415 11.7214 753 98.3931 1103.92 483.794
530 0 64.1225 11.5404 740 100.472 1104.02 481.712
531 0 68.1552 12.9851 885 97.1593 1103.26 482.221
532 0 67.1273 11.0238 740 102.68 1102.77 478.345
533 0 69.0894 10.9713 758 102.487 1103.34 479.284
534 0 72.1356 10.7852 778 103.762 1103.85 477.676
535 0 78.0402 12.2757 958 100.903 1103.14 475.46
536 0 78.0887 12.1657 950 100.463 1103.81 477.539
537 0 83.1529 12.7115 1057 100.711 1103.69 472.331
538 0 84.2445 11.1461 939 104.026 1103.24 470.408
539 0 90.1994 12.6165 1138 101.071 1103.46 469.933
540 0 92.1135 11.8549 1092 103.86 1103.28 466.216
541 0 96.1181 12.4638 1198 102.624 1103.6 466.21
542 1 47.092 11.3608 535 97.3383 1103.62 490.293
543 0 50.1087 12.3531 619 97.4895 1102.68 491.549
544 0 51.0405 13.4011 684 103.073 1102.26 491.297
545 0 52.1316 13.37 697 103.694 1103.17 491.073
546 0 53.0935 12.9771 689 103.94 1103.06 491.607
547 0 55.0918 12.5972 694 104.555 1102.76 490.086
548 0 56.0375 12.7058 712 105.376 1103.6 489.295
549 0 57.1158 13.604 777 103.552 1103.12 487.551
550 0 59.0194 12.4705 736 100.003 1103.92 485.834
551 0 63.0334 12.5172 789 98.5323 1103.79 485.905
552 0 64.0454 11.4294 732 101.602 1103.05 484.589
553 0 67.1316 12.7213 854 99.5035 1102.93 482.629
554 0 71.0325 12.8814 915 99.8066 1102.83 481.201
555 0 71.1654 13.2649 944 100.547 1103.13 478.094
556 0 73.024 12.8451 938 101.736 1102.72 479.083
557 0 77.0655 12.5218 965 102.709 1103.24 478.356
558 0 78.1452 12.7967 1000 103.47 1102.98 477.257
559 0 82.049 12.98 1065 102.762 1103.28 477.985
560 0 82.049 12.1269 995 105.946 1102.3 474.89
561 0 87.1405 13.8282 1205 101.475 1103.35 474.593
562 0 90.2058 13.4359 1212 102.917 1103.51 473.057
563 0 89.1335 11.9147 1062 106.856 1103.49 472.832
564 0 92.2452 12.4776 1151 107.84 1103.62 468.937
565 0 94.2853 11.8576 1118 110.004 1104.14 467.629
566 0 101.373 13.8991 1409 104.626 1104.11 465.382
567 0 103.292 12.8471 1327 108.589 1103.76 463.194
568 0 106.41 13.401 1426 111.778 1103.45 461.031
569 1 60.3768 11.2295 678 104.212 1103.42 487.357
570 0 60.425 11.7501 710 105.403 1103.48 484.194
571 0 66.2454 13.3292 883 100.459 1103.72 485.387
572 0 69.2055 13.3371 923 99.3142 1103.86 485.091
573 0 68.0943 12.3799 843 103.86 1103.78 482.834
574 0 72.1489 12.9732 936 103.589 1103.2 481.637
575 0 74.0987 12.3889 918 106.548 1104.37 481.289
576 0 78.1391 12.4905 976 107.056 1104.16 479.619
577 0 80.101 12.5716 1007 108.181 1104.32 478.23
578 0 84.1308 12.2547 1031 111.178 1104.21 477.928
579 0 87.0787 12.9653 1129 110.941 1104.52 474.944
580 0 91.2127 13.1122 1196 111.084 1104.15 473.418
581 0 94.1956 12.2936 1158 113.369 1104.49 473.066
582 0 96.3596 12.4118 1196 115.246 1104.38 469.448
583 0 100.396 12.9886 1304 115.366 1104.76 467.395
584 0 104.508 12.6114 1318 116.967 1104.47 467.505
585 0 106.305 12.0784 1284 120.329 1104.59 464.919
586 0 112.398 12.4201 1396 118.681 1104.28 463.669
587 0 115.362 12.3177 1421 119.933 1104.33 460.638
588 0 117.303 12.5572 1473 121.212 1104.94 459.736
589 1 59.1803 11.6762 691 113.405 1104.87 489.92
590 0 62.2458 11.5831 721 115.09 1104.66 487.449
591 0 64.1183 12.7265 816 113.828 1103.91 485.047
592 0 67.1091 12.4424 835 115.151 1104.05 484.2
593 0 69.0918 11.1012 767 118.244 1103.11 485.756
594 0 72.2128 12.754 921 116.646 1102.79 480.405
595 0 73.197 11.7491 860 120.402 1102.44 480.816
596 0 78.117 12.7373 995 117.218 1102.47 478.451
597 0 78.1248 12.7616 997 119.512 1102.43 477.962
598 0 82.0951 12.851 1055 119.556 1103.41 475.45
599 0 84.2344 12.026 1013 121.959 1104.02 474.465
600 0 88.2862 12.2556 1082 121.21 1103.95 472.51
601 1 44.1335 9.51658 420 119.683 1105.37 493.817
602 0 46.0919 10.6743 492 119.161 1105.47 491.496
603 0 47.1294 10.6303 501 120.713 1105.79 490.729
604 0 47.0532 10.35 487 121.862 1105.6 492.93
605 0 50.0406 12.9095 646 116.946 1105.24 489.08
606 0 52.1531 11.9456 623 120.701 1105.3 488.766
607 0 53.0876 12.2627 651 116.361 1102.76 491.315
608 0 53.2328 11.7972 628 117.268 1103.1 491.166
609 0 56.0933 12.8536 721 110.193 1103.25 491.914
610 0 57.0344 11.87 677 112.26 1103.56 489.261
611 0 58.0592 12.16 706 111.814 1102.93 490.572
612 0 61.0512 12.7107 776 109.312 1102.83 488.896
613 0 60.055 11.7392 705 113.268 1102.78 486.648
614 0 63.0778 11.2877 712 113.919 1102.86 488.688
615 0 66.1733 12.4975 827 110.111 1102.53 487.856
616 0 67.13 12.7365 855 111.069 1102.69 485.306
617 0 69.0913 12.7512 881 110.724 1103.08 485.218
618 0 70.0382 13.3213 933 110.697 1102.6 481.279
619 0 73.0744 12.7404 931 111.636 1102.98 482.936
620 0 75.0895 12.7714 959 112.746 1103.53 479.807
621 0 78.1 12.9193 1009 112.222 1103.51 479.691
622 0 80.0689 13.0013 1041 113.236 1104.58 478.132
623 0 83.1031 13.3088 1106 112.58 1104.41 479.111
624 0 85.078 12.9763 1104 113.322 1103.83 479.37
625 0 87.0785 12.3337 1074 116.078 1103.57 478.398
626 0 90.0944 12.942 1166 115.239 1103.34 475.976
627 0 92.1333 11.2446 1036 118.698 1103.14 474.072
628 1 48.0814 9.40072 452 115.52 1103.63 497.281
629 0 51.1242 13.1249 671 109.425 1102.97 494.753
630 0 51.165 13.8962 711 122.28 1102.11 492.429
631 0 54.3587 13.5397 736 121.859 1102.68 491.992
632 0 53.1736 12.8447 683 124.634 1102.46 490.874
633 0 56.1287 14.1461 794 118.767 1102.76 491.3
634 0 58.0573 13.0388 757 118.701 1102.99 490.469
635 0 59.0336 12.3828 731 113.547 1102.65 491.241
636 0 61.1023 12.5527 767 113.827 1102.23 489.24
637 0 61.0932 12.1454 742 117.43 1103.52 487.264
638 0 65.0709 12.7246 828 115.074 1103.51 487.412
639 0 65.0396 12.823 834 116.323 1102.47 485.126
640 0 68.0626 12.8264 873 115.428 1102.44 485.573
641 0 70.2859 12.1362 853 118.338 1103.57 480.892
642 0 72.2381 11.8497 856 119.341 1103.89 479.394
643 0 76.4431 13.5787 1038 113.891 1103.32 479.115
644 0 78.373 12.6191 989 115.871 1103.34 478.27
645 0 81.3874 12.0289 979 117.21 1103.38 476.277
646 0 84.5394 12.7751 1080 116.583 1103.29 474.845
647 0 85.2611 13.488 1150 115.996 1103.58 472.628
648 0 87.3468 12.7538 1114 117.161 1103.26 471.285
649 0 91.4999 11.9782 1096 119.041 1103.6 471.106
650 1 47.3213 10.8196 512 115.057 1103.81 490.619
651 0 50.1211 12.5695 630 109.632 1103.41 490.092
652 0 51.2707 12.5023 641 110.824 1103.12 489.175
653 0 52.0831 12.192 635 112.254 1101.49 492.008
654 0 53.1292 11.7073 622 114.069 1102.3 492.926
655 0 55.0782 12.7818 704 111.577 1102.69 491.21
656 0 56.074 11.8415 664 114.095 1102.77 490.655
657 0 59.0233 11.9953 708 115.157 1102.32 487.692
658 0 61.2142 12.8075 784 114.013 1102.08 486.908
659 0 63.1673 12.3798 782 113.633 1101.68 486.478
660 0 66.0694 12.6382 835 113.44 1102.67 486.23
661 0 67.1035 11.9666 803 116.507 1102.81 483.037
662 0 69.3474 12.3581 857 116.435 1103.52 480.139
663 0 72.3462 12.6752 917 116.543 1103.46 478.723
664 0 75.4896 12.9422 977 115.523 1102.68 476.865
665 0 77.5571 13.6416 1058 113.661 1103.18 475.957
666 0 80.3933 13.2349 1064 114.127 1103.16 476.811
667 0 83.4952 13.2822 1109 116.327 1103.57 473.031
668 0 85.4422 13.3306 1139 117.978 1103.27 470.8
669 0 88.4224 12.5194 1107 120.145 1102.85 468.419
670 0 91.3609 13.2551 1211 117.517 1102.8 467.079
671 0 95.3553 14.0842 1343 115.67 1103.25 466.634
672 1 47.3422 11.5964 549 110.856 1103.17 492.699
673 0 50.2971 11.79 593 108.358 1102.92 493.595
674 0 49.0547 11.9255 585 105.771 1102.14 490.156
675 0 52.0595 11.5061 599 109.062 1102.53 494.937
676 0 51.0684 11.7881 602 110.078 1103.36 492.709
677 0 53.0275 12.3521 655 109.313 1102.73 491.615
678 0 53.0398 12.4058 658 135.711 1102.72 491.699
679 0 57.0695 12.3183 703 108.528 1101.54 490.047
680 0 59.1128 11.5542 683 110.312 1102.18 488.095
681 0 63.0348 13.7543 867 105.592 1102.5 486.607
682 0 64.0764 13.4527 862 109.034 1102.63 484.371
683 0 66.1487 11.4288 756 113.357 1102.42 485.165
684 0 68.1245 12.3891 844 114.142 1102.66 483.31
685 0 72.1448 12.7244 918 113.137 1103.26 482.758
686 0 75.2192 12.0182 904 115.976 1103.09 480.476
687 0 77.359 13.5731 1050 113.282 1102.7 477.111
688 0 80.283 12.0075 964 115.902 1103.24 477.102
689 1 41.2401 10.6207 438 109.388 1103.65 495.687
690 0 43.218 10.6206 459 109.723 1104.07 498.028
691 0 42.4283 9.99334 424 114.153 1103.48 490.486
692 0 44.2293 10.0612 445 108.371 1103.1 489.51
693 0 45.298 10.9276 495 116.232 1102.6 491.978
694 0 47.1819 11.1907 528 115.153 1101.81 493.867
695 0 49.1578 12.1446 597 113.109 1102.43 492.685
696 0 48.1162 12.0957 582 104.811 1103.66 494.06
697 0 46.053 10.0753 464 110.582 1103.39 494.614
698 0 49.0742 11.0241 541 109.327 1103.35 494.451
699 0 50.0278 10.6541 533 111.54 1103.62 492.188
700 0 53.074 11.7949 626 108.161 1103.93 491.561
701 0 54.1187 11.5487 625 109.893 1103.24 489.347
702 0 55.0456 12.1536 669 109.432 1103.49 488.987
703 0 59.0976 10.6434 629 112.278 1103.73 488.712
704 0 61.1712 12.8001 783 108.58 1103.17 485.868
705 0 63.1 11.3312 715 110.684 1102.66 485.885
706 0 63.2147 11.9276 754 111.613 1103.12 483.631
707 0 68.1762 12.3504 842 110.006 1103.28 484.777
708 0 68.1913 12.3329 841 111.771 1102.8 483.206
709 0 71.168 10.9038 776 111.622 1101.16 482.907
710 0 73.0743 12.0015 877 109.234 1101.87 479.934
711 0 77.1253 12.4991 964 109.92 1101.52 478.432
712 0 77.1534 11.0948 856 112.251 1101.44 477.722
713 0 82.2292 12.1003 995 110.719 1101.18 474.761
714 0 86.133 12.7129 1095 108.313 1101.17 474.742
715 0 87.1351 11.2469 980 110.844 1101.7 474.289
716 1 46.0296 10.4498 481 105.748 1101.77 495.848
717 0 48.0836 9.67065 465 106.323 1102.61 495.28
718 0 50.0658 11.0854 555 102.973 1102.83 493.24
719 0 50.0477 10.0904 505 108.212 1104.02 493.184
720 0 55.0681 10.2782 566 105.947 1104.51 493.413
721 0 53.0748 11.4178 606 106.419 1104.52 490.726
722 0 56.1155 11.1556 626 106.479 1104.48 490.976
723 0 56.1694 9.47136 532 110.359 1104.54 489.41
724 0 60.1019 11.2808 678 106.59 1103.58 488.102
725 0 62.0936 10.5647 656 108.373 1104.16 485.87
726 0 64.0345 10.6974 685 107.799 1103.97 485.369
727 0 64.0548 10.3349 662 108.355 1103.86 486.002
728 0 66.103 10.1054 668 108.082 1103.74 485.759
729 0 73.0578 11.2514 822 106.015 1103.54 482.718
730 0 73.0868 9.65975 706 108.895 1103.36 482.065
731 0 75.1986 11.2236 844 106.024 1103.02 480.669
732 0 75.0976 9.74731 732 110.575 1103.16 480.426
733 1 41.0945 10.3664 426 111.026 1103.7 496.932
734 0 44.0916 11.4534 505 99.802 1103.9 495.327
735 0 45.0171 10.7959 486 101.397 1103.74 495.047
736 0 43.1065 10.764 464 103.468 1103.14 496.56
737 0 45.12 9.44149 426 104.533 1102.79 497.697
738 0 44.0584 9.94135 438 105.158 1102.63 496.404
739 0 46.1473 9.46968 437 90.8215 1102.4 496.556
740 0 49.0338 9.56483 469 104.638 1102.67 494.783
741 0 49.0815 10.6557 523 103.346 1102.51 492.644
742 0 53.049 10.8202 574 102.707 1102.69 491.821
743 0 55.0692 10.7138 590 103.417 1104.4 491.293
744 0 56.1007 9.55425 536 105.021 1104.3 492.224
745 0 58.1447 11.007 640 103.85 1104.33 491.333
746 0 59.0968 11.2527 665 103.995 1104.26 487.672
747 0 62.1733 11.0015 684 103.414 1104.24 486.442
748 0 64.0736 10.8313 694 104.758 1103.83 486.729
749 0 66.0891 11.0911 733 103.319 1103.62 485.763
750 0 70.1667 12.0428 845 100.454 1103.62 484.306
751 0 70.1338 11.1644 783 104.718 1103.9 480.953
752 0 69.0822 10.046 694 107.157 1104.03 481.896
753 0 78.1714 11.4236 893 102.485 1103.33 480.359
754 0 80.1814 11.923 956 102.879 1102.79 477.633
755 0 83.0902 10.6752 887 106.123 1104.18 476.251
756 0 85.3021 12.063 1029 103.932 1103.58 474.109
757 1 44.0586 11.8478 522 103.291 1104.14 495.295
758 0 45.0747 10.7155 483 106.031 1103.96 494.36
759 0 45.0333 11.2139 505 104.18 1103.79 495.077
760 0 49.0955 11.9563 587 103.16 1104.2 495.02
761 0 50.1366 13.3036 667 101.312 1105.12 492.345
762 0 52.0479 11.3357 590 104.558 1104.04 492.498
763 0 54.095 12.0898 654 101.237 1103.9 492.081
764 0 55.0108 12.8338 706 100.83 1104.02 491.847
765 0 55.052 11.8797 654 104.5 1104.69 491.312
766 0 57.1028 12.3987 708 102.706 1104.67 490.442
767 0 58.0955 12.3245 716 103.859 1104.39 490.064
768 0 59.0294 11.4519 676 105.935 1104.71 489.182
769 0 59.0732 11.3757 672 107.35 1104.21 488.796
770 0 63.1612 12.5235 791 103.958 1103.57 487.698
771 0 65.0363 12.4546 810 104.743 1104.03 487.807
772 0 65.0937 12.674 825 105.646 1103.02 486.505
773 0 68.1381 12.3279 840 107.601 1103.15 484.685
774 0 70.2054 12.6628 889 107.343 1103.63 483.997
775 0 73.1626 13.0668 956 106.677 1103.93 482.648
776 0 76.3445 14.0285 1071 105.254 1103.1 480.707
777 0 78.3813 12.3626 969 109.555 1103.15 478.838
778 0 77.1672 10.8984 841 114.958 1103.62 476.75
779 0 82.3377 12.6673 1043 110.968 1103.08 477.152
780 1 43.2602 11.3037 489 112.834 1103.37 494.335
781 0 43.1964 11.5519 499 111.535 1102.81 494.373
782 0 48.2444 12.4159 599 108.97 1103.07 493.215
783 0 49.322 12.2258 603 110.537 1102.76 491.788
784 0 51.0207 12.2695 626 111.65 1104.24 492.604
785 0 52.0568 12.6785 660 110.802 1103.73 492.592
786 0 53.0527 13.1002 695 111.436 1104.12 489.915
787 0 56.0904 13.4248 753 110.364 1104.88 491.475
788 0 58.0268 13.218 767 112.141 1104.36 488.286
789 0 59.0306 12.8238 757 112.89 1104.01 488.587
790 0 63.0549 14.7649 931 107.003 1104.27 489.941
791 0 62.1421 13.3082 827 113.631 1104.11 486.519
792 0 65.0745 13.5844 884 112.821 1104.03 485.959
793 0 66.0763 13.9687 923 112.146 1103.92 484.47
794 0 67.1107 12.4421 835 117.677 1103.56 484.205
795 0 70.0812 14.0266 983 114.777 1103.6 483.416
796 0 74.0902 14.0774 1043 112.986 1103.8 482.926
797 0 74.1507 13.8097 1024 115.982 1103.53 483.26
798 0 77.085 13.6992 1056 117.432 1103.35 481.009
799 0 79.0504 14.029 1109 118.247 1103.69 479.611
800 0 79.0532 14.3827 1137 119.076 1103.4 478.042
801 0 82.1527 13.5845 1116 121.535 1103.72 477.113
802 0 86.0801 14.6259 1259 118.334 1103.92 475.944
803 0 87.2813 12.9925 1134 116.471 1103.54 477.408
804 1 48.2586 11.9357 576 115.101 1102.9 495.656
805 0 46.2373 12.0682 558 114.568 1104.03 492.208
806 0 50.0709 12.7419 638 109.462 1104.21 495.625
807 0 50.0452 13.248 663 109.884 1102.52 494.074
808 0 52.1927 13.1053 684 108.215 1104.3 492.656
809 0 53.0459 12.3667 656 110.463 1103.76 493.171
810 0 56.1707 13.4412 755 107.026 1103.91 491.032
811 0 57.066 13.8086 788 106.476 1103.51 490.137
812 0 60.0486 14.0053 841 105.452 1104.08 489.577
813 0 62.0608 14.6791 911 104.723 1103.8 486.951
814 0 63.1098 13.9915 883 107.707 1103.28 484.661
815 0 64.1581 12.0484 773 111.14 1103.44 484.842
816 0 68.0997 13.7005 933 105.908 1103.19 485.285
817 0 70.0946 13.225 927 105.912 1103.58 484.54
818 0 71.1298 12.8076 911 106.935 1103.34 483.88
819 0 75.1396 13.0291 979 105.642 1103.05 482.733
820 0 78.1 13.3291 1041 105.256 1102.89 479.357
821 0 79.0979 11.5174 911 108.847 1102.88 478.384
822 0 82.0729 12.6717 1040 105.299 1103.26 477.996
823 0 86.0913 13.2185 1138 103.156 1103.07 475.25
824 1 40.0574 10.3352 414 110.498 1103.97 496.225
825 0 45.0379 13.2999 599 102.411 1103.33 494.563
826 0 46.1025 14.2292 656 96.5686 1103.48 496.05
827 0 48.1286 13.2562 638 98.2069 1103.58 493.428
828 0 48.1055 11.6827 562 103.094 1103.61 493.849
829 0 51.033 11.8747 606 102.051 1103.8 492.627
830 0 50.0574 12.0462 603 102.566 1103.51 493.423
831 0 53.1303 12.8928 685 99.9912 1103.53 493.274
832 0 56.0889 13.2646 744 100.023 1102.95 491.031
833 0 56.0505 13.024 730 100.959 1102.88 490.2
834 0 59.1458 13.0863 774 99.1667 1103.16 488.027
835 0 62.0922 13.4316 834 98.9592 1103.19 487.302
836 0 62.1076 13.0741 812 99.803 1103.02 486.979
837 0 64.1077 12.1358 778 101.823 1103.51 486.545
838 0 66.1057 12.0262 795 103.133 1102.88 486.908
839 0 69.0841 13.0421 901 101.555 1102.35 483.469
840 0 72.1085 14.8388 1070 98.4159 1102.86 483.093
841 0 75.1758 13.076 983 103.524 1103.07 481.178
842 0 78.0861 13.8309 1080 101.417 1103.12 480.369
843 0 79.2147 14.2019 1125 102.345 1102.3 479.667
844 0 84.1381 13.4897 1135 104.628 1102.05 478.658
845 0 86.0728 13.6164 1172 105.779 1102.99 477.56
846 0 89.1806 12.7494 1137 109.682 1103.13 477.458
847 0 92.1667 14.5497 1341 106.301 1102.86 474.068
848 1 47.0535 12.2414 576 114.667 1103.21 495.703
849 0 49.0564 11.3747 558 108.072 1102.97 494.882
850 0 51.1193 13.7717 704 102.183 1102.12 494.062
851 0 52.0986 12.1692 634 105.79 1103 493.055
852 0 53.0576 11.9681 635 108.085 1102.16 492.624
853 0 55.0255 12.8123 705 109.148 1101.09 491.53
854 0 58.0405 12.4224 721 109.798 1100.88 491.307
855 0 59.062 12.7832 755 108.596 1100.82 491.511
856 0 62.1099 13.6049 845 106.819 1101.03 488.025
857 0 64.0744 14.0774 902 105.49 1101.06 486.477
858 0 66.1552 13.1207 868 107.268 1101.41 488.685
859 0 66.1214 13.324 881 108.145 1101.52 485.42
860 0 71.1653 13.3492 950 107.643 1101.51 485.033
861 0 73.1723 13.68 1001 107.989 1101.25 482.703
862 0 76.1087 13.1785 1003 109.707 1101.73 481.421
863 0 80.2003 14.4139 1156 106.274 1101.49 479.928
864 0 82.1087 13.9084 1142 108.059 1101.04 478.876
865 0 84.0951 13.5799 1142 108.916 1101.64 477.391
866 1 43.045 11.5228 496 111.113 1101.41 496.492
867 0 44.0695 11.4138 503 112.437 1102.39 495.946
868 0 46.0956 13.6239 628 108.269 1104.52 495.914
869 0 47.1415 13.0458 615 109.486 1103.49 492.415
870 0 50.0412 13.0093 651 109.639 1103.58 495.459
871 0 51.0273 15.2859 780 105.264 1103.64 494.465
872 0 53.0508 15.1553 804 105.719 1103.02 492.657
873 0 53.0906 13.298 706 112.603 1103.16 493.244
874 0 55.0626 13.8933 765 111.846 1103.23 491.422
875 0 54.1252 12.5819 681 116.323 1102.88 490.692
876 0 58.0758 12.3976 720 115.449 1103.02 490.201
877 0 61.082 12.8025 782 113.795 1103.59 489.064
878 0 61.0823 12.9006 788 142.82 1104.59 488.958
879 0 64.0874 13.9497 894 111.994 1102.58 486.739
880 0 67.2279 12.4799 839 116.479 1102.48 485.993
881 0 69.0952 11.9545 826 116.972 1102.76 485.352
882 0 70.1106 11.8812 833 117.92 1102.99 485.666
883 0 72.1382 13.488 973 115.162 1103.08 483.772
884 0 76.094 14.7318 1121 111.41 1102.72 482.209
885 0 77.1238 12.7717 985 116.902 1103.02 479.158
886 0 79.1313 12.6499 1001 118.23 1103.76 477.408
887 0 81.0879 12.2336 992 119.419 1103.44 477.828
888 0 86.131 13.8974 1197 113.644 1103.4 477.393
889 0 88.0759 13.7154 1208 113.614 1103.46 473.978
890 0 89.1804 13.7362 1225 115.056 1103.16 472.408
891 0 93.2136 14.0966 1314 113.205 1102.64 469.701
892 0 96.1578 14.0186 1348 112.926 1103.25 468.79
893 0 98.0778 13.3465 1309 114.703 1102.64 463.759
894 0 102.152 13.4017 1369 113.901 1102.71 465.047
895 0 107.291 13.4401 1442 112.665 1101.53 462.76
896 0 111.262 11.774 1310 115.13 1102.09 462.606
897 1 57.0982 11.454 654 112.265 1103.45 488.239
898 0 58.0515 12.42 721 106.133 1103.21 487.487
899 0 62.1734 13.6875 851 100.885 1102.89 486.745
900 0 62.0688 12.5023 776 104.036 1102.96 488.526
901 0 62.1494 11.7137 728 106.651 1103 487.558
902 0 66.0738 12.4104 820 105.299 1102.73 485.228
903 0 67.1683 12.9525 870 104.561 1102.74 484.085
904 0 69.2404 12.8826 892 103.784 1102.47 484.71
905 0 73.1622 13.1079 959 104.081 1102.57 480.44
906 0 73.1146 13.1437 961 105.934 1102.93 478.4
907 0 76.1122 13.7297 1045 104.267 1102.63 479.334
908 0 78.1246 14.3873 1124 104.25 1102.44 477.182
909 0 80.1151 13.2809 1064 107.714 1102.81 473.791
910 0 83.0976 13.6105 1131 106.872 1102.83 472.309
911 0 86.1484 14.3241 1234 106.102 1102.59 471.634
912 0 90.3037 13.6982 1237 106.236 1102.55 470.741
913 0 91.2328 13.9972 1277 105.986 1102.43 469.191
914 0 94.2068 14.914 1405 103.693 1102.01 466.373
915 0 95.1658 13.2295 1259 104.521 1102.04 461.48
916 0 99.139 14.6058 1448 102.226 1101.51 459.856
917 0 105.197 14.8578 1563 100.537 1101.46 458.214
918 0 108.121 13.5126 1461 102.179 1101.62 456.589
919 1 56.1305 10.8319 608 98.0806 1101.63 482.623
920 0 61.1512 12.7062 777 102.938 1103.35 485.785
921 0 62.1156 12.8309 797 105.335 1102.13 487.45
922 0 65.1306 11.9759 780 106.112 1101.7 487.942
923 0 67.3134 12.6721 853 106.55 1102.5 484.754
924 0 71.1074 13.4585 957 104.608 1102.35 483.772
925 0 74.1523 12.6362 937 105.652 1102.19 483.265
926 0 75.1528 12.8538 966 106.205 1102.34 483.302
927 0 79.0952 14.1096 1116 103.965 1101.65 479.344
928 0 81.2096 14.1363 1148 104.167 1101.91 477.595
929 0 81.1247 14.0401 1139 103.048 1101.99 479.032
930 0 84.1299 12.6352 1063 103.833 1102.13 475.521
931 0 88.08 13.5105 1190 102.724 1102.26 473.545
932 0 91.1498 12.6166 1150 104.105 1102.38 473.102
933 0 94.2692 13.2599 1250 102.91 1101.81 473.472
934 0 97.2754 13.5286 1316 103.443 1101.77 468.093
935 0 100.385 13.1394 1319 104.306 1101.94 466.228
936 0 104.338 13.993 1460 103.164 1101.76 461.023
937 0 108.286 13.215 1431 104.796 1102.04 459.566
938 0 111.358 13.9101 1549 104.913 1102.49 456.269
939 0 118.352 13.5697 1606 104.095 1102.28 457.634
940 1 64.3118 12.4083 798 95.6278 1102.64 484.955
941 0 65.0887 12.2141 795 97.0038 1102.01 484.964
942 0 69.1666 14.4145 997 92.3581 1102.09 484.772
943 0 70.1118 12.423 871 95.9162 1101.94 483.481
944 0 73.0288 13.2413 967 95.9679 1101.78 481.427
945 0 75.1246 12.2197 918 98.403 1103 481.266
946 0 79.0906 13.1116 1037 97.4735 1102.02 478.628
947 0 80.1675 12.4614 999 99.047 1101.67 477.386
948 0 83.1198 11.9586 994 100.168 1101.97 475.923
949 0 86.1404 11.8295 1019 100.127 1101.93 474.554
950 0 90.1086 12.1187 1092 100.101 1102.65 475.425
951 0 94.2365 12.8719 1213 102.011 1103.31 469.81
952 0 96.195 12.3187 1185 102.691 1102.68 469.513
953 0 99.455 10.9296 1087 105.843 1102.6 466.475
954 1 56.1504 11.3089 635 95.011 1103.45 489.978
955 0 56.2738 11.5329 649 94.4253 1102.99 487.994
956 0 58.2079 13.6408 794 91.6713 1102.98 487.685
957 0 59.1818 11.4562 678 94.4189 1102.89 489.488
958 0 63.1109 11.2184 708 94.9308 1102.81 488.117
959 0 65.1601 12.4463 811 93.3305 1103.33 486.44
960 0 65.1916 11.5199 751 96.8429 1102.78 486.455
961 0 66.1462 9.91742 656 100.674 1102.6 484.162
962 0 71.1369 13.0031 925 94.9816 1102.56 481.655
963 0 73.1804 11.9431 874 97.5 1103.04 481.109
964 0 75.109 12.2622 921 98.6406 1102.74 479.301
965 0 77.1144 8.86994 684 103.703 1102.61 475.765
966 0 79.1853 10.065 797 102.709 1102.49 473.986
967 0 83.4301 10.4639 873 101.814 1102.59 475.575
968 0 85.2463 10.6046 904 103.936 1102.83 474.433
969 1 45.1489 10.3657 468 100.679 1104.06 496.712
970 0 45.0595 11.2074 505 102.147 1101.34 491.826
971 0 47.1125 13.0114 613 98.137 1103.4 493.343
972 0 47.1472 11.3474 535 103.641 1104.1 494.751
973 0 50.1624 12.1206 608 101.535 1103.32 492.564
974 0 50.3554 11.3791 573 103.92 1103.67 491.899
975 0 51.2988 11.6572 598 104.348 1103.26 490.584
976 0 53.2037 12.1608 647 103.189 1102.99 489.951
977 0 57.0757 12.9302 738 101.883 1103.45 489.644
978 0 57.2237 13.0366 746 97.7654 1103.08 489.446
979 0 58.1514 11.5045 669 100.706 1102.91 489.291
980 0 62.1501 12.4537 774 98.9858 1103.58 487.541
981 0 65.1124 12.7472 830 97.6036 1102.67 487.424
982 0 63.3504 10.4814 664 103.426 1102.09 485.003
983 0 66.0732 12.8343 848 99.0059 1102.82 485.415
984 0 68.075 12.6478 861 99.6237 1103.47 483.879
985 0 71.2049 12.0638 859 100.435 1103.54 482.494
986 0 75.1652 12.0268 904 99.646 1103.83 479.281
987 0 77.1073 12.2427 944 98.8941 1103.46 480.617
988 0 78.308 11.9273 934 100.388 1103.2 478.723
989 0 83.19 11.9245 992 99.1694 1103.57 477.665
990 1 42.0513 12.6274 531 97.1507 1103.75 496.605
991 0 40.0128 10.9465 438 101.76 1104.43 498.285
992 0 43.1078 10.9493 472 101.763 1103.52 498.072
993 0 46.1064 12.8182 591 97.4399 1102.69 494.905
994 0 45.0542 12.8512 579 98.563 1102.36 494.079
995 0 49.0427 12.9071 633 97.8452 1101.98 494.384
996 0 47.0259 13.9498 656 97.375 1102.36 494.43
997 0 50.1436 12.2249 613 100.201 1102.15 492.571
998 0 51.1111 12.1304 620 101.563 1101.96 491.585
999 0 52.0264 12.2246 636 101.131 1101.69 491.52
1000 0 56.2048 12.152 683 100.996 1102.18 489.43
1001 0 56.1396 11.792 662 100.947 1102.26 491.402
1002 0 58.0606 12.9348 751 99.4168 1102.32 489.807
1003 0 60.1239 12.757 767 101.11 1103.05 486.292
1004 0 62.1734 12.626 785 101.783 1102.93 487.926
1005 0 65.1253 12.8214 835 102.087 1103.08 486.219
1006 0 66.1209 12.7343 842 106.226 1103.05 485.259
1007 0 70.0346 14.3358 1004 102.426 1103.39 483.342
1008 0 70.0533 12.5333 878 106.854 1103.2 483.618
1009 0 74.0854 14.1323 1047 103.159 1103.05 482.66
1010 0 77.1262 12.8102 988 106.811 1103.2 480.287
1011 0 77.1204 12.8371 990 107.336 1103.42 480.495
1012 0 82.1397 13.6353 1120 105.306 1103.27 479.289
1013 1 41.1296 12.1324 499 109.653 1103.03 497.814
1014 0 43.077 12.2803 529 109.614 1102.46 496.845
1015 0 45.2106 12.6519 572 110.089 1101.35 494.586
1016 0 47.0351 12.0336 566 110.71 1101.24 494.777
1017 0 48.1945 13.8397 667 106.189 1100.88 494.553
1018 0 49.1229 12.7436 626 109.741 1101.35 491.759
1019 0 52.1046 12.8396 669 107.245 1101.28 493.033
1020 0 53.0978 14.2567 757 105.62 1101.57 491.328
1021 0 54.095 12.6999 687 109.274 1101.67 491.319
1022 0 56.2161 13.5548 762 106.433 1101.34 489.694
1023 0 55.0723 12.42 684 109.911 1101.47 490.639
1024 0 59.0674 13.9671 825 104.999 1101.97 488.07
1025 0 59.1223 12.4657 737 109.084 1101.79 488.745
1026 0 60.047 13.1231 788 107.67 1101.93 488.322
1027 0 64.1068 13.6959 878 105.166 1101.37 486.958
1028 0 67.1043 13.71 920 105.164 1101.85 485.101
1029 0 67.0833 13.3864 898 106.012 1101.64 485.682
1030 0 69.1354 14.1172 976 105.314 1102.03 482.139
1031 0 73.1386 13.7547 1006 104.507 1101.87 481.739
1032 0 75.155 13.5586 1019 104.848 1101.91 482.694
1033 0 75.0441 12.5793 944 108.799 1102.34 479.981
1034 0 79.0886 14.1866 1122 104.368 1102.18 479.477
1035 0 81.095 11.912 966 107.522 1102.16 480.123
1036 0 84.2135 12.872 1084 105.746 1102.03 477.157
1037 0 85.2004 12.6995 1082 107.475 1102.38 474.901
1038 0 90.0915 14.0746 1268 103.779 1102.68 474.819
1039 0 91.2326 12.079 1102 108.009 1102.79 472.811
1040 0 95.3529 11.9556 1140 108.104 1103.11 470.858
1041 0 101.288 13.279 1345 104.299 1101.98 469.103
1042 1 54.109 13.3249 721 105.04 1102.51 490.939
1043 0 56.113 12.1719 683 107.231 1102.1 491.641
1044 0 58.1337 13.4346 781 105.357 1102.42 490.028
1045 0 59.1325 13.8672 820 105.051 1101.63 488.177
1046 0 61.1968 12.6967 777 107.692 1102.37 488.077
1047 0 62.1071 12.575 781 108.575 1102.22 486.136
1048 0 66.1061 12.8581 850 107.562 1102.42 486.368
1049 0 69.3372 14.7251 1021 103.523 1102.38 485.543
1050 0 68.1151 13.3597 910 107.64 1102.68 484.124
1051 0 70.1272 12.5344 879 110.614 1103.1 481.48
1052 0 73.386 12.6318 927 109.855 1103.39 481.271
1053 0 77.2795 13.2118 1021 109.557 1103.67 478.168
1054 0 79.2167 13.8986 1101 109.372 1103.34 477.23
1055 0 80.1999 13.803 1107 110.622 1103.21 476.478
1056 0 81.2286 12.8896 1047 111.596 1102.62 474.56
1057 0 86.4897 13.3773 1157 109.924 1103.03 472.129
1058 0 89.4378 14.3563 1284 107.546 1102.41 470.38
1059 0 91.3301 13.1173 1198 111.943 1102.33 466.755
1060 0 98.2902 14.0095 1377 107.204 1102.42 470.514
1061 0 95.2078 11.9003 1133 104.975 1101.5 463.865
1062 1 53.2065 10.3747 552 100.053 1102.37 484.125
1063 0 53.0399 10.445 554 100.686 1101.02 483.955
1064 0 56.0645 11.023 618 93.2929 1102.48 486.754
1065 0 58.1469 12.3996 721 90.9112 1101.91 485.731
1066 0 62.0606 13.4062 832 89.5769 1101.83 483.98
1067 0 64.114 12.6649 812 91.447 1103.25 482.369
1068 0 67.0942 12.8178 860 89.9826 1103.45 485.924
1069 0 67.0974 12.385 831 93.278 1102.8 479.742
1070 0 69.0443 12.0647 833 92.8283 1102.73 482.158
1071 0 75.1618 15.3269 1152 87.5564 1102.64 479.674
1072 0 76.0821 12.4865 950 93.319 1102.94 478.277
1073 0 81.2379 13.0235 1058 93.3516 1102.84 477.012
1074 0 81.1046 13.0695 1060 93.8604 1102.84 477.292
1075 0 85.0689 12.1784 1036 95.7259 1103.17 474.665
1076 0 88.0921 13.134 1157 94.2057 1102.77 471.944
1077 1 46.0693 11.83 545 90.7321 1102.94 495.936
1078 0 47.1679 11.6817 551 96.3267 1103.34 495.936
1079 0 48.0706 12.2736 590 96.4949 1103.48 495.259
1080 0 53.0557 13.8345 734 92.8529 1103.96 493.556
1081 0 53.0778 13.7157 728 93.283 1103.44 491.247
1082 0 55.145 11.2975 623 96.8202 1103.89 492.815
1083 0 57.129 14.266 815 92.2957 1103.87 490.059
1084 0 57.136 12.7415 728 95.2102 1103.27 489.287
1085 0 60.1575 13.2153 795 93.8415 1102.7 488.72
1086 0 63.1429 12.1787 769 94.1326 1103.05 488.069
1087 0 65.111 13.0239 848 92.2677 1102.22 484.531
1088 0 68.0792 12.9408 881 91.1328 1103.17 486.764
1089 0 72.0863 12.6654 913 91.6484 1103 484.734
1090 0 72.183 11.4431 826 95.1743 1103.12 481.489
1091 0 76.266 12.1942 930 94.2839 1103.29 481.986
1092 0 76.1551 10.82 824 103.044 1104.04 476.91
1093 1 39.0878 10.2078 399 96.8271 1103.79 499.449
1094 0 40.1427 11.0606 444 96.3266 1103.92 496.833
1095 0 43.0248 12.9925 559 92.7996 1103.65 495.742
1096 0 45.0431 12.6323 569 97.0633 1102.73 497.176
1097 0 47.0768 12.0866 569 102.613 1103.15 496.176
1098 0 45.0732 11.6921 527 106.298 1102.92 495.381
1099 0 49.0883 11.5506 567 105.328 1102.36 495.705
1100 0 49.1486 12.0655 593 104.567 1102.64 492.376
1101 0 50.0704 13.1615 659 101.143 1103.8 493.413
1102 0 51.0913 11.2544 575 101.934 1103.7 493.049
1103 0 54.1468 12.5031 677 100.446 1104.21 492.086
1104 0 54.1086 11.6802 632 104.592 1103.36 489.905
1105 0 56.1174 12.1353 681 102.718 1103.49 488.833
1106 0 59.1015 12.4701 737 101.73 1103.83 488.916
1107 0 61.0981 13.0446 797 101.775 1103.59 486.25
1108 0 63.1944 12.3587 781 102.722 1104.32 487.227
1109 0 68.1472 12.9426 882 101.829 1104.34 484.683
1110 0 70.1483 12.887 904 101.325 1104.27 485.392
1111 0 73.2253 12.4957 915 103.225 1104.14 483.526
1112 0 76.2474 13.3644 1019 101.468 1103.85 480.291
1113 1 37.0854 11.5679 429 101.543 1104.34 500.758
1114 0 38.1019 10.6031 404 104.257 1104.67 499.735
1115 0 39.0378 11.6041 453 102.243 1104.45 499.998
1116 0 40.0991 10.7983 433 105.106 1104.82 499.423
1117 0 41.0795 12.2932 505 103.356 1104.56 497.05
1118 0 43.029 11.3179 487 105.614 1104.61 497.595
1119 0 43.013 11.8336 509 105.684 1104.47 497.468
1120 0 46.0734 12.3065 567 103.94 1104.49 496.199
1121 0 48.0266 12.9095 620 102.389 1103.76 495.665
1122 0 49.0881 12.5692 617 105.229 1103.48 495.057
1123 0 47.0558 11.0932 522 111.753 1103.62 493.479
1124 0 47.1018 11.1036 523 102.61 1102.22 494.966
1125 0 48.087 11.6872 562 102.477 1103.19 494.966
1126 0 49.1112 11.4841 564 103.145 1102.77 493.504
1127 0 52.0646 10.9287 569 103.253 1103.21 492.87
1128 0 53.0917 10.868 577 103.13 1103.38 493.582
1129 0 55.0649 11.3321 624 102.155 1103.93 492.84
1130 0 57.0459 11.8676 677 102.288 1103.88 490.651
1131 0 59.1219 12.3643 731 100.921 1103.97 489.561
1132 0 60.1113 10.963 659 102.766 1104.28 490.432
1133 0 63.1228 9.8855 624 98.0304 1103.33 487.635
1134 0 64.111 12.3224 790 98.2139 1103.18 484.503
1135 0 68.072 11.194 762 102.358 1103.53 489.059
1136 0 69.1104 11.2139 775 103.907 1103.72 487.604
1137 0 73.0669 11.4005 833 104.074 1103.81 484.63
1138 0 80.1402 10.2445 821 104.34 1103.75 484.213
1139 0 77.1247 10.1524 783 100.092 1102.83 482.188
1140 0 82.322 11.5158 948 98.7458 1102.3 479.18
1141 1 45.1326 11.1449 503 95.2763 1102.29 498.483
1142 0 47.1804 12.8019 604 96.3775 1102.98 498.389
1143 0 47.0808 12.4892 588 99.1684 1102.9 495.726
1144 0 50.1669 12.7774 641 98.0094 1102.6 494.853
1145 0 51.1427 12.2012 624 99.1554 1103.08 495.66
1146 0 52.1746 11.6148 606 101.427 1102.48 494.974
1147 0 54.141 13.1878 714 98.0742 1101.88 492.843
1148 0 56.1993 14.8756 836 95.3002 1101.59 490.971
1149 0 56.285 12.3479 695 101.344 1101.06 490.692
1150 0 58.1306 12.3171 716 100.613 1101.66 490.506
1151 0 60.1927 12.8753 775 99.5058 1101.05 488.489
1152 0 62.3506 13.1835 822 99.0097 1100.8 487.769
1153 0 64.172 12.6067 809 100.297 1101.76 488.697
1154 0 67.184 13.8426 930 97.6667 1100.9 488.443
1155 0 68.153 12.8975 879 101.122 1100.73 483.13
1156 0 70.2286 11.7474 825 103.274 1101.11 484.715
1157 0 74.2178 13.0562 969 100.35 1101.63 484.442
1158 0 76.2367 12.1989 930 104.251 1101.69 481.549
1159 1 39.1016 11.8665 464 103.155 1102.83 498.728
1160 0 42.0139 11.1154 467 105.004 1102.07 499.456
1161 0 42.0784 11.6687 491 104.754 1100.45 495.073
1162 0 44.1305 12.3044 543 106.718 1100.46 492.258
1163 0 47.1736 12.9734 612 104.724 1100.52 491.606
1164 0 47.0389 13.2869 625 104.098 1102.53 495.531
1165 0 50.1167 14.0073 702 101.232 1102.8 494.658
1166 0 51.1866 12.9135 661 103.917 1102.71 494.11
1167 0 51.1266 12.7918 654 106.242 1102.48 492.875
1168 0 55.1012 13.4298 740 102.908 1102.77 492.857
1169 0 54.1048 13.7326 743 103.914 1103.36 492.046
1170 0 56.0727 12.4481 698 107.097 1102.94 492.895
1171 0 59.0768 14.4558 854 103.738 1102.54 490.568
1172 0 61.1781 12.9949 795 107.794 1102.25 489.457
1173 0 63.1137 13.341 842 108.308 1103.01 488.726
1174 0 65.1461 13.5234 881 106.808 1103.09 487.548
1175 0 68.0872 13.7324 935 104.648 1103.07 487.719
1176 0 72.2254 16.31 1178 98.9771 1102.85 484.759
1177 0 74.2544 14.3561 1066 112.629 1101.23 482.171
1178 0 76.3404 14.3699 1097 111.786 1101.25 482.077
1179 0 79.2374 15.0308 1191 111.041 1101.31 479.003
1180 0 81.17 13.8475 1124 97.8576 1100.56 479.853
1181 0 83.2094 14.4214 1200 112.321 1100.66 479.549
1182 0 85.2921 13.9052 1186 114.947 1100.72 475.041
1183 0 88.2821 13.9553 1232 113.772 1100.69 474.774
1184 0 92.3415 14.8362 1370 111.708 1101.34 472.264
1185 0 95.3382 14.5062 1383 112.313 1100.99 471.316
1186 0 97.2554 12.6368 1229 116.332 1101.5 470.732
1187 0 100.17 13.9562 1398 114.654 1102.04 466.907
1188 1 48.0351 11.8871 571 115.159 1102.79 489.792
1189 0 51.2338 12.7455 653 114.369 1101.28 488.727
1190 0 53.3315 13.7442 733 115.595 1101.65 487.842
1191 0 54.1174 12.7685 691 116.37 1101.3 489.03
1192 0 58.232 14.3564 836 112.77 1101.39 485.73
1193 0 58.2038 12.9888 756 115.688 1101.71 487.503
1194 0 60.2759 14.0355 846 112.985 1101.17 484.356
1195 0 61.2102 13.3965 820 115.282 1101.9 484.251
1196 0 65.1444 13.662 890 114.004 1102.06 484.222
1197 0 64.1442 14.0465 901 116.222 1101.73 481.539
1198 0 67.2421 14.2024 955 114.213 1101.53 482.182
1199 0 70.1458 14.3131 1004 114.475 1101.95 478.774
1200 0 71.1459 13.5637 965 118.021 1101.75 479.376
1201 0 75.1939 13.4718 1013 118.678 1101.59 476.252
1202 0 76.3452 13.1115 1001 120.23 1101.59 476.539
1203 0 82.2831 14.596 1201 114.585 1101.36 475.6
1204 0 84.2651 14.6917 1238 114.158 1101.02 472.475
1205 0 84.2332 13.9019 1171 117.676 1101.25 471.823
1206 0 89.1426 14.3478 1279 116.06 1101.33 470.137
1207 0 90.297 14.4634 1306 115.453 1101.33 468.903
1208 0 90.2498 12.2106 1102 116.334 1101.95 467.564
1209 1 51.2359 11.9448 612 122.314 1102.36 485.116
1210 0 52.1258 11.6641 608 121.441 1102.1 484.135
1211 0 53.1522 11.5517 614 120.912 1101.37 484.049
1212 0 57.2483 12.3148 705 117.668 1101.19 485.152
1213 0 55.1255 12.3355 680 121.847 1101.2 482.504
1214 0 58.2312 11.9352 695 119.555 1101.8 482.87
1215 0 61.2123 13.445 823 114.542 1101.56 481.921
1216 0 64.3054 13.6225 876 112.425 1101.31 479.887
1217 0 65.2154 13.7698 898 112.169 1101.07 476.714
1218 0 69.0617 12.2934 849 110.94 1100.47 479.514
1219 0 73.0485 13.2788 970 107.409 1100.88 479.942
1220 0 74.0847 12.3237 913 110.073 1099.37 479.637
1221 0 76.0324 13.4416 1022 109.588 1099.94 476.784
1222 0 79.1557 12.5828 996 111.214 1098.78 477.674
1223 0 82.0629 13.8187 1134 109.179 1099.34 474.301
1224 0 86.0891 13.0562 1124 110.645 1099.91 474.258
1225 0 88.1656 13.2705 1170 109.952 1100 472.501
1226 0 91.2745 13.0266 1189 106.567 1100.43 472.347
1227 1 48.0946 12.7249 612 101.788 1100.44 493.288
1228 0 49.1935 11.6885 575 105.259 1100.25 491.802
1229 0 52.1582 14.3793 750 100.716 1100.48 487.952
1230 0 53.1513 13.2452 704 100.26 1101.86 491.09
1231 0 55.1037 13.0118 717 99.8842 1101.76 490.636
1232 0 56.3112 12.8394 723 98.9156 1101.46 490.592
1233 0 58.2128 11.7844 686 100.504 1101.99 491.255
1234 0 60.1019 14.2758 858 97.9685 1101.81 488.77
1235 0 63.2045 11.7397 742 102.274 1101.65 486.042
1236 0 66.1481 12.9255 855 99.917 1102.73 487.807
1237 0 69.1081 12.8205 886 99.1558 1101.83 486.343
1238 0 73.1826 15.2632 1117 92.7798 1101.07 481.912
1239 0 72.1876 10.9714 792 101.154 1101.49 482.196
1240 0 74.2198 12.207 906 99.5695 1101.32 481.434
1241 0 76.2318 11.9242 909 100.551 1100.68 479.503
1242 0 82.3173 12.6583 1042 99.1651 1100.99 475.581
1243 0 86.3006 13.4066 1157 97.9092 1100.74 475.56
1244 0 89.3218 12.6397 1129 99.1984 1100.89 472.7
1245 0 92.411 13.6888 1265 97.2522 1100.49 471.707
1246 0 97.4535 13.3192 1298 99.2226 1100.85 469.186
1247 0 99.313 11.3681 1129 103.449 1100.78 466.151
1248 1 49.1417 11.6805 574 99.0401 1101.95 492.632
1249 0 50.1413 12.7839 641 98.1404 1101.75 491.899
1250 0 53.1744 12.9197 687 97.3828 1102.47 491.514
1251 0 54.082 13.461 728 97.5907 1102.55 488.152
1252 0 56.1825 11.9076 669 99.7728 1101.71 489.632
1253 0 58.1968 12.4577 725 98.4897 1102.19 488.808
1254 0 60.1748 12.0981 728 99.4615 1101.6 485.379
1255 0 63.2411 12.8556 813 96.5129 1102.71 487.385
1256 0 66.2073 13.5937 900 94.79 1102.86 484.854
1257 0 66.1655 11.9851 793 98.1501 1102.52 484.018
1258 0 69.2279 14.2572 987 94.4286 1102.24 481.915
1259 0 72.1725 14.0358 1013 94.8944 1101.94 481.092
1260 0 73.3005 12.9058 946 98.3245 1102.63 482.293
1261 0 75.2041 12.9913 977 98.2999 1101.9 478.773
1262 0 80.0728 13.9748 1119 95.8588 1101.72 479.835
1263 0 82.1584 14.0339 1153 96.7511 1100.99 476.726
1264 0 84.1336 14.263 1200 96.2558 1101.53 478.019
1265 0 86.2238 13.291 1146 98.7897 1101.8 473.442
1266 0 86.2767 12.402 1070 100.934 1101.66 475.256
1267 0 93.275 11.6752 1089 99.4353 1101.64 474.44
1268 0 92.2326 12.5986 1162 99.2969 1101.45 469.92
1269 0 95.3082 12.3599 1178 98.6087 1102.01 473.143
1270 1 52.2228 13.136 686 98.0408 1101.93 489.787
1271 0 54.0389 11.8433 640 99.4156 1101.6 488.614
1272 0 56.0314 12.725 713 97.2945 1099.9 490.511
1273 0 57.1004 12.9421 739 95.6779 1099.83 488.536
1274 0 61.1803 14.253 872 93.422 1099.69 488.52
1275 0 60.3201 12.7984 772 97.18 1099.71 487.139
1276 0 64.1605 13.2169 848 95.4328 1099.73 487.514
1277 0 65.0746 15.0136 977 94.1566 1100.24 483.878
1278 0 69.2106 14.6076 1011 93.2641 1100.82 485.528
1279 0 69.2778 13.4098 929 96.5511 1099.9 482.075
1280 0 72.2021 15.0273 1085 93.423 1100.34 483.602
1281 0 74.3203 14.1953 1055 95.054 1100.81 481.293
1282 0 77.2261 14.4511 1116 94.1039 1100.54 479.783
1283 0 79.2721 13.0689 1036 97.0637 1099.69 480.863
1284 0 82.1406 14.3534 1179 95.7634 1100.78 479.724
1285 0 85.4926 14.7732 1263 97.6382 1101.24 475.941
1286 0 89.2722 15.0551 1344 98.1414 1101.02 472.977
1287 0 89.367 14.1887 1268 100.875 1101.12 473.939
1288 0 89.341 13.7339 1227 102.606 1101.24 472.756
1289 0 95.2577 12.1985 1162 105.492 1100.59 470.816
1290 0 95.2246 13.9355 1327 102.395 1099.69 464.391
1291 0 98.1398 12.1459 1192 105.771 1100.26 463.022
1292 1 53.2205 9.9022 527 109.222 1101.34 488.307
1293 0 55.1989 11.4133 630 106.362 1101.62 488.013
1294 0 59.2208 13.6439 808 108.629 1102.1 488.307
1295 0 59.2378 12.5258 742 110.791 1101.59 488.067
1296 0 63.2032 12.5152 791 110.181 1101.87 487.426
1297 0 64.291 12.2879 790 110.563 1101.94 485.586
1298 0 67.3703 13.0918 882 107.528 1102.22 484.816
1299 0 65.2373 12.4469 812 94.8867 1102.17 484.517
1300 0 70.1867 12.7517 895 94.6704 1101.82 482.908
1301 1 140.444 13.2366 1859 103.648 1100.74 446.347
1302 1 74.1688 12.2154 906 97.1545 1102.31 482.309
1303 0 75.2638 12.5957 948 95.8323 1102.25 478.579
1304 0 78.2594 13.9153 1089 96.9513 1100.8 477.816
1305 0 78.1653 11.1303 870 100.885 1100.74 477.785
1306 0 81.187 11.4058 926 99.8866 1100.98 475.235
1307 0 85.2443 11.9304 1017 99.5457 1101.07 475.236
1308 0 91.2839 9.59644 876 102.821 1100.44 475.82
1309 0 90.2322 10.9384 987 100.696 1100.79 474.135
1310 0 95.1942 12.8054 1219 98.5628 1101.52 471.615
1311 0 99.3721 13.3237 1324 96.9237 1101.72 465.239
1312 0 101.425 11.1215 1128 106.21 1100.96 462.013
1313 1 53.1674 10.8713 578 100.905 1100.29 485.445
1314 0 57.2732 11.1047 636 99.6588 1100.61 487.269
1315 0 57.283 11.4519 656 101.166 1100.94 486.085
1316 0 60.2364 12.3181 742 98.9447 1100.72 487.058
1317 0 61.1315 10.9763 671 99.7392 1100.77 487.243
1318 0 63.1974 12.8012 809 98.089 1101.65 486.189
1319 0 67.3134 11.6024 781 101.054 1101.05 483.131
1320 0 67.5467 11.7252 792 103.364 1100.6 481.256
1321 0 70.2463 12.5985 885 100.902 1100.54 483.316
1322 0 75.4655 14.7485 1113 97.8796 1100.51 478.461
1323 0 75.3794 13.2662 1000 101.661 1099.18 477.003
1324 0 79.6771 13.3037 1060 101.161 1099.86 476.857
1325 0 82.5137 13.525 1116 100.592 1100.5 473.735
1326 0 83.4406 13.7942 1151 102.03 1100.7 472.797
1327 0 87.407 13.0996 1145 101.348 1100.79 474.021
1328 0 91.4045 13.2488 1211 100.111 1100.16 471.97
1329 0 92.446 11.7799 1089 102.584 1100.01 470.811
1330 1 46.2934 12.0104 556 98.0108 1100.07 491.678
1331 0 48.255 12.5583 606 95.1403 1099.23 490.639
1332 0 52.0582 12.5821 655 92.9206 1099.99 494.695
1333 0 53.0737 13.9052 738 91.4404 1100.23 493.154
1334 0 53.1935 10.9036 580 95.7793 1100.54 495.272
1335 0 55.4451 14.8074 821 90.9537 1100.11 488.593
1336 0 55.2133 13.2033 729 94.5226 1100.63 490.554
1337 0 58.3325 14.1945 828 92.2693 1100.15 487.907
1338 0 61.1935 14.0701 861 92.8362 1100.22 486.236
1339 0 61.2197 13.9498 854 93.4965 1100.24 484.816
1340 0 64.1467 13.2041 847 95.1724 1100.16 483.432
1341 0 66.1108 12.9782 858 96.5699 1100.6 483.204
1342 0 68.2931 12.5196 855 100.058 1100.44 482.619
1343 0 71.2044 13.4121 955 99.5246 1099.64 480.01
1344 0 74.3355 14.1924 1055 98.2142 1099.87 477.264
1345 0 78.2652 14.3614 1124 97.5676 1099.69 477.47
1346 0 78.4156 14.1171 1107 97.2566 1099.25 478.034
1347 0 82.4714 14.9143 1230 95.6106 1099.66 475.195
1348 0 82.3074 12.7327 1048 101.689 1100.11 474.458
1349 0 86.3076 14.1355 1220 98.7344 1099.49 474.218
1350 0 89.4752 13.9145 1245 100.124 1099.46 472.971
1351 0 92.3168 14.6669 1354 98.7208 1099.81 470.562
1352 0 95.2796 14.3053 1363 99.6324 1100.53 470.894
1353 0 98.3465 13.8083 1358 99.7467 1100.58 469.342
1354 0 102.323 14.0145 1434 96.7364 1100.27 466.791
1355 0 101.372 12.7155 1289 97.9248 1100.26 467.118
1356 0 111.252 16.0536 1786 94.3947 1100.3 460.62
1357 0 116.324 15.1731 1765 94.7864 1100.47 461.063
1358 0 119.42 14.6542 1750 96.1611 1100.81 458.712
1359 0 122.567 13.3315 1634 98.9468 1100.81 457.24
1360 0 128.534 14.3308 1842 97.8507 1100.55 454.347
1361 0 132.473 14.8332 1965 96.0758 1099.82 453.142
1362 0 139.419 16.2245 2262 94.4788 1099.68 451.103
1363 0 142.346 13.6639 1945 98.9301 1101.19 449.522
1364 0 149.507 16.5678 2477 93.1756 1101.1 443.958
1365 0 154.42 14.6613 2264 96.7394 1100.5 440.167
1366 0 157.44 13.5862 2139 98.3553 1099.94 432.309
1367 0 164.36 16.0015 2630 95.3681 1100.94 433.125
1368 0 171.537 14.9472 2564 97.3198 1100.85 431.916
1369 1 84.2749 12.9457 1091 91.0119 1101.29 476.113
1370 0 85.3116 10.9364 933 95.4984 1101.08 474.943
1371 0 89.2392 12.7186 1135 92.3278 1101.19 472.315
1372 0 95.2609 13.4368 1280 91.0938 1101.52 472.102
1373 0 97.2835 14.0517 1367 90.8171 1101.32 469.428
1374 0 101.252 15.5454 1574 90 1101.6 468.377
1375 0 104.575 13.3397 1395 94.7928 1102.05 466.664
1376 0 107.3 14.986 1608 95.1486 1101.35 465.62
1377 1 60.3663 12.3248 744 92.2325 1101.2 488.745
1378 0 62.7148 12.5967 790 96.3253 1101.46 487.252
1379 0 62.0921 11.9661 743 89.5855 1100.64 487.118
1380 0 65.183 13.0862 853 90.1618 1101.46 485.293
1381 0 67.082 13.7742 924 88.4903 1101.29 485.128
1382 0 70.1763 11.3429 796 91.7249 1100.92 481.452
1383 0 72.33 12.5951 911 88.9693 1100.84 483.211
1384 0 76.2364 13.9697 1065 87.9024 1100.34 478.452
1385 0 75.1823 12.0241 904 92.2135 1100.62 475.868
1386 0 81.1759 12.9472 1051 89.7754 1100.59 476.891
1387 0 86.1763 11.1167 958 91.6451 1100.06 475.777
1388 0 84.2084 11.4953 968 92.1033 1100.59 473.194
1389 0 89.2356 12.8872 1150 90.527 1102.26 472.38
1390 0 92.2166 11.7441 1083 93.4829 1102.64 471.205
1391 0 94.1562 10.2808 968 95.0103 1103.34 469.293
1392 0 99.2389 12.3943 1230 92.2837 1101.66 467.63
1393 0 102.63 12.1407 1246 94.5441 1101.63 467.173
1394 1 52.2062 11.3779 594 85.0152 1101.97 493.805
1395 0 52.0727 10.6774 556 86.1655 1100.23 496.016
1396 0 53.3051 11.6499 621 84.2979 1101.69 492.093
1397 0 56.1515 12.1991 685 83.7752 1100.91 491.601
1398 0 57.203 11.6952 669 83.4529 1100.8 490.486
1399 0 60.268 13.6723 824 78.9915 1101.94 489.263
1400 0 60.2451 11.7852 710 80.9507 1101.47 491.056
1401 0 64.1809 12.5583 806 79.464 1101.61 487.438
1402 0 65.3632 11.5661 756 79.6296 1101.53 489.374
1403 0 71.477 11.2204 802 78.3342 1101.12 485.411
1404 0 70.3476 11.3152 796 78.7437 1101.85 486.641
1405 0 71.404 14.579 1041 76.8319 1101.41 480.355
1406 1 155.024 10.5338 1633 91.515 1100.69 439.076
1407 0 159.575 13.937 2224 87.7972 1100.3 434.386
1408 0 167.05 11.8587 1981 89.8889 1099.92 429.875
1409 0 170.887 11.3993 1948 90.0945 1100.45 427.932
1410 0 176.265 11.0232 1943 93.2733 1100.48 428.58
1411 0 180.625 12.9162 2333 91.8225 1099.72 424.333
1412 1 46.2088 14.5427 672 80.3423 1100.3 494.473
1413 0 48.1184 12.0952 582 85.3144 1101.27 492.158
1414 0 47.0381 13.3721 629 89.8299 1101.96 492.06
1415 0 50.0921 12.2574 614 91.2182 1101.73 490.45
1416 0 52.0713 12.5981 656 88.9268 1101.85 491.588
1417 0 53.0373 13.6696 725 88.2097 1101.92 487.749
1418 0 51.039 11.599 592 92.049 1101.85 488.01
1419 0 57.0914 13.0668 746 88.9678 1101.7 487.213
1420 0 59.1868 13.2462 784 89.3763 1102.09 486.196
1421 0 62.1444 14.2893 888 88.491 1101.71 485.465
1422 0 64.1125 12.4313 797 94.5408 1101.71 485.395
1423 0 65.1947 13.2679 865 93.4382 1101.5 483.028
1424 0 69.2028 13.5833 940 90.983 1102.29 482.473
1425 0 68.0588 13.6206 927 87.8587 1102.02 483.102
1426 0 70.083 14.811 1038 88.4778 1102.35 480.122
1427 0 73.1379 13.6181 996 90.8865 1103.34 481.338
1428 0 73.1379 13.5908 994 137.096 1104.33 481.15
1429 0 77.4978 13.2391 1026 93.3684 1102.24 479.116
1430 0 81.3284 14.4845 1178 91.6851 1101.31 477.921
1431 0 83.2608 13.2355 1102 95.1996 1101.22 475.497
1432 0 85.1993 15.5166 1322 92.6649 1101.61 472.958
1433 0 86.2546 14.7239 1270 95.4677 1101.54 470.778
1434 0 90.2788 13.6134 1229 97.8641 1101.53 471.618
1435 0 92.265 13.9056 1283 98.5136 1101.16 467.86
1436 0 98.5169 13.7438 1354 97.0805 1100.86 465.906
1437 0 102.381 16.0185 1640 93.5921 1101.41 466.526
1438 0 104.451 13.7959 1441 97.9362 1100.86 463.061
1439 0 104.239 14.5531 1517 96.5465 1100.24 463.995
1440 1 58.1617 14.1846 825 92.2121 1101.36 486.628
1441 0 57.3673 14.0498 806 92.7481 1101.37 487.403
1442 0 60.2273 13.9638 841 91.635 1100.68 487.857
1443 0 63.3875 13.7724 873 93.0034 1100.72 485.452
1444 0 64.2972 14.6196 940 93.6394 1100.75 482.23
1445 0 69.1843 14.7577 1021 91.9236 1100.71 480.498
1446 0 68.3121 14.4484 987 93.4924 1100.71 480.098
1447 0 70.375 14.437 1016 93.8455 1101.02 480.344
1448 0 77.4376 13.7659 1066 94.1651 1100.97 480.045
1449 0 75.4544 14.3265 1081 96.9963 1100.92 475.457
1450 0 79.3992 15.0002 1191 95.6045 1100.64 474.05
1451 0 79.4311 14.8053 1176 98.3359 1100.66 472.008
1452 0 85.6481 16.0307 1373 97.3853 1100.6 472.646
1453 0 86.3613 14.2888 1234 102.288 1099.46 466.776
1454 0 91.6454 13.9996 1283 102.087 1099.69 467.676
1455 0 95.4199 14.8082 1413 101.447 1100.44 466.617
1456 0 96.782 15.1061 1462 100.025 1099.86 466.664
1457 0 100.676 15.5449 1565 99.5859 1100.26 464.765
1458 1 52.3859 12.9233 677 95.4564 1100.03 487.538
1459 0 54.1156 12.1776 659 97.5174 1100.03 486.143
1460 0 55.3675 11.7939 653 98.0429 1100.56 489.701
1461 0 59.3848 14.0608 835 94.3736 1100.58 486.172
1462 0 59.4057 14.4936 861 93.7294 1100.11 485.97
1463 0 60.1982 13.6051 819 97.4225 1100.76 485.106
1464 0 60.1476 12.1368 730 99.4575 1101.72 485.933
1465 0 66.2982 14.0275 930 96.0849 1102.8 483.245
1466 0 67.3377 13.3358 898 97.8452 1101.83 481.069
1467 0 68.2144 12.7979 873 98.4994 1102.71 482.816
1468 0 70.4153 12.3411 869 101.661 1101.98 478.881
1469 0 72.408 13.6035 985 100.572 1102.69 479.425
1470 0 76.2565 14.8971 1136 98.9481 1101.88 476.888
1471 0 79.4259 13.8116 1097 100.375 1101.48 477.553
1472 0 81.1564 14.4905 1176 99.4974 1100.5 475.512
1473 0 84.4636 11.8394 1000 103.175 1100.4 474.936
1474 0 87.2294 14.1925 1238 98.9313 1100.68 473.475
1475 1 45.1226 12.056 544 91.7279 1100.91 495.274
1476 0 46.0952 11.9318 550 102.807 1101.33 494.838
1477 0 47.3774 12.5587 595 103.308 1101.6 491.566
1478 0 50.2937 11.8703 597 101.809 1101.76 493.923
1479 0 52.2855 11.7815 616 101.213 1101.92 493.331
1480 0 52.2988 12.1035 633 101.834 1102.1 492.035
1481 0 50.4091 12.3986 625 103.461 1102 490.147
1482 0 54.3717 12.4513 677 102.295 1101.47 490.712
1483 0 55.5489 12.6735 704 103.322 1101.53 488.128
1484 0 57.2906 12.6722 726 104.156 1101.36 489.218
1485 0 59.3152 13.5547 804 102.887 1101.49 486.912
1486 0 58.3431 12.8036 747 105.602 1101.6 485.967
1487 0 62.397 12.6448 789 105.016 1101.21 484.648
1488 0 63.1294 11.0883 700 95.1714 1101.65 487.51
1489 0 63.1114 9.60207 606 95.2789 1099.72 484.832
1490 0 64.0842 10.455 670 94.0463 1099.74 484.651
1491 0 67.0529 11.3045 758 90.6095 1099.89 485.863
1492 0 66.1616 8.19206 542 95.155 1099.71 488.994
1493 0 66.1407 9.16229 606 95.4224 1099.48 487.757
1494 1 165.414 13.034 2156 105.159 1099.86 434.398
1495 0 172.525 13.4184 2315 103.235 1098.93 433.22
1496 1 82.1829 12.3992 1019 92.8862 1098.97 475.494
1497 0 87.1622 14.5935 1272 89.3616 1099.59 474.546
1498 0 90.2103 12.3822 1117 94.8774 1099.68 472.675
1499 0 93.2785 11.2673 1051 99.8887 1099.75 469.809
1500 0 93.1774 9.74485 908 100.246 1100.22 462.749
1501 0 96.3468 10.5349 1015 96.3488 1100.32 462.373
1502 0 99.4095 10.8843 1082 96.6941 1100.26 461.815
1503 1 51.0598 10.6346 543 83.326 1099.4 490.584
1504 0 52.05 11.4313 595 92.0504 1101.16 491.494
1505 0 53.0333 11.6719 619 95.9612 1101.97 491.317
1506 0 51.2182 11.207 574 101.141 1102.19 490.735
1507 0 53.0834 11.9623 635 98.4724 1102.3 490.48
1508 0 55.1358 11.9523 659 98.0926 1100.88 490.824
1509 0 54.1317 11.6013 628 99.2022 1101.86 490.971
1510 0 57.0556 12.3914 707 97.6563 1101.09 489.255
1511 0 59.1306 12.1764 720 93.4528 1100.73 487.764
1512 0 61.1035 11.3414 693 97.1977 1101.04 488.742
1513 0 62.078 12.1621 755 94.8676 1100.29 485.572
1514 0 63.0488 11.1818 705 94.4922 1100.67 486.041
1515 0 64.1016 11.0918 711 96.3826 1100.49 484.155
1516 0 66.0715 13.0313 861 93.6458 1101.44 487.127
1517 0 68.105 12.5101 852 95.2254 1100.56 484.178
1518 0 66.0826 9.60919 635 102.932 1098.88 484.32
1519 0 71.1403 11.7374 835 100.608 1099.44 483.145
1520 0 73.0694 12.3307 901 101.074 1099.09 482.446
1521 0 75.0971 11.2654 846 103.742 1099.9 483.168
1522 0 77.0833 11.2865 870 104.674 1099.49 481.334
1523 0 80.1543 11.6525 934 104.148 1099.8 481.437
1524 1 43.0704 11.1678 481 105.247 1099.17 498.04
1525 0 45.0865 12.0657 544 105.783 1099.43 496.059
1526 0 44.1161 11.6964 516 115.32 1099.56 495.322
1527 0 47.046 11.6269 547 113.876 1101.54 495.453
1528 0 46.0179 11.1044 511 116.81 1101.99 494.894
1529 0 47.0079 11.4662 539 118.063 1102.08 492.082
1530 0 45.0904 10.6896 482 113.365 1099.39 496.743
1531 0 47.2063 9.5538 451 115.938 1099.07 496.778
1532 0 49.145 11.6187 571 112.94 1099.12 494.364
1533 0 50.0295 11.4532 573 114.986 1098.81 493.888
1534 0 51.0226 12.4259 634 114.238 1099.5 492.29
1535 0 51.0736 10.9254 558 118.435 1099.68 494.005
1536 0 55.0532 11.8068 650 117.34 1099.06 491.52
1537 0 56.1022 11.9781 672 117.64 1099.35 490.344
1538 0 58.0787 12.1559 706 116.384 1099.57 490.711
1539 0 60.1412 11.7557 707 116.327 1099.36 489.379
1540 0 63.1021 11.9964 757 115.03 1099.32 489.448
1541 0 65.1051 13.6395 888 112.84 1099.01 487.916
1542 0 68.0438 12.7124 865 113.91 1099.91 487.073
1543 0 70.0974 12.2544 859 115.889 1099.6 484.453
1544 0 72.2023 10.8445 783 117.421 1098.87 486.16
1545 0 75.1726 12.0523 906 115.088 1098.77 483.297
1546 0 77.178 12.8275 990 114.087 1099.72 480.559
1547 0 81.1139 13.3023 1079 112.694 1099.16 478.52
1548 1 40.0501 10.1123 405 116.98 1099.21 501.081
1549 0 43.1705 12.3927 535 112.495 1098.6 497.998
1550 0 44.032 11.6052 511 113.659 1099.04 498.526
1551 0 42.1477 12.6934 535 116.127 1099.41 498.054
1552 0 42.0731 11.076 466 122.157 1099.44 497.682
1553 0 45.1717 12.9727 586 117.439 1098.9 497.297
1554 0 47.045 11.1595 525 119.998 1098.53 496.17
1555 0 48.0157 11.3713 546 119.471 1098.23 497.767
1556 0 47.09 11.1064 523 123.392 1099.26 495.514
1557 0 51.0745 11.6692 596 119.966 1099.32 495.369
1558 0 52.063 13.2532 690 115.857 1098.78 493.878
1559 0 54.1177 12.4728 675 115.819 1098.49 492.959
1560 0 58.1461 13.3285 775 108.28 1099.15 490.583
1561 0 56.1016 11.087 622 113.709 1099.1 491.309
1562 0 60.2528 13.128 791 110.052 1099.1 489.41
1563 0 61.1013 12.7984 782 110.971 1099.37 487.734
1564 0 63.0681 12.6847 800 116.438 1100 485.844
1565 0 66.2419 12.0618 799 114.915 1100.04 486.487
1566 0 68.3105 12.1943 833 115.352 1099.95 485.337
1567 0 73.2328 12.8221 939 112.694 1099.56 481.989
1568 0 74.1171 13.8969 1030 110.545 1099.42 481.015
1569 0 76.1695 14.389 1096 108.224 1100.06 482.028
1570 0 79.1319 12.3338 976 113.679 1099.92 479.812
1571 1 44.0375 12.9208 569 110.445 1100.2 496.348
1572 0 46.1719 13.3848 618 106.55 1099.62 496.343
1573 0 48.0269 12.3889 595 108.582 1098.76 495.334
1574 0 47.0481 12.5616 591 110.254 1099.43 493.179
1575 0 50.0283 12.7528 638 108.757 1100.08 493.483
1576 0 51.0486 11.9102 608 110.993 1099.57 493.974
1577 0 53.1435 13.473 716 106.443 1099.58 492.867
1578 0 52.0512 12.0843 629 111.928 1100.01 492.191
1579 0 55.1033 12.9212 712 108.674 1099.57 491.646
1580 0 57.0356 13.0971 747 109.835 1099.58 489.272
1581 0 61.1261 13.6112 832 107.69 1099.1 488.393
1582 0 63.0781 13.84 873 106.216 1099.86 487.761
1583 0 66.0605 13.2 872 106.274 1099.71 487.977
1584 0 65.0769 12.3392 803 109.137 1100.16 486.413
1585 0 68.076 12.2657 835 112.14 1100.17 483.327
1586 0 69.0824 12.3476 853 111.85 1099.8 483.143
1587 0 74.0378 12.6962 940 111.422 1099.86 483.135
1588 0 77.0599 13.3532 1029 109.724 1100.24 480.706
1589 0 78.0965 13.3553 1043 109.556 1099.92 479.638
1590 1 39.0247 9.76306 381 109.184 1100.5 500.787
1591 0 42.0193 10.9474 460 109.785 1100.22 496.9
1592 0 42.1135 12.1576 512 106.85 1099.59 497.799
1593 0 42.0465 11.8678 499 104.493 1099.14 496.058
1594 0 46.121 12.3371 569 100.821 1099.47 495.656
1595 0 46.0869 11.6085 535 102.757 1099.49 495.357
1596 0 48.2034 11.4307 551 102.53 1099.3 493.951
1597 0 51.0707 12.0617 616 100.476 1099.79 493.554
1598 0 51.1702 13.1522 673 100.012 1099.89 490.967
1599 0 53.1864 11.9015 633 101.649 1099.97 490.754
1600 0 55.0676 12.4393 685 99.4117 1100.09 490.831
1601 0 56.0816 12.1074 679 101.267 1099.81 491.576
1602 0 59.1225 13.1253 776 98.6095 1099.64 489.023
1603 0 60.0984 14.21 854 96.7201 1099.37 486.554
1604 0 63.0898 12.4584 786 99.4097 1099.89 486.509
1605 0 65.082 14.0592 915 96.2568 1099.95 485.904
1606 0 66.0356 13.0081 859 97.8044 1099.49 485.364
1607 0 70.0897 13.711 961 96.0208 1099.4 482.919
1608 0 71.267 13.3442 951 96.6036 1099.13 483.152
1609 0 74.1273 12.6134 935 97.4257 1098.67 481.881
1610 0 77.1034 13.3587 1030 95.4418 1099.83 478.454
1611 0 79.1342 14.09 1115 94.3067 1099.59 478.695
1612 0 81.1485 13.9374 1131 99.8267 1099.29 477.87
1613 0 84.1656 12.3328 1038 97.289 1099.54 478.566
1614 1 43.02 12.2734 528 99.2045 1100.19 497.35
1615 0 41.0629 12.2495 503 98.9185 1099.4 497.582
1616 0 44.0552 12.0757 532 94.6692 1099.41 496.821
1617 0 45.0467 12.4537 561 93.0374 1099.51 495.554
1618 0 46.0826 11.8049 544 93.7298 1099.08 494.965
1619 0 49.0307 13.1142 643 90.8818 1099.73 493.93
1620 0 49.0733 13.2659 651 91.7296 1100.07 494.389
1621 0 49.073 10.8614 533 96.4709 1099.66 494.182
1622 0 52.1169 12.7214 663 91.9382 1099.5 493.557
1623 0 52.1287 12.143 633 93.654 1100.21 492.051
1624 0 56.0232 12.2271 685 92.0088 1099.98 490.931
1625 0 57.0922 11.7354 670 93.406 1100.19 491.494
1626 0 59.1866 13.4828 798 90.3258 1099.44 489.315
1627 0 61.0492 13.8904 848 89.3255 1100.01 487.79
1628 0 62.0616 12.1492 754 92.9204 1100.09 486.771
1629 0 66.0833 12.5902 832 91.9002 1100.01 485.436
1630 0 68.1356 12.9154 880 92.0091 1099.76 484.203
1631 0 69.1292 10.4008 719 96.1892 1099.32 485.563
1632 0 72.1181 15.0448 1085 89.2212 1099.31 480.47
1633 0 76.1302 14.3176 1090 90.1816 1098.98 480.192
1634 0 77.2645 12.8002 989 93.4874 1099.26 480.162
1635 0 80.2146 12.1674 976 95.2162 1099.63 480.295
1636 0 83.183 13.9331 1159 92.3615 1099.16 475.816
1637 0 87.1863 13.8439 1207 92.6595 1099.05 475.409
1638 0 89.189 12.5688 1121 93.9295 1098.64 477.435
1639 1 48.0353 11.4915 552 99.0199 1099.62 494.317
1640 0 49.0743 12.1856 598 98.7358 1099.76 493.234
1641 0 51.0618 13.3368 681 97.0514 1098.91 492.532
1642 0 53.0406 13.5934 721 94.7559 1099.67 492.431
1643 0 55.5219 13.7603 764 97.983 1097.87 489.759
1644 0 53.2739 12.0134 640 103.897 1098.15 489.197
1645 0 56.4839 13.2604 749 101.136 1098.16 486.904
1646 0 57.3197 15.7189 901 97.0655 1098.67 487.323
1647 0 61.251 15.0855 924 97.1818 1098.22 487.311
1648 0 62.2351 14.5898 908 96.891 1098.3 487.869
1649 0 61.2014 12.9899 795 102.989 1098.07 486.844
1650 0 64.2733 15.4341 992 98.9345 1098.19 484.86
1651 0 64.2558 13.8198 888 103.557 1098.43 485.417
1652 0 66.3081 13.3769 887 104.957 1098.48 485.445
1653 0 71.2514 14.5822 1039 102.926 1098.04 483.497
1654 0 71.2095 13.9869 996 106.477 1098.31 482.475
1655 0 72.1362 13.6686 986 109.194 1098.01 481.859
1656 0 75.2352 14.5809 1097 107.541 1098.17 481.469
1657 0 78.232 17.3586 1358 101.766 1097.65 478.607
1658 0 81.2165 16.0066 1300 104.523 1096.95 479.551
1659 0 82.1821 15.8794 1305 107.262 1097.95 479.141
1660 0 85.2186 14.7855 1260 111.621 1097.63 476.795
1661 0 88.1737 16.2293 1431 107.01 1097.37 477.015
1662 0 89.1376 15.5153 1383 109.341 1097.27 472.473
1663 0 92.3011 14.6911 1356 110.444 1097.79 472.194
1664 0 97.1784 15.6825 1524 107.305 1098.49 471.736
1665 0 100.154 16.5445 1657 106.995 1097.91 469.924
1666 0 101.307 15.606 1581 110.524 1098.22 468.056
1667 0 104.36 14.4021 1503 110.377 1097.74 463.488
1668 0 109.324 13.8304 1512 106.741 1097.63 466.949
1669 0 110.281 12.5044 1379 109.336 1097.87 464.202
1670 0 116.311 13.3349 1551 109.814 1097.03 462.016
1671 1 62.1034 13.397 832 102.358 1097.27 488.788
1672 0 64.1092 13.3834 858 98.486 1097.18 485.434
1673 0 65.1344 12.1288 790 101.654 1097.42 485.204
1674 0 68.1368 13.6784 932 99.1695 1097.74 484.498
1675 0 70.1367 13.2171 927 99.7314 1097.03 483.273
1676 0 70.0786 12.5431 879 102.116 1097.23 480.9
1677 0 77.1896 13.6288 1052 100.766 1097.17 483.519
1678 0 79.0804 14.6307 1157 101.175 1097.68 480.204
1679 0 80.0685 15.0746 1207 101.385 1097.13 478.595
1680 0 83.0668 14.3258 1190 103.606 1096.88 477.675
1681 0 84.1332 13.8709 1167 103.887 1096.68 476.987
1682 0 87.1871 14.0961 1229 100.001 1097.9 467.517
1683 0 87.347 12.3187 1076 104.826 1097.91 467.492
1684 0 93.276 13.9479 1301 101.66 1098.01 466.669
1685 0 93.2704 11.9009 1110 104.629 1098 466.937
1686 0 97.3277 13.8193 1345 101.367 1097.57 463.467
1687 0 101.201 14.2786 1445 102.368 1097.52 460.617
1688 1 53.1222 12.01 638 107.133 1097.9 484.387
1689 0 54.0655 10.9867 594 98.697 1097.13 484.727
1690 0 58.1131 14.3857 836 91.9581 1097.54 485.904
1691 0 57.0727 10.4779 598 100.052 1098.06 483.085
1692 0 62.0771 14.0309 871 92.6544 1098.07 483.412
1693 0 64.0567 12.926 828 94.5338 1098.02 479.907
1694 0 64.1163 12.2434 785 96.5809 1097.7 476.8
1695 0 68.1034 13.6704 931 93.9366 1097.26 478.294
1696 0 70.2459 12.0861 849 96.4099 1097.82 477.951
1697 0 72.134 14.071 1015 93.1606 1097.29 474.034
1698 0 73.084 11.4526 837 97.9582 1097.91 473.337
1699 0 77.134 12.3033 949 96.8799 1098.11 472.436
1700 0 79.1322 13.9766 1106 95.1166 1098.32 469.583
1701 0 85.1215 13.2751 1130 95.0009 1097.74 469.919
1702 0 86.1438 11.9451 1029 98.4548 1096.95 471.783
1703 0 88.1561 11.3435 1000 91.13 1097.51 464.861
1704 0 92.1486 12.5015 1152 101.812 1097.7 464.063