time division length width area intensity CMx CMy
0 0 118.146 14.8461 1754 103.267 1180.31 428.24
1 0 119.187 13.2481 1579 107.364 1179.86 427.281
2 0 122.318 12.0261 1471 110.22 1180.55 426.223
3 0 125.19 12.1016 1515 107.003 1179.24 422.337
4 0 128.199 11.7395 1505 107.841 1179.3 420.718
5 0 128.204 11.8093 1514 142.703 1179.3 420.822
6 1 58.057 8.75003 508 93.6476 1180.48 452.874
7 0 63.3461 12.6922 804 95.5236 1181.13 457.313
8 0 65.1816 11.8899 775 99.3535 1181.08 454.023
9 0 67.1203 11.1293 747 100.714 1181.11 455.568
10 0 66.2866 10.3943 689 103.597 1179.96 453.821
11 0 71.2646 11.5485 823 101.797 1180.37 452.395
12 0 72.4517 11.5111 834 101.785 1182.41 453.704
13 0 74.1726 11.5407 856 103.301 1182.59 450.044
14 0 75.4584 11.609 876 102.261 1182.37 451.932
15 0 76.3288 12.1841 930 103.291 1182.13 449.215
16 0 79.3388 11.0286 875 104.328 1182.56 446.625
17 0 83.2301 12.3513 1028 101.795 1182.14 445.688
18 0 83.3336 11.772 981 104.224 1181.31 445.873
19 0 84.6499 12.2386 1036 103.862 1181.66 444.941
20 0 88.4399 12.1778 1077 103.198 1180.98 441.132
21 0 89.6312 11.8374 1061 104.004 1181.37 441.076
22 0 91.3973 13.4687 1231 101.753 1181.12 438.514
23 0 94.2659 12.6027 1188 99.8468 1180.91 438.851
24 0 100.378 12.5127 1256 99.4419 1181.45 437.107
25 0 100.111 11.1177 1113 101.279 1180.97 434.627
26 0 105.102 13.2729 1395 96.5713 1181.44 434.123
27 0 107.221 12.6747 1359 98.7572 1181.4 432.815
28 0 111.138 12.6959 1411 95.9709 1181.48 429.242
29 0 111.148 10.5894 1177 101.511 1181.73 424.458
30 0 116.183 12.1532 1412 100.957 1181.32 419.13
31 0 119.19 11.9557 1425 100.563 1180.58 425.658
32 0 121.316 11.1115 1348 101.604 1180.75 427.82
33 0 125.131 11.1643 1397 102.948 1181.44 421.315
34 0 131.241 11.3836 1494 102.507 1181.71 420.655
35 0 135.159 12.9108 1745 100.458 1180.59 418.708
36 0 139.212 12.7144 1770 100.747 1180.65 418.719
37 0 143.186 12.3615 1770 102.719 1180.5 412.501
38 0 144.155 11.335 1634 105.624 1180.8 410.685
39 0 151.316 12.5301 1896 104.106 1181.17 409.235
40 0 156.203 11.4082 1782 105.854 1181.04 408.347
41 0 161.416 12.7745 2062 103.903 1181.37 405.66
42 0 168.377 13.3153 2242 102.872 1182.04 401.846
43 1 65.1855 11.3215 738 91.8618 1182.77 455.225
44 0 66.096 11.2261 742 92.0633 1182.59 453.736
45 0 69.0993 11.6209 803 95.6401 1182.14 451.857
46 0 71.0552 11.8359 841 95.6243 1181.85 451.366
47 0 73.1232 12.8277 938 94.0586 1181.83 447.009
48 0 76.1196 11.8366 901 94.9612 1182.42 440.487
49 0 79.0842 11.0262 872 102.622 1181.87 442.661
50 0 83.178 10.5917 881 104.637 1181.54 445.058
51 0 84.2268 11.3147 953 103.471 1181.5 443.632
52 0 87.2668 11.7112 1022 103.292 1181.72 441.893
53 0 88.1694 11.4892 1013 104.369 1181.81 438.709
54 0 90.2625 11.3447 1024 105.275 1181.33 441.097
55 0 92.1283 11.1909 1031 104.816 1181.61 439.151
56 0 94.1278 11.0594 1041 104.961 1181.75 439.429
57 0 99.1218 11.6725 1157 105.169 1181.44 437.567
58 0 99.1691 11.0417 1095 107.25 1181.59 435.858
59 0 103.098 12.105 1248 105.173 1180.77 434.369
60 0 105.105 11.969 1258 106.343 1181.33 434.502
61 0 109.164 13.0171 1421 105.524 1181.24 426.936
62 0 109.107 12.1624 1327 108.187 1181.82 427.983
63 0 114.101 12.4626 1422 108.04 1181.47 428.343
64 0 120.258 14.2028 1708 103.172 1181.83 430.001
65 0 122.143 13.6479 1667 104.571 1181.73 428.652
66 0 125.121 12.9315 1618 107.287 1181.38 426.908
67 0 129.114 13.1125 1693 107.825 1181.48 424.022
68 0 131.114 13.4234 1760 108.24 1181.72 420.856
69 0 137.237 12.6496 1736 108.889 1181.94 416.547
70 0 142.228 13.3096 1893 107.86 1182.1 419.047
71 0 147.292 15.3233 2257 73.942 1181.67 412.462
72 0 150.295 13.1874 1982 110.225 1181.95 410.201
73 0 155.194 15.0199 2331 106.247 1181.75 404.366
74 0 161.277 14.689 2369 106.323 1181.71 401.225
75 0 164.277 13.2642 2179 109.894 1181.74 399.517
76 0 171.263 12.8516 2201 111.471 1181.55 391.758
77 0 179.304 12.8051 2296 110.723 1181.77 398.297
78 0 182.189 13.4311 2447 110.689 1181.66 390.148
79 0 187.202 13.1729 2466 110.737 1181.7 390.295
80 0 192.276 13.9071 2674 111.042 1181.8 387.969
81 0 200.452 13.7739 2761 113.15 1181.98 384.312
82 0 204.292 13.6178 2782 112.787 1182.43 384.165
83 0 210.384 14.0457 2955 111.537 1181.99 380.778
84 0 216.42 12.7622 2762 113.643 1181.49 377.627
85 1 170.135 11.8142 2010 109.906 1182.74 402.02
86 0 176.141 13.8412 2438 106.652 1181.78 394.409
87 0 181.2 11.7715 2133 111.363 1181.37 392.489
88 0 189.297 13.1803 2495 109.52 1180.78 386.968
89 0 191.319 13.0672 2500 110.194 1181.36 384.544
90 0 202.246 13.8445 2800 108.79 1181.91 379.596
91 0 208.348 13.799 2875 109.505 1181.55 377.616
92 0 213.235 13.0654 2786 112.291 1181.34 370.2
93 0 224.333 13.7073 3075 109.925 1181.18 369.13
94 0 228.367 13.9469 3185 110.408 1180.98 364.658
95 0 233.523 13.0437 3046 113.258 1180.62 359.763
96 0 242.242 12.6733 3070 114.45 1181.36 355.693
97 0 251.588 13.8679 3489 113.275 1181.69 352.718
98 0 250.702 9.04659 2268 121.729 1180.57 363.771
99 0 249.352 7.96864 1987 119.098 1181.32 380.875
100 1 226.41 8.22844 1863 103.256 1180.8 400.83
101 0 222.287 6.40163 1423 106.684 1181.1 403.755
102 0 220.296 8.02555 1768 105.81 1180.6 399.007
103 0 222.47 10.6756 2375 106.976 1180.41 383.672
104 0 228.296 13.5176 3086 102.889 1181.46 374.502
105 1 84.0743 10.8238 910 96.1923 1180.68 443.587
106 0 88.1369 11.9927 1057 95.6604 1181.44 435.742
107 0 88.2355 11.1293 982 95.1986 1181.49 441.01
108 0 92.162 11.6534 1074 89.8371 1180.01 440.219
109 0 97.3422 13.7453 1338 92.9798 1180.81 441.729
110 0 100.14 14.3898 1441 89.4816 1180.62 442.006
111 0 101.113 11.5712 1170 95.259 1181.31 441.534
112 0 107.139 14.0005 1500 92.02 1181.23 438.162
113 0 109.188 12.3731 1351 95.9904 1180.55 433.195
114 0 114.19 14.4321 1648 91.9096 1180.67 434.323
115 0 113.319 11.3043 1281 100.237 1180.3 435.883
116 0 120.141 14.4913 1741 92.7277 1180.93 430.812
117 0 123.155 13.1704 1622 95.9538 1181.53 428.139
118 0 127.194 13.5541 1724 96.3759 1181.11 428.031
119 0 129.256 12.6647 1637 97.9145 1180.77 422.382
120 0 136.232 15.7379 2144 91.4809 1181.1 419.558
121 0 138.098 12.9763 1792 98.8616 1180.74 418.762
122 0 144.207 14.8814 2146 95.4273 1180.99 420.246
123 0 147.27 14.409 2122 97.5938 1180.85 417.704
124 0 150.162 13.7718 2068 99.3607 1179.68 411.043
125 1 92.1957 10.2933 949 101.037 1180.09 441.628
126 0 95.1054 10.2728 977 100.264 1180.36 443.854
127 0 100.16 11.4916 1151 98.8732 1180.09 437.825
128 0 101.115 11.8577 1199 97.6355 1180.65 434.629
129 0 104.143 10.956 1141 97.3856 1179.8 436.92
130 0 108.078 11.2326 1214 99.1845 1180.07 434.581
131 1 15.0198 5.79236 87 79.6552 1182.07 482.736
132 0 15.0421 7.0469 106 79.1321 1180.84 481.66
133 0 21.0368 6.89268 145 77.8069 1181.23 479.297
134 0 20.0473 4.04044 81 80.0247 1181.36 481.494
135 1 132.261 14.426 1908 89.5445 1180.64 414.425
136 0 141.543 18.1641 2571 81.3014 1180.93 413.183
137 0 142.295 16.4026 2334 85.8432 1180.55 407.053
138 0 143.364 15.7361 2256 88.2673 1181.34 407.609
139 0 144.314 16.3394 2358 88.8189 1180.42 407.504
140 0 145.534 15.2473 2219 91.2794 1180.84 407.249
141 0 147.358 12.4527 1835 98.7831 1180.68 411.256
142 0 149.279 12.9556 1934 98.5569 1180.51 406.216
143 0 154.352 11.7783 1818 101.265 1181.06 404.526
144 0 161.417 14.4223 2328 95.8849 1181.35 405.678
145 0 167.461 13.018 2180 98.2257 1181.33 404.628
146 0 169.459 12.4691 2113 101.852 1181.31 398.646
147 0 173.341 11.9418 2070 103.668 1180.32 397.053
148 1 13.0217 5.60603 73 76.2055 1181.86 480.685
149 0 12.0245 4.49081 54 77.3889 1182.35 480.611
150 0 12.0061 5.24733 63 76.5873 1182.56 478.889
151 0 15.0408 7.24694 109 74.7523 1181.81 480.128
152 0 11.001 5.27223 58 76.6897 1181.71 480.983
153 0 18.0497 3.98898 72 78.4722 1181.97 477.403
154 0 19.1395 5.22479 100 76.56 1179.55 479.74
155 0 18.0085 5.83059 105 76.9429 1179.65 478.01
156 1 127.296 11.6421 1482 96.2254 1179.31 418.568
157 0 131.441 10.2936 1353 98.2269 1180.07 414.039
158 0 137.259 11.737 1611 95.8125 1179.46 414.433
159 0 138.205 10.6364 1470 98.8327 1180.13 406.988
160 0 143.249 11.0367 1581 98.4668 1179.99 407.93
161 0 149.38 10.3628 1548 98.8178 1179.98 406.105
162 0 155.529 12.1842 1895 94.4047 1179.49 406.56
163 0 161.26 11.7636 1897 96.5714 1179.71 400.759
164 1 95.1412 8.96562 853 88.4818 1179.44 434.675
165 0 101.084 9.20024 930 91.1247 1178.56 434.526
166 0 104.108 10.6908 1113 92.4394 1179.28 431.916
167 0 106.21 7.9277 842 97.6116 1179.16 427.299
168 0 111.25 9.86964 1098 94.7577 1179.61 424.95
169 0 117.24 13.4084 1572 86.8518 1179.48 427.132
170 0 117.165 9.0983 1066 96.8743 1178.71 419.947
171 0 122.168 10.502 1283 91.848 1178.83 419.672
172 0 124.24 10.198 1267 93.0829 1179.19 417.197
173 0 129.274 9.89369 1279 93.2408 1179.09 413.826
174 0 131.186 8.8805 1165 95.8077 1178.94 413.426
175 0 138.236 11.3139 1564 90.2033 1179.87 414.038
176 0 143.595 10.7385 1542 92.7834 1179.71 405.308
177 0 145.635 11.2747 1642 92.7351 1179.47 406.205
178 0 151.374 11.3758 1722 95.421 1178.91 407.667
179 0 155.273 12.082 1876 94.2985 1178.71 404.799
180 0 157.169 8.87578 1395 97.9233 1178.92 398.551
181 0 165.195 11.9253 1970 93.4 1179.52 394.223
182 0 171.168 12.6133 2159 91.5382 1179.3 398.725
183 0 175.289 12.7617 2237 91.9513 1178.7 397.826
184 1 16.0111 3.24775 52 75.8269 1180.83 480.192
185 0 22.0391 3.62991 80 75 1178.84 474.688
186 0 20.036 5.44021 109 70.5229 1180.6 468.11
187 0 16.0206 4.61906 74 72.1081 1181.11 467.149
188 0 14.0363 6.05572 85 69.8 1180.89 468.082
189 0 18.2386 5.86667 107 69.7196 1180.75 469.841
190 0 24.0342 4.86807 117 73.265 1179.55 474.547
191 0 18.0509 8.58683 155 70.129 1179.21 477.516
192 0 15.1548 3.95915 60 75.9 1178.77 477.983
193 1 29.2221 5.54375 162 72.5309 1179.07 474.364
194 0 24.2374 7.42654 180 72.5167 1179.86 468.883
195 0 21.1985 3.30212 70 78.6857 1179.73 468.871
196 0 14.1089 6.02459 85 72.4588 1177.72 476.353
197 0 14.0225 4.13622 58 75.1724 1181.22 480.466
198 0 14.0005 3.21418 45 76.8444 1180.27 481.044
199 0 14.0028 4.35626 61 74.0656 1181.03 479.246
200 0 11.0065 4.63363 51 73.8039 1182.78 479.392
201 0 10.0067 4.79679 48 75.4583 1181.42 478.25
202 0 16.0008 6.43719 103 71.9709 1179.76 481.155
203 0 11.0023 4.72628 52 69.9423 1181.73 481.731
204 0 11.0059 5.99681 66 69.4091 1181.77 478.985
205 0 18.021 6.43693 116 69.7759 1179.83 479.862
206 0 19.0162 5.46904 104 72.7404 1181.56 478.769
207 0 20.1459 6.65148 134 72.6343 1180.74 475.925
208 0 12.0012 3.333 40 74.125 1180.1 480.6
209 0 11.0046 4.81618 53 71.6792 1181.7 480.925
210 0 10.0018 4.09924 41 73.0976 1180.51 480.976
211 1 84.1893 9.49051 799 85.0964 1180.02 443.272
212 0 86.182 8.77214 756 85.9537 1180.19 436.398
213 0 94.1837 5.96706 562 89.4128 1179.59 442.614
214 0 92.1147 10.8126 996 82.511 1180.08 436.543
215 0 95.1943 9.87455 940 83.833 1181.07 433.622
216 0 97.2236 8.06389 784 85.4796 1181.57 436.205
217 0 97.3111 8.07719 786 86.6158 1181.17 436.58
218 0 97.1168 7.71236 749 90.0948 1180.56 428.473
219 0 100.403 8.14715 818 90.2005 1179.13 425.834
220 0 105.448 8.92384 941 88.5441 1179.65 429.309
221 0 106.432 10.3353 1100 87.1264 1179.9 425.375
222 0 110.144 11.0129 1213 85.6768 1179.73 428.906
223 0 106.18 5.68845 604 98.2964 1179.13 410.874
224 0 115.27 10.2715 1184 87.7753 1180.34 428.52
225 0 118.716 10.1418 1204 89.5299 1180.65 421.586
226 0 121.503 10.9874 1335 88.8772 1180.39 418.796
227 0 125.575 10.9018 1369 89.943 1179.42 417.523
228 0 128.684 13.5992 1750 86.0251 1179.67 418.159
229 0 130.578 11.25 1469 91.177 1179.34 412.446
230 0 134.471 10.4335 1403 91.8517 1179.79 417.135
231 0 137.305 10.1817 1398 92.9242 1179.84 413.604
232 0 140.581 10.229 1438 94.5549 1179.54 406.064
233 1 11.0429 3.71278 41 77.3659 1177.76 475.463
234 0 13.0405 5.3679 70 74.1857 1177.8 477.286
235 0 13.0494 5.90067 77 71.8442 1177.03 477.649
236 0 14.0496 5.40939 76 72.8816 1177.55 476.75
237 0 15.0281 5.98879 90 70.9111 1177.16 477.867
238 1 177.671 11.2117 1992 94.4081 1178.88 398.065
239 0 177.79 13.0548 2321 92.0181 1179.32 394.404
240 0 180.836 12.4588 2253 94.6906 1179.16 390.008
241 0 182.59 10.9042 1991 98.4174 1179.45 382.522
242 0 189.831 12.9484 2458 94.299 1179.45 386.165
243 0 196.752 12.4675 2453 94.7521 1179.47 387.17
244 0 202.824 14.2439 2889 94.0616 1179.86 384.749
245 0 204.907 12.6106 2584 99.5066 1180.13 376.132
246 0 211.812 14.0596 2978 96.8862 1179.48 378.424
247 0 214.847 14.6569 3149 97.5252 1179.83 373.204
248 0 220.61 13.4083 2958 100.352 1180.11 368.354
249 0 229.051 14.1584 3243 99.588 1179.63 368.245
250 0 236.975 14.8286 3514 100.227 1179.86 361.319
251 1 58.5847 8.87604 520 86.3962 1180.95 454.423
252 0 59.3339 8.51115 505 79.3307 1180.49 451.149
253 0 62.1173 10.5607 656 74.5808 1181.36 457.372
254 0 62.0853 9.26145 575 76.6939 1180.82 456.403
255 0 67.1678 10.645 715 75.1748 1180.19 456.34
256 0 65.1119 8.86167 577 77.8111 1180.54 456.666
257 0 67.1128 6.83923 459 79.9063 1180.15 456.863
258 0 69.1154 9.1586 633 78.4534 1179.73 453.1
259 0 73.1222 11.3235 828 75.872 1180.19 452.565
260 0 76.0809 10.778 820 77.4232 1180.63 450.238
261 0 74.0856 9.12458 676 80.4186 1181.05 448.781
262 0 78.2513 10.9136 854 77.9637 1180.85 448.061
263 1 24.0023 2.83307 68 75.0441 1180.4 479.162
264 0 24.0231 8.61672 207 70.314 1180.48 475.077
265 0 23.01 6.9535 160 70.6938 1180.14 477.562
266 0 13.0021 2.38424 31 74.0645 1180.03 480.71
267 0 19.0177 4.2066 80 73.2875 1180.76 477.888
268 0 20.0278 6.44103 129 72.7054 1180.39 474.876
269 0 15.0165 4.06221 61 72.3607 1180.54 479.721
270 0 16.0073 4.93524 79 72.8734 1180.28 479.013
271 0 14.0043 7.3549 103 69.7087 1180.4 478.233
272 0 15.0011 4.39968 66 73.2424 1180.86 479.121
273 0 21.0182 3.61592 76 74.9211 1180.64 475.25
274 0 23.0332 2.17078 50 76.12 1180.62 477.5
275 1 170.391 8.18118 1394 91.9885 1180.18 393.132
276 1 111.284 9.09384 1012 88.8014 1180.37 419.581
277 1 54.0939 7.70882 417 75.6067 1180.97 457.751
278 0 57.0682 9.14695 522 75.7969 1180.39 457.789
279 0 65.1618 7.53509 491 85.1039 1180.1 452.825
280 0 62.4878 11.6343 727 80.3122 1181.08 451.787
281 0 63.0768 8.73539 551 82.6806 1179.87 453.8
282 0 71.1314 13.5946 967 72.3009 1180.13 451.105
283 0 67.091 14.3536 963 73.4528 1181.05 451.941
284 0 69.0943 13.8941 960 74.2688 1180.72 450.725
285 0 71.1602 13.055 929 76.2777 1180.76 450.285
286 0 70.1147 9.51298 667 83.4063 1180.11 452.979
287 0 73.1738 11.5615 846 80.3061 1180.2 450.521
288 0 75.1558 11.6292 874 76.3249 1181.11 453.613
289 0 73.1772 8.82789 646 82.8204 1180.93 445.214
290 0 77.2679 10.4959 811 81.2158 1181.09 447.149
291 0 78.2209 9.90784 775 83.1265 1181.34 442.431
292 0 78.3125 9.60255 752 84.4588 1180.52 445.102
293 0 81.1305 12.0916 981 80.5362 1180.97 447.506
294 0 85.186 11.4808 978 82.1166 1180.99 446.428
295 0 86.4089 11.677 1009 83.5619 1180.08 441.632
296 0 87.3755 11.6165 1015 85.0365 1178.9 440.55
297 0 90.2025 13.0817 1180 82.911 1179.78 440.039
298 0 92.1377 11.8084 1088 85.2022 1179.37 440.671
299 0 94.2513 12.9972 1225 83.7649 1180.04 438.566
300 0 96.2413 12.3751 1191 85.1192 1181.34 439.493
301 0 98.216 12.5743 1235 86.1984 1180.47 434.505
302 0 100.39 11.7243 1177 88.6126 1181.28 432.501
303 0 101.329 10.6682 1081 91.3876 1181.12 428.855
304 0 100.297 10.5187 1055 92.8256 1181.18 424.031
305 0 106.399 10.7332 1142 91.5946 1181.36 427.388
306 0 111.413 12.3864 1380 89.9377 1180.45 424.889
307 0 116.252 12.5331 1457 89.7934 1181.11 424.889
308 0 117.199 11.664 1367 92.2473 1181.27 423.455
309 0 121.226 12.5386 1520 90.5809 1181.26 424.916
310 0 126.266 12.9172 1631 91.3446 1180.81 421.241
311 0 129.228 13.008 1681 91.655 1180.51 420.993
312 0 131.309 11.9413 1568 94.014 1181.12 418.37
313 0 130.318 12.8148 1670 93.9617 1180.7 417.723
314 0 137.327 13.2822 1824 93.3706 1181.18 414.328
315 1 82.1283 11.4699 942 88.0085 1181.21 441.83
316 0 83.0661 10.9792 912 91.5329 1181.53 436.966
317 0 88.1076 10.1467 894 91.019 1181.1 436.742
318 0 89.127 11.3322 1010 90.4564 1180.39 441.783
319 0 90.2228 10.4741 945 85.254 1180.87 439.976
320 0 95.1308 11.1741 1063 84.4506 1181.13 440.365
321 0 97.143 10.675 1037 85.2343 1181.46 436.332
322 0 98.1 9.74515 956 86.0146 1180.94 439.045
323 0 102.2 11.9472 1221 83.8354 1180.33 436.378
324 0 105.16 10.8407 1140 86.9272 1180.93 427.889
325 0 106.158 10.3148 1095 88.19 1180.84 424.949
326 0 111.142 10.824 1203 86.0008 1180.34 435.458
327 0 114.244 11.5105 1315 86.3369 1181.55 431.611
328 0 118.065 10.7906 1274 88.0542 1181.19 425.89
329 0 122.148 12.5422 1532 85.9086 1182.14 426.699
330 0 124.192 12.2875 1526 88.5085 1181.17 424.317
331 0 127.147 12.1513 1545 88.4492 1181.92 423.568
332 0 134.141 12.0545 1617 88.7464 1181.69 420.887
333 0 137.135 12.7247 1745 88.8395 1181.44 417.532
334 0 138.291 11.0709 1531 92.4971 1181.05 411.153
335 0 143.133 11.2203 1606 90.736 1181.06 414.975
336 0 148.246 12.8907 1911 88.7865 1181.17 414.014
337 0 156.406 12.167 1903 90.4877 1181.17 407.275
338 0 161.389 13.6626 2205 89.1669 1181.59 407.663
339 0 165.235 14.1374 2336 91.595 1181.41 402.619
340 0 168.451 12.6921 2138 95.797 1181.49 397.793
341 0 172.281 12.1546 2094 97.2951 1181.23 394.223
342 0 181.425 13.0743 2372 96.1189 1181.16 392.769
343 0 185.389 12.5034 2318 97.1536 1180.8 392.311
344 0 191.438 14.715 2817 93.1526 1180.34 387.983
345 0 196.408 14.4241 2833 94.7038 1179.73 384.819
346 0 201.409 12.7105 2560 98.0344 1179.91 381.153
347 0 207.49 13.2922 2758 98.38 1179.75 375.031
348 0 213.466 13.3042 2840 99.3004 1181.13 372.676
349 0 220.593 13.4365 2964 99.9916 1179.99 371.205
350 0 220.593 13.3957 2955 166.809 1179 371.179
351 1 56.1967 8.09656 455 83.7319 1181.22 457.422
352 0 57.1337 10.6417 608 81.6727 1180.56 454.84
353 0 55.0306 8.97682 494 86.085 1180.95 451.858
354 0 60.1429 10.8575 653 77.5299 1180.63 456.311
355 0 56.0871 8.98602 504 82.7996 1180.03 457.367
356 0 59.0644 10.3108 609 80.7947 1179.45 457.501
357 0 60.0751 10.5535 634 80.3864 1179.45 453.632
358 0 61.0417 8.33856 509 82.9804 1179.91 456.289
359 0 61.0458 9.14068 558 84.1165 1179.72 450.733
360 0 373.811 15.6095 5835 97.4507 1179.74 290.182
361 0 321.757 16.6741 5365 93.5184 1180.26 317.692
362 1 65.0635 9.19102 598 84.0452 1180.39 450.834
363 0 67.2256 9.52018 640 83.6047 1181.1 450.584
364 0 70.121 10.6245 745 82.9114 1179.94 444.434
365 0 69.0298 9.70595 670 85.4209 1180.2 444.907
366 0 71.1895 9.27103 660 86.8015 1181.8 445.038
367 0 76.2568 11.0547 843 84.0166 1180.61 442.868
368 0 76.1944 9.98761 761 85.7227 1182.04 444.121
369 0 76.3098 11.034 842 85.6995 1181.71 439.444
370 0 83.2213 6.35654 529 91.7032 1182.84 441.183
371 0 83.1628 10.0646 837 86.8112 1182.44 437.584
372 0 81.2787 10.6424 865 87.6162 1181.66 432.635
373 0 86.2447 10.0296 865 89.0902 1181.58 432.098
374 0 84.2632 9.51779 802 91.187 1181.64 434.007
375 0 84.1414 10.1971 858 91.2914 1181.53 433.928
376 0 82.1267 10.4229 856 92.3902 1181.45 428.803
377 0 81.1369 8.18369 664 92.9142 1182.08 435.973
378 0 81.1383 10.2541 832 92.5697 1181.56 431.899
379 0 86.1338 9.24144 796 94.4472 1181.88 432.75
380 0 99.3006 10.8056 1073 93.3737 1181.35 423.519
381 0 105.257 11.4196 1202 91.7962 1180.8 425.083
382 0 112.259 12.8542 1443 88.8926 1181.14 417.407
383 0 110.264 10.2934 1135 95.733 1180.6 417.854
384 0 115.287 10.5563 1217 95.8365 1180.77 415.949
385 0 118.176 11.3559 1342 94.6013 1181.12 419.435
386 0 124.487 11.9129 1483 93.0196 1180.96 419.366
387 0 131.209 13.49 1770 90.7056 1180.78 416.114
388 0 133.245 12.2706 1635 93.2043 1180.56 414.427
389 0 136.366 12.4151 1693 94.8795 1180.85 410.158
390 0 143.41 12.3562 1772 95.6834 1179.96 408.106
391 1 64.1243 12.2418 785 87.1592 1180.12 451.07
392 0 65.0793 11.97 779 88.638 1181.02 449.318
393 0 66.0755 11.5625 764 89.9634 1180.39 445.579
394 0 69.0677 11.5539 798 87.8747 1180.61 450.771
395 0 71.1052 12.7698 908 87.5573 1180.34 444.123
396 0 76.2995 13.565 1035 85.2145 1180.67 444.469
397 0 78.1509 13.1412 1027 87.1548 1180.99 446.629
398 0 78.0716 11.7712 919 89.3264 1181.03 444.723
399 0 76.0913 11.1577 849 94.523 1180.69 438.958
400 0 78.1976 12.8904 1008 91.7024 1180.07 442.05
401 0 84.1842 12.3182 1037 92.6741 1180.65 440.012
402 0 82.0983 11.6446 956 95.0983 1181.02 439.815
403 0 88.1692 14.0412 1238 90.4006 1180.35 438.766
404 0 89.1388 13.3612 1191 92.9916 1180.55 437.191
405 0 91.0913 12.46 1135 95.0643 1179.97 435.145
406 0 94.1044 13.9526 1313 92.3915 1180.46 434.503
407 0 99.1658 13.8657 1375 92.1695 1180.24 430.661
408 0 100.562 14.5085 1459 91.6011 1180.03 431.04
409 0 103.27 14.738 1522 92.088 1179.87 428.614
410 0 102.29 13.2467 1355 96.6731 1179.77 425.658
411 0 113.32 14.4017 1632 91.6648 1179.96 426.207
412 0 117.282 13.6679 1603 92.3437 1179.88 422.398
413 0 121.315 13.2465 1607 95.173 1180.19 420.84
414 1 70.0713 12.7727 895 94.7061 1180.77 441.413
415 0 72.2515 13.0931 946 93.5867 1179.92 448.403
416 0 74.117 13.2898 985 92.3736 1180.9 444.175
417 0 74.2205 13.4868 1001 91.025 1181.11 441.374
418 0 78.2329 12.1944 954 93.0901 1180.2 441.398
419 0 81.2817 12.3398 1003 93.4995 1180.71 440.606
420 0 82.2147 13.5499 1114 93.1266 1180.3 439.12
421 0 84.1331 13.6807 1151 93.139 1180.56 437.426
422 0 88.1734 12.5435 1106 94.9702 1181.12 438.263
423 0 88.129 12.8448 1132 95.3428 1180.22 436.981
424 0 86.1081 11.3462 977 101.713 1180.78 432.72
425 0 91.1725 13.3812 1220 96.482 1181.25 433.902
426 0 95.2976 12.036 1147 99.2485 1181.05 433.898
427 0 95.1812 13.0488 1242 99.1884 1181.22 430.765
428 0 98.2105 12.3001 1208 101.256 1181.1 430.249
429 0 104.209 12.83 1337 99.181 1180.91 430.004
430 0 111.202 15.0807 1677 93.9117 1181.27 425.277
431 0 110.15 13.4452 1481 99.5395 1180.91 426.014
432 0 113.279 13.171 1492 100.823 1180.01 425.231
433 0 115.151 12.8961 1485 100.833 1180.11 426.696
434 0 118.236 13.084 1547 102.676 1180.72 419.924
435 0 121.194 12.5006 1515 103.896 1180.67 417.958
436 0 126.204 12.8601 1623 104.897 1180.41 414.181
437 0 131.132 12.9716 1701 104.402 1180.11 413.734
438 0 132.135 11.0644 1462 108.951 1179.9 411.63
439 1 77.0447 11.993 924 101.601 1180.76 439.51
440 0 81.1158 11.6623 946 102.334 1180.98 436.396
441 0 86.0453 13.7486 1183 98.0144 1180.67 435.227
442 0 91.1788 12.9745 1183 96.9467 1180.52 439.951
443 0 92.0954 12.5413 1155 99.9056 1180.63 435.414
444 0 96.1031 13.7769 1324 97.6979 1180.9 435.057
445 0 99.1216 13.8315 1371 98.4121 1180.35 431.281
446 0 102.176 13.9857 1429 98.5206 1180.15 429.048
447 0 102.046 13.5233 1380 101.404 1180.31 427.878
448 0 106.132 14.3595 1524 99.6759 1180.25 424.875
449 0 109.039 13.6007 1483 101.869 1180.36 425.373
450 0 111.127 13.903 1545 102.401 1179.88 422.9
451 0 114.189 12.8735 1470 103.661 1180.09 420.756
452 0 122.177 14.749 1802 98.955 1180.41 419.077
453 0 125.154 13.5753 1699 102.818 1179.69 416.421
454 0 130.116 13.7877 1794 102.079 1179.55 411.572
455 0 136.149 14.3225 1950 99.6959 1180.58 410.914
456 0 140.262 13.8027 1936 101.029 1179.79 409.324
457 1 81.0412 10.7476 871 101.745 1180.48 442.364
458 0 87.3253 12.4134 1084 95.476 1180.82 442.595
459 0 87.2606 11.0703 966 100.672 1180.94 437.877
460 0 86.1693 12.1969 1051 101.365 1180.89 433.142
461 0 89.2033 12.0063 1071 98.1223 1181.1 435.118
462 0 91.2699 11.3838 1039 101.184 1181.06 436.829
463 0 91.1423 11.323 1032 102.484 1179.8 431.198
464 0 99.197 12.6919 1259 99.1771 1180.19 431.976
465 0 102.218 12.4342 1271 100.189 1180.55 433.133
466 0 104.321 12.6724 1322 101.421 1180.64 428.587
467 0 109.139 13.5698 1481 99.3471 1180.43 427.298
468 0 114.184 13.1279 1499 100.598 1180.26 424.301
469 0 113.315 13.0432 1478 101.821 1180.02 422.197
470 0 119.22 12.7663 1522 101.633 1179.81 423.127
471 0 126.163 14.1484 1785 98.2123 1179.8 418.167
472 0 128.268 14.1813 1819 99.0566 1180.21 417.229
473 0 132.208 13.5922 1797 100.489 1180.94 413.249
474 0 132.291 11.9963 1587 103.582 1180.54 413.817
475 0 138.23 12.3779 1711 102.517 1180.46 411.973
476 0 143.248 12.5726 1801 102.271 1181.04 409.761
477 0 148.322 13.0392 1934 101.43 1179.99 409.93
478 0 152.266 12.3074 1874 103.859 1180.54 406.611
479 0 156.163 14.0431 2193 101.419 1180.63 404.375
480 0 163.234 13.8329 2258 100.849 1180.84 402.907
481 0 167.179 13.5902 2272 102.526 1180.37 397.813
482 0 172.209 13.7507 2368 102.267 1180.38 397.462
483 0 180.391 13.8255 2494 101.943 1180.85 396.138
484 0 183.183 12.3865 2269 105.927 1180.59 386.911
485 0 189.242 14.4471 2734 101.423 1180.26 384.503
486 0 195.379 13.0413 2548 103.768 1180.68 385.298
487 0 197.137 15.1012 2977 101.992 1179.93 380.561
488 1 207.402 14.508 3009 104.888 1179.75 373.945
489 0 212.328 13.6958 2908 105.041 1180.29 377.387
490 0 221.545 13.9249 3085 107.938 1180.26 370.274
491 0 231.392 15.0308 3478 105.272 1180.12 366.813
492 0 236.364 14.1561 3346 109.884 1179.71 358.757
493 0 240.234 13.4119 3222 112.523 1179.2 355.786
494 0 250.381 13.8029 3456 112.62 1179.47 346.738
495 0 254.431 10.6001 2697 117.689 1179.68 357.591
496 0 257.472 10.4322 2686 115.825 1180.61 367.246
497 0 253.352 7.64155 1936 117.419 1179.76 380.62
498 0 255.315 9.82708 2509 115.101 1180 371.643
499 0 255.4 9.33438 2384 116.287 1180.39 372.432
500 0 248.279 9.69071 2406 119.327 1179.56 360.719
501 0 252.571 14.2059 3588 112.057 1180.31 351.906
502 0 254.411 13.2345 3367 116.49 1179.36 346.709
503 1 333.518 11.4866 3831 122.031 1179.46 318.271
504 0 335.27 7.70126 2582 124.182 1179.33 347.849
505 1 287.459 13.8628 3985 120.873 1180.23 340.808
506 0 296.557 12.5676 3727 122.89 1180.32 336.232
507 1 71.3491 10.4276 744 112.817 1179.65 438.352
508 0 77.2228 12.1726 940 107.024 1179.98 442.621
509 0 77.2423 12.5708 971 107.396 1179.01 438.779
510 0 82.2373 11.9654 984 108.129 1180.12 436.432
511 0 83.2954 12.0415 1003 108.291 1179.5 435.539
512 0 80.1193 11.8573 950 112.172 1179 431.637
513 0 92.1473 13.2939 1225 105.697 1179.82 434.703
514 0 91.2898 10.1983 931 115.803 1180.41 432.037
515 0 94.2466 10.6105 1000 114.597 1180.54 433.028
516 0 101.407 10.9164 1107 112.353 1180.14 431.749
517 0 102.278 10.7746 1102 114.411 1180.23 428.42
518 0 104.192 10.2216 1065 115.637 1179.93 427.082
519 0 96.2756 12.1942 1174 113.697 1179.67 419.698
520 0 194.389 13.7868 2680 105.744 1179.95 393.268
521 1 124.24 13.2003 1640 105.954 1179.88 422.631
522 0 126.156 12.9126 1629 108.298 1179.6 425.098
523 0 125.104 11.5424 1444 113.979 1179.61 419.83
524 0 125.19 11.6543 1459 115.43 1179.54 423.505
525 0 128.251 11.6646 1496 114.932 1180.23 423.799
526 0 135.388 11.0866 1501 116.595 1180.04 414.387
527 0 139.194 12.4072 1727 112.54 1179.98 417.389
528 0 141.233 12.3555 1745 111.663 1179.58 420.603
529 1 22.0457 6.21437 137 84.1168 1179.49 482.526
530 0 15.0105 5.59607 84 83.8333 1179.37 485.798
531 0 16.0028 4.49922 72 85.2639 1180.18 484.931
532 0 16.0028 5.74898 92 83.9891 1180.66 484.772
533 0 18.0333 6.76526 122 82.9262 1180.19 483.008
534 0 16.0041 5.4986 88 83.4545 1181.12 485.205
535 0 18.0014 6.2773 113 80.9558 1181.5 485.018
536 0 18.0009 6.6108 119 82.9748 1181.44 484.546
537 0 14.0058 4.49815 63 85.3968 1181.3 484.651
538 0 15.0049 4.33191 65 84.8308 1181.09 485.215
539 0 16.001 8.24949 132 80.1818 1180.57 483.015
540 0 16.0036 6.87344 110 81.2364 1180.62 484.127
541 0 16.0152 5.61967 90 82.6444 1180.32 485.289
542 0 15.0011 5.66624 85 82.4235 1180.59 483.118
543 0 17.0027 5.46972 93 83.5914 1180.57 483.323
544 0 26.0057 6.61392 172 81.9302 1180.57 480.494
545 0 24.004 4.33262 104 85.2404 1181.12 481.933
546 0 22.0135 4.4064 97 85.7526 1180.11 482.278
547 0 30.0099 6.63115 199 82.2161 1181.24 480.281
548 0 21.0349 7.41626 156 81.6282 1181.44 482.942
549 0 20.0141 7.095 142 82.1901 1181.23 482.514
550 0 20.0172 9.44188 189 79.8519 1180.7 481.402
551 0 18.0142 5.66221 102 83.9608 1180.37 482.765
552 0 18.0041 7.99819 144 81.5486 1180.28 481.125
553 0 19.0364 3.88728 74 84.8919 1180.26 484.27
554 0 19.0034 6.52516 124 83.4516 1180.53 481.984
555 0 18.0056 8.3863 151 79.351 1181.52 481.636
556 0 19.0076 2.10442 40 84.3 1180.55 483.9
557 0 18.0014 1.83319 33 89.6061 1180.21 482.303
558 0 19.033 4.09815 78 86.1795 1180 480.615
559 0 15.0266 4.59186 69 80.8261 1179.77 483.71
560 0 15.0196 6.79114 102 79.7059 1180.19 481.255
561 0 14.0035 6.99823 98 81.3673 1180.1 481.643
562 0 7.00071 3.42822 24 83.375 1180.12 485.417
563 1 94.1507 9.98399 940 99.0043 1180.45 440.91
564 0 90.1493 8.71886 786 104.102 1180 436.707
565 0 93.1776 10.7644 1003 110.859 1180.15 436.236
566 0 92.128 11.0607 1019 111.711 1179.9 438.554
567 0 98.1234 10.1709 998 113.146 1180.04 435.553
568 0 98.1954 10.0819 990 112.137 1179.29 439.077
569 0 103.128 11.8203 1219 107.546 1179.09 435.249
570 0 106.184 10.6419 1130 108.018 1180.15 433.412
571 0 109.254 9.37266 1024 109.297 1179.73 429.015
572 0 109.281 7.97945 872 108.087 1180.02 428.474
573 0 113.222 8.77923 994 106.848 1180.08 424.156
574 0 117.323 9.40989 1104 104.94 1180.91 425.138
575 0 119.198 9.11086 1086 106.628 1180.15 422.681
576 0 123.283 9.40923 1160 105.843 1179.96 424.665
577 0 106.299 8.41024 894 115.051 1179.89 407.914
578 1 126.144 8.4903 1071 113.505 1179.46 410.043
579 0 127.146 7.88856 1003 119.044 1178.65 410.252
580 1 113.235 6.26129 709 128.425 1179.14 404.062
581 0 131.184 3.43791 451 135.262 1179.05 407
582 0 143.159 10.1635 1455 118.321 1179.76 408.632
583 0 149.207 9.82526 1466 119.379 1179.63 409.943
584 0 148.282 7.43853 1103 126.098 1179.04 408.362
585 1 89.2171 6.45616 576 109.13 1178.97 437.736
586 0 91.1874 8.81701 804 104.701 1179.25 444.155
587 0 96.1653 10.2324 984 104.408 1179.47 443.572
588 0 98.0745 11.0834 1087 105.08 1180.15 442.568
589 0 99.1451 8.70441 863 116.071 1180.72 438.145
590 0 101.187 8.92405 903 116.863 1180.64 437.836
591 0 104.218 9.10592 949 116.444 1179.42 437.199
592 0 106.15 9.57141 1016 118.085 1179.7 436.495
593 0 111.26 11.4237 1271 113.251 1179.66 435.919
594 0 111.158 9.51801 1058 120.755 1179.68 433.085
595 0 116.127 11.5821 1345 116.517 1180.09 433.796
596 0 116.239 10.6763 1241 121.042 1180.62 427.948
597 0 120.24 10.7202 1289 120.974 1180.49 431.699
598 0 121.166 9.93675 1204 125.738 1180.17 425.748
599 0 123.146 11.06 1362 124.095 1179.46 426.495
600 0 125.175 10.2976 1289 126.828 1179.71 423.44
601 0 129.235 11.2817 1458 125.348 1179.59 422.076
602 0 132.176 10.5239 1391 127.071 1180.09 424.356
603 0 136.146 12.2295 1665 122.027 1180.5 423.876
604 0 140.193 12.1832 1708 124.238 1180.19 420.155
605 0 142.285 11.1466 1586 128.315 1179.95 414.161
606 0 145.173 12.4266 1804 124.438 1180.11 413.775
607 0 151.21 12.6447 1912 123.473 1180.06 414.526
608 0 152.167 12.0854 1839 126.931 1179.88 405.844
609 0 159.105 13.0165 2071 123.563 1179.18 409.755
610 0 164.194 12.2843 2017 125.096 1179.29 406.371
611 0 167.141 12.0437 2013 126.733 1179.38 400.541
612 0 174.272 12.3141 2146 125.253 1179.59 400.647
613 1 11.0011 6.27209 69 91.7246 1180.62 486.551
614 0 12.0002 3.49994 42 98.381 1180.74 485.619
615 0 12.0009 3.24975 39 96.3333 1180.1 485.436
616 0 16.0051 4.81095 77 93.8831 1179.71 485.39
617 0 14.0044 4.21296 59 96.2712 1179.92 484
618 0 18.0053 6.38701 115 91.3304 1179.77 483.696
619 0 19.0023 6.42028 122 92.2131 1179.1 482.828
620 0 17.0017 7.17573 122 90.4508 1177.33 483.541
621 0 15.0011 3.13311 47 93.0213 1178.87 486.532
622 0 13.0097 3.07464 40 95.4 1178.18 485.05
623 0 16.0267 4.92928 79 92.2405 1178.25 485.671
624 0 15.0018 7.46578 112 91.2411 1178.43 482.955
625 0 13.0157 4.76348 62 93.629 1178.11 484.016
626 0 13.0121 6.76294 88 87.9659 1178.75 487.523
627 0 12.0022 2.83281 34 92.4412 1178.15 487.206
628 0 13.0057 4.69025 61 89.0984 1178.26 487.689
629 0 14.001 3.57116 50 92.42 1176.62 487.7
630 0 15.0375 6.78304 102 89.1373 1177.33 485.873
631 0 13.002 5.69145 74 90.4189 1178.01 485.135
632 0 17.0057 4.99834 85 91.5765 1177.51 486.941
633 0 15.0292 5.85526 88 90.3864 1176.94 485.534
634 0 14.0009 3.71404 52 94.0769 1177.54 486.635
635 0 15.0012 4.59962 69 90.8551 1177.81 486.087
636 1 88.1579 9.21075 812 112.448 1179.19 441.75
637 0 96.2167 10.6323 1023 107.584 1179.45 445.595
638 0 94.2206 10.4754 987 108.226 1180.06 446.384
639 0 99.1788 10.7684 1068 108.326 1180.14 439.495
640 0 101.198 9.66422 978 111.405 1180.34 434.685
641 0 104.073 9.81045 1021 109.538 1179.86 439.251
642 0 105.162 9.46157 995 111.942 1180.22 435.481
643 0 110.065 11.6295 1280 107.512 1179.18 434.019
644 0 112.067 10.0029 1121 111.439 1179.76 433.887
645 0 116.129 11.1084 1290 109.409 1179.62 428.853
646 0 119.103 11.4943 1369 109.215 1179.53 427.966
647 0 124.126 10.6183 1318 111.583 1179.81 425.24
648 0 125.167 10.1065 1265 114.054 1179.21 418.666
649 0 128.197 11.9581 1533 106.318 1179.52 418.282
650 1 80.103 6.94106 556 98.3957 1179.24 454.342
651 0 80.0493 8.45728 677 93.8434 1179.09 451.997
652 0 82.1285 8.92504 733 95.0191 1177.95 447.787
653 0 81.0673 8.75816 710 96.8775 1179.18 450.523
654 0 84.0713 7.82669 658 99.035 1178.98 452.207
655 0 86.0981 8.83876 761 98.4402 1180.07 449.962
656 0 91.0862 8.2669 753 98.6614 1179.65 451.976
657 0 89.1408 7.89762 704 102.109 1179.36 448.084
658 0 92.1233 10.855 1000 97.35 1180.06 447.583
659 0 95.0659 8.9622 852 100.122 1179.99 448.485
660 0 97.1185 11.1616 1084 98.8321 1179.57 444.021
661 0 98.2727 9.59575 943 101.716 1178.93 446.26
662 0 101.113 10.2361 1035 102.257 1179 441.463
663 0 101.095 9.65431 976 104.873 1179.79 442.748
664 0 108.111 11.4604 1239 100.5 1179.92 441.75
665 0 110.144 11.8572 1306 101.164 1180.59 436.6
666 0 112.164 11.8932 1334 102.661 1179.62 437.388
667 0 114.207 10.9801 1254 106.068 1179.42 435.156
668 0 119.097 11.3101 1347 106.648 1180.24 432.549
669 0 121.163 11.629 1409 108.043 1179.88 433.497
670 0 125.169 12.9425 1620 107.32 1179.74 429.217
671 0 128.268 12.661 1624 112.212 1178.92 425.849
672 0 132.22 12.7515 1686 111.615 1178.85 425.378
673 0 135.215 13.327 1802 111.423 1178.78 420.077
674 0 137.173 12.5681 1724 113.364 1179.22 422.329
675 0 143.095 13.7112 1962 111 1178.74 419.009
676 0 145.229 11.6643 1694 115.784 1178.81 415.195
677 0 150.225 12.8008 1923 109.416 1179.33 414.192
678 0 156.441 11.589 1813 112.282 1178.65 405.594
679 1 97.4396 10.817 1054 103.602 1180.24 442.629
680 0 99.4065 11.3071 1124 95.9208 1179.62 444.028
681 0 101.42 11.2503 1141 97.7274 1179.32 438.566
682 0 106.327 12.17 1294 94.3872 1179.52 437.86
683 0 110.241 11.7289 1293 96.7827 1179.2 434.538
684 0 114.158 11.2739 1287 105.071 1179.08 433.977
685 0 116.165 10.6572 1238 106.049 1179.35 427.796
686 0 121.333 11.2912 1370 100.664 1179.21 429.174
687 0 124.255 11.2913 1403 100.835 1179.02 433.617
688 0 126.305 10.2371 1293 104.894 1179.04 424.382
689 0 131.302 11.0889 1456 102.53 1179.34 426.282
690 0 135.399 11.8982 1611 101.749 1179.29 424.69
691 0 137.395 11.9219 1638 102.673 1178.82 419.392
692 0 142.252 12.984 1847 101.666 1179.59 407.414
693 0 142.335 9.89216 1408 110.281 1179.76 409.923
694 0 151.663 11.8091 1791 105.489 1180 413.648
695 0 154.562 12.9398 2000 105.64 1180.11 413.166
696 0 159.618 12.9121 2061 109.261 1180.39 410.729
697 1 91.3081 10.4919 958 104.421 1180.76 443.87
698 0 95.3882 12.0979 1154 100.313 1179.9 439.373
699 0 98.4241 11.7857 1160 106.565 1180.18 438.509
700 0 100.334 12.4484 1249 105.263 1180.46 436.879
701 0 103.639 11.8971 1233 107.13 1180.54 435.41
702 1 120.349 9.63864 1160 109.719 1180.47 435.528
703 0 121.622 12.95 1575 107.406 1179.71 429.241
704 0 119.373 11.7782 1406 110.925 1180.63 432.514
705 0 120.623 12.7836 1542 109.561 1180.49 430.735
706 0 120.538 14.5763 1757 107.545 1179.57 426.018
707 0 121.319 12.6196 1531 113.018 1179.78 426.006
708 0 120.333 12.4238 1495 115.706 1180.13 422.87
709 0 133.495 12.2401 1634 112.796 1180.23 424.928
710 0 132.317 13.4978 1786 111.088 1179.98 423.269
711 0 135.332 12.1627 1646 114.7 1180.21 416.752
712 0 139.164 12.3164 1714 114.63 1180.21 414.901
713 0 142.425 12.905 1838 113.055 1180.72 418.239
714 0 149.313 13.6961 2045 110.762 1180.83 416.212
715 0 156.306 13.6399 2132 112.165 1180.38 410.052
716 0 159.249 13.683 2179 113.589 1180.3 407.427
717 0 165.174 14.5604 2405 110.551 1180.19 405.2
718 0 167.25 12.7534 2133 111.97 1180.7 406.355
719 0 174.232 13.7461 2395 111.878 1180.86 395.623
720 1 96.2173 13.6566 1314 110.576 1181.09 436.941
721 0 100.109 13.5552 1357 111.325 1181.33 432.056
722 0 103.197 13.3725 1380 111.08 1182.16 429.994
723 0 103.107 13.6751 1410 110.645 1181.84 428.703
724 0 107.215 13.7574 1475 109.016 1181.97 433.365
725 0 110.12 14.248 1569 108.891 1181.63 429.372
726 0 110.144 12.3203 1357 115.158 1181.16 426.102
727 0 117.071 14.7261 1724 108.116 1181.09 426.898
728 0 122.158 13.8755 1695 110.429 1181.17 426.128
729 0 123.27 14.1397 1743 111.506 1180.73 421.234
730 0 129.094 15.2448 1968 109.036 1180.97 420.876
731 0 132.183 13.2014 1745 115.453 1180.15 417.884
732 0 139.151 14.7609 2054 112.348 1180.31 419.982
733 0 141.191 14.6043 2062 113.964 1180.64 412.205
734 0 146.295 13.7188 2007 116.922 1180.08 411.497
735 0 152.227 14.5309 2212 115.632 1179.9 409.157
736 0 157.155 15.1252 2377 114.608 1179.57 407.741
737 0 165.105 14.9299 2465 117.316 1178.75 405.974
738 0 170.154 15.3038 2604 116.238 1179.73 404.171
739 0 176.237 14.157 2495 119.015 1179.37 397.167
740 0 180.165 14.3702 2589 118.207 1179.72 396.045
741 0 185.163 13.6528 2528 120.413 1179.76 392.868
742 0 190.12 13.1812 2506 122.012 1179.57 387.83
743 0 199.192 14.1572 2820 118.604 1179.8 389.231
744 0 207.23 13.2172 2739 120.675 1179.35 388.455
745 1 161.14 12.4861 2012 121.356 1179.52 412.181
746 0 164.118 13.5025 2216 123.434 1179.22 399.148
747 0 171.168 12.625 2161 122.595 1179.38 397.761
748 0 179.214 13.403 2402 120.289 1179.97 394.56
749 0 185.267 12.7168 2356 123.834 1179.51 395.45
750 0 191.213 12.996 2485 122.747 1179.3 391.299
751 0 200.188 13.792 2761 115.493 1179.15 387.485
752 0 206.285 13.7819 2843 116.722 1179.35 383.263
753 0 216.192 12.9838 2807 116.304 1179.11 381.593
754 0 221.182 13.2922 2940 116.554 1179.1 373.922
755 0 229.285 12.539 2875 118.664 1179.32 370.322
756 1 177.18 12.0273 2131 116.166 1180.02 398.646
757 0 184.296 12.0675 2224 112.241 1179.86 397.396
758 0 187.341 12.2344 2292 114.108 1180.3 387.509
759 0 186.416 11.0559 2061 115.135 1179.48 385.333
760 0 201.328 11.4738 2310 112.831 1179.45 388.496
761 0 207.516 12.8472 2666 111.761 1178.87 382.796
762 0 214.554 13.0037 2790 111.652 1179.07 377.173
763 0 220.458 12.2336 2697 112.871 1179 377.113
764 0 229.488 13.1292 3013 111.776 1178.41 372.889
765 0 235.304 12.5667 2957 114.626 1178.59 370.06
766 0 245.317 12.5267 3073 115.518 1178.64 364.184
767 0 255.477 13.4141 3427 117.142 1178.36 361.054
768 1 62.1009 8.92097 554 107.623 1180.24 451.944
769 0 67.036 10.9643 735 102.733 1179.12 454.984
770 0 70.1265 12.9195 906 98.9823 1179.46 455.174
771 0 74.2697 12.5219 930 99.2892 1179.06 454.975
772 0 77.1665 12.9201 997 97.9549 1179.34 453.062
773 0 79.2229 12.6731 1004 99.4104 1179.17 450.927
774 0 79.1945 11.6549 923 102.342 1179.41 449.34
775 0 82.298 11.8958 979 102.92 1179.5 446.374
776 0 85.2524 12.6096 1075 101.618 1179.54 448.262
777 0 88.1909 13.4594 1187 100.096 1178.96 442.654
778 0 96.2698 15.6643 1508 91.1054 1178.82 437.806
779 0 90.187 13.4942 1217 101.893 1179 442.399
780 0 90.2704 10.1251 914 109.842 1179.34 445.897
781 0 94.2857 11.6879 1102 107.025 1179.19 439.572
782 0 96.2354 11.6589 1122 107.489 1179.57 439.698
783 0 96.3129 10.4244 1004 119.143 1179.62 434.378
784 1 128.288 19.807 2541 150.867 1179.27 422.149
785 0 128.547 23.9523 3079 76.5869 1179.27 422.075
786 0 123.732 19.1139 2365 88.5036 1179.25 429.797
787 0 118.406 16.8319 1993 97.9313 1179.63 432.801
788 0 121.472 16.0202 1946 100.964 1178.66 425.278
789 0 122.421 14.4828 1773 106.106 1178.61 415.258
790 0 123.706 13.3462 1651 108.785 1179 416.77
791 0 125.645 13.8485 1740 108.517 1178.43 413.681
792 0 126.601 12.9462 1639 109.525 1178.37 412.941
793 0 133.048 13.0179 1732 110.99 1178.59 411.721
794 1 80.3719 12.3177 990 112.612 1178.06 437.221
795 0 84.5817 12.3786 1047 102.245 1178.92 447.162
796 0 86.3347 12.6716 1094 102.811 1178.64 446.005
797 0 91.2955 13.2427 1209 101.433 1179.25 447.156
798 0 92.1174 13.6673 1259 102.45 1178.98 443.439
799 0 94.2849 13.6713 1289 104.011 1178.4 442.055
800 0 97.1574 14.5228 1411 108.63 1178.92 438.741
801 0 98.2406 13.6603 1342 111.05 1178.47 439.838
802 0 103.189 13.2184 1364 110.271 1179.22 438.732
803 0 103.192 12.8304 1324 112.384 1178.52 432.347
804 0 108.205 13.8257 1496 108.757 1178.62 434.768
805 0 109.222 12.5708 1373 111.46 1178.37 433.486
806 0 113.221 12.1621 1377 112.633 1178.27 431.41
807 0 115.195 13.4381 1548 109.582 1179.27 428.386
808 0 121.143 13.4799 1633 108.663 1178.06 424.766
809 0 124.149 13.1133 1628 109.561 1178.14 422.101
810 0 129.098 12.7732 1649 110.113 1178.42 421.273
811 0 134.295 13.8799 1864 107.923 1179.32 421.763
812 0 137.207 13.9862 1919 108.981 1178.68 416.122
813 0 141.189 14.3283 2023 108.2 1178.36 415.471
814 0 143.191 12.6335 1809 111.549 1178.28 414.521
815 0 149.204 12.0037 1791 113.485 1178.03 409.535
816 0 154.144 12.0018 1850 113.419 1178.38 406.111
817 1 67.0222 11.7722 789 101.626 1179.12 450.774
818 0 72.0835 11.237 810 102.402 1178.45 450.044
819 0 71.1461 11.9051 847 99.5112 1179.3 453.015
820 0 71.1918 11.0687 788 97.6383 1178.59 449.78
821 0 77.0785 11.4299 881 100.018 1178.58 453.127
822 0 78.1002 12.4456 972 99.7449 1178.79 450.444
823 0 78.1878 10.705 837 104.205 1178.72 448.324
824 0 83.1665 11.0862 922 103.252 1179.23 447.758
825 0 86.1469 12.4671 1074 101.295 1179.08 443.967
826 0 87.0826 11.5522 1006 104.514 1178.45 443.407
827 0 92.185 11.2274 1035 104.715 1178.42 443.613
828 0 94.1268 12.9825 1222 103.597 1179.29 439.32
829 0 95.1136 11.828 1125 106.933 1177.97 437.517
830 0 99.1313 11.1872 1109 108.335 1178.21 437.089
831 0 106.11 13.0148 1381 103.903 1178.51 435.231
832 0 109.28 14.0191 1532 100.844 1178.32 433.456
833 0 110.108 11.4887 1265 106.474 1178.95 434.776
834 1 66.1117 11.8738 785 104.781 1179.31 455.027
835 0 69.0585 11.4106 788 106.471 1178.85 449.895
836 0 72.0506 12.4218 895 103.626 1178.66 452.983
837 0 73.0598 11.5932 847 106.313 1177.98 453.648
838 0 76.1324 12.8198 976 103.613 1178.36 451.606
839 0 75.1997 11.1304 837 109.065 1178.66 449.62
840 0 79.1225 11.8803 940 107.235 1178.75 447.903
841 0 81.3198 10.5386 857 110.585 1179.43 445.617
842 0 84.1501 11.1705 940 108.866 1178.89 447.317
843 0 86.0536 11.2953 972 110.29 1178.84 444.821
844 0 89.1675 11.4952 1025 111.046 1179.63 443.085
845 0 93.2183 12.3903 1155 109.678 1179.18 440.777
846 0 97.2111 10.8218 1052 114.208 1179.08 442.575
847 0 98.1115 11.3544 1114 113.843 1179.29 438.838
848 0 106.128 12.3625 1312 110.567 1178.86 439.835
849 0 109.265 12.3919 1354 111.097 1178.91 439.07
850 0 112.216 13.6433 1531 108.705 1179.36 435.721
851 0 112.195 13.2002 1481 111.09 1178.97 435.393
852 0 118.173 13.5056 1596 110.231 1179.18 434.249
853 0 123.204 15.0482 1854 105.872 1179.41 430.398
854 0 126.125 13.5818 1713 110.74 1178.68 429.792
855 0 131.164 14.1579 1857 110.24 1178.78 426.348
856 0 135.169 14.8998 2014 109.039 1179.07 424.296
857 0 141.195 14.2002 2005 110.581 1177.92 423.566
858 0 144.22 14.7829 2132 110.432 1178.15 419.567
859 0 150.219 15.3376 2304 109.466 1177.9 419.122
860 0 153.335 14.9737 2296 111.115 1177.98 417.245
861 0 158.2 14.3489 2270 113.372 1178.62 414.724
862 0 164.143 15.0356 2468 111.687 1178.4 411.862
863 0 168.249 14.5796 2453 114.495 1178 411.174
864 0 173.227 14.6859 2544 114.692 1178.86 407.215
865 0 181.327 15.938 2890 112.191 1178.17 401.993
866 0 188.414 15.7526 2968 112.616 1178.61 402.426
867 0 192.163 15.6846 3014 115.039 1178.15 396.058
868 0 197.286 14.1875 2799 121.347 1177.75 394.173
869 0 206.348 13.5838 2803 122.965 1177.98 392.217
870 0 213.203 14.9388 3185 119.79 1176.94 389.972
871 0 220.338 13.8242 3046 123.009 1177.47 385.328
872 1 155.511 13.1695 2048 120.737 1177.88 416.497
873 0 163.235 13.7348 2242 118.397 1177.79 413.615
874 0 168.386 13.2909 2238 120.973 1177.69 409.668
875 0 174.34 14.2136 2478 120.842 1177.43 403.905
876 0 179.421 14.1343 2536 120.964 1178.34 401.575
877 0 188.517 12.6991 2394 123.076 1178.79 402.426
878 0 193.528 14.0187 2713 121.376 1178.55 395.825
879 0 201.444 15.2896 3080 117.671 1178.51 393.568
880 0 208.465 14.909 3108 119.522 1178.23 386.448
881 0 217.535 14.7471 3208 119.685 1177.87 385.63
882 0 222.411 14.7655 3284 121.657 1177.94 375.447
883 0 230.374 13.9295 3209 123.182 1177.71 376.103
884 0 239.451 15.0678 3608 119.896 1177.63 374.853
885 0 248.558 14.1697 3522 122.358 1178.02 366.668
886 1 188.33 12.9613 2441 120.642 1177.8 405.119
887 0 192.352 12.7007 2443 121.837 1178.07 397.307
888 0 202.724 14.3644 2912 119.539 1178.45 393.799
889 0 208.556 13.4496 2805 120.622 1177.96 389.585
890 0 216.344 14.2412 3081 118.747 1178.59 384.6
891 0 222.589 13.9091 3096 121.493 1178.26 377.518
892 0 230.326 13.6416 3142 119.783 1178.8 373.74
893 0 238.365 12.3886 2953 120.444 1179.01 376.669
894 0 247.545 13.5208 3347 117.585 1178.22 369.214
895 0 247.344 7.24497 1792 113.198 1178.37 417.936
896 1 200.315 11.0676 2217 114.071 1178.44 398.628
897 0 207.411 12.2607 2543 111.313 1178.74 369.499
898 0 218.302 14.5486 3176 104.187 1179.12 364.031
899 0 225.353 13.8849 3129 105.88 1179.52 361.914
900 0 236.425 12.5579 2969 112.509 1179.29 357.746
901 0 244.44 13.3857 3272 111.996 1179.19 346.516
902 0 252.291 13.0365 3289 111.58 1179.01 344.283
903 0 261.252 13.2554 3463 110.98 1179.6 340.504
904 0 270.286 12.7531 3447 112.773 1179.03 337.324
905 0 280.379 13.0858 3669 112.981 1179.05 329.015
906 0 289.421 13.641 3948 111.26 1179.1 323.846
907 1 69.1586 14.7921 1023 105.629 1179.01 430.724
908 0 74.1002 15.3576 1138 102.739 1179.58 430.37
909 0 71.0936 13.3908 952 109.899 1179.53 429.937
910 0 75.1168 14.3909 1081 107.256 1179.09 430.106
911 0 79.2404 15.8631 1257 103.807 1179.15 426.433
912 0 81.0508 14.5834 1182 106.558 1180.07 424.81
913 0 91.073 16.8326 1533 97.9269 1179.01 418.45
914 0 89.1374 15.5041 1382 103.326 1178.81 421.028
915 0 98.0623 17.1116 1678 95.0024 1178.51 412.822
916 0 101.271 18.021 1825 93.6932 1178.54 412.308
917 0 102.142 15.3609 1569 101.484 1178.23 414.516
918 0 109.263 17.2245 1882 95.3618 1178.38 409.727
919 0 108.065 14.297 1545 103.711 1178.35 412.397
920 0 109.146 13.0285 1422 107.238 1178.61 410.492
921 0 117.28 16.7889 1969 97.615 1178.49 405.368
922 0 119.148 15.401 1835 100.799 1179.44 404.045
923 0 122.393 14.8293 1815 103.761 1179.06 405.872
924 1 75.1239 12.0068 902 113.402 1179.61 423.598
925 0 73.0703 11.8379 865 114.187 1179.24 424.68
926 0 76.0423 13.5714 1032 108.952 1178.68 425.347
927 0 74.0616 14.6365 1084 108.597 1179.49 423.328
928 0 76.1014 14.6778 1117 109.376 1179.23 422.193
929 0 80.1242 14.9892 1201 107.292 1178.98 424.472
930 0 81.1057 15.2147 1234 108.722 1179.55 421.597
931 0 84.0633 14.4534 1215 110.877 1179.9 419.342
932 0 84.0723 15.0822 1268 110.045 1179.58 419.883
933 0 91.1778 14.8611 1355 109.599 1179.54 418.535
934 0 92.1248 14.806 1364 110.999 1179.92 416.593
935 0 94.0803 13.7223 1291 113.407 1179.43 416.915
936 0 98.1438 15.8441 1555 108.626 1179.43 417.747
937 0 106.155 15.2607 1620 107.178 1179.29 419.494
938 0 108.124 14.0025 1514 110.232 1179.41 417.97
939 0 112.11 14.5036 1626 108.42 1179.72 420.568
940 0 117.228 14.5443 1705 108.797 1179.9 417.891
941 0 119.153 14.3681 1712 109.111 1179.83 420.195
942 0 128.149 15.919 2040 104.798 1179.54 421.177
943 1 64.0713 11.534 739 100.135 1179.69 456.303
944 0 66.0828 13.1199 867 99.9216 1179.35 452.57
945 0 68.1138 13.2425 902 100.936 1179.02 451.975
946 0 71.151 12.7616 908 102.274 1178.81 451.756
947 0 73.2498 12.9966 952 103.011 1178.9 450.817
948 0 74.1053 15.8423 1174 98.6789 1179.05 449.679
949 0 78.217 12.3247 964 105.71 1178.89 448.874
950 0 80.2481 13.9443 1119 102.64 1179.66 447.168
951 0 82.1229 14.7827 1214 102.422 1179.48 445.728
952 0 86.2423 14.5056 1251 103.721 1178.89 442.321
953 0 86.1793 12.4276 1071 108.411 1179.58 442.457
954 0 91.0841 15.0301 1369 103.148 1179.07 442.088
955 0 93.2102 14.0435 1309 105.934 1178.92 439.451
956 0 96.0813 13.9673 1342 107.715 1179.09 435.162
957 0 101.106 12.6798 1282 109.594 1179.36 435.178
958 0 103.232 14.9275 1541 106.533 1179.24 430.746
959 0 107.133 13.9266 1492 108.714 1179.84 429.798
960 0 111.107 15.3095 1701 105.847 1180.01 428.149
961 0 114.095 13.48 1538 111.235 1179.92 424.777
962 0 118.102 14.4536 1707 109.366 1180 426.822
963 0 125.155 15.317 1917 107.144 1179.3 423.374
964 0 127.201 13.5219 1720 112.01 1179.13 421.682
965 0 133.129 15.2333 2028 107.978 1179.15 419.399
966 0 138.111 15.9872 2208 106.012 1179.09 415.808
967 0 140.184 12.6619 1775 113.915 1179.4 411.754
968 1 84.1132 11.9601 1006 107.739 1179.18 440.976
969 0 90.1012 11.3095 1019 109.981 1179.43 437.806
970 0 94.1146 12.8779 1212 104.495 1179.38 437.644
971 0 97.0669 12.2699 1191 106.131 1179.2 437.522
972 0 99.1701 12.2718 1217 107.216 1179.15 435.416
973 0 104.055 14.1656 1474 103.129 1178.5 433.827
974 0 106.149 12.4071 1317 108.453 1178.71 428.303
975 0 112.067 12.3944 1389 108.169 1178.25 429.72
976 0 117.196 12.381 1451 108.309 1178.68 424.755
977 0 119.189 12.778 1523 108.254 1178.26 424.728
978 0 122.177 11.1805 1366 113.143 1178.86 418.486
979 0 127.221 13.1504 1673 108.921 1178.56 419.121
980 0 132.18 11.6584 1541 112.537 1179.6 421.726
981 0 137.088 13.3418 1829 109.659 1179.17 417.016
982 0 141.149 13.4397 1897 110.882 1179.02 412.366
983 0 146.24 12.7872 1870 113.385 1178.68 408.895
984 0 146.165 11.1723 1633 118.423 1178.74 408.563
985 0 155.15 12.8263 1990 114.333 1178.96 406.888
986 0 160.182 12.7043 2035 116.045 1179.14 399.961
987 1 20.0406 7.43491 149 81.2886 1178.68 473.094
988 0 19.0256 5.57144 106 82.9906 1179.09 476.17
989 0 20.0084 6.94709 139 79.7554 1179.26 477.187
990 0 20.0158 7.19432 144 79.8333 1180.14 473.736
991 0 18.0161 5.55059 100 82.47 1179.77 472.24
992 1 195.339 14.2931 2792 115.84 1179.09 385.953
993 0 203.401 13.7069 2788 117.779 1179.11 379.885
994 0 211.127 14.1337 2984 117.784 1179.23 377.577
995 0 219.23 13.292 2914 119.903 1179.09 377.694
996 0 229.224 13.6678 3133 118.384 1179.09 377.954
997 0 238.194 13.3924 3190 119.362 1177.96 371.395
998 1 183.289 12.7994 2346 112.389 1178.55 399.05
999 0 190.28 13.869 2639 109.574 1178.5 391.233
1000 0 196.25 13.4726 2644 113.901 1179 390.969
1001 0 201.197 13.2656 2669 107.703 1179.08 391.079
1002 0 209.352 13.0116 2724 114.749 1177.99 382.236
1003 0 216.224 13.8883 3003 113.16 1178.7 382.725
1004 0 223.205 13.1897 2944 114.177 1178.87 377.27
1005 0 228.334 13.2175 3018 113.221 1179.11 372.383
1006 0 229.218 10.2086 2340 116.493 1178.66 385.049
1007 1 195.441 13.3135 2602 111.157 1179.1 392.648
1008 0 201.299 13.095 2636 111.911 1178.56 390.986
1009 0 207.323 14.2387 2952 110.673 1178.89 384.167
1010 0 212.214 14.0707 2986 111.905 1179.36 381.362
1011 0 220.532 14.329 3160 111.618 1178.89 376.806
1012 0 230.323 14.6881 3383 110.799 1178.66 376.299
1013 0 233.249 13.2862 3099 114.799 1178.91 369.564
1014 0 242.287 12.8484 3113 115.812 1179.39 368.63
1015 0 252.319 13.5186 3411 114.796 1179.12 363.561
1016 0 259.521 11.71 3039 118.699 1179.12 359.44
1017 0 271.509 14.0032 3802 113.953 1179.82 349.826
1018 0 280.319 14.8152 4153 112.103 1179.67 350.004
1019 0 288.644 13.2239 3817 117.911 1179.83 339.299
1020 0 287.435 11.9749 3442 120.207 1180.2 347.368
1021 0 287.508 10.0241 2882 121.981 1180.16 358.915
1022 0 289.379 11.3208 3276 121.694 1179.56 354.542
1023 1 247.392 13.7555 3403 115.358 1179.02 364.657
1024 0 254.315 13.7349 3493 116.229 1179.69 352.562
1025 0 263.437 13.3922 3528 117.885 1179.55 353.923
1026 0 274.466 14.3333 3934 116.741 1179.16 344.67
1027 0 283.59 14.9829 4249 116.465 1179.31 339.671
1028 0 297.444 16.1005 4789 113.105 1179.56 321.356
1029 1 81.147 10.5611 857 98.9557 1180.67 448.392
1030 0 83.0944 11.1199 924 100.776 1180.79 445.797
1031 0 83.0913 9.77238 812 93.4507 1181.02 448.459
1032 0 87.2319 10.3632 904 95.6593 1180.45 444.86
1033 0 90.1431 10.0507 906 97.4095 1180.17 443.481
1034 0 94.0988 10.9566 1031 95.6537 1179.33 442.905
1035 0 92.2064 9.59804 885 98.096 1180.1 438.163
1036 0 97.0966 9.83556 955 99.2209 1180.05 435.549
1037 0 101.113 11.2152 1134 95.0423 1180.2 440.236
1038 0 104.144 12.0602 1256 96.8575 1179.97 437.096
1039 0 106.157 10.8896 1156 98.0744 1179.67 433.365
1040 0 111.276 11.4131 1270 96.0031 1180.14 420.312
1041 0 111.196 9.71259 1080 101.605 1179.74 415.309
1042 0 116.167 9.24528 1074 100.189 1180.09 428.294
1043 0 122.174 10.6242 1298 108.492 1179.61 422.613
1044 0 127.158 11.8199 1503 104.739 1179.59 422.986
1045 0 133.197 11.8621 1580 103.931 1179.93 421.694
1046 0 133.169 12.533 1669 100.242 1179.85 418.198
1047 0 141.136 11.2799 1592 105.587 1178.98 414.937
1048 0 143.236 13.1321 1881 101.557 1179.73 416.023
1049 0 147.379 12.2473 1805 106.328 1180.43 415.057
1050 0 151.17 12.0593 1823 107.064 1180.26 407.081
1051 0 158.349 14.0891 2231 107.264 1180.32 410.575
1052 1 81.1573 8.84702 718 102.914 1181.06 451.916
1053 0 83.0797 9.35247 777 98.9241 1181.24 444.069
1054 0 85.0971 10.2471 872 102.558 1180.45 441.797
1055 0 88.1002 11.4869 1012 99.6156 1181.05 444.791
1056 0 89.1207 9.11124 812 104.052 1180.85 442.021
1057 0 91.1122 10.9865 1001 97.1848 1179.39 440.127
1058 0 95.0849 12.3258 1172 95.9753 1179.73 440.08
1059 0 97.1642 11.3416 1102 100.456 1179.8 435.063
1060 0 99.2234 12.0838 1199 99.2836 1180.37 433.731
1061 0 102.125 11.2314 1147 103.147 1179.51 435.262
1062 0 105.107 11.8736 1248 108.659 1179.26 431.888
1063 0 108.124 12.0787 1306 107.325 1179.65 424.107
1064 0 111.079 11.8115 1312 107.556 1179.67 426.328
1065 0 112.207 11.1223 1248 111.143 1179.99 429.914
1066 0 118.138 13.2557 1566 107.127 1179.56 428.833
1067 0 122.253 12.2205 1494 108.078 1179.34 424.884
1068 0 121.196 10.7925 1308 114.489 1179.38 417.615
1069 0 127.239 11.9853 1525 109.527 1179.5 417.405
1070 0 130.241 12.0469 1569 109.277 1180.15 416.27
1071 0 134.163 12.0972 1623 109.145 1180.34 416.441
1072 0 137.211 12.0981 1660 111.296 1179.84 411.283
1073 0 144.279 12.8501 1854 108.985 1180.58 410.395
1074 0 145.195 10.3792 1507 117.181 1179.98 401.267
1075 0 151.186 13.0237 1969 112.863 1179.57 406.538
1076 0 157.237 13.0694 2055 112.24 1179.61 399.784
1077 1 33.2012 6.05399 201 85.0697 1180.95 471.692
1078 0 23.077 7.7133 178 83.736 1181.21 474.882
1079 0 29.0934 7.76808 226 81.3142 1180.98 476.239
1080 0 26.0125 6.03556 157 85.1401 1181.18 476.522
1081 0 33.0039 3.27234 108 89.1296 1180.71 475.843
1082 0 30.0332 9.25642 278 80.7266 1180.82 475.277
1083 0 28.0084 7.24783 203 83.7783 1181.45 476.355
1084 0 27.0047 9.88716 267 81.6217 1181.42 473.933
1085 0 25.0512 6.82603 171 85.1462 1181.23 476.316
1086 0 25.0247 8.07203 202 83.1139 1181.4 475.812
1087 0 24.0054 6.79013 163 83.7914 1181.51 475.387
1088 0 23.0508 7.33162 169 83.929 1181.41 475.041
1089 0 24.0121 8.91216 214 81.6776 1180.8 475.935
1090 0 23.0115 7.82216 180 83.4 1180.63 475.628
1091 0 29.0704 8.04942 234 81.2009 1181.54 473.444
1092 0 27.0564 7.87246 213 82.1502 1180.58 474.972
1093 0 25.014 7.35589 184 83.6359 1180.53 474.212
1094 0 29.0141 5.34222 155 83.2 1180.99 477.445
1095 0 29.0123 8.23789 239 80.6527 1180.69 474.176
1096 0 35.0452 6.73416 236 81.9534 1180.19 473.911
1097 0 28.0575 4.31258 121 85.7521 1180.22 474.43
1098 0 28.07 6.98254 196 81.9796 1179.86 473.684
1099 0 27.093 5.27812 143 84.4825 1179.22 471.587
1100 0 31.0532 8.14732 253 80.9368 1179.55 472.036
1101 0 29.0498 6.16183 179 82.8659 1178.91 473.816
1102 0 30.0639 8.41542 253 80.2174 1178.98 473.47
1103 0 29.1078 8.34828 243 81.2593 1179.12 472.737
1104 0 33.065 6.53259 216 83.8102 1180.19 470.588
1105 0 33.0144 8.96577 296 80.5034 1181.14 472.72
1106 0 36.0248 4.10829 148 85.473 1180.88 470
1107 0 31.0257 5.22148 162 84.1914 1181.57 473.833
1108 0 28.0479 6.31063 177 84.0565 1180.7 473.056
1109 0 33.0241 5.02663 166 84.0482 1180.68 472.313
1110 0 40.0434 7.61674 305 81.1049 1181.02 467.879
1111 0 32.1659 4.72551 152 85.4868 1179.39 468.289
1112 0 31.1621 7.41284 231 82.3463 1179.42 468.775
1113 0 29.124 6.83285 199 81.4271 1180.11 474.101
1114 0 36.0612 7.29316 263 81.0875 1181.29 471.407
1115 0 44.0465 6.12988 270 84.037 1179.51 464.385
1116 0 38.1067 6.45556 246 83.0488 1179.76 468.663
1117 0 37.0209 7.37421 273 81.4689 1179.58 467.044
1118 0 38.0452 4.99406 190 84.3737 1178.87 469.179
1119 0 34.0751 6.83784 233 82.0258 1179.76 468.764
1120 0 41.0257 5.97186 245 82.1755 1180.07 470.269
1121 0 38.0472 7.12274 271 82.7085 1181.26 468.284
1122 0 38.0174 6.70745 255 82.6039 1181.78 466.651
1123 0 38.0674 5.98938 228 84.8202 1181.34 466.794
1124 0 38.0227 6.89061 262 83.4046 1181.74 464.45
1125 0 39.0197 6.22763 243 84.749 1179.35 466.609
1126 0 38.0216 5.31277 202 85.7228 1179.68 466.525
1127 0 42.078 6.15523 259 83.749 1179.45 468.529
1128 0 39.1332 7.41059 290 83.6724 1179.14 467.859
1129 0 39.071 7.93428 310 83.4226 1179.39 466.635
1130 0 279.434 12.214 3413 111.487 1179.91 339.718
1131 0 287.386 12.2935 3533 111.989 1180.27 330.393
1132 0 312.578 19.3808 6058 93.6261 1181.34 309.852
1133 0 315.453 15.4413 4871 105.814 1180.44 311.267
1134 0 319.625 11.9546 3821 115.51 1180.72 316.583
1135 0 330.478 14.1341 4671 112.143 1180.43 311.663
1136 0 340.515 15.4589 5264 109.012 1181.2 298.886
1137 0 350.641 15.9479 5592 108.506 1180.86 297.272
1138 0 359.427 14.5231 5220 112.821 1180.47 291.295
1139 0 370.472 14.9026 5521 112.029 1180.67 289.146
1140 0 375.77 15.7676 5925 111.406 1180.54 280.845
1141 0 375.763 16.2283 6098 110.383 1180.03 280.803
1142 0 376.635 16.8041 6329 107.727 1181.14 281.198
1143 0 361.575 15.9165 5755 108.225 1179.77 266.051
1144 0 202.249 11.3919 2304 104.034 1179.46 381.714
1145 1 44.0285 7.13175 314 80.4427 1179.83 465.959
1146 0 46.0404 4.06165 187 85.8449 1179.8 462.647
1147 0 42.0643 4.32671 182 78.2967 1180.15 453.659
1148 0 50.0492 7.89223 395 83.7772 1180.09 463.086
1149 0 47.1421 6.70314 316 81.4177 1179.68 456.788
1150 0 49.0683 6.35849 312 79.2532 1179.82 460.272
1151 1 166.322 10.3834 1727 105.143 1180.46 401.566
1152 0 175.247 12.4681 2185 101.179 1180.07 395.969
1153 0 175.395 9.41305 1651 104.795 1180.84 399.65
1154 0 181.396 11.9793 2173 101.799 1180.6 384.756
1155 0 185.497 10.922 2026 101.897 1179.74 386.387
1156 0 189.582 11.7363 2225 102.911 1179.87 381.196
1157 0 194.457 12.7226 2474 100.801 1180.07 383.546
1158 0 201.492 12.3975 2498 103.056 1180.15 380.416
1159 0 204.476 12.3976 2535 103.835 1180.38 375.318
1160 0 212.5 13.4965 2868 103.024 1180.34 370.628
1161 0 216.308 12.8335 2776 105.551 1181.12 362.359
1162 0 223.294 12.441 2778 106.907 1180.73 359.556
1163 1 49.2486 10.8836 536 76.0019 1182.19 462.343
1164 0 44.0233 7.95033 350 86.3429 1180.51 471.783
1165 0 43.0592 9.28953 400 87.42 1179.71 469.318
1166 0 43.1101 9.60332 414 88.2681 1180.64 467.35
1167 0 46.0879 9.91584 457 87.919 1179.85 468.249
1168 0 45.0566 10.1206 456 89.6623 1179.72 469.151
1169 0 48.0327 11.3048 543 85.5654 1180.13 469.486
1170 0 48.0672 10.943 526 88.9544 1181.06 466.259
1171 0 49.0522 10.2952 505 89.8812 1179.76 468.798
1172 0 46.0626 10.768 496 91.4335 1179.99 470.079
1173 0 47.0207 10.7612 506 93.0474 1180.68 466.933
1174 0 49.0368 11.3588 557 90.4668 1180.44 468.799
1175 0 49.1074 10.4465 513 93.7875 1180.5 467.922
1176 0 48.0181 11.4748 551 92.588 1180.79 468.163
1177 0 47.0355 10.5665 497 96.0624 1179.87 468.763
1178 0 51.2392 11.6708 598 93.0334 1180.24 466.853
1179 0 50.155 11.3448 569 94.7592 1179.99 466.817
1180 0 48.0363 9.95082 478 98.6569 1179.9 469.046
1181 0 50.0383 11.3313 567 95.1305 1180.23 467.963
1182 0 49.0721 10.9635 538 97.2082 1179.93 467.613
1183 0 51.0525 12.1835 622 93.5177 1180.03 468.426
1184 0 51.0545 12.3202 629 92.5183 1180.25 468.153
1185 0 50.0389 11.591 580 94.5466 1180.67 468.816
1186 0 52.1204 11.1281 580 95.1672 1180.17 468.71
1187 0 51.0113 11.2328 573 95.9703 1180.45 469.401
1188 0 54.0621 13.392 724 88.4254 1181.07 464.689
1189 0 296.305 16.6383 4930 107.397 1180.44 288.214
1190 0 303.427 15.6413 4746 108.412 1180.86 282.346
1191 0 313.423 16.9101 5300 106.733 1180.79 278.901
1192 0 326.62 17.8403 5827 104.162 1180.31 276.043
1193 0 335.407 17.4028 5837 106.749 1180.2 269.496
1194 0 337.46 20.0261 6758 101.677 1180.02 267.931
1195 0 338.589 20.296 6872 102.431 1180.18 267.699
1196 0 334.392 17.0848 5713 108.526 1179.62 264.197
1197 0 334.478 16.877 5645 108.668 1179.34 263.979
1198 0 337.631 16.1863 5465 108.941 1180.29 263.568
1199 0 348.543 17.972 6264 104.12 1180.57 269.512
1200 0 352.534 15.6978 5534 110.075 1180.73 270.412
1201 0 340.525 14.7096 5009 112.922 1180.29 259.784
1203 0 344.623 17.0157 5864 106.945 1179.65 263.881
1204 0 349.642 19.6172 6859 101.076 1179.61 266.047
1206 0 344.618 16.7345 5767 106.75 1179.46 264.103
1207 0 353.624 16.8852 5971 105.837 1179.36 267.025
1208 0 357.829 16.167 5785 106.433 1179.99 267.397
1209 0 346.687 16.3058 5653 105.97 1179.58 261.407
1211 0 355.665 18.2897 6505 100.321 1180.66 264.729
1212 0 357.514 17.1909 6146 104.047 1180.16 266.582
1213 0 365.484 16.4987 6030 105.853 1179.28 271.114
1214 0 369.344 17.588 6496 101.412 1179.58 273.863
1215 0 200.383 12.9702 2599 93.1174 1179.15 337.942
1216 0 205.229 12.581 2582 94.0813 1179.79 330.799
1217 0 211.39 11.9495 2526 96.2724 1179.67 332.626
1218 0 219.247 14.4768 3174 92.0551 1178.55 323.791
1219 0 222.285 10.4461 2322 100.684 1179.08 321.118
1220 0 230.382 12.3664 2849 96.5567 1179.55 332.324
1221 0 239.342 10.8172 2589 92.5554 1179.14 334.243
1222 0 248.302 14.1441 3512 86.1179 1179.42 308.921
1223 0 255.497 11.8827 3036 91.9368 1179.8 326.185
1224 1 176.429 10.4858 1850 91.1665 1180.49 376.469
1225 0 180.294 12.8956 2325 88.2237 1179.62 347.565
1226 1 22.0359 7.85082 173 63.8844 1181.21 430.532
1227 0 19.0101 7.31191 139 64.0288 1181.23 431.791
1228 0 18.0082 5.44196 98 62.8265 1180.01 435.786
1229 0 14.0058 4.92652 69 63.1304 1179.19 436.942
1230 0 19.0088 6.31287 120 64.8167 1180.73 430.633
1231 0 20.013 4.09735 82 65.5244 1181.24 433.524
1232 0 20.0191 5.64461 113 64.9735 1181.05 434.168
1233 0 13.0009 1.69219 22 68.9545 1179.45 443.318
1234 0 19.0085 3.41953 65 67.2154 1180.11 448.846
1235 0 15.0066 5.79744 87 64.3103 1180.01 451.931
1236 0 9.00311 3.11004 28 65.6786 1181.11 449.429
1237 0 14.0009 1.42848 20 69.95 1180.85 447.3
1238 1 195.277 10.9537 2139 95.4839 1179.79 350.264
1239 0 200.364 12.3774 2480 93.8742 1180.28 340.656
1240 0 204.269 13.3011 2717 90.7921 1179.93 353.449
1241 0 207.243 11.3924 2361 95.5769 1180.3 350.334
1242 0 211.36 11.2841 2385 97.6004 1179.62 342.461
1243 0 223.332 12.2016 2725 94.7897 1180.01 342.275
1244 0 223.325 11.5079 2570 98.4821 1180.08 330.57
1245 0 233.416 11.8415 2764 98.0807 1180.08 335.568
1246 0 241.412 12.75 3078 95.8259 1179.36 334.748
1247 1 188.213 12.2362 2303 96.4998 1179.74 345.603
1248 0 191.419 12.2506 2345 90.3817 1179.25 357.331
1249 0 199.346 12.1146 2415 93.4915 1178.55 353.998
1250 0 204.263 12.5671 2567 96.5025 1179.31 349.491
1251 0 210.484 12.704 2674 97.4331 1178.85 341.251
1252 0 213.363 13.3763 2854 92.3781 1179.25 334.797
1253 0 218.354 12.6126 2754 98.1874 1179.63 341.94
1254 0 222.29 13.8513 3079 94.7853 1179.83 346.028
1255 0 227.367 12.4908 2840 99.6215 1179.76 340.476
1256 0 233.413 12.2015 2848 100.718 1179.33 333.787
1257 0 243.324 13.4594 3275 98.1344 1179.49 323.024
1258 0 250.373 13.372 3348 98.1228 1179.14 328.309
1259 0 258.37 13.2987 3436 99.1126 1179.43 327.569
1260 0 261.391 13.8337 3616 96.7873 1180.04 339.262
1261 1 207.4 9.96625 2067 104.498 1179.72 341.276
1262 0 215.356 9.9742 2148 103.191 1179.82 351.421
1263 0 216.378 10.9115 2361 101.677 1179.85 347.458
1264 0 221.409 10.79 2389 102.325 1179.89 347.562
1265 0 229.334 12.5014 2867 99.616 1179.82 344.86
1266 0 234.331 12.6957 2975 100.724 1179.68 339.319
1267 1 21.0049 5.85578 123 70.3577 1181.22 442.593
1268 0 17.035 4.1092 70 70.3429 1181.87 441.829
1269 0 18.0397 3.8249 69 70.8841 1182.3 443.638
1270 0 23.1228 6.27087 145 69.6897 1182.92 444.228
1271 0 20.0491 4.93789 99 69.8283 1182.3 446.071
1272 0 13.0296 2.91643 38 68.4211 1181.05 449.026
1273 0 11.0021 2.90855 32 66.2812 1181.59 448.281
1274 0 290.494 11.9142 3461 102.623 1180.45 296.405
1275 0 301.627 13.5963 4101 99.8474 1179.84 292.655
1276 0 307.769 13.8838 4273 100.038 1180.59 299.218
1277 0 315.578 14.117 4455 99.1356 1179.89 281.351
1278 0 319.558 13.6282 4355 100.842 1180.46 270.728
1279 1 256.759 12.3657 3175 97.6192 1180.29 320.062
1280 0 261.838 11.3429 2970 99.9027 1180.9 317.222
1281 0 272.582 12.7044 3463 96.8045 1180.32 325.517
1282 0 279.674 12.5324 3505 96.2482 1180.81 328.698
1283 0 267.478 10.0121 2678 103.832 1180.56 311.752
1284 0 354.533 8.1149 2877 106.98 1180.99 301.216
1285 0 345.316 7.68281 2653 101.606 1181.64 326.178
1286 0 340.29 6.08012 2069 104.365 1181.07 331.158
1287 1 26.0295 7.26101 189 63.0317 1182.4 455.259
1288 0 24.0336 4.66013 112 66.1875 1182.77 455.982
1289 0 28.0127 7.4609 209 63.0239 1183.49 454.737
1290 0 23.032 3.38659 78 65.8333 1182.79 459.474
1291 0 25.0169 5.47631 137 65.9927 1182.01 460.401
1292 0 22.0551 2.7658 61 67.377 1181.89 464
1293 0 25.0452 4.91112 123 65.4553 1182.41 460.325
1294 0 26.0685 8.2475 215 63.1163 1181.97 460.116
1295 0 28.0326 3.60295 101 67.2772 1182.48 459.624
1296 0 30.2386 3.43931 104 67.3942 1182.12 460.567
1297 0 26.0733 3.87369 101 67.6436 1181.71 457.98
1298 0 26.0073 5.8445 152 65.1842 1182.31 458.316
1299 0 35.0093 3.28484 115 67.2957 1181.64 461.922
1300 0 27.1647 4.01255 109 66.4312 1181.82 459.936
1301 0 25.0709 7.17965 180 63.6222 1182.08 460.322
1302 0 27.0017 3.03685 82 69.2927 1182.4 453.768
1303 0 23.0214 5.56003 128 64.6172 1181.95 470.086
1304 0 20.0138 5.54617 111 66.6486 1182.46 466.378
1305 0 17.0088 1.52862 26 68.3462 1181.96 469.615
1306 0 28.057 3.59982 101 68.9208 1182.76 461.317
1307 0 32.0289 4.05884 130 66.4154 1182.25 466.562
1308 0 27.0253 3.07119 83 67.506 1182.66 465.289
1309 0 19.0045 6.05121 115 66.287 1182.46 469.852
1310 0 27.0545 3.10484 84 71.5119 1183.55 459.429
1311 0 29.054 5.57583 162 67.2593 1183.36 460.71
1312 0 26.1155 4.51839 118 70.1356 1183.49 461.11
1313 0 27.0865 4.09798 111 72.7748 1182.45 456.396
1314 0 32.0763 6.35984 204 68.4363 1183.32 459.583
1315 0 27.0087 3.25821 88 69.9318 1181.83 462.557
1316 0 30.0433 4.29381 129 70.2171 1182.64 460.814
1317 0 27.0709 3.28766 89 71.3258 1182.61 464.483
1318 0 26.1133 6.01226 157 67.172 1182.81 466.344
1319 0 19.0321 3.94071 75 70.76 1183.27 464.587
1320 0 24.0192 6.74461 162 70.1667 1182.55 462.216
1321 0 26.121 2.14387 56 70.4821 1182.09 470.018
1322 0 27.0637 1.6258 44 72.6364 1181.75 465.114
1323 0 29.1176 5.25456 153 69.1569 1181.76 464.876
1324 0 27.0338 6.84328 185 67.1946 1181.57 465.281
1325 0 28.1438 5.89827 166 68.3675 1182.13 466.789
1326 0 26.0744 6.74992 176 68.3693 1182.4 464.807
1327 0 29.0643 3.78472 110 70.2273 1180.82 466.282
1328 0 33.2109 8.09974 269 65.7844 1179.87 463.52
1329 0 25.0945 2.07217 52 70.9231 1179.02 468.404
1330 0 30.2208 5.22818 158 66.4557 1179.62 467.614
1331 0 27.1014 3.17326 86 70.1744 1179.58 465.535
1332 0 33.1486 7.45129 247 65.2024 1179.87 465.919
1333 0 29.0311 3.41013 99 69.2929 1181.16 466.404
1334 0 24.004 4.66589 112 68.4018 1179.71 467.616
1335 0 30.087 5.65028 170 67.2824 1180.49 467.888
1336 0 30.076 5.85185 176 66.5114 1179.8 468.051
1337 0 33.0343 5.38833 178 67.5843 1178.95 462.607
1338 0 33.077 6.04649 200 66.65 1179.44 460.99
1339 0 36.0771 6.07033 219 65.4703 1178.82 462.032
1340 0 38.1877 1.83305 70 70.0143 1178.91 466.714
1341 0 35.0805 6.24278 219 65.9817 1178.8 460.936
1342 0 32.0461 1.74748 56 70.2679 1178.8 466.214
1343 0 36.1914 4.17226 151 68.351 1178.32 464.815
1344 0 35.0564 5.47689 192 67.7396 1179.1 463.609
1345 0 37.0654 4.88326 181 69.0884 1179.39 461.917
1346 0 31.0657 5.31132 165 69.5939 1179.87 465.018
1347 0 33.0424 5.90152 195 70.6 1180.46 461.754
1348 0 31.0245 2.90093 90 72.5889 1179.43 466.733
1349 0 35.0398 3.08221 108 71.7222 1179.62 438.093
1350 0 33.0468 6.08228 201 70.0398 1179.78 445.323
1351 0 37.0266 3.78106 140 72.9929 1179.12 453.586
1352 0 35.0539 5.81961 204 68.1373 1179.05 466.52
1353 0 39.064 8.31968 325 66.2154 1178.63 464.735
1354 0 30.0142 3.2318 97 73.3814 1179.2 458.701
1355 0 33.0325 3.42088 113 72.4159 1179.01 458.761
1356 0 40.0307 5.67065 227 69.2687 1178.89 455.485
1357 0 39.0525 5.58223 218 70.2477 1179.86 453.913
1358 0 40.0088 5.17387 207 68.3527 1179.91 466.531
1359 0 40.0077 4.59912 184 67.7446 1178.4 466.587
1360 0 27.0055 1.74039 47 73.4255 1177.64 453.106
1361 0 41.0267 4.04615 166 66.2349 1177.12 462.898
1362 0 36.0274 7.77187 280 64.1107 1177.87 459.214
1363 0 42.1047 1.63877 69 69.6667 1177.54 466.855
1364 0 46.0235 3.04193 140 67.65 1178.19 458.514
1365 0 41.0363 5.48295 225 65.1911 1177.52 461.116
1366 0 43.032 2.46329 106 68 1177.19 459.745
1367 0 47.038 6.48411 305 64.2393 1177.53 459.154
1368 0 48.0446 2.28954 110 68.4545 1177.75 455.2
1369 0 45.0217 8.39595 378 62.4762 1178.25 463.082
1370 0 40.0147 6.99743 280 63.8571 1177.76 465.521
1371 0 37.0345 1.26909 47 68.2979 1176.66 465.851
1372 0 39.0089 6.71641 262 63.4389 1177.53 464.164
1373 0 38.0092 5.05141 192 92.6146 1178.54 467.599
1374 0 36.0216 6.94029 250 62 1177.88 462.12
1375 0 27.0116 4.88679 132 61.9167 1177.6 474.485
1376 0 31.0471 6.50624 202 61.3465 1176.62 461.792
1377 0 32.0968 8.06935 259 60.39 1176.57 465.34
1378 0 36.2221 5.30063 192 62.7031 1177.53 466.786
1379 0 34.1354 7.58742 259 61.8263 1177.82 465.174
1380 0 34.035 8.87322 302 60.4768 1176.98 463.401
1381 0 29.1775 6.64896 194 63.8918 1176.06 465.263
1382 0 36.2058 5.05444 183 67.5902 1177.26 474.546
1383 0 33.1431 10.4094 345 62.3739 1176.86 472.609
1384 0 30.1441 8.06129 243 66.428 1177.56 472.399
1385 0 32.0489 7.33255 235 67.8383 1176.78 468.745
1386 0 34.3073 10.027 344 65.5349 1177.29 470.785
1387 0 38.2072 7.69489 294 68.9524 1177.96 469.065
1388 0 34.1191 7.15142 244 69.1311 1176.99 469.631
1389 0 36.1614 9.37464 339 66.0413 1177.33 468.802
