time division length width area intensity CMx CMy
0 0 33.0184 10.8727 359 136.914 1257.31 487.894
1 0 33.0221 11.9011 393 137.865 1257.24 486.295
2 0 34.0057 11.5275 392 136.829 1257.78 485.969
3 0 35.0292 11.2478 394 135.566 1257.76 487.703
4 0 36.0287 11.8794 428 135.764 1258.81 485.488
5 0 37.0196 12.831 475 132.895 1258.87 485.535
6 0 38.0317 11.9111 453 135.775 1258.92 485.291
7 0 39.035 12.476 487 133.076 1258.48 484.374
8 0 40.0644 13.1289 526 129.348 1257.6 485.373
9 0 40.0836 12.3242 494 133.48 1257.68 484.933
10 0 42.025 13.0636 549 131.306 1257.7 484.545
11 0 44.0342 11.5365 508 134.705 1257.76 485.236
12 0 44.0093 12.7473 561 131.889 1257.65 483.977
13 0 44.0199 12.4489 548 134.25 1257.83 483.827
14 0 47.0192 14.0155 659 128.323 1257.68 484.736
15 0 49.0275 13.6046 667 129 1257.32 484.079
16 0 49.014 13.894 681 129.803 1257.42 483.457
17 0 49.0725 14.3869 706 129.429 1257.28 483.776
18 0 51.0463 13.6935 699 131.207 1256.54 481.75
19 0 52.0544 13.4283 699 131.514 1257.22 483.066
20 0 55.0386 13.645 751 131.084 1256.79 481.348
21 0 55.1059 13.4468 741 133.646 1256.27 480.626
22 0 57.082 14.4704 826 129.633 1256.06 481.521
23 0 57.0285 13.2565 756 134.552 1255.62 481.163
24 0 61.0641 15.0498 919 127.78 1255.61 479.779
25 0 62.101 14.8629 923 128.402 1255.99 479.013
26 0 63.049 12.8154 808 134.722 1255.72 480.309
27 0 67.0648 13.4944 905 132.524 1255.95 478.69
28 0 68.0473 13.5347 921 132.689 1255.64 477.937
29 0 70.0571 14.1028 988 132.379 1255.2 474.415
30 0 74.1765 15.3283 1137 127.158 1255.17 474.551
31 0 75.0583 14.2023 1066 132.881 1254.75 473.677
32 0 77.1093 14.1617 1092 132.634 1255.02 473.332
33 0 82.0819 14.8998 1223 128.081 1254.34 471.851
34 1 41.0552 13.0556 536 139.854 1254.89 489.399
35 0 43.0398 13.778 593 136.002 1254.99 489.024
36 0 44.009 12.6111 555 128.697 1254.37 487.714
37 0 46.0179 13.9294 641 136.591 1253.29 487.565
38 0 48.0583 13.5668 652 135.707 1253.23 486.991
39 0 50.0459 13.9672 699 135.429 1253.32 485.926
40 0 51.0195 14.1122 720 135.011 1253.47 485.274
41 0 53.0948 13.9938 743 135.192 1253.88 485.254
42 0 55.0814 15.5043 854 129.89 1253.62 483.299
43 0 56.0655 13.7339 770 135.758 1253.53 484.222
44 0 57.0799 14.4534 825 133.458 1254.07 483.701
45 0 59.0636 14.8315 876 130.457 1253.95 482.261
46 0 61.0679 14.2137 868 130.227 1253.43 481.763
47 0 63.1144 13.6736 863 131.397 1253.05 481.503
48 0 66.0525 14.7307 973 128.782 1253.28 479.028
49 0 68.0838 14.394 980 130.616 1253.6 477.912
50 0 70.0359 14.9638 1048 127.746 1253.26 478.802
51 0 73.1047 14.4314 1055 128.38 1253.06 476.288
52 0 76.2043 14.4611 1102 126.563 1253.3 476.933
53 0 79.0426 14.6756 1160 126.597 1253.49 473.767
54 0 80.0801 14.0235 1123 128.277 1253.44 471.742
55 1 41.0244 11.2372 461 128.26 1253.19 492.373
56 0 43.0392 11.7567 506 126.972 1253.65 491.458
57 0 45.0305 12.7469 574 118.906 1254.74 490.502
58 0 45.0502 13.8068 622 114.476 1254.54 491.592
59 0 48.0261 14.7211 707 112.185 1254.51 489.321
60 0 49.0935 13.7085 673 114.627 1254.2 488.733
61 0 51.055 13.3385 681 114.473 1254.45 488.029
62 0 53.0778 14.6766 779 109.25 1254.7 487.467
63 0 54.0954 14.1232 764 110.099 1255.04 486.878
64 0 55.1037 12.7759 704 113.459 1254.68 486.599
65 0 57.1054 14.1843 810 111.46 1254.7 485.543
66 0 62.0483 12.861 798 111.728 1254.35 485.236
67 0 62.1326 14.2437 885 110.348 1254.55 484.217
68 0 62.1402 12.7936 795 113.95 1254.2 481.865
69 0 67.1662 14.5013 974 108.466 1253.53 480.016
70 0 67.0969 13.7413 922 111.49 1253.68 478.559
71 0 71.0977 14.248 1013 109.654 1253.46 478.672
72 0 74.1188 13.7482 1019 109.871 1253.78 479.688
73 0 77.1261 14.6384 1129 108.283 1253.57 476.008
74 0 79.2064 14.2413 1128 109.097 1253.41 475.125
75 0 83.2542 13.693 1140 110.179 1253.17 472.251
76 1 43.1461 11.3568 490 111.212 1254.19 490.759
77 0 44.0963 11.7017 516 108.101 1253.52 488.159
78 0 45.142 10.8989 492 113.811 1253.27 487.394
79 0 47.1012 12.0591 568 110.644 1253.1 488.164
80 0 47.1438 12.6422 596 109.919 1253.35 488.06
81 0 51.1028 13.737 702 110.877 1253.91 488.748
82 0 52.162 14.3399 748 104.027 1253.73 488.916
83 0 53.0742 13.6978 727 104.418 1253.98 488.895
84 0 55.1477 13.4185 740 106.273 1253.37 488.034
85 0 57.073 11.6342 664 109.687 1253.65 488.125
86 0 58.0877 13.0837 760 108.329 1252.76 486.908
87 0 60.1504 13.3332 802 108.645 1253.2 485.825
88 0 62.0358 12.9764 805 110.393 1252.39 485.034
89 0 63.1012 13.6923 864 110.416 1251.9 483.399
90 0 65.0435 13.7139 892 110.613 1251.99 482.193
91 0 69.0869 13.1573 909 111.382 1251.66 482.292
92 0 70.165 12.6274 886 110.995 1252.17 481.263
93 0 73.2077 13.2636 971 110.058 1251.46 479.9
94 0 76.0746 13.9994 1065 108.211 1251.62 477.533
95 0 79.1283 13.5729 1074 108.912 1251.78 476.516
96 0 81.0657 13.5322 1097 109.319 1252.01 476.807
97 0 86.2985 13.6619 1179 111.004 1252.05 473.726
98 0 87.2452 12.9291 1128 115.861 1252.12 471.509
99 0 91.168 13.9852 1275 111.652 1252.16 471.068
100 1 47.0313 11.907 560 109.15 1252.67 492.407
101 0 50.1893 12.5326 629 109.626 1251.82 486.606
102 0 51.1083 13.0899 669 107.795 1252.55 489.643
103 0 53.0241 13.4467 713 105.244 1252.71 489.18
104 0 52.0273 12.1475 632 108.258 1251.98 490.809
105 0 56.0906 13.6743 767 106.193 1252.14 486.784
106 0 58.0616 12.6073 732 107.399 1252.15 487.541
107 0 59.0302 12.536 740 108.223 1251.93 487.351
108 0 60.1176 12.3924 745 109.789 1251.87 484.251
109 0 63.0805 13.3322 841 107.002 1251.49 484.458
110 0 64.094 12.6689 812 109.895 1251.41 484.094
111 0 66.0946 12.6637 837 109.399 1251.13 483.297
112 0 69.1215 13.6716 945 108.472 1251.41 481.093
113 0 71.0902 13.7009 974 109.164 1251.04 477.552
114 0 75.1534 13.8916 1044 107.476 1251.07 478.6
115 0 76.1067 14.7819 1125 106.983 1251.28 476.897
116 0 79.0716 12.8618 1017 111.067 1251.22 476.069
117 0 81.1091 13.8209 1121 109.903 1251.38 474.403
118 0 85.116 13.8869 1182 109.292 1251.11 472.864
119 0 86.0664 12.8273 1104 113.086 1251.86 471.364
120 0 89.1314 12.3862 1104 114.364 1250.75 471.901
121 0 90.0664 11.1251 1002 118.213 1250.65 470.092
122 0 96.086 11.6978 1124 116.41 1250.69 466.928
123 1 51.0583 12.4955 638 109.864 1250.66 490.02
124 0 52.062 13.4647 701 110.364 1251.02 487.673
125 0 55.0368 13.6454 751 108.314 1250.55 487.847
126 0 56.0772 12.3758 694 111.086 1251.14 487.398
127 0 59.0475 13.7347 811 107.339 1251.5 485.051
128 0 60.1156 13.1247 789 109.934 1250.82 484.479
129 0 63.1117 13.6583 862 110.479 1250.11 485.07
130 0 64.1302 12.4123 796 115.098 1250.32 483.338
131 0 66.1451 13.1831 872 114.735 1250.07 482.724
132 0 67.2241 13.3583 898 115.781 1250.37 481.947
133 0 71.1588 14.039 999 117.229 1250.4 480.121
134 0 72.1124 14.7547 1064 115.689 1250.42 479.559
135 0 76.109 14.3478 1092 116.947 1249.79 476.896
136 0 80.1486 15.4089 1235 113.499 1250.34 476.102
137 0 80.1112 14.5048 1162 118.606 1250.27 473.966
138 0 84.2106 15.6275 1316 115.182 1250.61 474.157
139 0 89.1746 15.5089 1383 115.649 1250.68 470.837
140 0 89.2282 14.8832 1328 118.614 1251.27 469.441
141 0 94.2766 15.3485 1447 116.971 1250.96 467.869
142 0 97.146 14.3084 1390 117.808 1251.07 465.944
143 0 99.0995 14.2281 1410 118.199 1250.72 463.406
144 0 104.219 13.4909 1406 119.656 1251.18 462.406
145 1 54.0864 10.6866 578 121.581 1250.33 487.851
146 0 55.0908 12.434 685 115.772 1250.16 483.451
147 0 60.1303 13.5705 816 114.395 1250.85 486.388
148 0 59.1166 12.8221 758 110.203 1250.43 485.429
149 0 61.085 12.8346 784 109.816 1250.14 482.083
150 0 64.0861 12.5768 806 108.917 1250.37 482.489
151 0 65.1129 11.6567 759 110.576 1250.09 480.639
152 0 71.0417 13.2457 941 105.526 1250.37 479.628
153 0 71.0579 11.3429 806 110.274 1250.31 478.516
154 0 75.0889 12.2655 921 108.721 1250.34 475.59
155 0 79.0634 11.7501 929 109.126 1250.57 475.244
156 0 82.0838 11.6832 959 110.05 1250.44 472.246
157 0 86.1218 12.8423 1106 106.647 1251.79 472.252
158 0 89.1638 12.8415 1145 108.92 1250.87 468.107
159 1 45.0697 11.2492 507 106.404 1250.54 492.604
160 0 48.0938 12.2261 588 105.619 1251.85 489.986
161 0 47.041 12.606 593 102.948 1252.98 489.739
162 0 48.061 12.3593 594 102.503 1252.43 488.771
163 0 49.0111 11.9973 588 104.527 1252.46 488.478
164 0 51.0382 11.9714 611 104.059 1251.71 489.383
165 0 53.0235 13.4469 713 101.118 1252.49 486.933
166 0 54.0443 12.8598 695 102.847 1252.59 486.009
167 0 56.0909 12.8541 721 103.051 1251.96 484.849
168 0 57.1091 12.765 729 103.342 1252.17 484.861
169 0 60.1073 13.2596 797 102.004 1252.64 484.266
170 0 61.1575 14.013 857 101.418 1252.96 482.901
171 0 63.1288 13.1002 827 104.528 1253.35 480.902
172 0 64.1561 12.0955 776 107.857 1252.78 481.227
173 0 65.0718 13.0779 851 106 1252.97 481.878
174 0 69.1055 13.5156 934 106.223 1253.04 479.628
175 0 68.0987 13.1133 893 108.532 1253.74 480.185
176 0 70.0821 13.4557 943 108.694 1253.45 475.884
177 0 74.0829 14.3758 1065 106.866 1253.11 476.077
178 0 76.0544 13.1353 999 111.119 1253.85 476.411
179 0 77.1398 13.7931 1064 111.14 1253.02 473.325
180 0 81.158 13.7879 1119 110.511 1253.07 472.282
181 0 83.1367 14.1935 1180 109.265 1252.95 471.952
182 0 85.132 12.51 1065 114.759 1252.98 470.37
183 0 86.0953 12.9508 1115 114.835 1252.17 470.37
184 0 91.0868 13.6244 1241 112.455 1252.08 469.82
185 0 93.1371 13.1312 1223 114.375 1252.16 466.643
186 0 99.1078 14.3278 1420 111.81 1252.02 465.361
187 0 100.173 14.2554 1428 113.811 1251.78 464.322
188 1 51.0558 12.124 619 113.54 1252.6 487.771
189 0 55.0579 14.1487 779 106.236 1252.55 486.196
190 0 53.0573 12.2698 651 115.763 1252.65 486.462
191 0 58.1491 14.652 852 108.945 1252.73 485.148
192 0 57.1076 12.923 738 108.523 1252.33 484.401
193 0 61.101 12.7821 781 107.179 1252.32 485.507
194 0 61.0753 12.7384 778 109.441 1251.91 483.754
195 0 64.1925 12.8052 822 108.118 1252.39 482.752
196 0 64.0754 11.9391 765 111.395 1252.57 481.688
197 0 67.2576 12.4298 836 110.11 1252.45 481.992
198 0 70.188 14.3187 1005 106.58 1252.6 480.005
199 0 72.1387 13.0582 942 109.091 1252.45 480.157
200 0 74.2024 12.9106 958 111.412 1252.17 477.264
201 0 77.0942 13.3992 1033 112.844 1250.16 478.436
202 0 79.2092 14.0261 1111 112.197 1250.55 475.476
203 0 81.1821 13.1803 1070 115.456 1250.7 474.509
204 0 83.1387 12.7738 1062 115.6 1250.67 475.045
205 0 85.3668 12.8739 1099 117.243 1250.85 471.198
206 0 91.2238 14.6782 1339 111.635 1251.48 469.486
207 0 94.22 13.8081 1301 112.923 1251.13 467.116
208 0 97.1493 13.855 1346 111.197 1250.69 465.768
209 0 99.1853 13.7319 1362 110.264 1250.86 462.576
210 1 53.287 13.8871 740 107.988 1251.7 481.416
211 0 52.196 12.7979 668 113.831 1251.24 487.608
212 0 55.0558 14.3309 789 108.649 1251.45 486.521
213 0 57.0498 13.0938 747 112.133 1251.1 485.793
214 0 59.1265 14.5958 863 109.277 1251.07 483.635
215 0 61.234 14.5671 892 109.285 1251.45 484.538
216 0 63.1179 14.0055 884 110.899 1251.8 482.851
217 0 62.1091 13.2187 821 115.121 1251.79 481.088
218 0 66.1511 13.9075 920 113.111 1251.67 479.948
219 0 69.1527 14.6921 1016 110.718 1251.37 479.912
220 0 70.1583 12.8424 901 115.539 1251.33 480.214
221 0 72.0999 14.2441 1027 112.844 1251.11 477.908
222 0 75.115 13.5792 1020 114.162 1250.48 478.326
223 0 78.0375 15.2491 1190 110.66 1250.39 476.781
224 0 80.1417 13.289 1065 115.978 1250.86 474.7
225 0 80.1743 12.4354 997 119.952 1250.36 475.109
226 0 84.0964 13.2586 1115 118.106 1250.81 472.124
227 0 85.2149 13.9412 1188 117.415 1250.1 470.434
228 0 88.1777 13.7563 1213 117.697 1250.09 469.623
229 0 92.2678 15.1082 1394 113.975 1250.77 469.191
230 0 94.1685 13.3272 1255 118.96 1250.5 466.522
231 0 97.1065 14.1906 1378 116.111 1250.94 465.845
232 0 101.183 14.6171 1479 115.031 1251.1 462.811
233 0 104.244 13.6794 1426 118.201 1251.91 460.952
234 0 108.149 14.6834 1588 115.585 1251.77 457.632
235 0 112.13 14.2157 1594 115.192 1251.27 456.871
236 0 114.222 12.8259 1465 116.212 1251.89 452.039
237 0 119.355 13.7321 1639 115.278 1251.43 448.284
238 0 123.336 13.6213 1680 115.16 1250.87 447.076
239 1 68.2514 10.3441 706 110.307 1252.14 475.312
240 0 72.1971 12.2166 882 106.966 1251.57 473.067
241 0 72.0626 12.17 877 109.393 1252.13 472.773
242 0 76.1171 11.5743 881 109.85 1251.96 471.802
243 0 78.0518 11.6589 910 110.455 1251.91 470.985
244 0 81.1157 11.1076 901 110.344 1251.67 471.535
245 0 84.1072 11.2119 943 110.281 1252.08 469.014
246 0 87.0734 12.6215 1099 107.803 1251.97 465.895
247 0 90.1271 11.2397 1013 110.401 1251.58 466.118
248 0 92.1823 11.3362 1045 110.645 1251.79 461.418
249 0 96.0704 11.9183 1145 109.122 1251.95 460.914
250 1 51.0304 10.5427 538 106.086 1252.66 484.522
251 0 53.0175 12.411 658 112.243 1250.91 486.193
252 0 57.0953 12.8557 734 113.986 1251.51 485.251
253 0 59.0957 13.1989 780 108.668 1251.5 484.241
254 0 59.1189 11.8744 702 111.517 1251.53 483.338
255 0 60.1001 11.7138 704 112.325 1251.72 483.146
256 0 64.0748 12.8912 826 108.252 1250.72 483.074
257 0 64.0647 12.9244 828 108.837 1250.7 481.216
258 0 68.0729 12.1928 830 107.812 1250.62 482.282
259 0 69.0521 11.4551 791 109.379 1250.41 479.174
260 0 73.0744 12.9047 943 105.051 1250.55 475.38
261 0 76.1347 12.9639 987 102.893 1250.79 473.533
262 0 78.1086 12.457 973 103.85 1250.86 475.03
263 0 83.1886 12.8383 1068 100.76 1251.14 473.18
264 0 86.1102 13.7034 1180 98.6941 1250.69 470.931
265 0 89.1883 12.9389 1154 99.7426 1250.63 470.305
266 0 92.0567 11.5472 1063 101.89 1250.33 469.27
267 1 49.0551 11.538 566 103.705 1250.56 487.668
268 0 53.0426 13.5363 718 99.9262 1250.13 487.593
269 0 54.0479 12.3224 666 101.67 1252.47 485.752
270 0 56.0344 12.8314 719 101.182 1250.32 485.796
271 0 55.1305 11.1372 614 99.0863 1251.78 486.795
272 0 56.1204 11.7961 662 98.855 1250.94 485.449
273 0 58.1159 12.5955 732 96.9276 1250.79 485.133
274 0 59.0996 14.6025 863 93.9015 1250.96 483.344
275 0 62.1454 12.5834 782 97.9616 1250.2 482.39
276 0 63.0511 12.2282 771 99.454 1250.24 482.901
277 0 64.127 12.5376 804 99.403 1250.66 481.674
278 0 69.1176 12.6885 877 98.6796 1250.53 479.204
279 0 69.0717 13.1023 905 99.5602 1251.02 476.796
280 0 73.0822 13.1906 964 99.1214 1250.5 478.303
281 0 76.2361 13.0909 998 98.8687 1250.64 476.489
282 0 79.1846 13.6643 1082 98.5157 1250.55 474.213
283 0 81.1315 13.6199 1105 98.4036 1250.96 473.243
284 0 84.1105 13.8271 1163 98.7601 1251.1 471.776
285 0 88.1542 12.9319 1140 100.491 1250.85 470.398
286 0 92.1042 14.0167 1291 98.3579 1251.8 469.528
287 0 94.1899 13.8975 1309 99.029 1251.18 466.659
288 1 50.109 11.2954 566 102.336 1250.65 489.292
289 0 53.0592 12.6086 669 98.9567 1251.57 489.254
290 0 55.0991 13.5755 748 97.3048 1252.48 487.123
291 0 54.1042 13.437 727 100.116 1253.12 487.917
292 0 58.0801 13.6708 794 97.437 1253.47 489.005
293 0 57.0417 13.0256 743 100.661 1253.1 485.354
294 0 58.1031 12.3573 718 102.671 1252.77 486.139
295 0 62.091 13.9473 866 98.5462 1252.95 484.133
296 0 64.0467 12.7251 815 102.206 1252.83 483.698
297 0 67.1719 15.6911 1054 95.8245 1252.55 483.799
298 0 64.049 12.8183 821 105.744 1252.85 481.861
299 0 70.1909 15.6573 1099 99.5696 1251.85 481.815
300 0 71.1362 13.2984 946 106.89 1251.74 479.236
301 0 75.066 14.4939 1088 103.25 1251.49 480.379
302 0 78.2336 13.6642 1069 105.501 1252.04 479.17
303 0 79.177 14.8654 1177 104.712 1252.16 475.647
304 0 82.2141 16.1286 1326 101.594 1252.06 474.497
305 0 84.1547 14.0099 1179 108.45 1252.23 472.741
306 0 87.1835 14.3032 1247 108.043 1251.88 470.386
307 0 90.2181 14.1324 1275 108.306 1252.7 469.525
308 0 92.2483 14.5585 1343 109.516 1251.49 465.559
309 0 92.2483 14.5911 1346 154.336 1249.49 465.464
310 0 97.1012 14.9226 1449 110.061 1252.48 461.175
311 0 101.136 14.8414 1501 109.191 1252.05 464.896
312 0 106.103 14.5613 1545 108.447 1252.77 464.372
313 0 107.081 13.896 1488 112.301 1252.95 460.816
314 0 109.169 13.0714 1427 114.619 1252.28 459.26
315 0 114.236 13.4109 1532 114.181 1251.32 457.022
316 0 120.252 14.7773 1777 111.78 1251.58 449.38
317 1 65.1786 12.6575 825 112.41 1251.09 476.592
318 0 68.1452 13.3832 912 110.066 1251.14 473.038
319 0 71.1887 13.9769 995 109.321 1250.88 478.521
320 0 73.153 14.1484 1035 109.023 1251.38 474.682
321 0 76.1914 13.8992 1059 109.316 1251.39 475.413
322 0 77.2102 12.1875 941 114.438 1251.29 473.276
323 0 80.4776 14.5631 1172 109.475 1251.82 470.38
324 0 81.138 12.7437 1034 112.162 1250.76 471.432
325 0 85.1509 13.5289 1152 110.211 1251.04 469.039
326 0 89.3148 14.3649 1283 107.712 1251.69 468.132
327 0 91.2786 14.4831 1322 108.399 1251.26 465.07
328 0 93.2912 13.2703 1238 111.157 1251.41 462.713
329 0 97.2844 13.9591 1358 109.029 1251.84 460.76
330 0 101.268 13.5384 1371 110.892 1251.83 457.589
331 0 102.397 11.8655 1215 114.061 1251.58 456.726
332 0 108.196 13.0504 1412 111.338 1250.85 453.823
333 1 55.1073 11.3415 625 110.707 1250.44 479.499
334 0 59.3192 14.2281 844 105.745 1251.12 475.776
335 0 61.081 15.1111 923 103.176 1250.51 481.303
336 0 62.101 13.8645 861 106.78 1250.1 480.693
337 0 64.1142 12.7273 816 109.632 1250.39 480.814
338 0 68.1936 14.3855 981 104.333 1250.21 479.287
339 0 68.2634 14.1218 964 106.988 1250.79 476.025
340 0 71.2429 13.9803 996 107.274 1251.11 473.423
341 0 73.4627 13.1495 966 109.902 1250.81 471.771
342 0 76.2653 14.148 1079 106.601 1251.25 470.319
343 0 79.2937 13.8977 1102 107.668 1250.49 468.142
344 0 84.2611 15.5707 1312 103.04 1250.89 466.743
345 0 86.2715 13.2952 1147 108.065 1250.67 465.785
346 0 90.2977 14.0757 1271 105.425 1251.01 464.151
347 0 92.3741 12.6442 1168 108.583 1251.06 461.382
348 0 95.3673 13.8622 1322 105.517 1251.09 461.219
349 1 51.136 11.2836 577 106.303 1251.57 482.515
350 0 52.1606 13.5926 709 104.212 1250.92 484.973
351 0 57.0752 13.4559 768 100.908 1250.4 487.724
352 0 56.1144 13.7041 769 102.391 1250.2 486.605
353 0 57.1243 13.777 787 102.944 1250.64 484.565
354 0 60.09 13.8625 833 100.777 1250.34 485.108
355 0 62.1112 14.1198 877 100.347 1250.06 483.483
356 0 62.0303 13.9125 863 102.349 1249.86 481.673
357 0 67.1212 15.107 1014 98.1677 1250.4 480.785
358 0 67.0582 14.1966 952 100.953 1250.43 480.019
359 0 69.2458 14.268 988 100.343 1251.08 476.485
360 0 72.2197 14.5251 1049 100.084 1251.02 475.223
361 0 75.2346 14.3152 1077 99.8236 1251.35 472.513
362 0 75.3384 14.03 1057 100.852 1251.21 467.6
363 0 80.302 15.0557 1209 98.3656 1251.36 467.673
364 0 83.2918 14.7313 1227 98.8623 1251.25 467.048
365 0 86.3349 14.5017 1252 99.3259 1251.83 465.617
366 0 86.2153 13.7099 1182 103.269 1251.65 464.194
367 0 92.2628 14.0143 1293 101.742 1251.57 463.538
368 0 93.2116 14.0862 1313 102.326 1251.6 459.857
369 1 52.1789 11.3264 591 100.453 1251.2 483.154
370 0 53.104 11.807 627 100.939 1250.97 479.254
371 0 55.1186 12.5548 692 102.084 1250.69 484.721
372 0 56.0307 13.5461 759 98.357 1250.1 484.644
373 0 58.0753 12.6904 737 99.5183 1250.77 486.262
374 0 60.1649 12.5987 758 100.79 1250.58 484.879
375 0 63.0173 12.9488 816 99.7047 1250.44 484.158
376 0 64.1115 12.6342 810 100.006 1250.57 483.422
377 0 66.255 13.0103 862 100.152 1250.51 480.76
378 0 70.1909 13.7482 965 97.6518 1250.57 479.318
379 0 71.1166 12.5428 892 100.747 1249.83 479.705
380 0 71.1261 11.7116 833 103.696 1250.27 477.325
381 0 73.3369 11.7812 864 103.689 1250.48 474.144
382 0 78.2921 13.82 1082 99.8771 1249.69 470.888
383 0 79.1425 13.7474 1088 101.088 1250.23 467.43
384 0 83.379 12.0294 1003 103.797 1250.6 468.134
385 0 86.3709 12.3421 1066 103.036 1250.82 466.818
386 0 89.3373 13.6673 1221 101.137 1250.83 464.578
387 1 46.1762 11.0663 511 104.399 1250.75 484.832
388 0 47.2087 11.5657 546 102.892 1251 485.667
389 0 51.1365 13.1022 670 100.23 1250.94 488.625
390 0 51.2934 13.296 682 100.787 1250.31 488.955
391 0 52.0241 13.0517 679 100.67 1250.15 487.761
392 0 53.131 13.2691 705 101.824 1250.68 486.719
393 0 55.0539 13.514 744 101.155 1250.43 485.368
394 0 54.0792 12.7036 687 104.876 1250.6 484.943
395 0 59.2513 15.1051 895 98.4592 1251.08 482.721
396 0 60.2408 14.1266 851 100.147 1251.12 482.42
397 0 62.287 13.6304 849 102.165 1251.37 479.768
398 0 65.2238 14.044 916 100.681 1252 477.309
399 0 65.179 13.7314 895 103.335 1250.84 475.429
400 0 68.2485 13.8025 942 102.099 1250.88 477.382
401 0 70.343 13.2636 933 105.392 1250.82 473.834
402 0 71.2915 13.5921 969 105.172 1251.99 473.542
403 0 75.2845 14.1995 1069 104.221 1251.78 471.341
404 0 78.2431 12.8829 1008 107.424 1251.98 473.096
405 0 80.1741 13.9447 1118 105.354 1251.86 472.175
406 0 82.3391 14.5496 1198 106.254 1251.61 468.601
407 0 85.4186 13.2173 1129 109.859 1251.18 468.609
408 0 90.2553 14.049 1268 107.901 1251.88 468.178
409 0 91.27 13.3779 1221 110.671 1251.66 464.633
410 1 47.1816 11.1272 525 111.03 1251.39 484.52
411 0 49.1835 11.3859 560 109.963 1250.77 485.154
412 0 50.1485 12.9615 650 109.875 1250.91 482.918
413 0 53.1758 12.0544 641 111.49 1250.61 482.362
414 0 53.2053 12.8934 686 110.012 1250.97 483.337
415 0 55.2948 12.3882 685 111.853 1251.46 485.809
416 0 58.1074 14.2495 828 109.883 1251.23 484.33
417 0 58.1728 13.3396 776 111.206 1250.96 484.245
418 0 61.0983 13.5847 830 111.245 1250.82 482.428
419 0 63.1326 13.733 867 111.316 1251.33 481.684
420 0 64.0743 13.7028 878 113.598 1251.27 479.105
421 0 67.0694 14.6117 980 111.123 1250.89 476.862
422 0 69.1654 14.0533 972 113.935 1251.25 476.928
423 0 73.153 14.5585 1065 111.932 1251.9 477.06
424 0 75.0316 13.4343 1008 115.695 1251.1 475.168
425 0 79.0955 14.4888 1146 114.033 1251.16 471.918
426 0 81.1405 15.2082 1234 112.113 1251.67 473.365
427 0 84.1378 15.1894 1278 112.621 1250.86 472.264
428 0 87.1516 16.2361 1415 111.247 1250.54 468.775
429 0 89.1595 14.2441 1270 116.789 1251.29 466.352
430 0 93.0827 14.8255 1380 115.5 1251.28 464.914
431 0 93.1126 14.6597 1365 116.623 1251.29 464.047
432 0 98.1006 13.8837 1362 117.523 1251.88 461.888
433 0 102.146 14.2051 1451 116.17 1251.27 460.925
434 0 104.147 14.6139 1522 115.828 1251.57 460.125
435 0 110.237 16.274 1794 109.545 1251.49 457.54
436 0 111.19 14.066 1564 115.968 1251.81 454.96
437 1 55.2084 10.0166 553 113.671 1252.26 484.018
438 0 59.1394 13.2061 781 107.901 1252.07 483.615
439 0 60.0649 12.2035 733 106.312 1252.05 483.889
440 0 63.0698 11.4001 719 107.979 1252.25 481.976
441 0 65.0739 13.354 869 104.39 1252.24 479.382
442 0 67.0693 12.0025 805 106.776 1252.66 480.573
443 0 71.1279 13.3562 950 103.701 1252.36 479.927
444 0 73.0872 13.0392 953 105.386 1252.6 477.303
445 0 75.148 13.4401 1010 104.411 1252.49 476.1
446 0 79.1168 13.2336 1047 105.289 1251.95 475.808
447 0 79.0331 13.2223 1045 106.743 1252.45 474.66
448 0 82.1152 12.9087 1060 107.111 1252.48 474.559
449 0 84.1336 12.3732 1041 108.822 1252.12 471.209
450 0 88.1566 13.771 1214 105.904 1252.03 472.3
451 0 90.1138 13.8048 1244 106.829 1252.01 471.642
452 0 94.0899 15.4108 1450 105.877 1251.89 469.852
453 0 96.0616 15.3027 1470 106.741 1251.98 468.403
454 0 100.192 14.4423 1447 107.984 1251.97 467.119
455 0 102.134 13.5899 1388 110.749 1252.36 466.574
456 0 104.189 14.1857 1478 110.112 1252.37 462.616
457 0 111.166 15.4273 1715 106.04 1251.92 463.263
458 0 112.103 14.79 1658 109.782 1251.92 458.465
459 0 116.156 13.7832 1601 112.661 1251.63 458.65
460 1 60.1165 12.0932 727 115.026 1252.74 485.807
461 0 65.119 13.5752 884 112.615 1252.11 484.756
462 0 66.079 14.2254 940 112.432 1251.88 483.235
463 0 68.0841 13.5861 925 112.402 1252.15 481.678
464 0 71.139 14.563 1036 110.565 1251.58 479.977
465 0 73.0314 14.6923 1073 110.803 1251.27 480.417
466 0 74.1083 13.4533 997 114.836 1252.22 477.248
467 0 76.1049 13.7705 1048 114.759 1252.06 477.377
468 0 79.1087 14.36 1136 114.696 1251.18 472.986
469 0 82.051 15.3197 1257 112.472 1251.08 475.704
470 0 84.0524 13.9913 1176 117.82 1250.91 474.282
471 0 87.0489 13.8313 1204 117.913 1251.39 474.15
472 0 89.1514 14.6717 1308 116.819 1250.92 471.304
473 0 93.1041 15.2732 1422 114.568 1251.05 471.613
474 0 95.241 15.109 1439 115.822 1251.47 470.261
475 0 100.325 13.3067 1335 122.343 1251.64 467.419
476 0 101.175 13.4025 1356 121.959 1252.22 465.189
477 0 106.26 14.4456 1535 118.188 1252.08 464.689
478 1 54.3944 12.9793 706 119.517 1252.41 486.127
479 0 55.1854 12.8838 711 119.835 1253.18 486.153
480 0 57.1423 12.7401 728 117.867 1251.93 485.023
481 0 59.1673 12.49 739 108.903 1251.76 482.29
482 0 59.0844 12.9307 764 108.53 1251.88 479.657
483 0 61.1252 11.6809 714 111.385 1251.84 480.459
484 0 64.1521 13.2498 850 108.311 1252.31 478.475
485 0 65.095 12.8274 835 109.897 1251.39 476.759
486 0 67.2065 12.9303 869 110.19 1252.1 475.528
487 0 71.1164 13.6959 974 108.455 1251.97 473.892
488 0 72.244 13.2191 955 112.638 1251.01 471.644
489 0 75.2184 15.568 1171 107.456 1251.25 469.282
490 0 81.2747 12.6238 1026 114.14 1251.13 469.781
491 0 82.2455 12.9734 1067 112.942 1251.36 468.846
492 0 82.2318 13.8754 1141 111.98 1251.62 467.487
493 0 85.3575 13.5782 1159 113.661 1251.23 464.795
494 0 90.3133 13.431 1213 113.784 1251.25 466.93
495 0 93.2424 12.7732 1191 115.396 1251.45 465.071
496 0 96.223 14.4768 1393 112.148 1251.66 463.646
497 0 99.2626 13.0462 1295 114.687 1251.64 463.038
498 0 102.228 13.4406 1374 113.86 1251.14 461.416
499 0 107.183 14.144 1516 112.01 1250.9 457.628
500 1 56.214 10.9937 618 110.173 1252.75 484.686
501 0 58.1975 12.6122 734 109.346 1252.18 482.181
502 0 61.1235 12.2866 751 119.776 1250.91 483.823
503 0 65.2338 13.4593 878 115.388 1251.62 481.615
504 0 66.0591 14.2145 939 113.045 1250.25 481.701
505 0 67.1944 12.9922 873 115.47 1249.5 481.07
506 0 69.0477 12.5276 865 117.361 1250.06 478.818
507 0 69.0828 12.2607 847 116.636 1250.32 475.359
508 0 70.0655 10.7756 755 122.099 1249.92 474.242
509 0 75.3469 13.0596 984 114.852 1250.63 473.241
510 0 77.3033 13.1172 1014 115.133 1251 467.982
511 0 79.1968 12.7783 1012 115.985 1251.12 466.112
512 0 81.269 12.9693 1054 116.792 1250.99 465.447
513 0 83.2216 12.7851 1064 118.534 1250.74 465.004
514 0 85.3349 12.7029 1084 118.26 1250.72 464.543
515 0 88.2882 12.244 1081 121.566 1250.75 459.883
516 0 90.2863 12.0838 1091 122.329 1250.65 461.701
517 0 91.2206 11.0501 1008 125.069 1250.44 459.072
518 0 95.2662 12.0924 1152 122.439 1251.14 458.014
519 1 54.1459 8.73565 473 108.004 1252.03 481.63
520 0 57.0971 10.7186 612 101.685 1252.35 484.194
521 0 56.0568 8.36652 469 107.876 1252.05 482.373
522 0 59.1043 10.9467 647 104.768 1253.06 479.618
523 0 60.0538 10.0243 602 107.512 1252.26 482.126
524 0 63.0447 11.7694 742 105.659 1252.2 478.387
525 0 66.0958 11.5287 762 108.034 1252.08 479.493
526 0 67.0575 12.4073 832 109.369 1251.92 479.809
527 0 69.0502 11.1513 770 112.279 1251.58 479.705
528 0 71.1127 11.4326 813 109.391 1250.84 480.165
529 0 72.0233 9.55247 688 113.253 1251.35 477.949
530 0 75.0544 10.086 757 108.584 1251.66 476.427
531 0 76.0388 9.62667 732 110.833 1251.66 475.223
532 1 43.0449 9.19971 396 105.432 1250.54 492.957
533 0 43.0421 10.2225 440 103.845 1251.07 493.057
534 0 42.0605 10.0094 421 103.05 1250.4 491.81
535 0 41.0209 8.26407 339 106.472 1251.02 494.619
536 0 44.0343 8.7659 386 105.927 1251.24 493.01
537 0 44.0211 8.49592 374 106.364 1251.45 491.631
538 0 44.0423 9.28652 409 105.489 1251.83 488.756
539 0 48.0165 10.7671 517 102.12 1250.77 489.602
540 0 48.0562 10.134 487 104.928 1251.17 488.193
541 0 48.0198 9.5169 457 105.972 1251.75 487.801
542 0 53.0335 10.3897 551 103.203 1251.09 486.929
543 0 54.0771 11.687 632 100.457 1251.69 486.54
544 0 56.0747 10.7714 604 103.035 1251.24 486.545
545 0 55.1756 10.6206 586 102.14 1250.72 484.365
546 0 58.0941 9.4674 550 103.271 1250.35 483.318
547 0 61.1585 10.857 664 100.67 1250.16 482.926
548 0 63.0789 10.5741 667 99.8876 1250.55 481.619
549 0 67.206 10.3562 696 99.2514 1250.61 479.675
550 0 66.2795 9.18836 609 102.532 1250.35 478.949
551 0 71.2166 9.32367 664 107.904 1250.39 477.584
552 1 39.0458 8.6309 337 102.599 1249.79 494.525
553 0 40.0883 9.5539 383 97.8851 1249.71 495.055
554 0 39.0234 10.2759 401 98.5885 1250.31 494.234
555 0 41.1536 8.84492 364 100.503 1251.5 492.755
556 0 45.1548 8.94701 404 109.431 1252.37 492.136
557 0 44.119 10.925 482 105.909 1252.82 491.911
558 0 46.0835 11.8914 548 104.995 1252.96 490.228
559 0 47.0824 9.40903 443 109.643 1252.5 491.113
560 0 50.1008 9.20144 461 109.098 1252.93 491.486
561 0 50.1216 11.2526 564 107.183 1252.91 488.486
562 0 53.1475 10.1416 539 108.553 1252.99 489.519
563 0 53.1511 10.5172 559 108.143 1253.6 488.485
564 0 56.1141 10.2648 576 108.5 1253.07 488.898
565 0 57.0997 10.0176 572 109.621 1252.86 487.39
566 0 60.1858 10.966 660 107.855 1253.63 485.332
567 0 59.0771 10.4948 620 110.1 1253.1 484.024
568 0 62.0691 11.1811 694 108.689 1252.61 482.589
569 0 64.2327 11.9098 765 107.016 1252.33 484.01
570 0 64.0741 10.4098 667 110.84 1252.79 482.817
571 0 65.0851 10.1867 663 111.3 1252.84 480.846
572 0 67.1915 10.8942 732 109.596 1252.45 479.724
573 0 71.1883 11.1535 794 110.554 1251.71 479.69
574 0 75.1746 12.318 926 107.559 1251.82 478.441
575 1 43.0151 6.8348 294 111.765 1252.93 498.694
576 0 45.0385 8.63706 389 111.55 1252.35 495.846
577 0 45.0321 10.9255 492 108.323 1252.57 493.685
578 0 42.0203 10.2094 429 112.76 1252.65 492.198
579 0 43.04 11.2453 484 111.959 1252.52 492.909
580 0 47.0199 12.718 598 107.855 1251.86 492.888
581 0 49.0114 12.6909 622 102.937 1252.5 492.723
582 0 49.0509 12.3749 607 103.959 1253.2 491.066
583 0 53.0377 13.0096 690 109.362 1249.7 490.419
584 0 54.0208 13.069 706 109.467 1249.93 490.245
585 0 55.0667 13.7288 756 109.159 1250.1 489.925
586 0 56.0626 13.4136 752 111.613 1249.84 488.753
587 0 56.0339 12.314 690 115.01 1250.15 489.338
588 0 60.0197 12.7458 765 113.532 1250.12 488.112
589 0 59.0765 12.7293 752 115.767 1250.75 487.556
590 0 63.0976 13.3761 844 113.29 1250.32 486.931
591 0 66.0944 14.8424 981 109.604 1250.23 485.68
592 0 67.0272 14.3524 962 112.58 1250.35 484.765
593 0 67.0937 14.5021 973 113.702 1250.62 484.133
594 0 71.1078 14.7523 1049 112.18 1249.82 484.034
595 0 72.038 14.8394 1069 113.169 1250.01 483.664
596 0 75.0559 14.296 1073 115.421 1250.06 480.138
597 0 76.0685 13.9611 1062 116.48 1250.49 480.628
598 0 80.0938 15.5068 1242 113.857 1250.45 477.316
599 0 79.087 14.0858 1114 118.62 1249.95 477.401
600 0 83.074 13.6023 1130 117.927 1250.57 477.306
601 0 85.1298 13.8377 1178 119.963 1252.55 474.222
602 0 91.0984 15.2802 1392 114.991 1252.38 472.662
603 0 91.0431 14.1691 1290 118.797 1252.16 472.78
604 0 92.1283 14.0456 1294 120.451 1252.51 471.374
605 0 97.1416 15.2767 1484 110.437 1252.06 472.121
606 1 49.0418 12.9685 636 118.841 1251.95 491.134
607 0 52.07 10.9852 572 113.128 1251.45 488.872
608 0 52.1115 12.8762 671 112.63 1251.69 486.747
609 0 54.1149 12.5289 678 112.587 1251.34 489.167
610 0 56.1045 12.6371 709 113.472 1251.71 486.615
611 0 58.0983 13.4944 784 111.23 1251.41 483.959
612 0 61.0811 13.392 818 111.214 1251.35 485.086
613 0 60.1101 12.161 731 116.171 1251.2 483.465
614 0 64.0617 13.4714 863 113.373 1251.45 482.46
615 0 67.0934 13.3992 899 113.535 1251.52 482.325
616 0 69.1263 13.4826 932 113.706 1251.53 481.855
617 0 71.0876 14.1938 1009 113.072 1251.28 481.478
618 0 73.0998 13.8578 1013 115.585 1251.5 480.06
619 0 74.0725 13.9053 1030 116.764 1251.09 480.043
620 0 78.1773 14.4927 1133 115.14 1251.45 480.067
621 0 82.1012 14.6039 1199 114.304 1251.89 479.078
622 0 81.091 14.6995 1192 116.27 1251.61 476.265
623 0 85.1599 14.2908 1217 116.991 1251.1 476.172
624 0 89.0908 14.8837 1326 115.482 1251.48 475.154
625 0 92.1514 14.6607 1351 117.292 1251.29 474.221
626 0 93.0819 15.1909 1414 117.114 1250.6 472.487
627 0 95.117 14.0459 1336 120.058 1250.66 469.509
628 0 98.1911 15.3578 1508 116.514 1250.58 467.844
629 0 102.203 14.7549 1508 118.579 1250.94 466.537
630 0 105.131 13.564 1426 123.096 1249.88 464.735
631 1 57.0598 13.2843 758 118.876 1249.8 489.228
632 0 59.138 13.3417 789 121.218 1249.86 484.914
633 0 63.06 14.621 922 115.713 1251.05 486.217
634 0 63.0995 13.8987 877 120.387 1250.84 484.966
635 0 67.033 14.4407 968 117.869 1251.07 483.67
636 0 69.143 14.3615 993 118.539 1251.02 481.969
637 0 72.0587 14.5298 1047 118.241 1251.5 481.727
638 0 73.0992 13.9947 1023 120.411 1251.97 480.965
639 0 78.0951 14.6488 1144 118.671 1251.59 478.313
640 0 78.1302 14.1943 1109 120.757 1251.59 477.926
641 0 83.1299 15.2292 1266 117.96 1251.83 474.527
642 0 85.0515 15.0615 1281 118.7 1251.39 474.495
643 0 89.0682 14.7752 1316 118.662 1251.84 472.788
644 0 94.1676 14.8883 1402 118.098 1252.71 471.42
645 0 95.1967 15.6518 1490 117.049 1252.31 467.223
646 0 97.1259 14.4966 1408 121.646 1251.73 466.89
647 0 102.19 14.6883 1501 121.35 1252.21 465.523
648 0 104.184 14.5032 1511 118.273 1251.87 459.565
649 1 53.0936 10.1519 539 118.898 1252.65 485.206
650 0 58.0501 13.1783 765 115.608 1252.8 487.659
651 0 57.1046 12.6084 720 123.736 1252.25 486.422
652 0 61.0985 14.1738 866 119.934 1251.83 485.076
653 0 64.2513 13.9297 895 121.037 1251.66 483.854
654 0 66.1536 13.8012 913 121.885 1252.1 482.398
655 0 68.2538 14.8856 1016 119.94 1251.91 481.937
656 0 70.1564 13.6267 956 123.533 1252.21 480.825
657 0 73.1371 13.796 1009 122.577 1251.94 480.291
658 0 75.1416 13.5078 1015 124.763 1251.46 479.904
659 0 79.166 14.2233 1126 123.512 1251.11 476.293
660 0 81.1628 13.5037 1096 126.63 1251.45 473.681
661 0 85.1283 13.9907 1191 124.418 1251.82 474.099
662 0 87.1149 12.7303 1109 128.104 1251.52 471.64
663 1 42.0311 10.6112 446 119.081 1251.52 496.969
664 0 45.0418 11.5448 520 115.592 1251.13 494.579
665 0 46.0223 11.9942 552 114.21 1250.11 492.152
666 0 45.1249 11.2798 509 116.876 1251.56 492.941
667 0 50.0417 13.5087 676 110.325 1251.41 491.395
668 0 51.0155 12.5256 639 112.953 1251.51 492.344
669 0 54.0182 12.5513 678 113.305 1251.45 490.476
670 0 54.0231 12.3651 668 114.278 1251.17 490.701
671 0 54.0901 11.943 646 116.949 1251.91 490.023
672 0 58.0909 11.964 695 115.908 1251.98 488.816
673 0 59.1243 12.1777 720 115.636 1251.97 489.061
674 0 61.143 11.6939 715 117.999 1251.87 487.288
675 0 61.2555 12.9947 796 115.789 1251.41 485.294
676 0 65.0903 12.2138 795 116.857 1252.14 484.965
677 0 66.1316 12.9893 859 115.703 1252.21 483.084
678 0 69.0862 11.6521 805 118.585 1251.74 482.825
679 0 72.0991 13.3289 961 114.745 1252.2 482.113
680 0 73.0501 11.6359 850 119.529 1252.4 479.673
681 0 78.0883 12.6011 984 116.563 1252.29 479.271
682 0 80.1326 13.1906 1057 115.702 1252.73 476.49
683 0 82.1641 11.8422 973 119.177 1252.48 475.839
684 0 84.1014 10.9986 925 121.573 1252.11 472.308
685 1 45.0437 11.1447 502 116.964 1250.83 492.277
686 0 46.0228 10.8642 500 117.262 1251 492.98
687 0 49.0179 11.2408 551 116.299 1251.43 492.514
688 0 51.0277 11.3468 579 116.147 1251.51 491.964
689 0 52.0357 12.9142 672 111.85 1251.78 490.954
690 0 54.1155 12.3994 671 113.149 1251.12 489.659
691 0 55.0319 12.2838 676 113.521 1251.36 488.494
692 0 59.0929 12.7765 755 110.748 1252.06 488.148
693 0 60.1703 12.8635 774 110.879 1252.18 488.435
694 0 63.1195 12.9437 817 110.315 1251.21 485.763
695 0 64.0729 13.1881 845 111.493 1251.07 484.723
696 0 66.1043 13.0551 863 110.509 1251.45 485.737
697 0 69.0737 13.0875 904 111.537 1251.05 482.552
698 0 69.1199 12.6881 877 113.019 1251.52 482.157
699 0 72.2065 12.7274 919 113.951 1251.18 478.793
700 0 75.1351 13.4824 1013 111.585 1252.15 478.749
701 0 77.2197 13.1314 1014 114.033 1251.82 476.396
702 0 80.1006 12.9712 1039 114.479 1251.85 476.682
703 0 83.1418 13.074 1087 114.423 1252.07 474.085
704 0 87.0985 13.8119 1203 112.547 1251.39 471.283
705 0 91.1334 13.6942 1248 111.77 1251.04 472.265
706 1 47.0317 10.6524 501 117.585 1251.69 493.465
707 0 50.0467 10.9098 546 116.967 1252.55 491.125
708 0 51.0697 11.2983 577 115.964 1252.29 491.404
709 0 53.101 12.5421 666 113.423 1251.67 489.785
710 0 53.093 11.9036 632 110.116 1249.36 489.293
711 0 55.0792 12.3277 679 107.476 1249.8 489.364
712 0 58.112 13.8009 802 103.857 1249.73 485.804
713 0 57.0694 12.2132 697 108.935 1249.43 487.165
714 0 59.0954 12.2514 724 108.744 1249.84 485.691
715 0 63.0911 12.5057 789 106.45 1249.89 485.773
716 0 65.2392 12.7684 833 105.454 1249.93 481.98
717 0 68.1334 12.725 867 105.341 1250.11 482.549
718 0 68.1334 12.637 861 136.075 1250.11 482.555
719 0 73.239 13.7359 1006 102.639 1250.19 480.254
720 0 75.1902 13.6321 1025 102.026 1251.13 479.604
721 0 76.2218 12.9228 985 105.146 1250.65 476.866
722 0 81.108 13.5005 1095 102.853 1251 475.841
723 0 83.1151 13.2587 1102 103.946 1251.02 474.805
724 0 88.1964 13.2885 1172 104.759 1250.91 472.688
725 0 91.213 13.5726 1238 103.825 1250.6 472.51
726 0 95.1413 13.4537 1280 104.088 1250.71 472.276
727 0 97.1795 12.6467 1229 108.195 1250.59 466.818
728 1 51.0683 11.1028 567 106.667 1249.11 491.481
729 0 52.0784 13.0188 678 103.316 1249.31 491.507
730 0 51.0474 12.0476 615 104.47 1250.11 490.618
731 0 53.2792 12.8756 686 102.103 1249.78 487.808
732 0 56.1387 12.8432 721 101.178 1249.71 489.951
733 0 57.1065 12.2403 699 102.914 1249.8 487.076
734 0 58.2479 13.185 768 99.4271 1249.58 486.379
735 0 61.1142 12.043 736 101.765 1249.44 485.853
736 0 63.1847 12.867 813 98.9766 1250.24 484.806
737 0 66.1621 13.9506 923 96.6631 1249.48 482.911
738 0 67.1644 12.06 810 100.609 1249.57 484.493
739 0 69.1891 11.9961 830 100.933 1249.84 481.454
740 0 73.1267 12.4578 911 98.9879 1250.47 480.751
741 0 74.1593 12.136 900 101.188 1249.98 480.5
742 0 77.217 11.6166 897 102.751 1250.3 477.789
743 0 81.1606 13.4425 1091 98.8084 1250.32 476.21
744 0 82.1947 11.5944 953 104.047 1250.07 473.922
745 0 85.1722 13.0324 1110 102.131 1250.07 473.742
746 0 88.1219 11.8586 1045 105.919 1250.12 471.555
747 0 89.1416 10.2085 910 111.309 1250.09 471.333
748 0 93.15 11.7874 1098 107.787 1250.36 466.758
749 1 48.0685 11.0051 529 105.248 1248.48 490.325
750 0 50.1045 11.2365 563 104.366 1249.4 490.968
751 0 52.2335 11.4103 596 104.448 1251.73 485.743
752 0 53.1537 11.6643 620 102.053 1251.34 487.939
753 0 55.0461 12.3533 680 99.3662 1249.47 488.682
754 0 55.0452 11.4996 633 102.096 1249.6 489.826
755 0 58.0157 11.0143 639 101.947 1250.62 490.197
756 0 59.0617 12.7324 752 99.3564 1249.66 485.471
757 0 61.0213 12.6841 774 99.6357 1249.78 487.123
758 0 63.0407 12.3888 781 99.8873 1249.8 485.53
759 0 64.0522 12.0839 774 100.632 1249.55 484.337
760 0 68.0675 11.8412 806 99.8412 1250.51 484.088
761 0 69.1066 12.1985 843 99.9122 1250.48 482.043
762 0 71.0704 14.4082 1024 95.4941 1250.05 480.846
763 0 73.0678 11.9204 871 100.967 1250.34 481.338
764 0 76.1534 13.3021 1013 98.7641 1249.74 477.62
765 0 78.0453 12.7874 998 99.8377 1249.66 476.169
766 0 79.0618 12.1424 960 101.916 1249.36 476.26
767 0 84.0493 12.7663 1073 99.027 1249.44 475.673
768 0 86.1873 10.8833 938 103.848 1249.45 474.31
769 0 89.1218 11.9499 1065 102.515 1249.14 471.479
770 0 92.1344 11.1902 1031 103.361 1249.57 467.752
771 0 96.2739 12.3294 1187 99.1247 1249.45 469.093
772 0 98.2173 12.2687 1205 100.724 1249.27 465.411
773 1 51.0575 10.1846 520 103.121 1249.11 490.954
774 0 50.0296 10.5138 526 101.84 1248.72 492.907
775 0 52.0541 12.2565 638 99.0862 1249.08 489.346
776 0 55.3471 13.3882 741 100.803 1250.04 487.976
777 0 57.1584 12.1067 692 105.12 1249.11 487.951
778 0 57.1643 11.8431 677 107.053 1249.22 486.105
779 0 59.1004 12.5718 743 105.114 1249.31 487.218
780 0 60.0412 11.5254 692 107.28 1249.62 486.452
781 0 62.0337 12.4126 770 105.674 1249.13 484.009
782 0 62.0879 10.614 659 109.483 1249.63 483.24
783 0 67.1424 12.1682 817 105.436 1249.16 482.812
784 0 70.1386 13.4591 944 103.234 1249.69 481.101
785 0 70.1415 12.874 903 105.561 1249.42 479.002
786 0 71.1017 12.6157 897 106.326 1249.8 480.174
787 0 77.0776 13.6226 1050 103.64 1249.27 478.249
788 0 77.1723 12.2194 943 108.017 1249.77 476.544
789 0 81.0914 14.1692 1149 103.862 1249.17 475.352
790 0 84.0632 13.5493 1139 105.143 1249.31 474.524
791 0 87.1126 13.2817 1157 105.601 1249.82 473.424
792 0 90.0632 12.8687 1159 107.71 1249.47 471.286
793 0 93.1385 11.6815 1088 109.63 1250.63 469.476
794 0 97.1712 12.3493 1200 107.127 1250.25 471.404
795 0 100.259 12.9764 1301 106.554 1250.27 468.176
796 0 103.601 13.6581 1415 106.266 1250.53 463.812
797 1 56.1666 13.3531 750 104.323 1249.83 487.333
798 0 56.2131 12.2214 687 108.144 1249.76 486.686
799 0 59.1678 13.7744 815 104.777 1250.53 485.175
800 0 61.1779 13.7468 841 105.046 1250.43 485.623
801 0 64.2963 14.091 906 104.315 1250.57 485.085
802 0 66.2838 13.8948 921 105.486 1250.87 483.238
803 0 68.2663 14.2237 971 105.145 1251.21 482.905
804 0 70.228 14.7377 1035 105.206 1250.86 480.275
805 0 72.3115 12.7504 922 110.683 1251.14 480.777
806 0 75.2392 13.2777 999 109.453 1250.15 480.821
807 0 79.2182 14.3906 1140 107.675 1250.51 477.639
808 0 81.1319 14.2114 1153 109.7 1250.6 476.755
809 0 84.257 13.898 1171 110.625 1250.08 478.029
810 0 86.2615 13.7837 1189 112.423 1249.71 474.087
811 1 44.1148 11.1074 490 111.267 1251.78 496.051
812 0 44.2461 11.7751 521 110.557 1252.11 493.226
813 0 44.2363 11.7098 518 154.479 1251.09 493.17
814 0 47.0306 12.8852 606 111.215 1252.81 494.906
815 0 49.0427 13.0498 640 110.828 1251.9 493.122
816 0 48.0317 11.6798 561 116.039 1252.09 492.283
817 0 53.0908 11.5086 611 114.661 1252.2 493.54
818 0 52.0627 12.3697 644 114.245 1252 491.463
819 0 55.0337 14.373 791 110.131 1252.84 489.882
820 0 57.0551 14.5123 828 108.78 1252.34 492.732
821 0 58.0758 12.9314 751 113.639 1253.08 488.646
822 0 57.042 11.6931 667 118.204 1253.13 487.799
823 0 61.0807 13.4249 820 112.624 1252.63 486.254
824 0 63.1044 12.4556 786 114.645 1253.09 487.162
825 0 66.265 12.948 858 113.795 1252.87 484.474
826 0 68.0766 13.191 898 114.079 1252.16 483.457
827 0 69.1547 12.754 882 114.219 1251.97 483.768
828 0 72.1945 14.4748 1045 110.926 1252.28 480.544
829 0 74.2925 12.5989 936 115.677 1251.31 481.002
830 0 76.3273 11.5424 881 118.037 1251.6 480.422
831 0 79.2884 12.4861 990 114.456 1251.19 478.47
832 1 40.0477 9.11414 365 117.789 1252.27 496.378
833 0 41.2523 9.52674 393 116.425 1251.54 495.435
834 0 44.1196 11.2648 497 113.845 1251.52 493.064
835 0 45.0553 11.0087 496 112.79 1252.23 495.76
836 0 46.1004 10.8459 500 113.086 1252.45 493.932
837 0 47.1947 12.226 577 109.723 1252.68 492.189
838 0 48.0365 11.9076 572 111.49 1252.33 490.173
839 0 49.0365 11.8279 580 111.891 1252.15 490.912
840 0 51.0659 11.2208 573 111.277 1252.79 491.878
841 0 55.0472 12.5347 690 107.371 1253.18 489.914
842 0 56.0368 11.7244 657 108.377 1253.22 489.326
843 0 57.0869 12.5773 718 107.469 1252.53 487.944
844 0 60.1242 11.7922 709 108.656 1253.02 487.88
845 0 60.058 12.4546 748 107.918 1252.38 486.132
846 0 62.2052 12.2176 760 107.17 1252.49 485.803
847 0 63.0646 11.956 754 108.725 1252.85 484.91
848 0 66.0844 11.7426 776 108.794 1252.05 482.661
849 0 68.1138 12.0387 820 107.534 1251.39 481.974
850 0 69.1006 11.7655 813 108.451 1251.85 479.021
851 0 70.0968 11.0133 772 110.659 1251.27 480.281
852 0 74.1505 12.124 899 108.093 1251.84 478.95
853 0 77.1527 12.7669 985 105.672 1251.23 478.802
854 0 79.2509 13.0724 1036 106.002 1250.81 476.151
855 1 41.0856 11.5612 475 103.011 1251.32 494.602
856 0 43.2979 11.4555 496 105.192 1249.93 492.381
857 0 44.0194 11.6994 515 104.901 1251.7 492.95
858 0 45.013 12.663 570 102.963 1251.42 492.765
859 0 46.0152 11.7135 539 105.152 1251.35 492.842
860 0 50.1084 11.7745 590 104.293 1251.48 492.186
861 0 48.0157 12.4751 599 105.255 1251.55 492.337
862 0 51.0372 12.4811 637 105.879 1252.1 490.25
863 0 50.0817 11.9006 596 108.153 1251.9 488.141
864 0 54.0407 11.7319 634 107.871 1251.79 489.167
865 0 56.0626 12.3433 692 106.831 1251.77 487.918
866 0 56.0796 12.2504 687 108.281 1251.35 487.738
867 0 57.1384 13.0035 743 107.525 1251.4 486.793
868 0 60.12 11.8929 715 109.621 1251.69 484.901
869 0 63.0871 13.6319 860 104.93 1251.67 484.809
870 0 65.0916 13.0432 849 106.203 1251.5 483.178
871 0 67.1657 12.8339 862 106.796 1251.5 483.218
872 0 70.0418 13.7632 964 105.558 1251.23 479.961
873 0 71.0771 13.0703 929 108.277 1251.37 477.982
874 0 74.0845 13.0662 968 108.838 1251.56 477.364
875 0 77.1229 13.7962 1064 106.495 1252.45 476.701
876 1 40.0687 12.5035 501 104.062 1251.77 496.222
877 0 43.0579 11.38 490 106.869 1250.11 496.62
878 0 43.1505 12.0972 522 107.397 1249.85 493.596
879 0 45.1745 12.7063 574 106.077 1249.33 493.519
880 0 47.1599 13.2952 627 104.427 1250.07 493.566
881 0 48.1064 13.2623 638 104.831 1250.07 492.05
882 0 49.1253 11.3791 559 109.909 1249.81 491.424
883 0 52.2239 12.5613 656 104.988 1250.37 491.061
884 0 51.1467 13.5493 693 105.798 1250.29 488.635
885 0 54.1199 13.3777 724 104.367 1250.01 488.191
886 0 56.1361 14.0373 788 103.146 1249.59 488.548
887 0 56.165 13.3357 749 105.924 1249.72 486.614
888 0 58.1409 12.8309 746 106.048 1249.94 487.059
889 0 61.1684 13.9941 856 102.575 1249.17 487.229
890 0 61.0223 11.2418 686 110.197 1248.28 485.724
891 0 61.0521 11.8587 724 109.537 1248.92 485.026
892 0 66.2826 13.1407 871 106 1248.76 483.281
893 0 67.0587 12.1088 812 109.158 1248.71 482.517
894 0 70.14 12.803 898 107.339 1249.44 481.537
895 0 72.155 14.0254 1012 105.028 1249.19 480.454
896 0 74.1862 12.8326 952 109.32 1249.31 478.006
897 0 76.2027 12.1518 926 110.537 1249.97 476.999
898 0 81.1674 13.0102 1056 108.084 1250.05 475.525
899 0 84.13 11.7081 985 110.277 1249.98 476.938
900 0 87.5901 12.7183 1114 109.478 1250.17 470.836
901 1 49.3648 12.6608 625 106.074 1250.12 489.746
902 0 52.1916 12.0134 627 107.928 1250.6 491.411
903 0 53.0574 12.8917 684 106.031 1248.73 490.135
904 0 56.036 13.7233 769 104.537 1249.07 489.268
905 0 56.0166 12.8533 720 107.947 1248.91 487.144
906 0 59.0417 12.8723 760 107.639 1249.1 487.425
907 0 60.0496 13.1558 790 108.113 1249.42 486.508
908 0 63.0368 14.325 903 106.166 1248.71 482.524
909 0 65.0719 13.4006 872 109.071 1249.02 483.26
910 0 66.0557 13.7006 905 109.309 1249.07 483.362
911 0 66.038 13.1439 868 112.306 1248.39 483.317
912 0 70.0598 13.2601 929 111.141 1248.6 482.158
913 0 71.0577 13.2568 942 111.415 1248.42 481.141
914 0 73.081 13.6424 997 111.467 1248.55 480.592
915 0 76.0657 14.2114 1081 110.631 1249.22 478.303
916 0 78.2613 14.7966 1158 109.38 1249.33 477.305
917 0 82.1718 13.1067 1077 111.572 1248.67 477.135
918 0 83.1016 13.7061 1139 111.407 1249.29 473.555
919 0 87.1652 13.0327 1136 112.493 1249.34 472.426
920 0 89.1558 13.3923 1194 111.981 1249.07 469.301
921 0 92.244 13.5944 1254 111.33 1249.83 467.561
922 0 95.2305 14.0291 1336 110.516 1250.09 464.57
923 1 37.0762 9.76368 362 111.376 1249.53 496.528
924 0 40.0463 11.7864 472 106.822 1249.21 495.807
925 0 41.0166 12.9704 532 105.667 1249.21 494.641
926 0 42.0534 13.4115 564 105.989 1248.9 494.317
927 0 44.0572 13.1874 581 105.967 1248.19 493.355
928 0 45.2082 11.9669 541 111.124 1249.34 494.307
929 0 47.0456 12.3922 583 109.918 1249.01 493.232
930 0 48.0322 12.4292 597 109.541 1248.74 492.806
931 0 49.0448 12.1929 598 112.666 1248.86 491.152
932 0 51.0231 11.9358 609 112.002 1248.5 491.319
933 0 50.0189 11.9955 600 114.56 1248.88 490.362
934 0 53.0394 12.0854 641 112.633 1248.89 490.97
935 0 55.0619 12.8764 709 111.398 1249.15 489.653
936 0 56.0865 10.983 616 116.662 1248.93 489.409
937 0 58.066 11.9691 695 114.34 1248.97 487.583
938 0 61.0338 13.5662 828 110.604 1249.21 486.093
939 0 62.0939 12.3039 764 112.973 1248.95 486.55
940 0 64.0454 12.9596 830 111.202 1249.5 485.619
941 0 66.1566 12.8332 849 111.903 1249.01 482.735
942 0 69.0576 13.3801 924 110.479 1249.19 480.802
943 0 71.2289 12.7897 911 111.817 1249.7 480.504
944 0 74.194 13.7612 1021 109.324 1249.63 479.217
945 1 38.0886 12.5234 477 110.428 1248.82 497.771
946 0 38.0281 12.0437 458 114.225 1249.03 497.155
947 0 40.0803 12.6247 506 112.006 1248.8 496.172
948 0 40.0465 11.8363 474 115.66 1248.32 495.536
949 0 42.0189 11.3758 478 116.042 1248.44 495.397
950 0 43.0576 13.3542 575 111.777 1248.34 495.11
951 0 44.067 12.0498 531 115.789 1248.41 494.67
952 0 46.0334 12.4692 574 114.167 1248.61 492.913
953 0 47.0252 12.185 573 115.728 1247.89 493.712
954 0 48.0301 13.3666 642 113.444 1248.24 493.025
955 0 50.0502 12.967 649 113.877 1248.63 493.242
956 0 52.0233 13.7246 714 112.413 1249.2 491.724
957 0 51.0471 13.5169 690 115.914 1249.37 490.87
958 0 54.152 14.2008 769 113.714 1248.78 490.852
959 0 53.0125 13.4119 711 116.63 1249.14 490.824
960 0 55.042 12.336 679 119.641 1249.21 490.542
961 0 56.0236 14.4404 809 115.011 1248.83 488.625
962 0 61.0381 13.2376 808 117.032 1249.2 487.802
963 0 61.0998 13.3716 817 116.92 1249.53 488.452
964 0 62.0328 12.042 747 119.726 1249.74 488.497
965 0 65.1071 13.1322 855 117.361 1249.99 485.596
966 0 65.1943 12.7312 830 119.613 1250.18 483.318
967 0 68.3061 14.4204 985 118.87 1250.48 480.729
968 0 71.2544 15.2552 1087 116.396 1250.13 479.049
969 0 73.2941 15.8266 1160 115.898 1250.36 476.491
970 0 75.333 15.1594 1142 118.624 1250.06 475.339
971 0 76.4037 15.0647 1151 120.037 1250.14 475.444
972 0 81.4482 15.0771 1228 119.133 1249.87 474.314
973 0 82.4674 14.8786 1227 121.864 1249.85 469.441
974 0 83.6418 14.1795 1186 124.532 1249.91 470.553
975 0 86.4737 14.2818 1235 124.107 1250.4 469.602
976 0 89.0967 13.3675 1191 115.784 1250.18 472.908
977 0 92.2194 13.8908 1281 116.241 1250.53 470.927
978 0 94.2484 14.1541 1334 117.355 1250.56 469.483
979 0 98.3264 14.2078 1397 117.164 1251.14 465.303
980 0 99.4093 14.2341 1415 119.244 1251.2 464.623
981 0 103.308 13.9873 1445 122.001 1250.72 463.713
982 0 107.235 14.7713 1584 119.558 1250.68 460.47
983 0 108.563 14.2683 1549 122.454 1250.31 461.806
984 0 113.337 13.6231 1544 127.045 1250.41 461.737
985 0 118.294 14.5147 1717 125.241 1250.84 458.872
986 0 122.418 14.3769 1760 125.732 1250.79 458.876
987 0 125.487 13.7544 1726 128.155 1251.07 451.532
988 0 130.509 13.8074 1802 127.141 1251.09 451.104
989 1 70.4461 12.7331 897 125.604 1250.83 480.25
990 0 72.4622 12.4065 899 128.286 1250.79 480.115
991 0 75.269 14.0828 1060 129.614 1251.13 475.511
992 0 76.4145 13.7932 1054 130.62 1251.03 475.268
993 0 80.3727 14.159 1138 128.227 1250.85 473.709
994 0 83.2481 14.8832 1239 126.956 1251.03 471.819
995 0 86.1597 14.6588 1263 121.23 1250.57 473.736
996 0 88.1569 14.27 1258 123.68 1250.83 470.355
997 0 90.1614 13.7975 1244 125.241 1250.78 471.176
998 0 94.199 14.3207 1349 123.904 1250.52 467.588
999 0 96.1604 12.6247 1214 128.295 1250.76 468.467
1000 0 99.1772 13.7027 1359 125.472 1250.42 467.759
1001 0 103.175 14.5384 1500 122.76 1251.04 463.755
1002 0 108.154 14.9971 1622 121.658 1250.74 461.588
1003 0 111.306 14.779 1645 121.728 1249.95 460.453
1004 0 114.311 14.3381 1639 123.062 1250.12 459.663
1005 0 118.215 15.5734 1841 119.329 1250.42 456.77
1006 0 119.377 13.8218 1650 125.462 1250.78 455.052
1007 0 125.259 13.9232 1744 124.447 1249.87 452.771
1008 0 130.189 12.9351 1684 125.717 1250.28 453.837
1009 0 136.262 14.23 1939 123.266 1250.22 446.992
1010 0 140.277 14.6425 2054 122.98 1250.24 444.757
1011 1 71.0873 13.1106 932 116.672 1250.12 479.629
1012 0 72.0729 12.0989 872 120.064 1250.53 476.674
1013 0 77.1115 13.2665 1023 115.553 1250.13 476.822
1014 0 80.1631 13.2979 1066 115.508 1249.77 476.132
1015 0 82.2052 14.3665 1181 113.313 1250.02 470.777
1016 0 85.2118 12.3809 1055 117.826 1249.67 470.136
1017 0 88.2859 11.7459 1037 121.159 1250.25 468.379
1018 0 91.3426 12.5681 1148 119.194 1249.95 465.666
1019 0 94.2143 13.066 1231 117.732 1249.96 466.426
1020 0 96.2827 12.8476 1237 118.641 1250.23 463.084
1021 0 101.322 14.0641 1425 115.451 1249.89 458.847
1022 0 106.456 13.3294 1419 116.012 1250.15 456.579
1023 0 108.374 12.7982 1387 117.646 1250.28 455.968
1024 0 113.293 14.0873 1596 113.873 1250.03 453.929
1025 0 116.396 13.454 1566 114.578 1250.13 454.487
1026 1 61.2137 10.8146 662 107.329 1250.13 483.927
1027 0 62.2057 11.896 740 105.85 1250.07 481.862
1028 0 63.1976 12.0099 759 104.874 1249.97 483.171
1029 0 66.2185 12.3681 819 104.061 1250.08 479.973
1030 0 68.1885 11.9082 812 104.3 1249.99 477.991
1031 0 67.2069 12.6773 852 103.181 1249.92 477.357
1032 0 71.1701 11.9854 853 104.411 1249.36 477.347
1033 0 74.1852 13.3854 993 99.6717 1250.31 476.567
1034 0 74.1284 11.7499 871 103.379 1249.93 475.879
1035 0 78.1293 13.3625 1044 100.784 1249.92 473.827
1036 0 80.1922 11.9837 961 102.85 1249.79 471.547
1037 0 82.2113 11.9327 981 105.49 1250.46 470.949
1038 0 85.1722 12.1871 1038 106.366 1250.69 469.688
1039 0 86.2939 12.5501 1083 106.187 1250.73 468.672
1040 0 90.2671 12.2968 1110 107.549 1251.2 466.774
1041 0 92.2649 11.8897 1097 108.027 1250.65 463.074
1042 0 95.2986 12.1408 1157 106.935 1251.22 464.066
1043 0 99.2179 11.3891 1130 106.516 1250.61 461.265
1044 1 56.1694 11.4653 644 100.947 1249.95 484.405
1045 0 59.0197 12.1824 719 102.199 1251.05 484.846
1046 0 59.1399 11.7856 697 99.6557 1250.25 484.205
1047 0 60.0708 11.32 680 99.7529 1251.74 483.65
1048 0 64.0867 12.1554 779 97.8626 1250.39 482.35
1049 0 65.185 11.3677 741 99.5169 1250.09 482.201
1050 0 66.0527 11.1578 737 99.9132 1250.27 481.746
1051 0 69.1336 11.2536 778 99.1183 1250.6 480.611
1052 0 71.0598 11.2018 796 99.3191 1250.23 479.464
1053 0 74.0771 12.109 897 97.7793 1250.86 475.373
1054 0 75.0743 11.0824 832 100.056 1250.34 475.02
1055 0 79.101 12.1111 958 97.3831 1249.94 474.379
1056 0 82.1468 12.1855 1001 97.004 1249.72 473.466
1057 0 87.1061 12.7201 1108 96.5451 1249.54 469.934
1058 0 89.2087 10.9967 981 99.2742 1249.76 470.155
1059 0 94.1094 10.2221 962 100.992 1249.76 467.158
1060 0 97.2764 11.8631 1154 98.9177 1249.88 467.86
1061 0 97.1781 10.8461 1054 100.67 1249.31 466.537
1062 1 51.0603 11.457 585 98.8103 1251.81 487.07
1063 0 53.0305 12.012 637 96.2182 1251.85 487.527
1064 0 55.0308 13.2108 727 93.5502 1250.66 486.846
1065 0 55.1634 10.6592 588 99.2959 1250.11 485.779
1066 0 58.1364 11.817 687 96.2213 1249.63 484.213
1067 0 60.0811 12.3333 741 96.1525 1251.06 482.916
1068 0 63.1298 11.706 739 97.4899 1250.81 482.501
1069 0 64.0477 10.4297 668 102.139 1250.84 481.726
1070 0 65.0749 11.0642 720 101.285 1251.12 483.479
1071 0 68.0765 12.06 821 100.25 1251.01 480.186
1072 0 70.0764 12.6433 886 99.2359 1250.69 478.719
1073 0 73.1233 12.2123 893 100.299 1250.89 480.036
1074 0 74.0534 12.8556 952 100.4 1249.97 477.731
1075 0 77.1586 12.416 958 101.826 1251.32 476.662
1076 0 83.0777 15.5036 1288 94.1514 1252.11 473.375
1077 0 86.1385 15.8234 1363 93.0323 1251.92 470.149
1078 0 92.0873 16.8427 1551 90.1335 1251.64 469.87
1079 1 46.0345 11.6217 535 106.652 1252.51 491.695
1080 0 49.0693 12.411 609 105.524 1253.29 491.158
1081 0 49.144 12.7177 625 110.432 1251.62 492.198
1082 0 52.2306 13.2298 691 108.107 1250.03 489.486
1083 0 50.2153 11.8091 593 99.0202 1250.66 486.501
1084 0 53.2804 11.3926 607 99.4629 1250.9 486.69
1085 0 54.22 12.0251 652 98.0107 1250.71 485.667
1086 0 57.1404 12.8105 732 97.4795 1250.92 483.372
1087 0 56.1387 13.4845 757 97.9921 1251.35 481.598
1088 0 59.1915 12.3329 730 100.441 1251.3 482.319
1089 0 61.1767 13.1913 807 99.2007 1251.53 481.157
1090 0 62.15 12.5342 779 101.707 1251.18 481.397
1091 0 64.199 12.8974 828 101.171 1251.62 479.463
1092 0 65.1584 13.1219 855 101.919 1251.17 477.402
1093 0 69.0696 12.9869 897 101.334 1250.78 478.907
1094 0 69.0809 13.9836 966 102.55 1250.85 476.997
1095 0 72.1405 13.2519 956 102.516 1250.28 476.778
1096 0 75.0709 13.9335 1046 101.597 1249.61 476.793
1097 0 77.078 13.5966 1048 102.43 1250.37 474.512
1098 0 80.1099 13.831 1108 101.801 1250.79 473.687
1099 0 82.0899 14.143 1161 102.951 1250.61 472.505
1100 0 86.2026 13.6423 1176 102.34 1251.54 468.426
1101 0 88.1496 13.5792 1197 103.119 1251.15 467.033
1102 0 90.2286 14.2638 1287 102.575 1251.43 464.782
1103 0 93.0892 13.3313 1241 107.074 1251.11 468.419
1104 0 98.1936 12.18 1196 110.14 1251.68 465.268
1105 1 50.2363 10.7691 541 99.9187 1251.47 487.987
1106 0 51.0577 10.1454 518 103.448 1251.72 488.324
1107 0 50.0458 10.91 546 100.727 1250.3 486.842
1108 0 53.0575 11.6289 617 98.235 1251.42 486.1
1109 0 55.0472 11.7717 648 97.8596 1250.89 485.843
1110 0 56.071 13.1619 738 95.1734 1250.64 483.942
1111 0 59.0954 12.2006 721 96.957 1250.65 482.771
1112 0 59.1631 12.1866 721 97.1415 1250.27 483.474
1113 0 63.128 12.9261 816 95.8051 1250.65 480.836
1114 0 65.0995 11.8895 774 97.2442 1250.51 481.755
1115 0 68.0702 13.5448 922 94.2538 1250.94 478.581
1116 0 70.0763 14.156 992 92.1976 1251.28 475.986
1117 0 73.1827 13.1725 964 94.0539 1250.97 476.533
1118 0 75.2373 13.0919 985 94.7259 1251.05 475.089
1119 0 75.1648 11.1887 841 99.0262 1251.1 476.459
1120 0 79.1319 11.424 904 99.3496 1251.17 474.04
1121 0 82.2603 10.7828 887 101.443 1251.45 472.343
1122 0 85.2033 11.9479 1018 100.447 1250.8 472.013
1123 1 43.082 10.7237 462 102.024 1252.19 494.606
1124 0 45.1083 13.0575 589 96.9762 1251.75 491.944
1125 0 44.1292 12.1008 534 102.485 1251.94 493.185
1126 0 45.0499 11.232 506 103.85 1251.81 493.713
1127 0 48.0471 12.0923 581 100.434 1251.92 491.22
1128 0 49.0798 12.2657 602 101.726 1252.41 490.615
1129 0 51.1582 12.2561 627 100.466 1251.86 491.606
1130 0 55.0444 12.5898 693 98.7619 1252.13 488.33
1131 0 55.0883 11.6722 643 101.742 1252.44 487.638
1132 0 58.0731 13.4141 779 97.5148 1251.66 488.569
1133 0 58.0381 11.2857 655 103.25 1251.8 487.11
1134 0 62.1015 12.238 760 102.034 1252.17 485.751
1135 0 64.1287 13.0987 840 100.362 1251.52 484.651
1136 0 66.0361 13.5381 894 99.8982 1251.53 484.263
1137 0 68.1271 13.6069 927 99.9655 1251.69 483.289
1138 0 71.051 12.3292 876 103.316 1251.56 482.081
1139 0 72.0728 12.3348 889 103.288 1251.61 482.182
1140 0 75.0962 12.8502 965 103.031 1251.47 480.042
1141 0 78.0975 12.3563 965 103.77 1251.29 479.759
1142 0 79.0701 11.0914 877 106.41 1251.09 480.779
1143 0 84.0643 12.6808 1066 103.953 1251.42 477.784
1144 0 84.0992 12.402 1043 104.265 1251.22 478.723
1145 0 87.089 11.9303 1039 105.622 1251.06 473.913
1146 0 92.0669 12.5887 1159 103.287 1250.45 474.529
1147 0 94.1038 12.6562 1191 104.179 1250.79 470.832
1148 0 98.1118 13.3012 1305 102.035 1250.41 469.118
1149 1 51.0678 12.6694 647 104.049 1250.09 491.178
1150 0 51.096 11.5469 590 105.014 1250.01 491.002
1151 0 55.1234 14.4222 795 97.3987 1249.99 489.314
1152 0 56.0224 14.4585 810 98.7358 1250.01 488.323
1153 0 57.0505 13.4618 768 100.775 1250.12 486.732
1154 0 59.0688 13.0187 769 100.592 1250.04 486.048
1155 0 62.0265 12.3979 769 102.717 1250.04 485.39
1156 0 61.0898 11.9824 732 104.22 1249.87 484.589
1157 0 64.0319 13.2746 850 101.685 1249.9 481.722
1158 0 68.0814 13.0726 890 101.474 1249.99 481.354
1159 0 71.0911 13.4053 953 101.485 1249.26 480.378
1160 0 72.3053 12.0876 874 105.961 1249.88 477.586
1161 0 72.1125 13.1323 947 105.812 1250.04 477.068
1162 0 77.0287 14.1246 1088 105.426 1250.28 476.16
1163 0 81.1945 14.7054 1194 103.857 1249.9 473.575
1164 0 83.2378 13.924 1159 106.217 1250.35 472.402
1165 0 86.0713 14.5345 1251 105.299 1250.48 470.962
1166 0 89.1178 14.0488 1252 105.341 1250.14 471.378
1167 0 92.1769 13.984 1289 107.69 1250.27 469.676
1168 0 94.2526 13.6018 1282 110.664 1250.72 464.6
1169 1 51.1257 11.4815 587 109.721 1251.13 488.077
1170 0 50.0535 10.7285 537 108.274 1251.78 486.523
1171 0 51.1104 11.2502 575 103.882 1251.3 485.922
1172 0 53.0798 12.0196 638 105.633 1250.02 484.149
1173 0 54.0669 11.5968 627 120.204 1249.01 486.389
1174 0 57.063 13.8794 792 116.077 1248.92 485.847
1175 0 57.1135 12.1863 696 121.629 1249 483.364
1176 0 61.117 13.5641 829 119.082 1248.34 482.988
1177 0 64.0467 13.5214 866 119.282 1248.66 482.935
1178 0 68.1662 12.9243 881 121.498 1248.4 481.371
1179 0 68.1503 12.9567 883 123.208 1248.8 480.934
1180 0 69.3074 13.2886 921 125.034 1249.48 479.402
1181 0 74.1578 12.9319 959 124.853 1249.3 477.066
1182 0 76.0464 12.2162 929 126.963 1249.36 477.56
1183 0 80.1503 14.1734 1136 124.722 1249.28 473.562
1184 0 83.1167 13.4028 1114 126.197 1249.09 472.79
1185 1 44.0492 10.7607 474 126.949 1248.91 491.66
1186 0 48.2769 11.6826 564 124.011 1250.33 488.809
1187 0 46.1385 11.8339 546 119.998 1252.25 486.637
1188 0 48.0889 10.6678 513 123.22 1249.33 490.288
1189 0 48.1229 12.4057 597 119.831 1249.25 488.303
1190 0 51.1208 12.3824 633 119.493 1249 488.528
1191 0 52.0947 11.8054 615 120.911 1249.37 488.182
1192 0 54.1075 12.2903 665 120.532 1249.2 486.317
1193 0 56.1171 12.9551 727 117.373 1249.15 486.473
1194 0 59.1431 12.0724 714 118.304 1249.46 484.423
1195 0 61.1043 12.716 777 116.265 1249.75 484.332
1196 0 61.1215 12.2379 748 117.337 1249.78 484.761
1197 0 64.1455 13.3135 854 114.457 1249.54 480.649
1198 0 65.1287 12.8208 835 116.369 1249.28 481.041
1199 0 67.1544 13.0148 874 115.818 1250.1 479.109
1200 0 71.1144 13.5697 965 113.063 1249.88 479.895
1201 0 72.1051 12.7869 922 115.421 1250.23 477.497
1202 0 77.2188 13.4423 1038 112.189 1249.16 476.185
1203 0 78.0816 11.6673 911 117.573 1249.79 475.828
1204 0 79.0933 12.6054 997 114.675 1249.73 475.111
1205 0 80.1603 12.0633 967 119.022 1250.42 473.559
1206 0 82.3579 12.6642 1043 128.456 1250.21 472.326
1207 0 87.2851 11.6056 1013 125.806 1250.59 471.849
1208 0 89.094 12.2679 1093 122.515 1251.17 467.71
1209 0 93.1824 11.3326 1056 120.481 1250.04 466.056
1210 0 96.2322 11.9918 1154 120.311 1250.12 464.772
1211 1 50.227 9.35752 470 116.328 1249.8 489.074
1212 0 51.0752 9.9657 509 114.772 1249.7 489.261
1213 0 52.2598 11.462 599 112.766 1250.07 485.618
1214 0 55.1239 11.9367 658 110.857 1249.67 484.746
1215 0 57.1091 11.3817 650 114.051 1251.93 484.948
1216 0 60.1428 11.7886 709 112.949 1252.1 484.588
1217 0 60.0528 13.5547 814 111.59 1251.99 484.732
1218 0 62.158 12.6452 786 112.318 1251.46 480.809
1219 0 64.2071 11.8834 763 112.582 1250.92 481.917
1220 0 65.1661 11.2175 731 115.657 1251.41 481.324
1221 0 69.1129 12.1974 843 114.037 1251.52 479.409
1222 0 72.1474 13.6526 985 109.315 1251.05 477.973
1223 0 71.132 12.0761 859 117.506 1251.78 478.083
1224 0 73.2038 11.2836 826 119.301 1251.94 477.076
1225 0 74.2363 10.4935 779 122.253 1251.75 474.878
1226 0 80.1982 11.9454 958 117.621 1251.37 476.5
1227 0 84.2101 11.4001 960 118.318 1251.54 473.295
1228 0 86.1587 11.8154 1018 117.137 1251.82 473.078
1229 0 87.1405 11.1314 970 119.372 1251.88 469.337
1230 0 92.2491 11.7942 1088 116.158 1252 469.919
1231 0 93.1609 10.7556 1002 117.956 1251.21 467.296
1232 0 97.1836 10.6397 1034 116.035 1251.8 468.26
1233 0 99.1727 11.1825 1109 115.441 1251.6 463.069
1234 0 102.198 11.1255 1137 114.288 1251.4 465.002
1235 1 56.0409 12.1875 683 110.635 1252.01 483.6
1236 0 57.149 11.4438 654 111.858 1252.22 485.206
1237 0 60.031 10.9777 659 114.083 1251.68 482.958
1238 0 62.0507 11.9257 740 112.553 1251.62 480.588
1239 0 63.0638 11.9244 752 113.586 1251.55 480.723
1240 0 67.0726 11.5994 778 112.94 1251.69 480.604
1241 0 69.268 12.1557 842 112.404 1251.59 478.506
1242 0 72.2562 13.5213 977 109.888 1251.23 478.141
1243 0 71.2038 11.9657 852 115.964 1251.38 477.087
1244 0 76.2443 12.5518 957 113.398 1251.12 476.656
1245 0 78.1674 13.6502 1067 111.927 1251.52 473.702
1246 0 81.2658 12.6745 1030 114.817 1252.22 473.97
1247 0 82.3888 12.9022 1063 115.819 1251.82 471.712
1248 0 87.2608 13.4195 1171 113.824 1250.78 472.693
1249 0 88.4967 13.6276 1206 115.469 1251.13 468.061
1250 0 91.3361 14.4083 1316 114.585 1250.54 468.438
1251 0 95.2187 14.1464 1347 114.811 1250.95 466.909
1252 0 97.2633 13.1396 1278 118.961 1250.74 467.153
1253 1 54.284 11.3109 614 117.454 1250.76 487
1254 0 54.4102 11.0273 600 118.29 1250.84 484.443
1255 0 56.0971 11.0523 620 107.429 1252.26 485.437
1256 0 58.1853 11.6009 675 105.896 1251.53 486.01
1257 0 60.1787 12.2136 735 105.331 1251.51 486.484
1258 0 62.1439 13.9515 867 103.21 1250.89 485.371
1259 0 62.159 12.098 752 108.823 1250.56 482.951
1260 0 65.2771 13.0674 853 105.941 1250.3 482.192
1261 0 66.2987 12.7001 842 107.258 1250.24 482.257
1262 0 70.1723 13.3386 936 104.85 1250.72 481.593
1263 0 69.2952 11.516 798 109.995 1249.84 478.778
1264 0 75.1374 13.9345 1047 102.899 1250.09 481.684
1265 0 74.1514 13.2297 981 106.84 1250.7 476.47
1266 0 77.1458 13.9217 1074 105.58 1250.58 477.185
1267 0 80.1316 13.7399 1101 106.753 1249.99 476.05
1268 0 82.1738 13.9339 1145 106.404 1250.32 473.39
1269 0 84.1768 12.8064 1078 108.532 1251 474.442
1270 0 84.2079 13.4073 1129 108.117 1250.61 471.986
1271 0 88.0977 13.2921 1171 108.462 1249.79 470.999
1272 0 91.0969 14.2925 1302 106.589 1250.84 466.798
1273 0 93.0806 12.1937 1135 111.278 1251.02 467.4
1274 0 94.0859 13.2326 1245 109.271 1251.08 465.618
1275 0 98.1082 12.9041 1266 110.783 1250.73 462.223
1276 0 100.147 12.6713 1269 110.976 1250.24 463.702
1277 1 51.033 10.9537 559 107.451 1251.64 487.789
1278 0 55.0659 11.1866 616 106.331 1250.73 488.213
1279 0 55.2415 11.7303 648 107.668 1248.5 481.736
1280 0 57.1466 13.0541 746 102.63 1248.16 485.306
1281 0 60.1389 12.7704 768 103.708 1248.84 483.703
1282 0 58.2684 11.7216 683 107.947 1248.26 483.429
1283 0 63.1221 14.1947 896 100.644 1248.84 482.729
1284 0 65.2214 13.2625 865 102.951 1248.96 481.86
1285 0 66.1556 12.2287 809 105.838 1249.15 481.407
1286 0 68.2216 12.3568 843 106.34 1249.4 478.25
1287 0 70.2216 12.247 860 106.405 1248.98 478.702
1288 0 73.1445 13.111 959 102.848 1249.04 476.679
1289 0 75.2109 12.1658 915 105.721 1248.88 474.186
1290 0 79.0968 12.3772 979 104.238 1249.26 474.558
1291 0 80.127 12.7672 1023 102.673 1249.41 474.535
1292 0 84.1901 12.0442 1014 103.824 1249.62 473.017
1293 0 85.0902 12.2811 1045 103.922 1249.51 470.288
1294 0 89.3237 11.9341 1066 104.946 1250 470.541
1295 0 93.2286 12.7429 1188 102.224 1249.29 469.347
1296 1 49.1144 11.3816 559 101.175 1249.43 488.889
1297 0 51.0111 13.0168 664 98.2063 1249.77 485.91
1298 0 52.1159 10.9947 573 101.599 1248.96 488.342
1299 0 54.09 11.7582 636 99.3255 1248.83 488.212
1300 0 55.1028 12.7217 701 98.9886 1248.26 484.912
1301 0 56.1163 12.3672 694 99.2176 1248.57 485.945
1302 0 56.1033 12.1027 679 101.404 1248.46 485.194
1303 0 61.1174 11.7479 718 100.053 1248.74 482.455
1304 0 62.0416 12.8946 800 99.4575 1249.47 483.897
1305 0 63.2333 12.7464 806 100.935 1249.52 483.658
1306 0 66.1188 13.4606 890 99.3067 1249.44 482.38
1307 0 67.0881 12.1929 818 103.423 1249.54 481.284
1308 0 69.1592 12.9267 894 101.064 1248.77 479.067
1309 0 72.1916 13.575 980 100.636 1248.71 477.621
1310 0 75.0981 14.288 1073 99.507 1248.66 474.814
1311 0 77.188 13.2922 1026 102.267 1248.66 475.468
1312 0 80.0951 12.8472 1029 103.713 1249.19 474.212
1313 0 83.1158 12.6931 1055 104.719 1248.52 474.156
1314 0 85.1468 13.0011 1107 104.729 1248.4 470.706
1315 0 87.0793 13.4016 1167 104.836 1248.17 472.998
1316 0 92.1526 13.3149 1227 104.619 1248.85 470.095
1317 0 95.0872 12.2835 1168 107.544 1248.87 467.058
1318 0 98.1733 13.1706 1293 106.332 1248.77 467.129
1319 1 54.1195 10.9757 594 107.601 1248.21 488.872
1320 0 54.1074 11.8468 641 107.317 1248.93 488.819
1321 0 58.0207 12.4094 720 108.253 1249.44 485.917
1322 0 60.0856 13.1313 789 113.878 1251.48 485.171
1323 0 61.0518 12.6778 774 116.603 1251.15 484.057
1324 0 63.0768 13.9354 879 112.586 1251.07 483.998
1325 0 66.1335 13.3064 880 113.889 1251.12 481.706
1326 0 68.1562 12.6327 861 116.093 1251.46 482.74
1327 0 70.0781 13.5278 948 115.188 1251.51 479.392
1328 0 74.1092 13.9254 1032 113.324 1251.88 477.446
1329 0 74.2246 13.769 1022 115.185 1252 478.131
1330 0 78.1053 14.0323 1096 114.476 1251.16 476.497
1331 0 81.0988 12.6143 1023 117.995 1251.29 474.96
1332 0 83.1015 13.9829 1162 116.224 1251.67 473.145
1333 0 86.1377 13.2927 1145 117.668 1252.36 473.581
1334 0 90.1654 13.8856 1252 115.313 1251.47 470.69
1335 0 92.211 14.0005 1291 114.637 1250.96 471.793
1336 0 95.1253 14.6123 1390 113.491 1250.55 469.019
1337 0 100.207 14.2805 1431 114.528 1250.83 467.228
1338 0 104.193 14.2523 1485 114.571 1250.85 464.187
1339 1 58.0399 12.1468 705 111.675 1251.99 487.979
1340 0 58.068 10.8149 628 118.025 1251.35 487
1341 0 60.1042 13.0606 785 110.124 1251.21 486.908
1342 0 64.1224 14.9402 958 106.332 1251.27 484.619
1343 0 64.1117 13.2737 851 111.694 1251.48 483.629
1344 0 66.184 13.6589 904 110.777 1251.21 482.108
1345 0 67.0671 13.5983 912 111.134 1251.6 482.484
1346 0 71.1069 14.4712 1029 108.613 1251.53 479.829
1347 0 70.1728 12.3267 865 114.988 1251.26 476.576
1348 0 76.2259 14.1422 1078 108.867 1251.01 477.287
1349 0 76.239 12.9855 990 112.79 1250.66 477.879
1350 0 80.3666 13.9113 1118 109.513 1250.87 476.349
1351 0 82.3264 13.4708 1109 111.794 1250.69 473.773
1352 0 84.1954 13.9319 1173 111.248 1250.26 471.268
1353 0 88.2437 14.0633 1241 109.917 1250.81 472.3
1354 0 90.209 12.9255 1166 113.683 1250.66 470.044
1355 0 92.2371 13.7797 1271 111.742 1250.37 468.663
1356 0 95.2481 13.8795 1322 111.72 1250.33 465.078
1357 0 98.4504 13.8852 1367 111.371 1249.79 462.593
1358 1 52.2269 11.0096 575 114.814 1250.59 484.494
1359 0 55.0212 11.9409 657 107.689 1252.05 483.539
1360 0 56.1577 11.9129 669 105.35 1251.03 480.755
1361 0 56.0585 11.5772 649 105.797 1251.16 479.051
1362 0 59.1754 9.05782 536 102.968 1250.01 482.871
1363 0 58.1489 11.2126 652 100.356 1250.55 479.675
1364 0 63.1603 11.0829 700 99.4943 1250.36 482.507
1365 0 62.2375 10.01 623 101.923 1250.58 481.006
1366 0 65.251 10.5746 690 100.667 1250.45 477.958
1367 0 69.1709 11.0451 764 98.9856 1250.94 477.957
1368 0 69.1646 10.222 707 101.385 1250.74 478.052
1369 0 75.2019 11.0768 833 99.3385 1250.9 475.938
1370 0 76.1817 10.5537 804 101.224 1250.91 475.377
1371 0 79.2449 11.4455 907 99.1974 1250.37 472.829
1372 0 84.1625 11.7036 985 98.3086 1250.17 472.61
1373 0 86.1964 12.2163 1053 97.8737 1250.49 470.709
1374 0 85.1454 10.0064 852 103.817 1250.88 469.866
1375 0 90.2856 10.7105 967 102.816 1250.4 469.342
1376 1 47.1747 11.0652 522 96.0192 1250.56 491.105
1377 0 49.0733 13.4493 660 95.8652 1251.67 490.918
1378 0 50.0535 13.4856 675 95.6652 1251.04 491.967
1379 0 51.1728 12.5848 644 99.1149 1250.98 489.696
1380 0 53.2276 12.7753 680 99.3632 1251.33 488.99
1381 0 52.1525 11.5431 602 103.394 1251.25 487.272
1382 0 56.1937 13.756 773 98.1928 1250.92 487.296
1383 0 57.2612 12.4517 713 102.039 1250.37 487.08
1384 0 59.2165 12.1926 722 102.242 1250.4 487.039
1385 0 59.1751 13.1643 779 101.852 1249.99 485.611
1386 0 62.232 13.1283 817 101.557 1250.54 484.792
1387 0 63.1954 11.8363 748 103.501 1250.07 486.917
1388 0 66.3033 12.835 851 100.362 1249.24 479.552
1389 0 68.2694 12.8608 878 100.026 1249.15 479.337
1390 0 71.188 12.8814 917 99.4122 1249 480.805
1391 0 72.1416 13.1963 952 100.678 1249.5 480.515
1392 0 75.1377 12.8032 962 102.147 1249.24 479.357
1393 0 78.0872 13.8051 1078 100.293 1249.46 476.463
1394 0 81.1238 13.1158 1064 101.805 1248.78 475.81
1395 0 82.2877 13.6472 1123 101.679 1249.28 475.963
1396 0 87.2701 13.7046 1196 101.392 1249.28 470.656
1397 0 91.2965 12.9906 1186 101.857 1249.53 470.998
1398 0 93.2154 12.9056 1203 103.009 1249.36 471.283
1399 1 48.1329 11.0943 534 103.983 1250.98 492.096
1400 0 49.0299 11.1769 548 104.308 1251.06 490.502
1401 0 51.1114 11.6999 598 102.933 1250.09 491.251
1402 0 53.1296 12.1966 648 104.912 1249.42 489.748
1403 0 55.1602 13.6874 755 101.477 1249.29 487.922
1404 0 55.0721 12.4019 683 106.284 1249.74 488.306
1405 0 58.0869 12.9978 755 103.838 1249.32 487.082
1406 0 58.0581 12.2808 713 107.53 1249.21 484.645
1407 0 60.1209 12.6246 759 107.538 1248.58 483.449
1408 0 64.0847 14.2468 913 102.596 1248.9 483.122
1409 0 66.1193 13.3849 885 104.774 1248.83 482.34
1410 0 69.116 13.499 933 104.668 1248.67 480.062
1411 0 70.1665 13.0119 913 106.807 1248.63 478.86
1412 0 74.1334 14.0018 1038 104.291 1248.7 478.536
1413 0 75.0958 13.809 1037 106.423 1248.95 477.311
1414 0 78.0745 13.1285 1025 107.709 1248.95 476.44
1415 0 81.1128 13.8696 1125 105.939 1249.47 475.512
1416 0 84.1197 13.9087 1170 106.501 1249.34 471.638
1417 0 86.0831 14.6719 1263 104.956 1250.2 472.283
1418 1 45.0427 11.4558 516 111.76 1249.45 491.234
1419 0 46.0595 11.0943 511 110.204 1248.02 491.119
1420 0 48.1086 12.742 613 102.967 1248.12 487.312
1421 0 48.0801 13.1031 630 106.26 1248.3 489.384
1422 0 51.0753 11.9627 611 109.17 1248 490.07
1423 0 53.0639 12.7582 677 108.245 1248.53 488.479
1424 0 53.16 12.3777 658 108.553 1248.22 488.185
1425 0 55.0989 13.1219 723 107.701 1249.08 485.906
1426 0 55.1591 13.9596 770 111.269 1249.44 486.453
1427 0 57.2586 14.9323 855 109.622 1250.11 484.408
1428 0 58.155 12.7418 741 115.595 1249.62 485.507
1429 0 61.1816 14.2363 871 110.419 1250.13 482.185
1430 0 62.1636 14.7997 920 109.001 1249.83 480.715
1431 0 65.1784 14.4987 945 109.825 1249.77 478.832
1432 0 69.2383 14.7751 1023 106.975 1250.1 477.869
1433 0 69.2427 13.4888 934 110.487 1249.77 477.213
1434 0 73.1676 14.4463 1057 104.318 1249.13 475.864
1435 0 75.0837 12.4395 934 109.136 1249.53 474.513
1436 0 79.1685 13.9197 1102 104.481 1249.25 473.225
1437 0 80.2134 12.367 992 108.695 1248.89 473.19
1438 0 85.1693 12.0466 1026 109.673 1248.56 470.689
1439 0 85.0919 11.9988 1021 111.601 1249.88 469.178
1440 1 47.0336 12.2466 576 102.078 1249.34 487.439
1441 0 47.0223 12.4622 586 105.635 1248.93 487.498
1442 0 50.0394 13.1097 656 105.229 1248.61 487.245
1443 0 52.1804 12.6676 661 106.818 1248.8 485.354
1444 0 52.0602 13.8493 721 107.112 1249 483.775
1445 0 53.1204 13.2906 706 104.65 1248.92 485.584
1446 0 56.0914 13.7454 771 103.636 1248.82 483.807
1447 0 58.1683 13.2203 769 105.55 1249.09 482.428
1448 0 58.1307 12.0418 700 109.406 1248.92 482.174
1449 0 61.0748 14.0811 860 104.148 1249.33 482.206
1450 0 62.1134 14.2642 886 104.682 1249.34 481.334
1451 0 63.1336 14.9683 945 103.45 1249.36 481.617
1452 0 66.0816 13.7103 906 106.552 1249.33 479.891
1453 0 68.0773 14.2779 972 105.806 1249.28 476.902
1454 0 71.2194 13.9147 991 106.74 1248.87 476.196
1455 0 71.1902 13.2041 940 108.715 1249.55 476.631
1456 0 73.1727 13.762 1007 108.647 1249.43 475.712
1457 0 77.146 13.818 1066 108.458 1249.07 473.504
1458 0 80.1193 14.778 1184 106.177 1249.5 471.416
1459 0 83.1959 14.0752 1171 108.354 1249.26 470.642
1460 0 85.138 14.5176 1236 108.214 1249.7 469.067
1461 0 89.1641 13.7275 1224 109.615 1249.92 469.882
1462 0 91.138 14.4835 1320 108.08 1249.96 469.736
1463 0 95.1753 14.3735 1368 108.14 1251.25 468.92
1464 1 53.045 12.3669 656 112.351 1250.52 488.413
1465 0 52.2125 12.0086 627 115.759 1249.99 487.085
1466 0 56.155 12.9819 729 108.815 1249.13 484.254
1467 0 56.1748 12.9951 730 110.63 1249.09 481.145
1468 0 58.2004 13.402 780 106.888 1248.35 483.096
1469 0 61.1679 13.0624 799 106.87 1248.78 483.409
1470 0 61.1074 13.5663 829 105.707 1249.29 484.199
1471 0 64.1196 14.3014 917 103.751 1249.07 480.807
1472 0 64.1198 12.6014 808 108.855 1248.85 480.548
1473 0 69.1556 13.2455 916 106.086 1248.63 479.6
1474 0 71.179 13.8243 984 105.083 1248.87 477.909
1475 0 74.2139 13.7036 1017 105.064 1248.75 476.67
1476 0 75.1236 14.0302 1054 105.048 1248.76 475.279
1477 0 78.0791 14.5365 1135 103.743 1248.47 474.437
1478 0 79.0849 14.1114 1116 105.295 1248.37 474.729
1479 0 83.151 13.6499 1135 106.118 1249.2 471.864
1480 0 86.146 14.3013 1232 104.969 1248.97 470.266
1481 0 90.1168 15.3468 1383 102.662 1249.35 468.681
1482 0 92.1152 14.5796 1343 105.615 1248.61 466.681
1483 0 95.2072 14.3266 1364 106.049 1248.88 467.037
1484 0 99.0818 14.7353 1460 104.199 1249.21 466.47
1485 0 99.1187 13.9731 1385 107.291 1249.69 462.594
1486 0 105.116 13.3852 1407 107.334 1249.28 461.019
1487 1 56.1263 12.0443 676 107.419 1249.67 486.112
1488 0 59.0724 13.3057 786 104.664 1249.56 485.378
1489 0 60.2126 12.6053 759 105.756 1249.64 482.733
1490 0 63.0582 13.2259 834 104.471 1250.22 483.089
1491 0 62.0943 13.6567 848 104.467 1250.35 482.858
1492 0 68.0873 13.2477 902 103.682 1250.31 481.272
1493 0 72.0867 14.0248 1011 103.712 1250.39 479.17
1494 0 72.062 12.184 878 109.261 1250.4 477.05
1495 0 74.0644 12.9887 962 107.149 1250.09 476.886
1496 0 77.1075 13.345 1029 107.324 1249.43 475.899
1497 0 81.2468 14.4621 1175 103.797 1250.15 474.887
1498 0 84.1658 13.5803 1143 105.874 1250.11 473.489
1499 0 87.2171 14.5155 1266 103.096 1249.87 474.449
1500 0 87.3297 13.5006 1179 107.478 1249.91 471.626
1501 0 91.1831 13.6867 1248 107.656 1249.62 469.426
1502 0 94.1195 13.791 1298 106.767 1249.67 471.369
1503 0 97.1957 12.5417 1219 109.852 1250.15 467.384
1504 0 100.151 12.8706 1289 104.756 1249.5 465.398
1505 1 52.0444 10.7216 558 106.434 1248.54 488.991
1506 0 52.0183 12.7071 661 107.576 1248.96 488.107
1507 0 53.1029 12.8053 680 107.079 1249.34 487.779
1508 0 52.0569 13.1395 684 115.453 1249.3 487.354
1509 0 54.0236 12.6982 686 118.803 1247.67 488.122
1510 0 53.0587 13.2306 702 120.242 1247.33 486.728
1511 0 57.0462 14.2341 812 114.792 1247.63 486.709
1512 0 59.0826 12.0171 710 117.418 1247.62 488
1513 0 59.0913 13.403 792 114.566 1247.57 486.316
1514 0 62.0495 13.602 844 113.822 1247.26 483.513
1515 0 65.1072 14.0691 916 112.784 1247.59 483.141
1516 0 67.0508 14.407 966 111.639 1247.5 482.944
1517 0 69.0829 14.6925 1015 112.257 1247.54 479.56
1518 0 70.0434 13.7343 962 114.981 1247.39 482.133
1519 0 73.1136 15.77 1153 112.057 1247.18 479.823
1520 0 75.1578 15.4608 1162 114.384 1247.47 479.423
1521 0 75.0179 14.6498 1099 119.003 1248.14 478.75
1522 0 78.2383 15.4017 1205 118.814 1247.39 478.227
1523 0 79.169 15.4227 1221 121.247 1247.57 475.751
1524 0 81.0925 14.4526 1172 125.375 1247.81 475.943
1525 0 85.1688 16.4849 1404 120.051 1247.79 475.394
1526 0 85.1683 15.4752 1318 125.114 1248.14 472.832
1527 0 88.1058 14.5166 1279 123.148 1248.17 473.996
1528 0 90.1677 13.9629 1259 125.584 1247.9 473.175
1529 1 48.1023 12.7853 615 130.169 1248.24 492.499
1530 0 50.0945 13.4945 676 128.914 1247.95 491.852
1531 0 49.1076 14.2137 698 127.851 1247.47 491.668
1532 0 54.0713 14.259 771 125.112 1247.46 492.114
1533 0 55.1127 14.2617 786 126.037 1247.83 491.674
1534 0 55.1745 13.9557 770 128.549 1248.35 490.687
1535 0 57.0919 14.1876 810 129.295 1248.15 488.874
1536 0 59.0507 14.6654 866 129.114 1248.25 488.337
1537 0 61.1781 15.2996 936 127.969 1248.27 487.943
1538 0 62.1968 14.4863 901 131.072 1248.48 486.892
1539 0 63.1439 14.8866 940 131.423 1248.38 486.272
1540 0 67.196 14.7777 993 131.108 1248.46 484.785
1541 0 70.292 15.5352 1092 128.393 1248.33 482.964
1542 0 70.1876 14.8887 1045 131.771 1248.45 481.184
1543 0 73.2313 14.6795 1075 131.007 1248.84 480.161
1544 0 76.1876 15.9475 1215 126.863 1248.39 479.551
1545 0 79.196 15.0513 1192 129.015 1248.38 479.224
1546 0 82.238 15.2606 1255 128.835 1247.74 475.543
1547 1 42.1625 12.6416 533 133.576 1248.35 495.038
1548 0 42.0652 11.4822 483 134.874 1246.96 489.07
1549 0 45.0947 11.8639 535 131.301 1247.08 488.828
1550 0 46.1116 14.2047 655 125.623 1246.74 488.634
1551 0 48.0273 13.4715 647 126.57 1246.56 487.872
1552 0 48.083 12.2913 591 121.66 1246.37 491.712
1553 0 53.0989 13.183 700 117.659 1246.45 489.911
1554 0 52.0925 13.3033 693 118.45 1246.44 489.039
1555 0 54.0664 13.6869 740 116.658 1246.75 488.492
1556 0 55.0567 13.0774 720 119.386 1246.87 486.726
1557 0 58.0482 12.7136 738 119.588 1247.12 485.104
1558 0 61.1193 13.6127 832 117.486 1246.65 484.273
1559 0 64.0681 11.597 743 121.486 1247.16 483.548
1560 0 66.0447 12.7944 845 119.379 1246.95 479.992
1561 0 68.05 13.2403 901 119.253 1247.18 481.729
1562 0 70.1241 13.7471 964 118.728 1247.46 480.989
1563 0 72.0507 13.3517 962 122.288 1247.3 478.272
1564 0 75.0606 12.8696 966 123.254 1247.57 477
1565 0 77.128 12.7451 983 120.356 1247.23 477.641
1566 0 81.1334 13.2375 1074 119.3 1247.15 475.658
1567 0 84.1662 14.1031 1187 117.007 1246.8 472.881
1568 0 85.1353 12.6035 1073 120.835 1247.17 471.908
1569 1 44.1014 12.0858 533 119.548 1247.24 493.861
1570 0 47.076 12.5966 593 121.135 1247.48 491.516
1571 0 47.0115 12.9543 609 125.732 1247.19 490.42
1572 0 50.0651 13.3227 667 117.577 1246.35 490.201
1573 0 51.0795 12.5882 643 118.656 1246.41 490.743
1574 0 54.0253 13.9009 751 114.984 1246.28 487.177
1575 0 54.1063 12.6972 687 118.787 1246.57 487.971
1576 0 57.0582 13.6177 777 116.376 1246.95 487.436
1577 0 58.0647 13.3816 777 117.591 1246.88 484.991
1578 0 60.0528 12.922 776 118.451 1246.49 486.527
1579 0 63.0671 14.6511 924 113.778 1246.85 483.723
1580 0 64.0769 14.0924 903 115.329 1247.06 483.931
1581 0 68.074 14.4842 986 113.363 1246.53 484.199
1582 0 71.0679 14.4932 1030 113.201 1247.27 480.746
1583 0 72.0569 13.7114 988 115.881 1247.55 480.814
1584 0 77.1326 14.8316 1144 111.842 1247.62 479.306
1585 0 78.1147 14.6067 1141 113.289 1247.7 477.406
1586 0 82.127 14.6359 1202 112.369 1247.46 475.027
1587 0 85.093 14.537 1237 112.622 1247.69 472.823
1588 0 89.1655 15.4432 1377 110.259 1246.95 472.391
1589 0 90.2162 14.1438 1276 114.917 1247.33 471.346
1590 1 49.1261 12.4984 614 116.643 1246.58 491.129
1591 0 51.1367 13.063 668 116.121 1246.65 489.133
1592 0 53.1543 14.5614 774 112.553 1246.33 488.307
1593 0 55.2462 13.7747 761 113.675 1246.35 487.771
1594 0 57.2433 14.5519 833 111.269 1247 486.726
1595 0 58.1731 13.0988 762 115.661 1247.33 486.79
1596 0 61.2885 14.4073 883 113.678 1246.65 483.901
1597 0 61.1301 13.9211 851 116.35 1246.59 484.212
1598 0 64.2368 13.0299 837 120.599 1247.3 481.547
1599 0 67.2992 14.755 993 115.177 1247.43 480.597
1600 0 70.2732 13.8033 970 117.737 1246.88 479.34
1601 0 74.4646 16.2225 1208 110.952 1246.78 478.31
1602 0 74.4876 14.3648 1070 117.442 1247.11 475.136
1603 0 78.374 14.7881 1159 116.076 1246.94 474.189
1604 0 82.3273 15.1469 1247 115.038 1247.29 473.223
1605 0 85.4 14.8009 1264 116.594 1247.14 471.616
1606 0 87.3008 15.0972 1318 116.657 1247.23 468.544
1607 0 90.452 13.6205 1232 119.74 1247.05 469.142
1608 1 46.2549 12.9716 600 116.322 1247.1 490.063
1609 0 47.3864 13.2105 626 115.249 1246.03 490.355
1610 0 51.1445 13.237 677 113.911 1246.43 489.61
1611 0 50.0746 12.082 605 114.921 1246.62 491.347
1612 0 52.1219 14.5428 758 111.644 1247.67 489.66
1613 0 54.0983 13.494 730 113.819 1247.47 488.637
1614 0 54.0565 13.5784 734 113.894 1247.52 487.723
1615 0 58.0588 12.5907 731 115.841 1247.99 485.877
1616 0 60.1459 13.3675 804 114.249 1247.39 485.175
1617 0 62.0823 14.5774 905 111.722 1247.74 485.028
1618 0 64.1814 13.6644 877 113.745 1247.65 481.986
1619 0 66.1289 13.6703 904 114.221 1247.68 481.471
1620 0 69.1635 12.897 892 115.481 1248.65 480.52
1621 0 72.0676 14.3615 1035 112.28 1246.99 478.96
1622 0 73.1921 13.0479 955 116.216 1247.54 476.963
1623 0 77.2142 13.9094 1074 113.557 1247.46 474.951
1624 0 79.2198 13.33 1056 114.812 1247.9 473.714
1625 0 82.2761 13.5276 1113 114.271 1247.8 472.152
1626 0 84.3265 13.5189 1140 114.295 1247.13 471.447
1627 0 88.4655 13.3951 1185 113.608 1247.61 469.561
1628 0 89.189 12.5128 1116 117.543 1246.84 465.332
1629 1 49.178 11.8346 582 111.627 1246.43 488.284
1630 0 50.2417 12.002 603 112.03 1246.39 486.167
1631 0 53.2529 13.5204 720 107.583 1246.04 484.551
1632 0 55.1462 13.5277 746 108.777 1246.11 486.133
1633 0 55.0496 13.4788 742 109.743 1247.1 484.352
1634 0 58.2159 13.4499 783 109.724 1247.57 486.248
1635 0 58.1292 12.3346 717 111.849 1247.84 482.98
1636 0 62.0906 14.205 882 106.718 1247.58 480.782
1637 0 65.1003 13.364 870 108.098 1247.99 481.782
1638 0 66.2057 13.443 890 108.382 1248 480.782
1639 0 68.0799 13.1316 894 109.28 1248.04 477.443
1640 0 72.0535 14.1561 1020 105.882 1248.21 477.062
1641 0 75.1215 13.2452 995 108.301 1248.22 476.688
1642 0 77.1288 12.8097 988 109.682 1248.01 474.425
1643 0 80.1184 13.0432 1045 108.368 1248.19 473.555
1644 0 83.1249 13.3654 1111 106.71 1248.17 474.51
1645 0 85.0976 12.5385 1067 109.198 1247.77 471.147
1646 0 90.0866 12.1439 1094 107.65 1248.09 471.116
1647 0 93.1055 12.3301 1148 104.618 1247.43 469.655
1648 1 47.1292 12.8583 606 102.695 1247.26 491.332
1649 0 49.0407 13.0504 640 102.452 1247.91 487.656
1650 0 51.1137 13.1863 674 101.476 1248.06 487.659
1651 0 48.0593 10.8408 521 110.44 1248.22 488.081
1652 0 53.0864 12.3949 658 105.558 1247.97 487.479
1653 0 54.1236 12.4345 673 105.153 1248.2 486.012
1654 0 55.1026 12.8125 706 106.844 1247.8 485.789
1655 0 57.0888 12.4543 711 108.044 1247.57 485.426
1656 0 60.0333 12.5264 752 107.23 1248.12 485.957
1657 0 61.1053 12.0775 738 108.898 1247.92 484.894
1658 0 63.1395 12.0685 762 109.121 1247.69 482.66
1659 0 64.0797 12.0787 774 109.535 1247.3 482.842
1660 0 68.0841 13.5421 922 106.312 1247.37 481.874
1661 0 68.073 12.2515 834 111.35 1247.04 480.363
1662 0 73.1637 12.5335 917 110.71 1247.44 478.806
1663 0 74.1422 12.1119 898 113.453 1247.59 477.854
1664 0 77.314 12.4686 964 112.065 1247.81 478.457
1665 0 78.13 12.7864 999 114.514 1247.68 475.974
1666 0 82.283 12.4813 1027 114.944 1247.56 475.207
1667 0 86.1638 12.4066 1069 114.325 1247.67 474.562
1668 0 88.2296 12.8755 1136 114.15 1247.52 472.871
1669 1 45.0974 13.0163 587 111.756 1248.11 492.082
1670 0 49.3682 12.4372 614 112.358 1247.11 489.275
1671 0 50.3731 12.1692 613 114.039 1246.35 487.17
1672 0 49.0639 12.9015 633 110.226 1247.36 488.343
1673 0 52.1242 12.3551 644 111.394 1247.61 488.457
1674 0 52.0734 13.4234 699 109.396 1247.99 488.592
1675 0 54.0557 11.9321 645 113.527 1247.52 486.878
1676 0 56.1891 14.2021 798 106.45 1247.56 488.737
1677 0 55.0521 12.9514 713 111.192 1247.28 487.575
1678 0 58.1453 13.2599 771 109.767 1247.34 486.237
1679 0 61.1205 13.5634 829 108.361 1247.67 483.988
1680 0 62.1108 13.8623 861 108.51 1247.4 483.77
1681 0 65.1635 14.4866 944 105.879 1247.1 481.895
1682 0 68.1872 13.6096 928 108.235 1247.18 481.226
1683 0 69.1698 13.7922 954 108.606 1248.2 481.221
1684 0 71.0567 14.6643 1042 107.28 1247.81 477.29
1685 0 75.067 15.5195 1165 104.38 1248.17 476.777
1686 0 75.1272 14.8814 1118 106.932 1247.48 476.467
1687 0 78.0901 12.9466 1011 111.569 1247.23 477.522
1688 0 80.183 14.5791 1169 108.35 1247.31 474.475
1689 0 83.1309 13.9419 1159 110.278 1247.48 472.204
1690 0 85.2237 13.5878 1158 110.949 1247.03 473.456
1691 0 90.156 14.2974 1289 107.327 1246.72 473.481
1692 1 46.1514 12.914 596 114.888 1247.39 491.931
1693 0 46.2462 12.3253 570 116.833 1246.82 492.9
1694 0 48.1996 13.4026 646 115.553 1246.23 490.091
1695 0 50.0954 14.4325 723 106.921 1245.14 489.621
1696 0 53.0438 13.0458 692 109.697 1245.44 489.051
1697 0 55.0963 12.7958 705 109.713 1245.6 488.299
1698 0 56.0644 13.0207 730 110.449 1245.1 488.177
1699 0 58.0601 13.1416 763 110.733 1246.2 485.823
1700 0 58.0863 13.1184 762 111.388 1245.35 486.05
1701 0 64.0964 14.0102 898 108.121 1245.41 484.591
1702 0 65.1861 13.5612 884 110.253 1245.68 482.801
1703 0 67.0712 13.2844 891 111.579 1245.7 481.724
1704 0 70.1162 14.1194 990 108.329 1245.67 481.089
1705 0 73.0609 13.304 972 106.667 1245.95 479.576
1706 0 75.0585 13.736 1031 107.187 1246.12 476.399
1707 0 78.1185 13.5563 1059 106.906 1246.22 475.347
1708 0 78.0723 13.1032 1023 111.587 1245.04 474.967
1709 0 83.3729 13.4456 1121 109.601 1245.81 473.674
1710 0 85.0866 13.5979 1157 111.785 1245 471.672
1711 0 90.1397 15.1432 1365 106.623 1244.8 471.595
1712 1 50.0294 12.4527 623 115.144 1245.28 490.859
1713 0 51.0264 12.6013 643 114.583 1247.93 489.152
1714 0 55.0197 13.2316 728 113.113 1248.23 489.462
1715 0 54.0778 12.6854 686 117.446 1247.87 487.921
1716 0 56.0984 13.0307 731 116.818 1247.56 488.547
1717 0 57.0189 12.1188 691 120.142 1247.75 487.075
1718 0 59.0893 13.725 811 116.739 1247.46 486.725
1719 0 59.0946 14.316 846 117.434 1247.49 485.097
1720 0 61.1206 13.5961 831 119.178 1247.53 484.229
1721 0 65.1051 13.8852 904 117.045 1247.24 482.582
1722 0 64.0847 12.6707 812 123.351 1247.56 482.496
1723 0 69.1421 13.3782 925 119.16 1248.3 482.763
1724 0 72.1415 14.4716 1044 117.051 1248.13 479.19
1725 0 73.2164 13.3303 976 121.259 1247.25 480.102
1726 0 75.4708 13.6079 1027 120.686 1247.15 479.037
1727 0 80.1508 14.1982 1138 119.996 1247.26 476.258
1728 0 83.2036 14.7109 1224 117.419 1247.59 475.357
1729 0 84.1868 13.2444 1115 123.196 1247.42 474.085
1730 0 88.2609 14.3892 1270 119.487 1247.65 472.107
1731 1 49.1381 12.007 590 123.52 1248.09 490.483
1732 0 50.0833 11.9002 596 125.651 1247.65 491.121
1733 0 51.3119 12.5312 643 125.482 1246.88 487.493
1734 0 54.0983 14.0115 758 121.396 1247.99 488.968
1735 0 54.0412 11.3062 611 130.408 1247.88 487.887
1736 0 56.0518 12.8096 718 127.825 1247.74 486.032
1737 0 59.1098 12.9082 763 126.63 1247.7 485.047
1738 0 61.1199 12.9909 794 126.416 1248.2 484.162
1739 0 62.1296 12.2003 758 128.897 1248.32 483.699
1740 0 64.0627 12.5346 803 128.293 1248.17 483.471
1741 0 67.0595 12.9437 868 126.271 1248.88 481.21
1742 0 69.0604 12.5832 869 126.871 1248.25 482.016
1743 0 71.1154 14.3288 1019 122.079 1248.48 479.893
1744 0 73.1196 13.1565 962 125.935 1248.63 477.769
1745 0 74.0613 13.6104 1008 125.698 1248.75 475.363
1746 0 77.0982 12.3998 956 127.246 1249.02 477.689
1747 0 81.1146 12.9077 1047 125.03 1248.89 475.171
1748 0 84.1692 14.1738 1193 121.955 1248.3 473.345
1749 0 84.255 12.7114 1071 126.921 1247.95 469.744
1750 0 89.0876 13.1668 1173 122.875 1248.47 471.596
1751 1 47.0283 10.9296 514 122.088 1248.17 491.601
1752 0 50.0195 11.3356 567 120.416 1248.09 490.772
1753 0 51.0131 11.154 569 118.033 1247.41 490.585
1754 0 54.1617 11.3364 614 116.868 1247.1 484.578
1755 0 53.051 13.2702 704 111.395 1248.33 487.425
1756 0 56.0494 12.257 687 112.911 1247.92 488.917
1757 0 57.0754 13.2632 757 110.433 1248.31 486.384
1758 0 59.127 12.989 768 111.242 1248.11 484.889
1759 0 62.0839 13.514 839 110.079 1247.72 481.328
1760 0 64.0803 13.0149 834 110.221 1247.73 482.663
1761 0 63.0901 12.5693 793 112.562 1247.79 482.475
1762 0 68.0462 13.7113 933 108.356 1247.84 480.988
1763 0 70.074 13.5856 952 108.315 1248.09 479.837
1764 0 73.0633 12.9477 946 109.301 1248.06 477.689
1765 0 75.0583 13.243 994 108.454 1248.25 478.567
1766 0 78.0916 13.4329 1049 106.834 1247.71 478.161
1767 0 81.2128 13.0152 1057 107.837 1247.91 476.598
1768 0 82.1052 12.6301 1037 109.103 1247.87 474.301
1769 0 87.179 13.5813 1184 106.573 1247.37 471.349
1770 0 90.0903 13.4865 1215 106.656 1247.57 470.719
1771 0 92.1243 12.6025 1161 108.874 1247.31 468.252
1772 0 96.128 12.4521 1197 107.573 1248 468.688
1773 1 49.0901 11.4891 564 110.567 1248.36 490.066
1774 0 52.0574 12.0444 627 108.982 1248.08 487.486
1775 0 53.0219 11.5047 610 109.785 1248.11 488.623
1776 0 53.1898 12.2016 649 108.901 1247.89 484.838
1777 0 56.0963 12.015 674 110.361 1247.57 485.496
1778 0 57.1492 12.5111 715 110.31 1247.52 483.478
1779 0 60.168 11.2352 676 110.851 1248.05 483.92
1780 0 59.1128 10.979 649 113.385 1248.31 483.237
1781 0 63.0938 12.7588 805 107.865 1247.78 480.339
1782 0 65.2591 12.3508 806 107.547 1248.29 480.522
1783 0 66.1906 11.3611 752 110.241 1248.52 478.82
1784 0 70.1928 13.0925 919 105.418 1248.06 477.61
1785 0 73.1072 12.4201 908 107.188 1247.96 475.801
1786 0 75.1789 12.4503 936 107.037 1248.01 476.015
1787 0 76.212 12.1503 926 107.909 1248.05 474.805
1788 0 78.1842 12.3938 969 108.756 1248.09 472.333
1789 0 81.1341 13.3483 1083 104.934 1247.9 472.004
1790 0 86.0565 13.1309 1130 105.135 1248.35 470.142
1791 0 89.2633 14.0595 1255 103.246 1248.22 469.011
1792 0 91.0919 13.0198 1186 105.243 1246.92 468.804
1793 0 95.146 13.2533 1261 105.337 1247.22 464.538
1794 0 96.2327 13.6128 1310 104.667 1246.89 465.402
1795 0 99.2155 12.75 1265 106.758 1246.28 461.67
1796 1 54.1068 10.701 579 106.554 1247.61 484.915
1797 0 55.1962 11.7399 648 103.782 1246.85 484.974
1798 0 56.185 12.2809 690 93.1551 1245.87 483.357
1799 0 57.059 11.0412 630 95.4063 1245.37 485.527
1800 0 60.0828 12.7491 766 91.8734 1245.75 484.29
1801 0 60.0828 12.8156 770 110.704 1245.74 484.209
1802 0 60.0828 12.8156 770 110.248 1245.74 484.209
1803 0 65.0371 11.2397 731 95.9535 1245.37 479.495
1804 0 71.1419 12.3978 882 92.3651 1245.48 479.557
1805 0 71.1272 11.4443 814 94.9681 1245.4 478.914
1806 0 76.192 13.0722 996 91.6757 1245.52 477.17
1807 0 74.0665 12.8533 952 93.5347 1245.7 475.267
1808 0 77.0734 10.9636 845 97.9148 1246.05 476.999
1809 0 82.0436 12.408 1018 95.1444 1246.2 471.303
1810 0 86.092 14.3335 1234 90.6912 1245.95 472.243
1811 0 89.1848 13.2197 1179 93.5047 1245.93 465.953
1812 0 91.2268 12.3977 1131 96.0106 1247.26 469.804
1813 0 95.287 12.3417 1176 98.1071 1247.13 469.942
1814 1 51.1973 11.2701 577 96.0485 1247.64 486.36
1815 0 54.2467 11.6873 634 95.5647 1247.74 486.047
1816 0 55.1695 12.4888 689 91.5922 1247.1 481.305
1817 0 58.1286 13.1089 762 91.9961 1247.71 485.627
1818 0 58.2175 11.5086 670 96.1 1248.16 483.964
1819 0 61.0347 11.8621 724 95.7652 1247.67 483.057
1820 0 64.1099 13.3677 857 92.2369 1247.95 481.984
1821 0 65.0489 12.4983 813 94.54 1247.86 482.503
1822 0 65.1225 12.8527 837 95.0239 1248.01 482.121
1823 0 68.0692 11.738 799 97.0526 1247.7 478.394
1824 0 70.2189 12.2901 863 95.9873 1247.31 477.435
1825 0 70.2189 12.2901 863 131.364 1247.31 477.407
1826 0 70.2245 12.3461 867 130.662 1247.3 477.191
1827 0 79.1329 14.3682 1137 90.9569 1248.45 475.955
1828 0 80.1414 12.1036 970 95.9845 1248.21 474.541
1829 0 81.1812 11.6899 949 98.0263 1248.26 471.213
1830 0 84.2431 11.728 988 98.2247 1247.75 469.012
1831 0 87.3994 12.2999 1075 97.3451 1247.83 468.61
1832 0 92.3059 14.6686 1354 92.4963 1247.12 467.052
1833 0 94.385 13.2012 1246 95.7408 1247.59 466.372
1834 0 98.3237 14.0556 1382 95.0666 1247.35 464.285
1835 0 100.329 13.0072 1305 97.3969 1247.18 465.694
1836 1 52.0905 10.9425 570 98.014 1247.86 489.149
1837 0 53.0522 11.2531 597 96.4891 1247 486.714
1838 0 55.0698 11.894 655 98.4076 1247.8 487.51
1839 0 57.2151 11.5529 661 99.4281 1247.35 486.888
1840 0 58.1632 12.3274 717 97.6276 1247.2 487.043
1841 0 59.2366 11.8339 701 101.013 1247.43 485.321
1842 0 59.2366 11.8677 703 134.501 1246.43 485.327
1843 0 63.1558 12.5404 792 101.441 1247.15 482.006
1844 0 65.1275 11.823 770 103.101 1246.56 480.612
1845 0 68.2571 12.658 864 100.978 1246.97 481.523
1846 0 69.1161 11.8496 819 103.189 1247.26 481.393
1847 0 72.21 13.1838 952 100.589 1247.28 478.267
1848 0 74.1941 12.9795 963 100.761 1247.29 478.885
1849 0 76.3216 12.8404 980 101.88 1247.01 476.43
1850 0 81.2729 12.8579 1045 100.199 1247.32 476.534
1851 0 82.1952 13.0421 1072 100.952 1246.88 471.36
1852 0 86.1045 13.4836 1161 99.7631 1246.96 470.509
1853 0 88.1698 12.5213 1104 102.36 1246.79 466.635
1854 0 91.2724 13.1255 1198 100.834 1246.93 467.36
1855 0 93.1846 11.8796 1107 103.804 1247.23 466.93
1856 0 97.25 13.6761 1330 101.241 1246.97 463.712
1857 0 99.5225 13.193 1313 103.644 1246.08 461.95
1858 0 102.333 14.0131 1434 102.405 1246.05 461.448
1859 0 107.34 12.5395 1346 108.131 1246.01 458.724
1860 1 56.0657 12.0751 677 103.796 1247.11 487.291
1861 0 57.057 10.3055 588 109.078 1245.95 487.213
1862 0 59.3038 10.3029 611 108.203 1247.04 483.653
1863 0 60.0306 11.5941 696 107.145 1246.55 483.477
1864 0 65.1465 12.2033 795 103.431 1247.48 481.756
1865 0 65.0879 11.8302 770 105.508 1247.59 481.013
1866 0 66.0982 11.8157 781 105.599 1247.69 480.846
1867 0 70.0841 12.4422 872 102.968 1247.91 478.573
1868 0 72.1374 12.795 923 101.777 1248.18 477.683
1869 0 76.1503 12.4885 951 101.581 1248.11 476.904
1870 0 77.1059 13.0859 1009 101.705 1247.86 473.562
1871 0 79.1079 12.9317 1023 101.943 1247.73 474.704
1872 0 83.1196 12.2474 1018 101.152 1247.34 472.923
1873 0 84.0531 13.0751 1099 99.7543 1248.01 472.348
1874 0 84.0842 11.881 999 102.646 1247.7 472.36
1875 0 88.1121 12.7111 1120 101.45 1247.28 469.932
1876 0 90.0915 11.1997 1009 104.385 1247.27 470.726
1877 0 92.1852 12.5834 1160 102.849 1246.77 466.074
1878 0 96.0822 12.2603 1178 103.587 1246.86 465.758
1879 0 98.1553 13.3564 1311 101.544 1247.02 465.876
1880 0 102.174 13.1737 1346 106.75 1244.6 463.103
1881 0 104.124 14.3963 1499 105.318 1244.34 461.696
1882 0 105.154 13.1902 1387 108.702 1244.72 460.049
1883 0 111.139 13.6045 1512 107.108 1244.65 461.646
1884 1 62.0303 12.4133 770 108.495 1244.03 483.306
1885 0 62.0143 11.6263 721 112.265 1244.37 482.401
1886 0 66.0882 13.4971 892 105.027 1244.01 480.707
1887 0 68.0495 13.6665 930 105.971 1244.07 480.314
1888 0 71.0654 14.3389 1019 104.413 1244.18 478.537
1889 0 72.0575 12.8231 924 109.122 1244.3 477.622
1890 0 74.0467 13.4375 995 108.105 1244.36 475.84
1891 0 79.0708 14.3289 1133 105.7 1244.27 475.95
1892 0 81.0477 14.4236 1169 105.953 1244.49 474.32
1893 0 81.0804 13.2831 1077 109.656 1244.13 473.088
1894 0 84.0424 13.2076 1110 110.272 1244.29 471.054
1895 0 89.0377 14.4546 1287 106.469 1243.97 469.769
1896 0 91.0573 15.6715 1427 105.308 1244.41 467.418
1897 0 93.0575 14.1633 1318 109.072 1244.17 467.617
1898 0 94.1033 14.0378 1321 110.696 1244.5 466.415
1899 0 99.0661 15.5452 1540 107.288 1244.76 464.905
1900 0 102.177 15.0229 1535 109.091 1244.58 462.78
1901 0 104.108 14.2737 1486 111.522 1244.27 461.963
1902 0 108.132 14.6395 1583 111.071 1244.63 460.632
1903 0 112.122 14.3951 1614 111.584 1244.77 459.895
1904 1 211.26 12.2977 2598 116.87 1245.26 413.702
1905 0 220.575 14.1177 3114 113.311 1245.36 409.334
1906 1 123.316 14.8642 1833 109.918 1244.88 455.171
1907 1 61.0447 11.1558 681 114.836 1244.28 483.113
1908 0 66.0327 11.9941 792 112.567 1244.4 479.679
1909 0 67.1676 12.8336 862 111.483 1246.83 475.947
1910 0 70.0582 13.9027 974 110.308 1247.23 479.161
1911 0 73.0624 14.6176 1068 108.657 1247.13 477.05
1912 0 76.0779 13.8411 1053 109.091 1247.15 477.97
1913 0 78.0501 13.991 1092 109.091 1247.47 476.096
1914 0 80.0696 13.4883 1080 110.231 1246.7 475.156
1915 0 82.0369 14.1034 1157 108.199 1247.17 474.213
1916 0 86.1147 14.8058 1275 106.803 1247.28 471.509
1917 0 88.0847 13.7935 1215 108.958 1246.98 469.948
1918 0 90.0358 14.3165 1289 107.472 1246.82 470.659
1919 0 93.1256 14.11 1314 108.083 1246.58 468.952
1920 0 93.0391 13.6932 1274 110.104 1246.82 465.104
1921 0 100.096 13.1374 1315 110.398 1247.04 465.327
1922 0 103.046 16.0705 1656 103.94 1246.68 461.181
1923 0 105.231 14.1023 1484 108.643 1246.51 461.474
1924 0 108.088 14.3217 1548 108.409 1246.72 459.59
1925 0 111.115 14.4445 1605 106.968 1247.17 458.208
1926 0 115.06 14.9487 1720 106.884 1246.36 453.616
1927 0 119.217 14.8217 1767 106.69 1246.25 452.756
1928 0 123.101 14.8496 1828 106.942 1246.06 449.839
1929 0 128.158 14.8879 1908 106.514 1246.18 449.178
1930 0 132.223 13.7948 1824 109.491 1246.42 446.283
1931 0 138.131 14.3631 1984 108.431 1245.99 446.876
1932 0 144.264 15.2845 2205 109.249 1245.82 445.608
1933 0 148.386 14.3275 2126 111.874 1245.68 439.993
1934 1 77.2234 12.1336 937 105.29 1245.49 476.933
1935 0 81.1444 12.5209 1016 105.374 1245.74 474.56
1936 0 83.1892 12.8142 1066 105.497 1244.91 475.911
1937 0 87.1523 13.1953 1150 104.717 1244.91 471.325
1938 0 89.1035 13.6583 1217 104.948 1245.02 468.284
1939 0 93.0887 13.4818 1255 104.935 1244.47 470.307
1940 0 98.0812 13.8355 1357 103.903 1244.21 468.165
1941 0 98.2198 13.653 1341 106.412 1245 463.776
1942 0 101.089 13.6018 1375 106.945 1245.14 464.233
1943 0 105.216 13.5056 1421 107.594 1244.62 463.224
1944 0 109.185 14.022 1531 105.654 1245.36 461.734
1945 0 111.263 14.2545 1586 106.117 1245.72 458.57
1946 0 117.198 15.1111 1771 103.719 1245.39 455.771
1947 0 119.458 13.2348 1581 108.452 1245.96 453.762
1948 0 122.453 12.8621 1575 110.498 1245.52 452.955
1949 0 129.388 13.4093 1735 108.196 1245.67 451.636
1950 1 72.2682 12.3291 891 109.645 1245.48 478.251
1951 0 71.1709 11.5637 823 113.899 1245.96 475.553
1952 0 73.1414 12.0725 883 109.533 1246.66 468.481
1953 0 78.1669 12.1919 953 105.291 1247.82 472.517
1954 0 79.2279 12.8742 1020 105.65 1247.51 470.522
1955 0 77.1347 10.0474 775 114.512 1247.37 468.312
1956 0 83.124 12.3671 1028 109.817 1247.29 467.348
1957 0 87.1933 12.4666 1087 110.498 1247.8 465.993
1958 0 87.123 11.1566 972 113.743 1247.55 467.959
1959 0 91.1319 12.4984 1139 113.198 1247.16 463.305
1960 0 95.1676 12.4307 1183 112.685 1247.16 462.884
1961 0 99.1527 13.9179 1380 109.276 1246.83 461.802
1962 0 103.268 13.7119 1416 109.963 1247.16 459.117
1963 1 53.1951 9.43695 502 105.767 1247.26 486.183
1964 0 54.2186 10.7159 581 106.133 1245.4 478.816
1965 0 57.0945 11.77 672 100.984 1247.51 481.07
1966 0 59.1132 12.7214 752 101.916 1246.9 481.008
1967 0 61.0796 10.5764 646 106.302 1247.25 479.005
1968 0 63.0542 11.9421 753 103.752 1247.62 478.622
1969 0 65.0271 11.7489 764 103.513 1247.76 479.203
1970 0 67.0483 10.0525 674 106.927 1247.14 479.199
1971 0 69.0634 10.599 732 106.079 1247.52 476.941
1972 0 68.0797 10.3261 703 107.481 1247.62 474.912
1973 0 72.0551 13.1982 951 101.534 1247.33 474.445
1974 0 74.0664 11.6382 862 103.838 1248.09 473.744
1975 0 76.0676 11.3057 860 105.259 1247.55 471.297
1976 0 77.0896 11.2726 869 105.121 1247.65 472.292
1977 0 80.0691 9.19206 736 108.668 1247.62 470.492
1978 0 81.0947 10.5556 856 107.895 1247.41 465.263
1979 0 86.1612 10.9562 944 106.809 1246.92 465.216
1980 0 88.1564 11.99 1057 104.844 1246.65 463.921
1981 0 90.1359 9.80741 884 109.095 1246.97 464.969
1982 1 49.1392 9.72747 478 100.565 1246.78 487.182
1983 0 51.1279 9.91631 507 101.994 1247.01 486.12
1984 0 53.3201 11.5904 618 103.675 1247.02 482.583
1985 0 56.1776 12.3359 693 100.052 1247.17 486.941
1986 0 56.1879 13.3125 748 98.6658 1247.1 483.689
1987 0 59.1057 13.1798 779 99.1823 1246.77 484.172
1988 0 59.0844 13.8615 819 98.8523 1247.17 483.295
1989 0 61.0707 13.3124 813 101.092 1246.96 483.143
1990 0 63.2396 12.5554 794 102.345 1246.78 481.156
1991 0 64.1151 12.4464 798 101.883 1247.4 482.57
1992 0 66.2141 12.3237 816 102.531 1248.01 481.805
1993 0 70.2321 13.4981 948 98.8038 1247.9 480.551
1994 0 73.0949 13.9545 1020 97.699 1247.49 478.836
1995 0 73.1145 12.4873 913 101.147 1247.65 478.504
1996 0 77.2025 13.0954 1011 100.261 1247.62 474.873
1997 0 80.2218 12.9391 1038 100.432 1247.4 475.081
1998 0 82.0922 14.1792 1164 99.4192 1246.99 471.588
1999 0 86.1297 13.5842 1170 101.22 1246.92 472.003
2000 0 87.1852 12.9036 1125 103.544 1247.08 469.554
2001 0 92.1349 13.7082 1263 100.81 1246.71 470.158
2002 0 94.2658 14.2257 1341 101.131 1246.88 466.875
2003 0 98.0688 13.5109 1325 102.758 1246.85 466.503
2004 0 100.053 13.013 1302 104.839 1247 463.542
2005 1 52.0383 12.2602 638 107.931 1247.47 488.215
2006 0 55.0692 13.3287 734 105.372 1247.74 485.914
2007 0 55.05 13.406 738 104.432 1246.4 486.843
2008 0 58.221 13.7579 801 103.627 1246.53 484.382
2009 0 59.1236 13.1081 775 106.319 1246.52 484.404
2010 0 59.0592 13.8674 819 105.615 1246.47 484.42
2011 0 63.1269 13.1323 829 106.545 1246.3 484.206
2012 0 66.122 14.5791 964 103.158 1245.98 481.201
2013 0 67.2368 14.6051 982 103.459 1246.22 481.151
2014 0 70.1143 14.1769 994 104.582 1246.27 479.593
2015 0 71.2587 15.0999 1076 103.447 1245.25 476.637
2016 0 73.281 13.4005 982 108.313 1245.77 474.658
2017 0 77.4655 14.1482 1096 105.651 1245.52 474.301
2018 0 77.2743 13.1609 1017 109.752 1245.96 473.728
2019 0 81.1262 14.2248 1154 109.134 1246.71 473.635
2020 0 81.1876 13.4996 1096 113.539 1246.13 471.07
2021 0 85.255 14.3687 1225 111.02 1246.11 470.586
2022 0 88.1852 14.5716 1285 111.303 1245.55 469.721
2023 0 91.1466 14.4602 1318 110.683 1246.39 467.202
2024 0 92.131 14.6856 1353 111.353 1246.63 466.14
2025 0 94.29 13.2994 1254 115.46 1246.31 462.231
2026 0 98.1317 13.971 1371 111.847 1246.61 458.178
2027 1 55.0261 12.4123 683 110.969 1247.17 479.612
2028 0 56.0826 11.7684 660 115.476 1247.38 482.153
2029 0 57.0824 11.0717 632 110.549 1247.07 478.769
2030 0 58.2416 12.5512 731 102.178 1245.97 477.855
2031 0 60.0706 12.502 751 102.684 1246.33 477.877
2032 0 64.0643 12.5499 804 101.553 1246.51 478.567
2033 0 65.1789 11.9977 782 103.409 1246.42 476.78
2034 0 69.1141 12.1683 841 102.524 1245.79 474.187
2035 0 71.2033 12.7382 907 101.34 1246.13 473.33
2036 0 73.0588 12.0588 881 103.106 1246.48 472.639
2037 0 77.1217 14.0687 1085 99.0341 1246.1 472.388
2038 0 78.1299 13.1192 1025 102.139 1246.16 470.338
2039 0 78.1284 11.5835 905 107.282 1245.64 466.748
2040 0 82.229 13.0854 1076 104.153 1246.23 467.834
2041 0 86.241 12.4187 1071 105.423 1246.66 468.023
2042 1 44.0706 10.5512 465 104.682 1246.92 487.452
2043 0 46.06 11.2245 517 105.062 1246.5 486.77
2044 0 47.0633 12.3238 580 103.033 1246.48 487.078
2045 0 47.0296 11.1207 523 107.063 1246.45 486.744
2046 0 49.1239 11.4812 564 106.367 1246.02 484.36
2047 0 50.1591 11.9221 598 105.871 1246.4 484.537
2048 0 53.0744 13.3209 707 102.894 1246.46 483.382
2049 0 55.0905 11.708 645 107.367 1246.28 482.888
2050 0 55.0853 11.3279 624 108.194 1245.93 483.25
2051 0 59.0733 12.2221 722 106.425 1246.42 481.37
2052 0 60.1183 12.1594 731 106.72 1245.64 480.462
2053 0 62.2144 11.0264 686 109.487 1245.12 478.901
2054 0 64.0574 12.6293 809 106.43 1247.02 479.591
2055 0 66.1021 11.9209 788 108.065 1246.92 478.593
2056 0 69.1118 13.1671 910 105.466 1246.21 475.469
2057 0 69.0631 11.5547 798 109.479 1246.56 474.184
2058 0 74.1998 13.0054 965 105.94 1246.05 472.78
2059 0 76.1383 12.6874 966 106.552 1246.13 472.957
2060 0 76.0849 11.9472 909 109.45 1245.89 469.235
2061 0 82.1665 13.2779 1091 105.623 1245.54 468.539
2062 0 84.1996 13.468 1134 105.858 1245.86 466.758
2063 0 88.2037 12.6072 1112 107.665 1246.1 466.304
2064 0 91.273 12.7749 1166 106.885 1245.9 466.362
2065 1 50.2064 10.5365 529 105.038 1246.35 486.913
2066 0 52.2439 11.2358 587 109.254 1246.39 484.779
2067 0 54.2176 12.9478 702 110.43 1246.85 484.726
2068 0 56.129 12.0793 678 112.289 1246.86 484.774
2069 0 59.178 12.7243 753 109.726 1246.2 484.032
2070 0 59.099 12.3183 728 112.463 1246.6 484.095
2071 0 61.0713 12.4281 759 111.564 1246.89 481.816
2072 0 65.0731 13.6001 885 107.746 1247.1 481.929
2073 0 64.0375 12.0398 771 112.821 1247.42 480.371
2074 0 68.0827 12.8373 874 110.765 1247.55 479.161
2075 0 71.0394 12.655 899 110.475 1247.57 479.459
2076 0 74.145 13.2308 981 108.813 1247.63 478.319
2077 0 77.0782 13.6744 1054 107.902 1247.85 474.193
2078 0 79.1215 14.345 1135 107.089 1247.31 474.937
2079 0 80.1292 13.4907 1081 110.385 1246.64 474.539
2080 0 85.0937 13.0209 1108 110.588 1246.96 473.152
2081 0 85.1374 13.9657 1189 109.721 1246.56 472.918
2082 0 89.1907 14.2279 1269 109.623 1246.09 469.618
2083 0 90.119 13.4267 1210 113.172 1245.42 470.798
2084 0 93.1219 13.6488 1271 112.442 1245.59 467.875
2085 0 97.1406 15.2665 1483 108.549 1245.98 466.041
2086 0 101.182 15.3585 1554 108.035 1246.45 463.799
2087 0 102.185 15.0315 1536 110.362 1246.18 463.223
2088 0 107.206 14.197 1522 112.368 1245.7 462.275
2089 0 111.218 14.9885 1667 110.455 1245.74 461.122
2090 0 114.176 13.8032 1576 114.371 1245.58 458.051
2091 0 117.136 14.6582 1717 113.729 1245.64 458.453
2092 1 63.0211 11.9642 754 120.817 1246.76 483.223
2093 0 64.1118 12.8837 826 114.593 1245.79 473.817
2094 0 66.0533 12.2477 809 115.171 1243.54 479.104
2095 0 70.0795 12.2432 858 114.245 1243.83 477.585
2096 0 72.1134 13.7838 994 119.148 1243.57 477.462
2097 0 74.1409 13.6092 1009 119.366 1243.83 476.856
2098 0 76.1128 13.3749 1018 122.342 1243.93 475.191
2099 0 80.1 14.0574 1126 119.007 1243.79 476.634
2100 0 81.0994 14.2171 1153 119.063 1243.53 474.578
2101 0 84.1192 14.0277 1180 120.175 1243.24 474.19
2102 0 84.0991 12.7231 1070 125.515 1243.23 469.993
2103 0 89.0854 13.8182 1231 121.488 1244.13 470.851
2104 0 91.1652 13.7552 1254 121.854 1243.6 469.55
2105 0 95.1767 13.0599 1243 124.389 1243.61 467.523
2106 0 97.0791 14.689 1426 120.239 1243.83 467.205
2107 0 101.191 14.8827 1506 120.12 1243.54 464.086
2108 0 102.17 13.9278 1423 122.926 1243.98 461.377
2109 0 109.241 15.4521 1688 116.233 1244.23 455.955
2110 0 110.351 14.3996 1589 117.062 1244.67 451.504
2111 0 113.336 13.3849 1517 120.588 1244.99 452.761
2112 0 117.371 13.6405 1601 118.321 1245.03 454.685
2113 0 120.377 14.4962 1745 116.51 1244.53 451.121
2114 0 125.502 14.5177 1822 117.657 1244.68 446.746
2115 0 129.313 13.9661 1806 118.055 1245.21 450.028
2116 0 133.376 14.8902 1986 115.445 1245.56 443.68
2117 0 139.419 14.5173 2024 118.318 1245.65 437.498
2118 0 146.292 14.2865 2090 118.421 1245.47 433.335
2119 0 146.436 12.5516 1838 118.362 1244.64 422.618
2120 0 152.254 12.2164 1860 112.212 1245.5 429.712
2121 0 157.347 12.9077 2031 108.543 1245.09 438.737
2122 0 163.246 12.8456 2097 108.628 1245.5 433.927
2123 1 82.308 11.6635 960 111.319 1245.16 469.278
2124 0 87.4058 13.2714 1160 106.265 1244.72 466.871
2125 0 90.0914 13.453 1212 103.389 1245.72 469.796
2126 0 94.1809 13.1343 1237 103.38 1245.31 468.45
2127 0 94.141 12.7575 1201 105.3 1244.73 467.167
2128 0 98.2968 13.2863 1306 103.846 1244.84 464.778
2129 0 102.293 13.8719 1419 102.501 1244.69 461.371
2130 0 103.222 13.282 1371 104.723 1244.64 459.009
2131 0 108.314 13.2946 1440 105.615 1244.45 458.255
2132 0 112.247 12.6596 1421 108.225 1244.26 455.64
2133 0 116.316 13.1366 1528 110.459 1244.23 451.037
2134 1 61.3016 11.2721 691 107.959 1244.6 479.653
2135 0 63.1076 11.1397 703 107.923 1244.87 478.417
2136 0 65.1351 10.9158 711 104.954 1245.33 477.489
2137 0 68.128 11.7573 801 104.499 1245.79 479.8
2138 0 66.2 11.1782 740 118.816 1245.55 476.001
2139 0 76.2182 12.8972 983 112.149 1245.27 476.851
2140 0 77.2205 12.6262 975 111.912 1245.71 476.492
2141 0 79.5609 13.3608 1063 111.629 1245.4 472.155
2142 0 82.5013 14.3877 1187 110.599 1244.97 467.304
2143 0 85.3289 14.1687 1209 110.566 1245.16 465.569
2144 0 86.5712 12.2327 1059 113.776 1244.83 465.402
2145 0 88.2848 11.4629 1012 110.42 1244.1 465.298
2146 0 92.3149 12.6848 1171 107.996 1244.08 464.373
2147 0 95.4171 12.6288 1205 107.903 1244.26 461.658
2148 0 96.4113 12.6023 1215 109.715 1244.58 457.788
2149 0 101.504 13.3098 1351 108.452 1243.98 457.628
2150 0 105.464 13.7962 1455 106.952 1244.13 455.963
2151 0 105.356 12.4435 1311 111.655 1243.98 453.272
2152 0 110.321 12.1646 1342 111.782 1244.36 453.007
2153 0 111.636 12.6751 1415 111.837 1244.43 450.252
2154 0 116.307 12.3381 1435 112.799 1244.48 448.344
2155 0 120.474 12.5836 1516 112.986 1244.64 446.699
2156 0 125.378 12.2988 1542 113.38 1244.75 445.539
2157 0 131.594 13.8228 1819 110.982 1244.87 440.811
2158 0 134.432 12.6905 1706 113.872 1244.98 441.75
2159 1 76.3569 12.3892 946 100.276 1244.95 471.946
2160 0 79.2457 11.8114 936 100.33 1245.15 475.073
2161 0 81.2055 10.8121 878 103.117 1245.69 476.051
2162 0 84.1423 12.3006 1035 101.814 1245.69 471.907
2163 0 85.3523 11.2358 959 104.955 1244.48 472.319
2164 0 88.2598 12.112 1069 104.36 1245.31 468.595
2165 0 92.1407 12.2856 1132 103.699 1245.15 465.924
2166 0 95.359 11.7661 1122 104.225 1244.91 464.455
2167 0 97.2846 11.9443 1162 105.432 1244.83 460.235
2168 0 100.526 10.7137 1077 106.501 1244.75 460.624
2169 0 105.382 11.3966 1201 104.609 1245.04 459.311
2170 0 108.352 11.278 1222 105.986 1244.6 454.313
2171 0 113.334 11.55 1309 104.531 1244.9 455.154
2172 0 115.536 10.8105 1249 107.073 1245 451.776
2173 0 117.307 9.66692 1134 109.682 1244.91 448.451
2174 0 124.676 11.8226 1474 103.849 1244.77 447.486
2175 1 65.1893 11.3516 740 98.4149 1244.59 477.78
2176 0 67.1939 10.8938 732 98.3743 1244.59 479.852
2177 0 69.2552 10.9739 760 98.8987 1245.35 478.375
2178 0 72.182 11.8035 852 98.223 1244.79 478.175
2179 0 76.205 10.5242 802 102.734 1246.45 476.829
2180 0 77.0384 10.6051 817 103.253 1246.93 474.083
2181 0 79.1612 11.5713 916 102.687 1246.84 471.938
2182 0 82.1497 10.2131 839 104.617 1245.85 473.909
2183 0 84.2503 11.5845 976 103.079 1246.03 469.655
2184 0 86.2383 10.7609 928 105.861 1245.63 466.474
2185 0 88.3069 12.4679 1101 103.032 1245.34 468.52
2186 0 91.2897 11.7538 1073 106.068 1245.25 466.934
2187 0 94.4595 12.3757 1169 105.832 1245.54 464.978
2188 0 97.391 12.1469 1183 106.402 1245.04 463.232
2189 0 99.3241 11.0346 1096 109.391 1245.12 461.61
2190 0 103.335 12.6482 1307 107.737 1245.11 462.586
2191 0 105.331 11.9243 1256 110.586 1245.08 460.75
2192 0 106.168 11.2651 1196 113.107 1244.77 457.976
2193 0 110.28 10.8996 1202 114.202 1244.73 456.782
2194 0 113.224 12.5327 1419 111.646 1244.58 455.718
2195 0 115.299 12.0296 1387 113.444 1244.77 454.66
2196 0 119.258 12.3346 1471 112.319 1245.2 453.065
2197 0 123.227 11.142 1373 114.616 1245.02 452.304
2198 0 128.196 12.7539 1635 112.169 1244.47 448.075
2199 0 134.184 13.0939 1757 111.102 1244.58 448.019
2200 0 137.141 13.745 1885 110.228 1245.81 445.276
2201 0 143.296 13.692 1962 111.535 1245.04 437.191
2202 0 147.41 13.3166 1963 113.367 1245.12 435.86
2203 0 148.22 13.3383 1977 113.893 1244.77 435.92
2204 0 154.359 13.0993 2022 114.861 1245.68 436.23
2205 0 161.507 13.0273 2104 115.44 1245.11 431.728
2206 0 163.434 12.2068 1995 117.802 1245.29 431.265
2207 0 170.426 13.0203 2219 117.974 1245.19 424.274
2208 0 175.497 12.7922 2245 120.31 1245.05 418.551
2209 1 104.239 11.9916 1250 115.277 1245.33 460.222
2210 0 106.408 11.4559 1219 116.868 1245.4 459.404
2211 0 110.094 12.3258 1357 111.964 1245.35 460.919
2212 0 114.282 13.1867 1507 110.535 1245.56 457.96
2213 0 116.285 12.7531 1483 111.995 1245.15 457.753
2214 0 118.204 12.0639 1426 112.243 1244.55 451.323
2215 0 121.302 11.2282 1362 115.027 1244.3 452.156
2216 0 125.229 11.475 1437 114.273 1244.5 451.399
2217 0 133.293 13.1365 1751 111.215 1244.62 449.186
2218 0 135.274 12.2714 1660 114.075 1244.74 448.933
2219 0 141.328 12.6868 1793 113.235 1244.7 447.104
2220 0 145.239 12.6757 1841 114.218 1244.94 441.74
2221 0 152.195 12.9373 1969 112.681 1245.47 440.933
2222 0 155.404 13.7513 2137 111.784 1244.76 437.241
2223 0 160.241 11.2955 1810 114.514 1245.43 439.373
2224 0 166.301 11.4732 1908 116.515 1245.28 429.649
2225 0 172.327 12.0816 2082 113.669 1245.28 433.573
2226 0 178.349 10.6701 1903 116.611 1245.25 431.118
2227 0 183.342 12.0976 2218 115.624 1244.72 419.396
2228 0 190.33 12.9249 2460 113.172 1244.51 420.789
2229 0 196.452 12.3796 2432 114.294 1244.82 417.531
2230 0 203.288 12.529 2547 113.978 1244.28 408.903
2231 1 56.2179 12.5405 705 110.461 1244.01 480.755
2232 0 59.2168 12.716 753 110.382 1243.9 476.924
2233 0 61.1809 12.1933 746 110.744 1244.21 479.446
2234 0 61.2046 13.9205 852 107.467 1244.22 477.388
2235 0 63.3645 13.5565 859 108.678 1244.52 478.129
2236 0 65.31 13.4742 880 109.251 1244.59 477.795
2237 0 68.2859 12.9016 881 111.064 1244.56 476.15
2238 0 69.3392 13.3402 925 112.588 1244.26 472.465
2239 0 72.2476 11.9174 861 114.71 1244.33 472.581
2240 0 74.1643 12.4723 925 114.102 1243.94 466.558
2241 0 76.3638 11.694 893 116.657 1244.64 467.67
2242 0 80.3221 13.6451 1096 111.038 1244.35 467.176
2243 0 83.2044 13.0161 1083 112.835 1244.4 465.643
2244 0 86.2409 12.9405 1116 113.203 1244.82 463.965
2245 0 89.493 13.1072 1173 112.641 1244.55 459.561
2246 0 93.2251 13.462 1255 111.242 1244.64 458.134
2247 0 96.3152 14.9924 1444 106.87 1244.25 458.528
2248 1 47.4238 11.956 567 113.723 1244.37 479.991
2249 0 47.4009 10.5061 498 116.865 1243.96 479.205
2250 0 53.3991 12.6969 678 113.417 1243.65 485.82
2251 0 52.3378 12.7059 665 118.299 1243.79 485.296
2252 0 54.2181 12.5235 679 117.091 1243.96 485.669
2253 0 57.4109 14.2307 817 111.972 1243.8 484.382
2254 0 58.3734 13.0539 762 115.328 1244.15 482.281
2255 0 60.1735 11.6496 701 107.672 1243.15 482.632
2256 0 62.1776 11.6441 724 108.175 1243.7 480.577
2257 0 65.2661 12.7325 831 105.463 1243.51 479.958
2258 0 65.1024 11.0749 721 112.585 1243.38 481.903
2259 0 68.1834 10.8384 739 109.074 1243.86 480.212
2260 0 72.1399 12.85 927 105.672 1243.98 480.977
2261 0 75.2028 12.3134 926 104.026 1243.34 479.252
2262 0 78.1491 11.6572 911 105.698 1242.93 449.218
2263 0 78.2443 10.6973 837 108.779 1243.52 455.973
2264 0 83.1601 12.2174 1016 106.583 1242.76 462.809
2265 1 43.2733 9.86752 427 103.122 1242.62 493.768
2266 0 45.2676 10.6699 483 100.217 1242.9 494.747
2267 0 48.4048 11.7137 567 95.7743 1241.68 494.434
2268 0 48.4028 10.9498 530 93.2245 1241.58 494.723
2269 0 49.307 11.0735 546 93.1007 1242.15 486.397
2270 0 51.2315 9.97433 511 96.2016 1241.22 488.065
2271 0 51.1389 12.0261 615 93.5415 1241.55 490.468
2272 0 52.2154 10.8014 564 96.5479 1241.12 490.856
2273 0 53.1298 10.5026 558 97.5896 1241.41 489.918
2274 0 54.1734 11.7216 635 95.8409 1241.58 493.055
2275 0 56.1585 11.2004 629 97.7409 1240.87 486.941
2276 0 58.0852 12.3784 719 96.4812 1240.39 489.42
2277 0 59.1615 10.97 649 100.287 1240.61 487.824
2278 0 63.1428 11.8303 747 98.4137 1240.15 487.396
2279 0 64.1789 12.4028 796 99.0879 1239.5 487.32
2280 0 64.0713 11.7369 752 102.549 1239.65 485.734
2281 0 66.213 11.3573 752 102.562 1239.82 488.144
2282 0 69.2866 11.6328 806 103.107 1239.96 485.569
2283 0 71.1618 12.0149 855 102.502 1240.2 485.833
2284 0 72.1495 11.7534 848 103.312 1240.36 485.011
2285 0 78.1514 11.8616 927 101.63 1240.32 481.429
2286 0 79.1676 12.8841 1020 99.2824 1240.4 478.312
2287 0 82.0851 12.621 1036 101.931 1240.52 480.088
2288 0 85.0952 12.0806 1028 103.57 1240.24 478.553
2289 0 87.1364 12.8534 1120 101.673 1239.2 478.785
2290 0 89.3103 11.6112 1037 102.175 1239.41 477.33
2291 0 91.0668 10.8053 984 105.701 1240.06 476.343
2292 0 96.2825 12.0583 1161 102.36 1239.49 474.08
2293 0 99.2231 12.8599 1276 100.502 1238.89 472.543
2294 1 52.1596 10.9663 572 100.869 1240.19 500.031
2295 0 52.1596 10.1995 532 122.898 1241.21 499.647
2296 0 55.1352 12.5147 690 104.772 1240.84 499.277
2297 0 58.147 12.176 708 104.052 1240.44 496.573
2298 0 62.2384 12.6931 790 101.748 1240.4 498.463
2299 0 63.2346 13.3787 846 102.018 1240.1 494.852
2300 0 63.2516 13.3119 842 103.714 1240.05 493.703
2301 0 65.1689 12.8742 839 103.844 1240.3 492.468
2302 0 69.0924 14.7773 1021 99.1714 1239.8 492.175
2303 0 72.1363 14.2647 1029 100.028 1239.58 493.338
2304 0 74.1755 14.223 1055 100.923 1239.49 490.125
2305 0 75.1013 14.3539 1078 101.803 1239.63 488.201
2306 0 77.1232 15.741 1214 99.6318 1239.42 487.759
2307 0 77.1302 13.4707 1039 106.285 1239.6 487.601
2308 0 82.134 14.0624 1155 104.686 1239.63 486.114
2309 0 83.1474 14.336 1192 105.155 1239.14 482.386
2310 0 88.3044 13.8272 1221 105.826 1238.68 484.287
2311 0 89.1439 14.4486 1288 105.32 1238.81 482.236
2312 0 92.2002 14.2408 1313 106.138 1238.37 481.957
2313 0 96.3695 14.2161 1370 107.215 1238.21 479.95
2314 0 99.4672 14.7687 1469 106.137 1238.42 478.167
2315 1 54.2266 13.5727 736 107.701 1238.54 500.37
2316 0 55.0765 12.6733 698 110.355 1239.38 500.712
2317 0 56.0589 14.3956 807 104.504 1239.7 498.592
2318 0 57.0774 12.5093 714 109.141 1239.87 500.315
2319 0 59.0947 14.2652 843 105.37 1239.86 498.674
2320 0 59.0478 13.9887 826 108.262 1240.03 497.202
2321 0 63.1736 13.1701 832 109.298 1240.12 496.456
2322 0 65.1459 14.2603 929 107.847 1240.56 492.523
2323 0 69.1129 13.3116 920 108.908 1240.41 494.937
2324 0 68.0845 14.1148 961 109.946 1241.33 492.455
2325 0 69.0235 13.1694 909 114.374 1241.11 491.693
2326 0 71.0734 14.1684 1007 112.369 1240.91 492.319
2327 0 73.1152 14.3472 1049 113.565 1240.83 488.312
2328 0 78.1593 15.2765 1194 110.191 1240.63 487.582
2329 0 79.1667 15.1832 1202 112.164 1240.6 486.941
2330 0 81.1067 15.2145 1234 113.572 1240.4 484.373
2331 0 85.1512 15.5253 1322 112.107 1240.38 483.386
2332 0 87.1487 15.5711 1357 113.099 1240.56 482.682
2333 0 91.1194 16.2534 1481 109.861 1240.29 480.059
2334 0 94.1445 14.8601 1399 113.021 1240.26 477.127
2335 0 97.0727 15.2669 1482 112.182 1240 476.477
2336 0 100.214 14.6686 1470 114.055 1239.91 474.597
2337 0 104.321 15.6728 1635 110.267 1239.2 469.302
2338 0 109.278 14.9344 1632 115.452 1239.49 471.81
2339 1 59.0764 11.866 701 111.703 1239.4 494.579
2340 0 61.1667 12.7684 781 105.437 1238.36 492.921
2341 0 62.1461 11.8431 736 108.886 1238.55 490.709
2342 0 65.0869 13.0441 849 104.854 1238.75 489.987
2343 0 67.1059 13.054 876 105.252 1238.76 488.763
2344 0 68.1548 12.5156 853 106.547 1239 487.47
2345 0 72.1022 14.2159 1025 102.639 1239.16 484.466
2346 0 73.1923 13.2391 969 105.652 1239.69 485.103
2347 0 74.1836 12.6982 942 108.594 1239.37 482.505
2348 0 78.2627 13.7869 1079 105.061 1239.38 481.046
2349 0 80.2092 12.9786 1041 108.501 1239.64 478.856
2350 0 84.2142 13.1094 1104 108.916 1239.51 475.307
2351 0 88.1405 14.5676 1284 104.041 1239.7 475.074
2352 0 91.1343 13.3868 1220 109.35 1239.53 472.574
2353 0 94.2213 13.6806 1289 108.992 1239.38 469.561
2354 1 48.0754 11.274 542 112.432 1239.65 491.775
2355 0 51.1729 12.448 637 108.639 1239.38 492.089
2356 0 52.1354 11.8154 616 108.031 1239.19 491.14
2357 0 53.1493 11.9287 634 110.121 1241.81 490.678
2358 0 56.1268 13.0597 733 106.854 1242.08 488.023
2359 0 58.1341 13.0388 758 107.476 1243.25 489.227
2360 0 58.1342 13.6237 792 107.365 1243.81 487.199
2361 0 58.0847 14.0657 817 105.752 1243.13 489.017
2362 0 63.0353 13.7542 867 105.687 1243.95 486.807
2363 0 63.0462 12.5464 791 110.035 1243.78 483.498
2364 0 67.0753 12.4487 835 108.64 1243.73 483.376
2365 0 69.0518 13.7143 947 105.828 1243.84 480.924
2366 0 70.1075 13.5221 948 106.857 1243.82 481.045
2367 0 74.0837 12.4589 923 107.326 1243.72 477.826
2368 0 76.1813 13.0609 995 106.133 1243.9 478.101
2369 0 77.1066 12.567 969 108.476 1243.94 477.441
2370 0 80.0993 14.0576 1126 105.432 1243.85 476.73
2371 0 84.2201 13.7141 1155 106.821 1243.25 475.048
2372 0 85.3143 12.9521 1105 109.311 1243.66 476.011
2373 0 90.1573 14.3305 1292 106.145 1243.52 473.967
2374 0 92.373 13.2939 1228 108.11 1242.38 466.653
2375 0 92.3561 12.9607 1197 109.793 1242.59 464.272
2376 1 49.2115 11.8671 584 110.021 1242.93 488.606
2377 0 51.1741 12.2718 628 109.382 1241.85 488.584
2378 0 51.1924 12.287 629 111.949 1242.86 488.485
2379 0 54.0792 12.833 694 106.321 1244.27 489.199
2380 0 57.1039 12.4335 710 106.308 1243.98 489.272
2381 0 58.0512 13.6087 790 104.473 1243.72 487.378
2382 0 60.0893 13.1305 789 105.406 1243.45 485.378
2383 0 61.0966 12.292 751 107.947 1243.78 486.049
2384 0 64.1215 13.2561 850 105.205 1243.38 484.153
2385 1 128.197 13.3701 1714 107.989 1243.84 454.485
2386 1 68.1233 12.3599 842 108.302 1243.57 482.213
2387 0 68.1078 12.8473 875 108.457 1244.45 481.2
2388 0 70.12 12.5784 882 109.632 1243.83 480.027
2389 0 74.222 12.8533 954 108.706 1243.46 478.853
2390 0 74.1068 12.1581 901 111.827 1243.79 477.23
2391 0 80.1321 12.9162 1035 108.142 1243.85 476.763
2392 0 83.119 12.1873 1013 110.028 1243.04 472.388
2393 0 84.1754 12.2482 1031 110.802 1243.56 472.716
2394 1 44.0507 11.8727 523 109.56 1244.11 494.457
2395 0 44.0429 9.67239 426 115.317 1244.43 493.697
2396 0 47.1439 12.3028 580 109.936 1244.54 492.378
2397 0 48.1216 11.845 570 110.577 1244.44 490.967
2398 0 49.1083 12.8695 632 109.027 1244.48 490.222
2399 0 50.2331 12.6012 633 109.711 1245 490.654
2400 0 53.1267 12.2349 650 109.243 1244.35 490.645
2401 0 54.0885 12.7569 690 109.896 1244.05 489.423
2402 0 57.1122 13.8149 789 105.968 1244.24 487.217
2403 0 56.258 11.5539 650 112.729 1244.38 487.026
2404 0 59.1764 13.164 779 108.304 1244.43 486.599
2405 0 61.1114 12.6818 775 108.76 1244.16 484.023
2406 0 63.165 13.7101 866 106.736 1244 484.8
2407 0 64.1205 13.6462 875 106.963 1244.81 483.383
2408 0 67.163 13.5938 913 106.301 1244.42 482.71
2409 0 69.138 13.5526 937 107.272 1244.79 481.283
2410 0 71.1358 12.188 867 109.828 1245.33 480.412
2411 0 74.0961 14.2113 1053 105.422 1245.42 479.38
2412 0 76.1404 13.1862 1004 108.852 1244.87 475.621
2413 0 81.1543 14.9592 1214 103.681 1244.43 478.377
2414 0 83.149 13.3375 1109 107.585 1245.6 477.55
2415 0 84.1272 13.1586 1107 109.647 1244.68 474.807
2416 0 87.1995 14.4726 1262 107.138 1243.75 472.437
2417 0 90.2967 13.0127 1175 110.076 1243.84 473.329
2418 1 45.1595 11.4926 519 112.829 1244.86 492.224
2419 0 47.0077 12.5086 588 108.048 1242.86 493.17
2420 0 48.0495 13.0074 625 107.71 1242.47 491.987
2421 0 51.1053 12.2297 625 115.509 1241.54 489.198
2422 0 53.0552 12.8922 684 114.962 1241.85 487.732
2423 0 54.1328 13.7625 745 113.662 1242.87 489.333
2424 0 57.293 13.0732 749 113.678 1244.92 488.682
2425 0 58.1916 13.1634 766 114.953 1244.1 485.341
2426 0 60.3001 13.6982 826 112.785 1244.23 484.66
2427 0 60.2323 12.0533 726 117.91 1244.09 483.573
2428 0 63.1776 13.0742 826 114.384 1244.2 483.046
2429 0 65.2903 13.6314 890 112.754 1244.38 482.783
2430 0 68.2998 13.47 920 113.425 1244.24 482.22
2431 0 70.3411 12.9512 911 114.7 1244.45 479.872
2432 0 70.2905 13.1597 925 115.638 1244.58 479.621
2433 0 73.1953 13.6074 996 114.348 1243.98 478.208
2434 0 74.2014 12.8973 957 116.116 1243.89 477.981
2435 0 77.1484 11.9121 919 117.96 1244.2 476.633
2436 0 82.3157 13.7641 1133 112.828 1244.43 475.324
2437 0 83.1513 12.9523 1077 114.662 1244.78 474.994
2438 0 86.1559 12.814 1104 114.985 1244.55 473.688
2439 1 46.0138 11.866 546 112.121 1245.45 494.353
2440 0 45.2258 11.719 530 114.392 1244.63 493.155
2441 0 47.1087 12.3969 584 108.058 1245.7 491.687
2442 0 50.0275 13.5725 679 104.919 1245.68 492.194
2443 0 48.0824 13.0401 627 108.662 1245.46 492.091
2444 0 52.0406 12.4902 650 108.349 1245.96 490.532
2445 0 55.0347 12.4649 686 109.141 1245.4 489.52
2446 0 55.0554 12.8598 708 109.997 1245.7 487.949
2447 0 56.0648 14.0908 790 107.332 1245.23 486.952
2448 0 58.0537 13.4358 780 108.833 1244.35 486.328
2449 0 58.0736 12.553 729 111.532 1245.03 485.853
2450 0 61.1217 13.7431 840 109.789 1245.3 485.818
2451 0 64.1429 13.657 876 108.986 1245.55 484.643
2452 0 64.2137 13.6108 874 111.154 1245.13 483.451
2453 0 68.2317 12.7507 870 112.939 1245.25 481.531
2454 0 70.1713 13.6523 958 112.794 1245.46 480.299
2455 0 72.1629 13.4141 968 113.268 1245.34 480.589
2456 0 75.1282 13.3372 1002 114.106 1245.91 477.548
2457 0 77.1425 13.8964 1072 113.561 1245.39 475.609
2458 0 79.2342 14.1858 1124 113.665 1244.66 475.835
2459 0 82.1872 15.0023 1233 112.18 1243.94 475.748
2460 0 84.162 14.3295 1206 115.442 1244.39 473.057
2461 0 88.1289 15.5681 1372 111.524 1244.79 472.434
2462 0 92.0591 14.784 1361 113.624 1244.57 470.328
2463 1 49.0514 12.1301 595 124.334 1245.42 490.592
2464 0 49.0211 11.954 586 126.425 1245.79 488.995
2465 0 52.0518 12.8526 669 121.429 1245.54 487.099
2466 0 55.0186 12.8502 707 121.784 1245.52 488.014
2467 0 57.0346 14.8506 847 118.464 1245.41 485.331
2468 0 57.0318 13.8519 790 122.895 1245.46 486.554
2469 0 58.0369 13.5776 788 124.415 1245.17 484.486
2470 0 61.0835 13.4406 821 124.256 1245.65 482.066
2471 0 63.034 13.9449 879 123.865 1245.44 482.39
2472 0 66.0487 13.8837 917 121.219 1245.29 480.887
2473 0 68.0788 14.7917 1007 118.182 1245.85 479.993
2474 0 69.0747 12.8556 888 124.171 1245.62 479.713
2475 0 72.0668 14.7363 1062 119.93 1244.98 476.651
2476 0 75.1177 14.657 1101 119.317 1245.4 474.978
2477 0 77.0996 14.2932 1102 120.696 1245.74 474.228
2478 0 79.2104 14.6319 1159 121.898 1244.7 472.549
2479 0 83.3558 14.3841 1199 120.158 1244.96 472.716
2480 0 86.2659 14.8147 1278 118.925 1244.95 472.07
2481 0 89.2591 16.0544 1433 115.871 1244.8 468.47
2482 0 92.274 14.9121 1376 119.48 1244.66 465.858
2483 0 95.286 16.2458 1548 113.306 1244.88 465.362
2484 0 96.1229 14.8664 1429 118.985 1244.4 461.787
2485 1 46.1436 11.7676 543 122.972 1245.28 482.895
2486 0 50.2109 12.7064 638 118.326 1245.54 482.939
2487 0 51.0618 13.3172 680 117.629 1245.66 480.949
2488 0 53.0112 13.8839 736 115.512 1246.13 480.89
2489 0 54.0538 13.9676 755 116.874 1246.04 479.882
2490 0 55.0423 12.3178 678 120.388 1245.36 480.237
2491 0 55.2047 12.0461 665 117.854 1244.75 478.047
2492 0 60.2074 12.1746 733 115.055 1245.26 479.656
2493 0 61.2721 13.1218 804 113.209 1245.11 478.93
2494 0 62.2042 13.1181 816 113.553 1244.47 480
2495 0 65.0971 11.8592 772 115.859 1243.42 480.605
2496 0 68.112 12.362 842 113.944 1243.21 478.757
2497 0 71.0817 12.7459 906 112.88 1243.37 476.469
2498 0 74.1207 12.4257 921 113.755 1243.2 474.831
2499 0 78.0651 12.7842 998 111.526 1244.28 475.057
2500 0 79.137 12.7753 1011 110.048 1245.53 475.062
2501 0 82.2666 13.0187 1071 109.715 1244.64 473.498
2502 0 86.2265 13.5689 1170 107.609 1244.59 470.816
2503 0 87.4649 12.5079 1094 111.654 1243.37 467.661
2504 1 46.2153 11.1868 517 111.81 1243.38 488.797
2505 0 47.1479 11.5806 546 111.463 1244.07 486.771
2506 0 49.1204 12.276 603 109.095 1243.5 488.189
2507 0 50.3064 11.1318 560 113.834 1243.75 485.596
2508 0 51.1689 12.3903 634 111.285 1243.33 486.595
2509 0 51.0774 11.1791 571 115.203 1243.63 486.128
2510 0 53.1364 12.3644 657 112.726 1243.72 485.922
2511 0 56.1328 14.0025 786 107.653 1244.11 485.266
2512 0 57.1083 12.1523 694 112.951 1243.71 483.372
2513 0 59.3225 13.0642 775 110.888 1244.06 481.978
2514 0 61.2184 13.264 812 111.074 1244.59 482.256
2515 0 63.1268 13.8927 877 109.623 1244.5 480.483
2516 0 65.1213 13.59 885 110.671 1244.23 480.247
2517 0 66.1276 13.5193 894 110.557 1244.24 480.003
2518 0 68.17 13.7891 940 111.86 1244.65 477.65
2519 0 72.1918 12.8408 927 113.892 1244.61 477.211
2520 0 74.1268 13.0857 970 113.131 1244.16 478.143
2521 0 78.1131 14.0053 1094 110.982 1244.07 476.09
2522 0 81.112 13.0314 1057 114.524 1244.84 474.526
2523 0 81.0904 12.6525 1026 117.042 1244.71 473.555
2524 0 85.1235 13.4745 1147 115.177 1244.8 472.6
2525 0 89.1429 14.4487 1288 112.569 1244.77 468.925
2526 1 45.0111 11.3528 511 115.454 1244.12 491.933
2527 0 45.0875 11.4444 516 115.207 1244.82 492.014
2528 0 46.3556 12.1884 565 114.113 1246.25 487.688
2529 0 47.0918 11.6156 547 116.545 1244.99 490.386
2530 0 49.0319 12.8692 631 109.811 1244.92 488.745
2531 0 48.0504 12.5493 603 114.393 1247.33 487.144
2532 0 50.0862 12.1191 607 114.331 1247.88 487.326
2533 0 53.0639 12.664 672 112.198 1247.38 486.265
2534 0 55.0796 12.8723 709 111.333 1247.32 485.906
2535 0 54.0292 13.4002 724 111.581 1247.81 484.428
2536 0 57.1251 13.4967 771 110.558 1247.25 483.978
2537 0 60.1664 14.2937 860 107.629 1247.29 482.63
2538 0 62.0762 11.9369 741 112.806 1247.48 481.726
2539 0 62.1455 12.519 778 113.118 1247.08 479.969
2540 0 66.1871 12.9935 860 110.944 1246.77 478.866
2541 0 69.1358 12.6129 872 111.9 1247.19 478.517
2542 0 72.0862 14.122 1018 107.332 1247.22 476.972
2543 0 71.0793 12.7745 908 112.466 1247.04 476.947
2544 0 75.0488 13.8044 1036 109.919 1246.77 476.406
2545 0 78.1268 12.5309 979 112.45 1247.18 473.416
2546 0 81.0923 13.9964 1135 109.345 1247.29 473.958
2547 0 85.1357 13.3904 1140 110.064 1247.44 472.665
2548 1 46.0213 12.6898 584 113.818 1247.8 489.217
2549 0 48.0558 13.3387 641 112.165 1247.44 488.047
2550 0 48.2991 13.582 656 111.447 1247.05 485.415
2551 0 49.0395 12.5817 617 112.361 1247.45 486.182
2552 0 51.0497 14.1431 722 109.699 1247.11 486.659
2553 0 51.0791 12.1576 621 114.968 1247.07 485.282
2554 0 54.0613 13.4847 729 110.096 1247.58 485.472
2555 0 55.0839 14.3236 789 108.873 1247.31 482.831
2556 0 58.1149 14.2132 826 107.472 1247.31 483.847
2557 0 60.0414 14.7232 884 105.914 1246.99 482.466
2558 0 62.2331 14.2207 885 107.047 1247.44 481.104
2559 0 64.096 14.135 906 107.544 1247.4 480.862
2560 0 65.1071 14.5606 948 106.507 1246.91 480.098
2561 0 67.1064 14.3652 964 107.183 1247.33 477.604
2562 0 68.0637 13.5314 921 109.256 1247.6 477.646
2563 0 72.0491 14.6012 1052 105.648 1246.96 477.729
2564 0 72.0438 13.8249 996 108.653 1247.06 475.432
2565 0 74.0984 13.2122 979 110.412 1246.88 473.507
2566 0 76.1436 14.2363 1084 107.756 1246.71 472.834
2567 0 79.2318 13.6688 1083 109.38 1245.98 471.514
2568 0 82.1211 14.6247 1201 106.853 1246.16 470.709
2569 0 83.0657 12.9416 1075 110.873 1246.52 468.117
2570 0 87.1274 14.5764 1270 106.417 1246.92 465.505
2571 0 89.0936 14.7485 1314 108.772 1246.32 463.329
2572 0 92.2116 14.4667 1334 108.739 1246.69 462.522
2573 0 97.1789 13.8096 1342 109.715 1246.64 459.884
2574 0 101.098 14.9756 1514 105.753 1247.59 458.876
2575 0 102.12 14.1403 1444 107.301 1247.15 456.385
2576 1 55.0457 11.6812 643 107.191 1248 482.403
2577 0 57.054 11.4628 654 107.98 1248.04 481.959
2578 0 59.0709 12.6797 749 104.45 1247.43 481.985
2579 0 62.1461 13.7096 852 99.8286 1247.21 480.822
2580 0 63.1803 14.245 900 99.2211 1247.38 480.123
2581 0 65.1305 13.1121 854 101.905 1247.02 478.249
2582 0 67.1679 13.0419 876 101.787 1247.31 477.259
2583 0 69.1005 13.7626 951 100.756 1247.72 476.892
2584 0 71.0728 13.9997 995 99.7678 1247.74 475.816
2585 0 73.1371 15.1086 1105 97.7683 1246.94 474.31
2586 0 76.1956 13.426 1023 101.092 1246.74 472.891
2587 0 79.114 13.9419 1103 99.8867 1246.55 472.411
2588 0 81.1705 13.7242 1114 100.84 1246.96 471.665
2589 0 84.1522 14.6996 1237 100 1246.46 469.955
2590 0 85.1289 14.2255 1211 102.154 1246.4 469.741
2591 0 88.1449 12.5021 1102 99.3911 1246.69 466.684
2592 0 92.1634 13.4652 1241 96.9428 1246.4 465.202
2593 0 92.1585 10.7858 994 100.861 1246.35 460.816
2594 0 97.1438 11.6837 1135 99.3392 1246.22 459.103
2595 0 100.163 12.1601 1218 99.7718 1246.55 460.363
2596 1 49.0366 10.5635 518 98.0328 1246.99 483.415
2597 0 52.0601 11.7556 612 93.8627 1246.77 479.881
2598 0 52.0432 10.8371 564 102.911 1246.89 479.888
2599 0 54.0653 11.3751 615 95.1886 1245.15 481.506
2600 0 55.0893 12.7793 704 93.5526 1244.99 481.009
2601 0 59.0269 12.2656 724 93.739 1245.17 480.07
2602 0 58.1801 10.5191 612 99.3889 1245.69 476.425
2603 0 61.1006 11.9311 729 96.4266 1245.69 476.532
2604 0 64.0851 11.0634 709 97.6841 1245.5 476.453
2605 0 66.1328 12.1574 804 96.2587 1245.22 476.546
2606 0 68.0262 11.0399 751 97.7124 1245.43 474.222
2607 0 71.0569 12.5955 895 95.1196 1245.32 471.683
2608 0 72.058 11.7544 847 97.1275 1245.39 473.477
2609 0 75.0213 11.61 871 96.8473 1246.31 471.171
2610 0 79.0618 12.9013 1020 93.7618 1245.65 470.459
2611 0 79.0699 12.6597 1001 95.005 1245.81 467.052
2612 0 82.0689 12.1605 998 95.5922 1246.12 468.012
2613 0 86.085 13.3705 1151 93.0139 1245.93 464.943
2614 0 87.0834 13.0794 1139 93.3011 1245.64 465.44
2615 0 92.0916 11.76 1083 95.0646 1246.05 465.006
2616 0 94.1371 11.3558 1069 95.7353 1246.52 460.554
2617 0 94.1384 11.345 1068 117.537 1246.53 460.458
2618 1 50.0574 9.72883 487 93.1253 1246.82 484.922
2619 0 53.1004 11.0357 586 92.5717 1246.65 483.068
2620 0 55.0439 11.9541 658 95.4103 1245.84 484.843
2621 0 56.0536 12.5594 704 89.6818 1245.32 479.864
2622 0 61.1109 11.7328 717 89.9135 1245.66 481.794
2623 0 61.1289 11.2058 685 91.4015 1245.68 480.964
2624 0 64.0499 11.2881 723 91.2711 1245.53 480.473
2625 0 65.0861 10.1404 660 93.5045 1244.71 481.045
2626 0 68.1223 12.1106 825 90.6036 1244.83 479.395
2627 0 68.0953 11.7923 803 92.3998 1244.37 477.482
2628 0 74.0971 13.3069 986 89.0304 1244.65 479.439
2629 0 75.2729 12.3816 932 91.9807 1244.53 477.614
2630 0 77.143 12.8333 990 92.6111 1244.46 475.501
2631 0 77.1746 11.934 921 95.7155 1244.51 476.797
2632 0 82.2118 12.3583 1016 95.3179 1244.22 473.086
2633 0 84.306 13.107 1105 95.362 1244.89 473.719
2634 0 86.192 11.5788 998 100.008 1244.35 472.265
2635 0 87.1526 12.7363 1110 101.314 1244.32 467.618
2636 0 90.1835 11.7982 1064 103.192 1244.1 471.474
2637 0 94.2509 13.1245 1237 101.189 1244.35 467.134
2638 0 99.3624 13.486 1340 100.363 1243.74 466.073
2639 0 98.2888 11.456 1126 105.214 1244.42 461.536
2640 0 102.403 13.232 1355 103.708 1244.04 456.578
2641 0 105.532 12.4797 1317 104.949 1244.2 458.286
2642 0 109.448 13.0564 1429 104.044 1243.4 452.764
2643 1 57.1445 14.0171 801 97.9401 1243.57 483.484
2644 0 57.2761 11.5231 660 104.742 1243.27 482.436
2645 0 60.2812 13.4536 811 100.138 1243.27 480.422
2646 0 60.2939 12.5883 759 103.592 1242.76 482.043
2647 0 60.1568 12.2015 734 104.966 1242.27 480.873
2648 0 67.1645 13.6977 920 100.171 1242.82 479.575
2649 0 70.1553 14.0403 985 98.6142 1243.08 479.212
2650 0 71.3315 13.4303 958 101.618 1242.81 478.093
2651 0 74.2462 12.9569 962 102.854 1243.45 473.389
2652 0 75.3 13.8911 1046 101.515 1243.09 473.401
2653 0 78.3306 14.2218 1114 101.364 1243.52 472.355
2654 0 82.4431 14.6283 1206 100.081 1243.74 473.406
2655 0 83.1969 13.8106 1149 103.41 1242.89 472.42
2656 0 84.3505 13.1949 1113 105.169 1243.08 470.674
2657 0 86.3307 12.9154 1115 106.989 1243.2 468.23
2658 0 91.215 14.5152 1324 104.008 1243.76 465.61
2659 0 93.4153 14.6015 1364 104.084 1243.73 461.894
2660 0 96.2443 14.2346 1370 106.185 1244 461.794
2661 0 100.378 14.6546 1471 103.971 1243.82 462.961
2662 0 103.278 14.1851 1465 105.158 1243.22 460.349
2663 0 108.276 13.0223 1410 107.135 1243.46 461.33
2664 0 111.33 13.186 1468 107.592 1243.59 458.101
2665 0 116.323 15.586 1813 102.02 1243.12 454.631
2666 0 120.416 14.3004 1722 104.6 1243.15 455.202
2667 0 126.314 14.1235 1784 105.313 1243.38 452.471
2668 0 128.375 13.6242 1749 108.536 1242.99 447.373
2669 0 128.375 13.6242 1749 164.301 1241.99 447.34
2670 0 138.623 13.8361 1918 107.444 1243.18 447.523
2671 0 142.256 14.3825 2046 106.88 1243.55 444.331
2672 0 145.322 13.5698 1972 110.384 1243.18 438.094
2673 0 150.355 13.4482 2022 111.175 1242.62 440.288
2674 0 155.407 13.6995 2129 110.925 1243.45 436.287
2675 0 159.533 14.323 2285 110.327 1242.99 432.666
2676 0 163.457 13.3981 2190 113.559 1243.11 430.355
2677 0 166.489 14.3072 2382 112.717 1243.05 426.605
2678 0 174.349 14.4595 2521 111.908 1242.69 425.825
2679 0 180.462 14.3354 2587 112.017 1243.44 422.281
2680 0 184.55 14.4568 2668 112.934 1242.93 416.468
2681 0 191.501 14.5065 2778 113.146 1243.06 417.054
2682 0 198.531 14.6375 2906 113.487 1243.26 413.113
2683 0 200.471 16.4113 3290 109.678 1243.04 407.263
2684 0 207.638 16.8996 3509 108.7 1242.71 402.635
2685 0 215.632 18.0679 3896 106.125 1242.58 398.342
2686 0 221.63 16.6133 3682 110.304 1242.53 394.998
2687 1 175.48 12.9587 2274 117.002 1242.47 425.118
2688 0 182.366 13.6155 2483 116.305 1242.56 421.895
2689 0 184.571 12.5805 2322 120.72 1242.65 415.022
2690 0 194.654 14.5129 2825 115.602 1242.37 412.428
2691 0 197.572 13.8785 2742 118.763 1242.98 405.021
2692 0 205.412 13.2417 2720 121.226 1243.04 400.677
2693 1 223.397 10.7164 2394 123.234 1243.19 408.936
2694 0 221.854 13.4953 2994 120.574 1242.49 393.803
2695 0 230.421 13.6099 3136 121.371 1242.65 388.925
2696 0 240.486 14.0133 3370 120.376 1243.25 384.523
2697 0 248.76 14.4959 3606 120.088 1243.2 379.068
2698 0 258.536 13.6615 3532 121.961 1243.38 375.324
2699 1 64.261 10.4262 670 102.015 1243.87 477.046
2700 0 68.254 10.5781 722 101.695 1244.38 478.817
2701 0 69.3651 10.9133 757 102.682 1244.71 476.925
2702 0 71.2612 9.99142 712 102.99 1245.67 478.364
2703 0 73.1624 10.1965 746 103.68 1245.32 476.131
2704 0 75.185 10.5872 796 103.352 1244.91 475.136
2705 0 78.219 10.7135 838 102.625 1244.58 476.34
2706 0 81.176 10.9638 890 109.927 1242.02 473.39
2707 0 82.16 9.93184 816 112.942 1241.81 471.74
2708 0 85.1648 11.8476 1009 109.443 1241.55 468.325
2709 0 88.0818 10.8195 953 109.414 1242.52 469.552
2710 0 91.1623 9.21433 840 112.405 1242.02 467.121
2711 0 95.2333 9.71299 925 111.459 1242.4 464.365
2712 0 97.16 10.632 1033 109.774 1242.42 462.794
2713 0 101.095 9.73339 984 109.725 1242.99 463.601
2714 0 105.183 9.66884 1017 109.855 1243.13 459.117
2715 0 107.098 8.9824 962 110.294 1243.39 457.662
2716 0 111.344 9.5739 1066 109.99 1243.29 454.433
2717 0 114.218 10.3574 1183 108.244 1243.95 456.552
2718 0 120.195 9.35978 1125 109.837 1243.52 454.786
2719 0 129.275 14.388 1860 98.1425 1244.08 436.353
2720 0 130.246 12.4073 1616 103.265 1244.56 432.574
2721 1 66.1231 8.89251 588 97.9643 1244.93 456.364
2722 0 65.2354 7.77185 507 99.4911 1243.87 461.821
2723 0 67.1944 9.12278 613 98.1109 1243.4 463.023
2724 0 68.2691 8.34932 570 99.1053 1243.76 466.246
2725 0 71.1651 10.033 714 95.979 1243.17 474.144
2726 0 73.2522 8.36835 613 102.088 1242.18 478.227
2727 1 154.485 12.3313 1905 113.616 1242.23 432.174
2728 0 158.561 11.6674 1850 116.361 1242.64 425.812
2729 0 163.549 9.80134 1603 121.044 1241.91 421.971
2730 0 168.446 9.58169 1614 121.187 1242.34 421.261
2731 0 171.53 9.33948 1602 122.412 1242.22 414.253
2732 1 87.1137 8.04696 701 106.417 1242.86 467.157
2733 0 87.3746 8.81263 770 105.505 1243.47 466.287
2734 0 90.2722 7.37768 666 108.348 1243.41 466.764
2735 1 55.0907 11.2542 620 104.2 1241.85 482.684
2736 0 56.1457 10.3481 581 107.441 1242.18 481.215
2737 0 55.1954 9.63849 532 104.41 1242.04 481.607
2738 0 55.1005 9.76398 538 107.801 1244.14 484.134
2739 0 55.0674 10.3328 569 108.104 1244.14 481.998
2740 0 58.1094 9.34444 543 108.665 1244.41 484.547
2741 0 59.0485 9.63615 569 110.091 1245.18 482.877
2742 0 63.056 10.9109 688 109.092 1244.8 478.544
2743 0 63.1559 11.432 722 108.787 1244.35 480.184
2744 0 66.1657 9.11348 603 111.507 1243.97 483.4
2745 0 69.1141 11.1989 774 109.817 1244.18 479.346
2746 0 70.2145 10.3682 728 111.835 1244.88 476.944
2747 0 73.1891 10.9169 799 111.773 1244.16 476.965
2748 0 77.3525 12.6046 975 107.136 1243.33 474.299
2749 0 80.27 11.5236 925 110.176 1243.07 473.725
2750 0 83.1904 12.8621 1070 106.041 1243.19 473.324
2751 0 86.2272 11.7364 1012 108.609 1243.45 471.325
2752 0 88.2137 11.5175 1016 107.812 1244.14 473.816
2753 1 48.4001 12.376 599 105.506 1244.55 487.678
2754 0 50.2532 12.7952 643 104.593 1243.73 488.176
2755 0 50.3699 11.7332 591 108.249 1244.26 487.579
2756 0 51.5121 11.5895 597 108.863 1244.79 486.286
2757 0 55.57 12.7047 706 106.244 1245.28 484.503
2758 0 57.5708 14.0349 808 102.512 1245.39 485.51
2759 0 56.4235 12.8493 725 107.299 1244.78 485.692
2760 0 58.3222 13.2197 771 107.326 1243.89 485.008
2761 0 60.4285 12.8747 778 106.595 1244.7 484.798
2762 0 59.3506 11.7438 697 112.382 1245.91 482.555
2763 0 63.2828 12.7523 807 109.346 1245.01 482.813
2764 0 63.2946 13.1291 831 109.975 1244.39 481.969
2765 0 64.3527 14.2496 917 108.737 1244.99 480.289
2766 0 65.4703 13.5023 884 110.387 1244.99 479.661
2767 0 68.2739 13.812 943 109.054 1245.19 478.685
2768 0 69.3193 14.1663 982 108.524 1245.02 478.353
2769 0 69.348 13.4827 935 110.432 1245.33 479.961
2770 0 71.2767 12.5567 895 114.535 1244.93 476.902
2771 0 74.1974 14.138 1049 110.454 1245.38 476.103
2772 0 77.2168 13.9089 1074 108.615 1245.01 478.536
2773 0 79.2387 13.2385 1049 111.304 1244.87 475.378
2774 0 82.2799 13.5999 1119 110.068 1244.72 474.32
2775 0 86.2108 12.9682 1118 110.396 1244.93 473.614
2776 0 90.3447 13.7806 1245 107.592 1244.44 471.864
2777 0 89.1431 13.5625 1209 109.322 1244.66 469.041
2778 1 48.1123 11.3692 547 109.276 1246.45 491.346
2779 0 50.1943 12.5911 632 106.274 1245.98 489.892
2780 0 52.2272 13.5562 708 101.907 1245.53 488.291
2781 0 52.0887 13.2274 689 102.887 1245.89 487.467
2782 0 54.186 12.6416 685 104.034 1245.63 485.518
2783 0 56.1271 13.7545 772 101.067 1246.3 486.892
2784 0 56.1551 12.0559 677 105.498 1245.95 486.78
2785 0 60.2158 14.0163 844 100.213 1245.86 485.858
2786 0 61.0851 12.9328 790 102.98 1245.78 484.729
2787 0 62.0897 13.1423 816 102.074 1245.55 483.808
2788 0 65.0818 16.825 1095 93.2347 1245.25 481.38
2789 0 68.0917 13.5846 925 99.0822 1245.54 482.282
2790 0 69.0928 14.7193 1017 97.471 1245.52 479.875
2791 0 72.0838 13.4843 972 98.9753 1244.6 479.32
2792 0 74.1197 14.1933 1052 96.7329 1245.02 477.422
2793 0 76.0547 14.2003 1080 96.9019 1244.82 476.777
2794 0 79.0992 13.7802 1090 97.078 1244.9 476.128
2795 0 81.0898 12.5293 1016 99.56 1244.88 475.58
2796 0 84.1833 13.3399 1123 97.7738 1244.48 473.364
2797 0 86.1676 14.2049 1224 95.683 1244.39 471.942
2798 0 90.2493 15.1358 1366 93.6179 1244.49 470.176
2799 0 93.2029 13.4652 1255 96.9259 1244.7 468.235
2800 1 52.0348 11.3193 589 97.944 1244.7 486.93
2801 0 52.0613 10.5837 551 98.1797 1245.04 479.78
2802 0 54.1183 11.6412 630 90.3667 1244.19 479.217
2803 0 55.0751 12.6191 695 88.3971 1243.99 478.653
2804 0 59.3008 12.2427 726 87.9311 1243.9 479.831
2805 0 57.0625 10.322 589 92.4601 1244.16 476.941
2806 0 64.1901 12.7278 817 85.4382 1244.12 479.72
2807 0 65.3068 12.1427 793 87.5876 1243.87 476.702
2808 0 67.1548 11.6745 784 88.4515 1243.59 475.511
2809 0 69.2572 12.533 868 86.7558 1244.22 472.818
2810 0 72.3382 12.566 909 86.3553 1244.26 472.495
2811 0 74.4288 13.5297 1007 85.432 1244.48 471.387
2812 0 77.4153 13.6665 1058 85.7873 1244.09 468.347
2813 0 80.1852 13.3067 1067 86.5417 1244.51 467.198
2814 0 81.2531 12.098 983 90.7355 1244.34 464.533
2815 1 43.0609 10.7987 465 87.8688 1243.52 488.194
2816 0 44.1011 12.3353 544 89.4945 1244.16 487.204
2817 0 46.0944 10.6737 492 87.187 1243.39 489.823
2818 0 46.1292 10.6223 490 87.2469 1243.72 490.643
2819 0 44.0826 10.8206 477 89.304 1243.58 488.325
2820 0 47.0419 10.6501 501 87.8423 1243.79 490.966
2821 0 49.0793 11.3082 555 88.2306 1243.74 487.463
2822 0 50.0515 9.92977 497 90.0463 1244.18 489.791
2823 0 51.1302 11.0502 565 89.2549 1243.97 488.922
2824 0 53.063 10.497 557 89.9479 1244.15 486.871
2825 0 58.1708 10.6411 619 89.9628 1244.46 483.793
2826 0 58.1362 11.7483 683 88.3939 1243.96 485.154
2827 0 59.0756 10.3258 610 92.123 1244.31 483.346
2828 0 61.0793 10.0034 611 92.6972 1244.03 482.897
2829 0 66.094 11.877 785 89.9299 1244.13 481.037
2830 0 66.1039 12.2232 808 91.0903 1244.29 479.054
2831 0 69.22 11.3406 785 92.1452 1243.54 480.855
2832 0 70.1912 12.067 847 92.6269 1244.23 474.747
2833 0 72.1748 11.8047 852 93.3486 1244.29 473.567
2834 0 77.1915 12.0091 927 93.2341 1244.15 473.942
2835 0 77.2859 10.9852 849 96.7668 1244.36 471.532
2836 0 82.3643 12.2262 1007 95.3813 1244.21 469.214
2837 0 83.2301 12.0029 999 96.4064 1243.63 469.682
2838 0 87.1656 12.1952 1063 97.1355 1243.66 464.526
2839 0 91.3393 12.2072 1115 97.5803 1243.35 465.938
2840 0 94.2906 14.1372 1333 94.6482 1243.28 461.366
2841 1 48.2342 10.138 489 96.8405 1243.35 483.72
2842 0 54.1551 12.021 651 90.5975 1243.67 485.287
2843 0 54.1758 11.8134 640 99.3187 1243.7 483.305
2844 0 56.2288 11.0086 619 95.2714 1244.78 484.859
2845 0 57.1048 11.5927 662 95.1752 1244.5 482.849
2846 0 58.0606 10.9713 637 96.0549 1244.63 481.932
2847 0 60.2519 11.1532 672 95.6577 1244.12 481.243
2848 0 63.1004 12.599 795 92.4377 1243.86 481.319
2849 0 67.1524 12.4791 838 92.58 1243.59 480.647
2850 0 67.1404 10.7685 723 95.9516 1243.58 480.098
2851 0 70.1451 11.2624 790 95.8051 1244.54 476.457
2852 0 73.1234 10.243 749 97.1776 1243.81 478.53
2853 0 75.2216 11.7918 887 95.7204 1243.87 474.124
2854 0 78.2689 12.3293 965 95.2663 1243.33 472.028
2855 0 82.1604 12.3295 1013 95.6831 1243.58 470.372
2856 0 83.1479 11.666 970 97.9412 1243.93 469.405
2857 0 84.2416 12.6541 1066 98.3208 1243.27 465.461
2858 0 87.2403 12.8381 1120 97.3643 1243.57 469.497
2859 0 90.3943 12.9875 1174 100.448 1243.19 466.921
2860 0 93.3367 12.1389 1133 100.951 1243.77 463.626
2861 0 94.4087 11.9057 1124 102.552 1243.1 461.785
2862 0 99.4429 13.1533 1308 100.489 1242.84 460.645
2863 0 99.2396 12.7368 1264 104.372 1243.52 460.475
2864 0 101.11 13.0451 1319 107.444 1243.25 453.957
2865 0 108.137 14.084 1523 106.747 1244.22 461.28
2866 0 110.299 13.2549 1462 109.896 1243.24 459.17
2867 1 58.3141 12.5699 733 101.754 1243.32 480.578
2868 0 60.1965 10.582 637 101.449 1243.49 482.639
2869 0 64.1772 11.0475 709 102.234 1242.92 480.887
2870 0 67.1056 12.1301 814 98.6007 1242.2 479.222
2871 0 68.1012 12.9513 882 98.1701 1242.21 476.841
2872 0 70.069 12.716 891 99.697 1241.77 476.847
2873 0 73.0872 12.8613 940 99.0043 1242.14 476.611
2874 0 76.0937 11.9984 913 101.561 1242.23 474.399
2875 0 79.065 13.7735 1089 97.8889 1242.87 473.956
2876 0 81.0759 13.1235 1064 101.102 1242.61 471.427
2877 0 84.0581 12.4557 1047 102.802 1243.34 469.508
2878 0 86.1028 12.0554 1038 104.431 1242.82 469.279
2879 0 88.1008 11.5209 1015 106.954 1242.33 467.197
2880 0 92.1021 12.5079 1152 104.911 1242.9 466.871
2881 0 96.1869 12.7252 1224 105.307 1242.25 464.355
2882 0 99.1476 13.1118 1300 105.988 1242.42 461.57
2883 0 102.072 13.1966 1347 105.601 1242.67 461.917
2884 1 55.0531 10.8259 596 102.552 1242.32 488.309
2885 0 55.0582 12.06 664 105.258 1241.94 487.27
2886 0 56.1267 12.3114 691 109.58 1241.98 486.941
2887 0 59.1346 13.1057 775 107.088 1242.07 485.865
2888 0 58.1225 12.7834 743 109.902 1242.42 484.837
2889 0 63.0329 12.5331 790 108.492 1242.18 486.166
2890 0 64.1036 13.5562 869 108.181 1242.1 481.895
2891 0 66.0594 12.3374 815 112.211 1241.74 481.476
2892 0 68.1213 13.5787 925 108.996 1242.02 480.875
2893 0 71.1327 13.1163 933 110.597 1242.33 478.197
2894 0 74.1494 13.4863 1000 110.044 1241.93 479.312
2895 0 76.1641 13.6941 1043 110.718 1241.84 477.122
2896 0 79.1129 13.8536 1096 110.236 1242.23 477.339
2897 0 80.1087 13.619 1091 113.134 1242.13 474.365
2898 0 83.1325 13.1597 1094 113.714 1242.16 475.718
2899 0 86.2308 13.9045 1199 113.31 1242.14 471.552
2900 0 88.188 13.63 1202 114.849 1242 472.283
2901 0 89.0951 12.9188 1151 117.791 1242.87 470.886
2902 0 94.075 13.4999 1270 116.065 1242.56 469.75
2903 0 96.145 13.282 1277 115.82 1242.23 465.417
2904 0 102.199 14.5893 1491 111.335 1242.66 464.61
2905 0 104.23 13.9307 1452 114.118 1242.52 462.924
2906 0 107.225 13.8681 1487 114.018 1243.2 463.197
2907 0 109.169 12.4027 1354 117.287 1244.31 461.25
2908 0 116.193 13.7874 1602 113.871 1243.85 462.496
2909 0 117.084 13.9814 1637 116.428 1244.21 455.487
2910 0 122.186 13.6595 1669 116.789 1243.73 453.551
2911 1 68.0825 12.2939 837 116.076 1244.24 483.551
2912 0 68.0571 12.6805 863 115.833 1244.08 482.656
2913 0 73.1869 13.9233 1019 113.1 1243.43 478.277
2914 0 74.19 12.5758 933 116.319 1243.05 478.407
2915 0 77.243 12.8944 996 115.229 1242.96 477.636
2916 0 79.219 13.5826 1076 115.178 1242.91 474.421
2917 0 83.2761 13.9055 1158 112.485 1243.56 474.649
2918 0 84.2579 14.0046 1180 113.524 1243.12 472.214
2919 0 88.3178 13.9383 1231 113.825 1243.67 470.647
2920 0 91.3193 13.4473 1228 114.292 1243.04 470.399
2921 0 93.2723 13.7233 1280 114.766 1243.82 467.356
2922 0 97.2801 13.5382 1317 115.165 1243.49 464.689
2923 0 100.328 13.8147 1386 115.233 1243.61 461.532
2924 0 103.411 12.9386 1338 117.006 1243.21 463.284
2925 1 56.1761 11.82 664 116.063 1243.18 485.407
2926 0 58.2204 12.7962 745 114.817 1243.32 480.962
2927 0 60.1869 13.1756 793 114.533 1243.41 481.492
2928 0 60.0402 11.0759 665 111.973 1244.51 485.14
2929 0 63.0303 10.8519 684 112.49 1244.84 484.028
2930 0 65.0808 11.6778 760 112.642 1244.79 480.679
2931 0 69.0364 12.0226 830 110.58 1245.39 480.635
2932 0 70.0885 11.9706 839 111.731 1244.92 478.44
2933 0 73.1413 12.3323 902 110.636 1244.67 478.387
2934 0 76.0998 12.2865 935 111.964 1244.75 475.729
2935 0 76.0998 12.3785 942 142.437 1245.74 475.57
2936 0 82.0591 12.881 1057 110.789 1244.29 472.639
2937 0 83.0781 11.9647 994 113.423 1244.51 474.551
2938 0 88.2335 12.4783 1101 110.742 1244.45 472.839
2939 0 91.1447 12.0797 1101 111.299 1244.06 470.218
2940 0 96.2822 12.7334 1226 111.427 1243.96 465.788
2941 0 98.2018 11.955 1174 111.984 1244.74 465.155
2942 0 103.242 13.8412 1429 108.005 1244.1 461.552
2943 0 104.19 12.3525 1287 112.497 1244.25 459.88
2944 1 59.0745 12.6451 747 109.068 1244.54 482.368
2945 0 60.1674 10.3378 622 110.289 1242.12 480.105
2946 0 61.1701 11.4435 700 103.161 1243.46 480.893
2947 0 62.0971 10.9345 679 104.197 1243.65 478.803
2948 0 66.1402 11.1732 739 104.518 1243.61 477.031
2949 0 68.1648 11.6776 796 103.16 1243.59 475.608
2950 0 72.1742 11.9572 863 101.871 1244.14 474.153
2951 0 74.1618 11.0569 820 103.649 1243.94 473.883
2952 0 77.1445 10.7072 826 105.073 1243.3 472.27
2953 0 79.1704 10.9511 867 105.534 1242.87 471.401
2954 0 82.1437 11.3338 931 104.624 1242.96 469.968
2955 0 84.0924 11.5706 973 105.327 1242.79 467.933
2956 0 89.1763 12.2005 1088 103.273 1242.55 467.383
2957 0 91.1569 11.376 1037 105.12 1242.42 466.032
2958 0 96.1596 11.0857 1066 106.326 1241.94 464.438
2959 0 97.2357 10.0478 977 109.562 1241.82 464.059
2960 1 52.2856 11.0164 576 98.3646 1242.6 483.979
2961 0 52.3659 10.5794 554 101.534 1243.03 481.435
2962 0 56.0409 10.6172 595 99.9697 1241.22 485.839
2963 0 56.1234 9.78201 549 101.169 1241.56 485.678
2964 0 57.0152 10.5937 604 102.293 1241.31 480.826
2965 0 59.1486 10.8371 641 99.5991 1241.06 482.298
2966 0 62.1434 10.3792 645 99.7209 1241.17 483.079
2967 0 63.0473 11.3883 718 99.571 1240.97 480.443
2968 0 65.1203 10.2579 668 101.478 1240.95 481.75
2969 0 66.0882 9.59324 634 103.213 1240.67 479.888
2970 0 69.0484 10.6302 734 101.51 1242.01 476.935
2971 0 71.1591 11.2003 797 100.386 1242.34 476.465
2972 0 73.2375 11.7699 862 98.1752 1243.05 476.423
2973 0 75.1686 11.9199 896 98.2076 1243.3 473.763
2974 0 75.1654 10.8561 816 101.74 1243.31 471.104
2975 0 78.2636 11.0141 862 101.327 1242.74 471.812
2976 0 80.1692 10.3406 829 102.938 1242.65 469.861
2977 0 85.0921 11.2466 957 100.995 1242.71 468.162
2978 0 86.2937 11.09 957 101.736 1242.99 465.776
2979 0 91.2609 11.5055 1050 99.7886 1243.56 466.164
2980 1 45.2 9.99999 452 98.7633 1242.8 486.832
2981 0 49.094 10.5919 520 101.696 1243.15 479.785
2982 0 52.0396 11.7603 612 110.694 1240.53 487.606
2983 0 53.1701 12.3942 659 109.375 1240.76 490.217
2984 0 53.1352 12.4588 662 112.435 1240.82 485.131
2985 0 57.1094 13.2903 759 107.989 1240.89 486.513
2986 0 59.1983 13.6322 807 106.756 1241.42 486.211
2987 0 59.153 13.2369 783 108.837 1240.73 484.856
2988 0 63.2263 13.1433 831 107.434 1240.89 485.32
2989 0 64.1611 13.1544 844 108.985 1241.01 480.797
2990 0 67.1826 13.4707 905 107.356 1240.86 482.895
2991 0 68.4118 14.3104 979 105.555 1241.74 480.123
2992 0 71.2791 13.2016 941 108.479 1241.65 477.439
2993 0 73.181 14.4573 1058 106.06 1241.7 477.776
2994 0 76.3366 13.9121 1062 107.318 1241.51 475.865
2995 0 79.3764 13.795 1095 108.09 1241.72 474.029
2996 0 81.3668 14.0721 1145 107.369 1241.86 471.638
2997 0 84.5991 13.8536 1172 108.368 1241.97 471.436
2998 0 86.6048 13.7175 1188 109.517 1242.2 467.884
2999 0 86.3888 13.6476 1179 110.857 1242.68 466.057
3000 0 92.0837 11.9348 1099 104.137 1243.24 471.002
3001 0 93.0835 11.4628 1067 106.729 1242.91 470.212
3002 1 51.0563 10.3611 529 105.361 1243.24 491.673
3003 0 52.0728 12.1561 633 104.035 1242.99 487.352
3004 0 52.0862 12.1529 633 137.863 1242.99 487.352
3005 0 56.0514 12.1674 682 104.874 1242.53 487.293
3006 0 60.067 13.1187 788 102.782 1242.82 486.039
3007 0 62.1963 13.1358 817 102.306 1242.89 485.4
3008 0 62.0809 12.4032 770 105.994 1242.55 483.949
3009 0 64.147 12.3155 790 107.171 1242.27 482.465
3010 0 65.3233 12.0937 790 107.718 1242.65 480.396
3011 0 68.2538 12.9224 882 106.638 1242.88 478.761
3012 0 71.0765 13.9286 990 107.732 1243.53 478.648
3013 0 70.1603 12.7423 894 112.298 1243.79 477.701
3014 0 75.1269 13.3374 1002 111.452 1243.47 475.074
3015 0 77.2664 13.1105 1013 111.191 1243.47 476.582
3016 0 78.4713 13.5464 1063 110.933 1243.49 473.633
3017 0 81.4628 12.9262 1053 112.575 1243.46 473.064
3018 0 83.2534 12.8283 1068 114.142 1243.35 470.048
3019 0 86.3741 12.8742 1112 113.219 1243.13 468.599
3020 0 89.5185 12.8912 1154 111.741 1243.09 471.507
3021 0 92.3533 13.3509 1233 112.14 1242.84 465.059
3022 0 94.4344 14.4862 1368 109.683 1242.95 463.253
3023 0 99.3438 13.7402 1365 109.806 1242.8 464.656
3024 0 101.348 14.386 1458 108.833 1242.85 460.211
3025 0 105.387 13.9961 1475 109.155 1242.45 460.775
3026 0 108.353 13.4837 1461 109.56 1243.03 462.201
3027 0 111.27 13.6964 1524 111.108 1242.93 456.173
3028 0 114.437 13.0553 1494 111.953 1243.13 457.11
3029 0 118.447 13.8712 1643 111.337 1242.98 451.629
3030 1 67.308 12.4948 841 107.208 1243.09 480.679
3031 0 70.2058 13.0331 915 106.11 1243.17 479.6
3032 0 69.2288 13.2026 914 108.375 1243.27 476.743
3033 0 70.2489 11.6301 817 112.168 1242.76 476.521
3034 0 76.2459 13.7188 1046 106.877 1242.68 474.638
3035 0 77.1444 12.4442 960 110.448 1242.95 476.41
3036 0 79.2117 12.2583 971 111.885 1241.34 470.547
3037 0 84.4456 12.7893 1080 110.413 1242.16 467.692
3038 0 85.464 12.0285 1028 112.834 1241.79 468.312
3039 0 89.3711 13.2481 1184 110.15 1241.91 466.213
3040 0 92.4127 11.73 1084 114.107 1242.13 464.633
3041 0 98.4477 14.1598 1394 108.45 1241.65 461.876
3042 1 52.2835 10.6917 559 106.882 1241.49 488.075
3043 0 54.309 12.3184 669 104.326 1241.74 485.819
3044 0 56.2942 12.2748 691 103.632 1241.2 487.728
3045 0 58.1282 13.5046 785 105.892 1241.29 485.567
3046 0 58.1163 12.9051 750 104.157 1241.41 484.143
3047 0 60.126 13.1391 790 105.635 1241.99 485.019
3048 0 61.0883 13.3577 816 109.833 1241.74 484.485
3049 0 61.1832 12.5361 767 105.068 1241.67 484.831
3050 0 62.1504 13.9661 868 105.13 1241.66 483.124
3051 0 61.1147 13.5319 827 114.349 1242.45 483.025
3052 0 63.1477 13.7297 867 112.484 1242.04 481.938
3053 0 65.2445 13.7789 899 110.925 1242.02 482.462
3054 0 66.1579 13.498 893 112.215 1242.06 480.905
3055 0 69.1059 13.038 901 111.321 1241.79 480.395
3056 0 70.1237 13.8327 970 108.835 1242.43 478.324
3057 0 75.2935 13.7728 1037 106.734 1242.86 477.217
3058 0 75.2935 13.7595 1036 154.244 1242.88 477.195
3059 0 81.148 14.3442 1164 102.845 1242.22 475.113
3060 0 81.1371 12.9904 1054 106.416 1242.04 472.919
3061 0 86.1328 13.665 1177 103.222 1241.94 471.666
3062 0 88.3161 14.0405 1240 103.044 1242.12 469.911
3063 0 92.3587 14.9309 1379 101.178 1242.22 468.682
3064 0 94.4947 13.7256 1297 104.968 1242.14 464.402
3065 1 50.3973 12.0443 607 104.292 1243.18 485.189
3066 0 49.151 11.2714 554 102.657 1242.93 481.569
3067 0 52.0834 11.4816 598 107.268 1241.19 485.699
3068 0 54.1002 11.9223 645 106.346 1240.66 488.039
3069 0 55.1153 11.4306 630 109.167 1241 485.605
3070 0 55.0554 12.3512 680 108.279 1241.04 483.625
3071 0 58.0385 13.0603 758 106.446 1241.25 484.216
3072 0 59.0975 11.7602 695 111.22 1241.45 483.869
3073 0 59.097 12.3695 731 111.466 1241.7 481.962
3074 0 61.0841 12.8511 785 109.657 1241.46 483.4
3075 0 64.165 13.138 843 109.868 1240.96 482.23
3076 0 63.1396 10.9282 690 117.504 1241.49 481.229
3077 0 66.1431 11.7624 778 116.017 1241.39 479.742
3078 0 65.0904 11.3534 739 119.736 1241.97 477.909
3079 0 70.0991 12.4681 874 116.659 1242.17 478.47
3080 0 73.1701 13.6941 1002 114.425 1242.5 477.047
3081 0 74.1581 12.7835 948 117.792 1241.97 476.844
3082 0 78.2421 12.7169 995 116.935 1241.68 476.643
3083 0 81.1529 12.8646 1044 118.519 1241.69 474.453
3084 0 82.1209 12.7373 1046 120.925 1241.9 472.859
3085 0 85.361 11.9961 1024 122.59 1242.3 473.339
3086 0 88.2173 12.8546 1134 121.766 1242.5 471.528
3087 0 89.312 12.7866 1142 124.232 1242.99 465.439
3088 1 47.3611 12.0985 573 122.089 1243 486.468
3089 0 48.294 12.6103 609 121.524 1242.58 486.969
3090 0 50.3878 12.8602 648 119.91 1243.99 486.62
3091 0 51.1754 13.1704 674 120.113 1243.51 486.555
3092 0 51.2496 13.5416 694 120.951 1243.47 485.663
3093 0 54.1518 12.9636 702 123.655 1243.68 485.49
3094 0 53.2982 11.8203 630 128.729 1243.39 484.602
3095 0 56.1749 13.2087 742 124.156 1243.43 483.538
3096 0 55.146 13.0925 722 126.518 1243.44 483.14
3097 0 57.1991 12.5352 717 127.929 1243.55 482.17
3098 0 58.2039 11.9064 693 129.932 1243.09 482.271
3099 0 62.14 13.4857 838 123.274 1242.95 480.763
3100 0 63.2659 13.7673 871 122.916 1243.25 479.45
3101 0 65.2305 14.1652 924 121.912 1243.39 479.143
3102 0 65.1782 13.5935 886 123.656 1243.32 478.21
3103 0 70.1495 13.9844 981 121.512 1243.51 477.106
3104 0 72.2606 14.4477 1044 119.669 1243.19 476.55
3105 0 74.1671 13.7662 1021 120.551 1243.43 475.844
3106 0 76.213 14.0265 1069 120.819 1243.68 475.049
3107 0 76.2043 12.3484 941 126.211 1243.73 473.876
3108 0 80.1035 13.7322 1100 122.22 1243.43 472.986
3109 0 82.1581 13.0967 1076 123.987 1243.32 470.14
3110 0 87.1395 14.1956 1237 119.476 1243.49 471.17
3111 1 45.0732 12.7792 576 118.828 1244.28 490.59
3112 0 46.1746 12.1279 560 119.675 1243.14 489.288
3113 0 48.179 12.7649 615 120.302 1242.83 486.369
3114 0 48.0961 13.5562 652 120.031 1244.35 486.261
3115 0 51.0532 13.7504 702 116.53 1244.58 489.419
3116 0 53.0598 12.2315 649 122.08 1244.48 486.572
3117 0 54.0735 13.2967 719 119.942 1244.68 485.435
3118 0 57.0315 13.4838 769 118.386 1244.61 485.299
3119 0 58.0264 14.3038 830 116.219 1244.24 484.308
3120 0 59.1264 15.0187 888 114.333 1244.32 483.191
3121 0 60.0314 12.66 760 121.386 1244.63 482.093
3122 0 61.1309 11.369 695 123.885 1244.28 481.977
3123 0 64.146 13.5004 866 118.024 1244.87 480.379
3124 0 67.1768 13.1295 882 119.247 1245.29 479.807
3125 0 69.3322 13.8031 957 117.403 1244.54 476.254
3126 0 71.3886 13.1113 936 118.906 1244.17 475.58
3127 0 74.4845 14.5131 1081 115.728 1244.06 472.663
3128 0 74.2845 13.5425 1006 119.364 1244.05 469.897
3129 0 78.3029 14.8654 1164 115.449 1243.95 468.556
3130 0 81.4567 14.6949 1197 114.822 1244.17 467.688
3131 0 82.3818 13.2311 1090 118.29 1243.49 468.493
3132 0 87.417 13.4756 1178 117.094 1243.92 466.198
3133 0 88.429 13.966 1235 115.642 1243.56 465.743
3134 0 93.4002 15.1713 1417 111.996 1243.61 463.126
3135 1 51.3948 12.3359 634 114.137 1244.09 483.446
3136 0 53.2766 11.1681 595 115.229 1243.45 482.931
3137 0 53.3828 11.7641 628 109.553 1243.57 481.463
3138 0 56.0798 11.7689 660 107.082 1243.8 484.239
3139 0 58.1421 11.5407 671 105.52 1245.55 484.805
3140 0 57.1601 11.8614 678 106.33 1245.06 482.013
3141 0 58.1026 10.8429 630 108.887 1245.57 481.96
3142 0 61.2168 10.5527 646 108.432 1245.42 481.354
3143 0 63.1169 10.4251 658 108.982 1245.17 480.078
3144 0 65.2525 12.2754 801 105.567 1245.36 478.567
3145 0 70.0785 13.1139 919 102.347 1246.06 479.595
3146 0 71.1515 12.621 898 104.916 1245.47 478.48
3147 0 74.1098 12.6569 938 104.254 1245.29 478.133
3148 0 76.1606 12.2767 935 106.427 1245.29 475.637
3149 0 77.1126 12.3067 949 106.901 1244.31 474.115
3150 0 81.1576 13.7757 1118 103.157 1244.55 472.436
3151 0 83.1613 12.59 1047 106.799 1244.66 470.603
3152 0 86.1316 13.5258 1165 105.26 1245.18 469.744
3153 0 88.2243 13.2277 1167 105.961 1244.94 471.219
3154 0 93.1254 13.6375 1270 105.547 1244.25 468.473
3155 0 96.1511 12.7196 1223 109.343 1244.44 466.888
3156 1 51.0742 9.69177 495 111.675 1245.5 488.747
3157 0 51.0587 12.045 615 107.935 1242.26 488.374
3158 0 55.1031 13.3386 735 104.878 1242.39 487.189
3159 0 56.2744 12.5457 706 110.619 1242.8 485.846
3160 0 58.2707 13.4201 782 108.789 1242.96 485.102
3161 0 58.3351 13.4739 786 110.252 1243 483.281
3162 0 62.2175 13.2117 822 109.315 1242.45 483.506
3163 0 64.2077 13.908 893 107.507 1243.1 483.105
3164 0 65.2508 12.95 845 110.73 1243.28 483.393
3165 0 66.1546 14.0882 932 110.312 1243.04 480.583
3166 0 68.1862 13.3311 909 112.243 1243.2 479.818
3167 0 71.18 14.0629 1001 110.544 1243.55 478.874
3168 0 72.1707 12.8861 930 112.497 1243.08 479.872
3169 0 77.1829 13.4356 1037 110.543 1242.86 477.097
3170 0 80.2223 13.0014 1043 111.052 1242.67 477.393
3171 0 81.1637 13.5036 1096 111.202 1243.17 473.581
3172 0 87.1811 13.2253 1153 109.879 1242.07 475.492
3173 0 88.1195 12.8008 1128 112.069 1242.06 471.456
3174 0 90.0975 12.7861 1152 113.703 1242.06 471.737
3175 1 47.06 10.7947 508 110.805 1241.3 492.699
3176 0 49.0676 11.8816 583 107.214 1240.99 494.024
3177 0 50.1485 11.785 591 109.262 1241.17 491.11
3178 0 51.0676 12.8261 655 108.154 1241.19 489.907
3179 0 53.0082 13.696 726 107.003 1240.88 488.944
3180 0 54.0618 11.8938 643 112.523 1240.96 487.779
3181 0 56.0231 13.3159 746 108.606 1241.5 488.3
3182 0 56.0311 12.5109 701 112.551 1241.39 486.939
3183 0 58.0248 13.2185 767 111.486 1241.23 484.755
3184 0 60.0594 12.9039 775 112.239 1241.2 485.711
3185 0 62.0931 13.2865 825 111.978 1242 483.621
3186 0 63.0544 12.9412 816 114.104 1241.48 482.31
3187 0 66.1361 13.4873 892 113.587 1241.75 481.21
3188 0 66.0461 12.9455 855 115.717 1241.35 481.441
3189 0 71.1133 14.5261 1033 110.893 1241.56 480.835
3190 0 73.1367 13.3449 976 114.552 1241.77 479.265
3191 0 76.0719 13.6844 1041 114.549 1241.56 477.653
3192 0 76.0629 13.4231 1021 115.85 1241.46 477.653
3193 0 81.0578 14.064 1140 113.394 1241.93 476.759
3194 0 81.0314 13.6984 1110 115.916 1242.03 475.459
3195 0 84.1308 13.5147 1137 117.545 1241.45 472.163
3196 0 87.0726 15.757 1372 112.066 1241.63 472.355
3197 0 88.1581 13.7594 1213 118.391 1241.85 469.369
3198 1 51.1442 11.9075 609 117.103 1242.01 491.197
3199 0 48.1622 11.835 570 121.561 1242.27 489.888
3200 0 54.4032 13.9146 757 112.554 1243.52 488.145
3201 0 56.2737 14.3406 807 113.737 1243.11 486.995
3202 0 55.3352 13.7525 761 118.014 1243 485.941
3203 0 57.2313 12.8251 734 120.713 1242.89 486.207
3204 0 58.2646 14.3312 835 117.847 1242.89 483.932
3205 0 58.2789 12.8177 747 121.83 1243.05 485.643
3206 0 62.3787 14.5562 908 116.543 1242.85 484.08
3207 0 66.3217 13.9321 924 117.097 1243.23 482.648
3208 0 67.3487 15.1302 1019 115.269 1243.16 481.159
3209 0 69.2644 14.0909 976 118.623 1243.33 479.282
3210 0 71.2254 14.5875 1039 118.279 1242.88 479.674
3211 0 73.1985 14.5358 1064 117.977 1242.47 479.212
3212 0 73.3429 13.2255 970 123.229 1242.7 476.937
3213 0 78.209 14.1672 1108 118.997 1242.55 476.76
3214 0 79.2208 13.2289 1048 123.184 1241.59 475.159
3215 0 82.4048 14.8414 1223 119.823 1241.74 473.123
3216 0 87.2437 14.385 1255 120.849 1241.75 470.903
3217 0 88.3755 15.2192 1345 118.943 1241.89 471.752
3218 0 92.323 13.9619 1289 122.005 1241.96 468.857
3219 1 48.189 11.6209 560 124.616 1242.2 488.132
3220 0 49.1633 11.2686 554 113.861 1243.46 492.058
3221 0 50.1631 12.7384 639 112.089 1243.35 489.914
3222 0 51.109 12.4831 638 113.218 1243.66 488.306
3223 0 54.1392 12.671 686 113.015 1243.13 486.767
3224 0 55.125 12.1905 672 115.061 1242.85 487.601
3225 0 56.0745 12.1267 680 115.157 1243.49 486.6
3226 0 60.3154 11.1249 671 107.584 1242.77 484.213
3227 0 63.1783 13.5648 857 102.637 1243.34 482.586
3228 0 65.2428 12.8137 836 105.177 1243.21 480.067
3229 0 66.3902 12.6223 838 107.427 1242.82 478.675
3230 0 67.3126 12.6425 851 110.143 1243.29 480.075
3231 0 70.2105 13.2031 927 108.826 1243.02 479.453
3232 0 73.1914 13.8814 1016 107.398 1242.59 478.703
3233 0 75.1834 13.6466 1026 108.693 1242.73 477.19
3234 0 77.1546 13.2591 1023 111.177 1242.34 476.597
3235 0 81.3733 13.4688 1096 110.755 1243.11 475.723
3236 0 83.3264 11.881 990 113.957 1242.77 475.921
3237 0 88.2259 14.9616 1320 106.561 1243.19 470.847
3238 0 88.1458 12.4226 1095 113.519 1242.8 470.636
3239 0 93.2633 13.3171 1242 111.341 1242.95 468.664
3240 0 96.267 14.7922 1424 108.575 1242.85 465.315
3241 0 101.295 14.4134 1460 108.127 1242.97 465.941
3242 1 53.1695 12.1122 644 113.905 1243 487.978
3243 0 55.1734 11.5454 637 115.98 1242.89 487.083
3244 0 55.1941 11.994 662 118.9 1242.41 481.545
3245 0 58.1501 13.7747 801 114.025 1243.23 485.135
3246 0 60.2588 13.3756 806 114.634 1243.05 484.667
3247 0 60.2684 14.1699 854 113.618 1243.47 482.368
3248 0 61.1546 13.0325 797 116.502 1244.15 483.009
3249 0 67.2301 14.9784 1007 110.546 1243.68 481.588
3250 0 67.1844 13.2769 892 117.865 1243.06 479.563
3251 0 70.1381 13.6873 960 116.104 1243.94 479.812
3252 0 71.0861 13.0687 929 114.455 1244 477.978
3253 0 74.1732 13.064 969 114.162 1243.6 478.664
3254 0 78.2053 13.6947 1071 112.604 1244.13 475.603
3255 0 80.122 14.9772 1200 110.653 1243.79 474.233
3256 0 81.0719 13.6422 1106 115.162 1242.91 472.583
3257 0 84.1823 14.2073 1196 114.311 1243.46 471.973
3258 0 85.1325 12.7801 1088 122.802 1242.56 469.383
3259 0 88.0742 13.0799 1152 122.482 1243.51 467.993
3260 0 92.2448 14.5591 1343 118.301 1243.8 467.997
3261 0 93.2108 13.1852 1229 123.46 1243.08 466.277
3262 0 95.1502 13.7362 1307 123.178 1243.36 464.132
3263 0 102.338 14.0416 1437 121.621 1243.32 448.255
3264 0 105.409 13.1963 1391 122.855 1242.78 440.973
3265 0 107.262 12.903 1384 124.212 1242.59 442.127
3266 0 112.253 14.9306 1676 119.313 1242.51 436.418
3267 0 113.484 13.156 1493 124.855 1243.34 437.285
3268 1 61.1001 12.3731 756 116.619 1242.61 462.647
3269 0 63.1149 11.6613 736 119.023 1243.46 460.647
3270 0 67.3039 12.3321 830 118.453 1243.48 465.829
3271 0 66.2067 13.1558 871 116.309 1243.2 462.805
3272 0 71.1496 13.7176 976 111.204 1244.4 469.963
3273 0 71.1205 13.2451 942 113.679 1244.34 469.671
3274 0 74.2125 12.7202 944 113.238 1243.93 473.11
3275 0 78.3354 13.072 1024 111.989 1243.64 470.61
3276 0 79.1626 13.1881 1044 112.243 1243.62 470.204
3277 0 81.2452 12.6284 1026 114.118 1244.16 468.629
3278 0 84.2206 13.334 1123 113.277 1243.78 467.271
3279 0 87.1724 13.2955 1159 114.318 1243.87 466.67
3280 0 91.3084 13.6132 1243 113.062 1243.55 463.743
3281 0 94.384 13.8053 1303 112.45 1243.9 462.805
3282 0 96.1765 14.1719 1363 113.332 1243.75 461.335
3283 0 99.2214 13.868 1376 115.185 1244.09 458.294
3284 0 103.333 13.7614 1422 115.565 1243.72 457.111
3285 0 108.35 13.9456 1511 113.519 1244.16 457.025
3286 1 57.1013 10.5777 604 110.644 1244.33 486.419
3287 0 57.2145 11.3957 652 113.112 1244.37 481.742
3288 0 60.2393 11.5373 695 108.056 1242.99 475.934
3289 0 63.1121 12.1213 765 106.752 1243.92 473.715
3290 0 63.1066 11.0131 695 108.879 1244.11 472.167
3291 0 68.1705 12.1313 827 106.482 1243.65 472.054
3292 0 69.2228 11.8892 823 106.88 1244.14 471.479
3293 0 74.4031 11.8409 881 106.09 1243.97 470.135
3294 0 73.1336 11.3491 830 108.68 1243.37 469.642
3295 0 77.0722 12.1574 937 106.914 1244.13 471.049
3296 0 79.1107 11.8442 937 108.122 1244.7 468.652
3297 0 83.0749 12.3864 1029 105.823 1244.43 471.685
3298 0 86.0413 12.7729 1099 106.786 1243.89 468.451
3299 0 89.0947 12.9525 1154 106.218 1244.52 463.672
3300 0 92.128 12.3307 1136 108.848 1244.16 464.333
3301 0 96.1339 14.0013 1346 107.022 1244.85 463.452
3302 0 98.2439 12.0313 1182 112.226 1244.78 462.249
3303 1 54.1153 9.77543 529 112.329 1245.03 481.374
3304 0 56.1222 11.9917 673 108.068 1245.15 480.786
3305 0 59.0816 11.5603 683 107.047 1245.61 481.466
3306 0 60.1078 12.228 735 107.269 1244.16 481.758
3307 0 62.0462 12.1845 756 105.772 1244.94 484.262
3308 0 65.0338 12.7933 832 104.685 1244.92 481.357
3309 0 66.0291 13.1003 865 104.413 1244.57 479.405
3310 0 68.1527 11.4302 779 108.166 1245.15 477.927
3311 0 70.139 12.461 874 106.294 1245.06 476.562
3312 0 73.1341 13.4684 985 103.287 1245.1 477.788
3313 0 76.0909 14.2067 1081 102.678 1244.96 474.475
3314 0 79.201 13.1185 1039 105.598 1245.12 472.684
3315 0 82.1898 13.3715 1099 104.672 1245.09 473.546
3316 0 83.1224 12.2951 1022 107.768 1244.77 473.403
3317 0 86.0771 12.0473 1037 108.539 1244.84 470.627
3318 0 89.1795 12.0431 1074 107.284 1244.85 468.58
3319 0 90.1733 11.3337 1022 106.788 1244.59 463.65
3320 0 95.1539 12.2433 1165 107.467 1245 466.391
3321 1 49.0607 9.43729 463 111.778 1245.58 489.266
3322 0 53.2132 11.9331 635 106.49 1244.51 484.94
3323 0 54.2863 12.3972 673 105.762 1245.09 484.14
3324 0 52.1159 8.78811 458 117.072 1244.93 487.057
3325 0 57.1401 11.253 643 110.759 1244.84 485.383
3326 0 57.168 11.3175 647 111.389 1244.81 487.111
3327 0 60.1135 10.8794 654 111.746 1245.08 484.693
3328 0 63.082 12.0637 761 109.524 1244.95 483.922
3329 0 63.141 10.8012 682 113.221 1245.28 482.642
3330 0 67.1865 12.309 827 109.684 1245.06 480.414
3331 0 69.1517 10.7445 743 113.116 1245.24 478.557
3332 0 69.0615 11.5839 800 111.914 1245.14 479.673
3333 0 72.1694 10.9187 788 113.199 1245.07 478.745
3334 0 75.1188 11.5284 866 112.455 1245.48 477.758
3335 0 77.1627 11.6766 901 114.615 1244.69 474.253
3336 0 82.1226 13.078 1074 110.261 1244.77 474.295
3337 0 83.084 13.36 1110 110.087 1245.12 475.289
3338 0 88.1877 12.3713 1091 111.319 1245.14 474.886
3339 0 93.2232 12.5613 1171 111.222 1244.47 471.56
3340 0 94.1574 13.1588 1239 110.448 1244.09 470.502
3341 1 53.0622 12.3252 654 113.969 1244.5 490.58
3342 0 53.1256 13.3269 708 114.809 1243.23 490.655
3343 0 54.0321 11.9929 648 119.613 1241.15 489.083
3344 0 54.0347 13.5653 733 117.194 1241.29 486.996
3345 0 56.0761 14.0345 787 115.376 1241.01 486.826
3346 0 56.0374 13.3482 748 118.035 1241.47 486.667
3347 0 60.059 13.7365 825 115.165 1241.88 485.985
3348 0 62.0729 15.2079 944 111.14 1242.1 485.704
3349 0 64.0433 13.0381 835 115.856 1240.74 484.892
3350 0 64.03 12.7597 817 118.136 1241.16 483.591
3351 0 64.0643 12.2221 783 120.31 1242.05 482.272
3352 0 69.0338 12.8343 886 117.169 1241.44 481.28
3353 0 71.0918 12.0548 857 119.93 1241.67 480.14
3354 0 72.0439 11.8678 855 121.826 1241.71 479.16
3355 0 75.0984 12.9963 976 119.043 1241.59 477.438
3356 0 81.0739 10.99 891 122.183 1241.88 477.382
3357 0 81.1336 13.3484 1083 117.76 1241.91 475.826
3358 0 84.1036 12.8889 1084 118.256 1241.75 475.161
3359 0 87.0605 12.3707 1077 120.389 1241.3 473.447
3360 1 45.0993 12.8162 578 117.484 1241.39 491.022
3361 0 47.0883 13.1668 620 116.676 1242.46 491.235
3362 0 47.2875 13.3228 630 110.832 1242.22 491.317
3363 0 50.1018 13.7919 691 108.475 1241.66 491.003
3364 0 52.0976 13.6091 709 108.9 1241.88 490.879
3365 0 51.0852 13.037 666 112.438 1241.89 487.668
3366 0 54.1109 12.5668 680 111.268 1241.63 489.531
3367 0 56.1088 13.5986 763 109.474 1241.51 487.798
3368 0 59.0696 13.7634 813 109.058 1241.21 487.009
3369 0 58.0528 15.7787 916 105.785 1241.6 486.845
3370 0 62.0545 15.293 949 105.614 1241.64 483.981
3371 0 65.0988 13.0263 848 110.526 1241.68 483.598
3372 0 66.1183 14.6707 970 108.227 1242.01 480.195
3373 0 67.0313 14.5753 977 109.938 1242.37 483.188
3374 0 71.0674 14.5073 1031 109.911 1243.04 481.393
3375 0 74.0858 14.8476 1100 108.947 1242.12 479.885
3376 0 75.0917 14.6621 1101 110.673 1242.6 478.51
3377 0 76.0817 15.1679 1154 110.775 1242.25 478.823
3378 0 81.079 14.7757 1198 110.614 1242.31 476.785
3379 0 84.0843 15.6153 1313 108.793 1242.72 475.101
3380 0 87.0847 15.6974 1367 108.683 1242.62 473.67
3381 0 88.0881 14.5196 1279 112.257 1242.84 471.245
3382 1 48.0698 13.5636 652 115.521 1241.99 493.057
3383 0 46.0443 13.0526 601 118.809 1242.13 494.012
3384 0 48.0246 14.6383 703 114.572 1243.01 491.607
3385 0 52.0293 14.5303 756 112.939 1244.14 488.257
3386 0 52.0269 14.2234 740 114.235 1244.45 490.408
3387 0 51.0187 14.9161 761 115.171 1243.94 489.419
3388 0 53.025 14.6535 777 143.183 1242.93 489.111
3389 0 58.109 15.6258 908 111.416 1243.93 487.566
3390 0 58.1173 14.5396 845 115.561 1243.65 486.588
3391 0 61.1133 14.8904 910 114.73 1243.75 484.682
3392 0 62.2259 13.7403 855 118.951 1243.58 483.694
3393 0 65.1495 14.9656 975 116.84 1243.74 482.031
3394 0 66.0732 14.3931 951 118.894 1243.97 481.447
3395 0 68.0744 14.8955 1014 118.5 1243.93 481.169
3396 0 71.1819 15.7062 1118 116.58 1243.76 478.071
3397 0 75.2555 15.3477 1155 117.222 1243.24 478.008
3398 0 78.2283 15.3141 1198 115.436 1243.34 477.235
3399 0 79.2439 14.5248 1151 118.59 1243.43 474.679
3400 0 83.3882 14.1147 1177 118.841 1242.93 472.863
3401 0 86.3125 14.2737 1232 119.108 1242.53 470.643
3402 0 89.3486 14.9751 1338 117.848 1242.27 471.099
3403 0 91.1986 13.0813 1193 123.265 1242.28 469.36
3404 0 92.1628 13.4436 1239 123.485 1242.44 465.956
3405 0 96.1252 11.9324 1147 125.042 1243.49 467.021
3406 1 50.0912 11.7785 590 121.927 1244.12 490.551
3407 0 53.1034 11.6753 620 119.35 1242.6 485.455
3408 0 53.0717 13.1709 699 117.589 1242.94 484.514
3409 0 56.1211 12.6334 709 113.614 1242.88 483.02
3410 0 59.1346 12.5984 745 112.858 1242.8 482.74
3411 0 60.1378 12.2718 738 113.864 1242.48 481.022
3412 0 61.2625 12.3077 754 114.664 1242.8 480.182
3413 0 64.1739 12.9492 831 112.067 1242.73 480.291
3414 0 66.2612 12.0734 800 114.891 1242.93 478.53
3415 0 69.1942 12.4866 864 113.049 1243.38 476.872
3416 0 72.1467 13.7082 989 110.559 1243.1 475.644
3417 0 73.1689 12.1226 887 114.788 1243.43 474.552
3418 0 77.1655 12.8555 992 114.189 1243.01 470.057
3419 0 78.2465 13.0485 1021 114.91 1243.71 469.02
3420 0 83.2482 13.5018 1124 112.592 1243.76 467.979
3421 0 87.3352 12.8585 1123 114.032 1243.32 467.254
3422 0 87.2661 12.2614 1070 118.382 1243.17 465.668
3423 1 48.0515 10.5928 509 116.988 1245.29 492.183
3424 0 49.0728 11.1467 547 115.583 1244.88 492.428
3425 0 52.0981 11.2864 588 117.141 1244.89 490.073
3426 0 55.1486 12.9468 714 112.49 1244.01 489.036
3427 0 55.0865 12.6165 695 114.84 1244.58 486.529
3428 0 57.0896 14.3284 818 113.568 1244.75 485.675
3429 0 56.1087 12.8144 719 119.41 1243.92 484.95
3430 0 59.0131 12.5904 743 118.178 1244.56 483.847
3431 0 62.0871 14.8179 920 113.159 1244.63 483.002
3432 0 64.1532 14.933 958 112.254 1244.55 481.016
3433 0 65.0773 12.5236 815 117.201 1243.89 481.393
3434 0 69.0832 12.7238 879 117.027 1244.43 479.728
3435 0 71.0396 13.8092 981 113.785 1244.12 479.302
3436 0 72.0658 13.9733 1007 115.079 1244.27 476.813
3437 0 76.0858 14.6939 1118 112.397 1244.17 476.539
3438 0 77.0834 13.1027 1010 117.181 1244.2 475.67
3439 0 80.1573 12.8996 1034 117.319 1244.35 472.727
3440 0 83.0366 14.6321 1215 113.284 1244.34 472.279
3441 0 87.0939 15.4316 1344 110.996 1243.88 470.216
3442 0 89.0401 14.1958 1264 114.261 1243.53 469.938
3443 0 90.0628 13.3573 1203 117.255 1243.57 468.422
3444 0 95.3359 15.3143 1460 110.932 1243.18 465.736
3445 0 98.2216 14.0499 1380 113.859 1243.78 465.296
3446 0 99.2236 14.0995 1399 114.633 1243.83 463.364
3447 0 106.188 15.821 1680 108.809 1243.72 461.751
3449 1 55.1644 12.5081 690 113.388 1243.73 485.393
3450 0 56.0989 11.9789 672 111.356 1242.92 485.371
3451 0 59.1083 13.5176 799 108.235 1242.87 483.812
3452 0 61.1102 12.6166 771 108.913 1243.25 487.1
3453 0 64.1031 13.0259 835 109.285 1243.5 484.008
3454 0 66.1799 13.146 870 109.309 1243.7 483.84
3455 0 69.2173 12.8725 891 112.393 1243.26 475.397
3456 0 71.2275 12.2986 876 114.514 1242.92 478.16
3457 0 74.2047 13.7188 1018 111.948 1242.87 477.928
3458 0 77.3361 13.9004 1075 111.433 1243.06 476.49
3459 0 80.1777 14.7298 1181 109.972 1243.29 476.032
3460 0 83.3381 13.3432 1112 113.021 1243.58 476.352
3461 0 84.2906 13.7501 1159 113.931 1243.3 472.506
3462 0 88.3612 13.773 1217 113.717 1242.9 472.573
3463 0 91.1702 13.7545 1254 114.011 1243.49 470.801
3464 0 94.2684 13.504 1273 114.324 1242.57 470.224
3465 0 97.1366 13.7024 1331 114.056 1242.25 467.223
3466 0 97.2059 11.4191 1110 119.442 1242.28 467.076
3467 0 104.173 14.0631 1465 112.921 1242.05 464.168
3468 1 55.1728 11.8899 656 114.473 1240.95 487.613
3469 0 57.1253 12.5163 715 113.811 1241.45 480.003
3470 0 58.115 12.3204 716 109.039 1241.78 482.472
3471 0 60.1246 12.9897 781 103.755 1241.89 479.419
3472 0 60.0826 11.9169 716 106.499 1242.61 482.937
3473 0 64.0987 12.746 817 108.169 1242.64 483.892
3474 0 65.0698 12.6172 821 109.018 1242.75 482.685
3475 0 67.1477 13.8054 927 106.387 1242.67 480.016
3476 0 71.1702 14.3881 1024 104.5 1243.04 479.627
3477 0 71.1473 12.439 885 106.358 1242.69 477.806
3478 0 75.2771 13.5234 1018 103.689 1242.6 475.769
3479 0 76.1493 12.3704 942 106.412 1242.88 476.648
3480 0 80.1077 13.8314 1108 103.694 1242.96 473.973
3481 0 82.1324 13.8678 1139 104.825 1243.03 472.8
3482 0 84.0977 13.3892 1126 106.452 1242.84 472.306
3483 0 89.1299 14.6864 1309 103.036 1242.76 472.127
3484 0 90.1099 14.1272 1273 106.237 1242.77 469.258
3485 0 92.1493 14.0424 1294 106.222 1242.93 471.349
3486 0 98.1117 15.2173 1493 103.75 1242.62 467.936
3487 0 100.174 13.8959 1392 107.51 1242.29 464.94
3488 0 102.202 13.1406 1343 108.827 1242.21 459.17
3489 0 105.24 13.2269 1392 108.532 1242.47 459.93
3490 1 56.1408 10.8299 608 112.569 1242.13 484.217
3491 0 60.1165 13.5903 817 116.247 1240.42 484.081
3492 0 60.0346 12.6261 758 118.453 1240.44 483.086
3493 0 65.139 14.2618 929 116.157 1242.22 483.297
3494 0 66.1956 14.5025 960 116.517 1242.38 482.027
3495 0 69.1286 14.5815 1008 116.59 1242.22 480.727
3496 0 71.1113 14.6109 1039 116.608 1242.35 480.192
3497 0 72.0833 14.8439 1070 117.646 1242.62 477.723
3498 0 77.1443 14.622 1128 117.782 1242.24 477.641
3499 0 76.1885 14.556 1109 119.861 1242.05 477.129
3500 0 81.1785 14.5112 1178 119.194 1242.47 474.598
3501 0 86.2808 15.4727 1335 116.063 1242.41 473.512
3502 0 87.1387 14.2531 1242 120.206 1242.79 472.256
3503 0 89.2534 14.7333 1315 119.141 1243.07 471.779
3504 1 49.1117 13.1944 648 120.285 1242.64 491.409
3505 0 51.0594 12.9849 663 119.179 1242.27 490.493
3506 0 53.1365 13.9452 741 117.127 1241.81 489.521
3507 0 53.1278 13.0628 694 120.952 1241.53 484.589
3508 0 56.0197 13.2275 741 120.323 1241.19 483.848
3509 0 58.0921 14.1672 823 118.256 1241.66 483.701
3510 0 57.0631 13.7742 786 119.379 1241.5 485.945
3511 0 62.1848 14.1031 877 118.152 1241.26 481.608
3512 0 62.0615 13.2127 820 120.268 1240.67 482.235
3513 0 65.0715 14.0768 916 118.885 1241.16 479.535
3514 0 68.0617 15.1774 1033 115.182 1240.88 480.315
3515 0 69.1115 15.5112 1072 115.636 1240.63 478.09
3516 0 72.1749 14.5064 1047 116.483 1241.44 478.349
3517 0 73.1182 14.3877 1052 119.135 1241.52 479.038
3518 0 77.0655 14.8315 1143 117.518 1241.8 475.66
3519 0 80.1505 15.4335 1237 116.411 1241.54 475.704
3520 0 80.1367 13.3272 1068 121.228 1242.05 476.272
3521 0 83.0896 13.9608 1160 120.576 1241.91 473.257
3522 0 87.1917 13.2811 1158 120.511 1241.74 472.854
3523 0 90.0608 13.2355 1192 120.333 1242.07 471.303
3524 1 48.0548 12.7979 615 111.467 1243.18 489.992
3525 0 49.0296 12.7474 625 114.632 1242.77 489.242
3526 0 52.0369 13.4135 698 111.57 1243.06 489.062
3527 0 53.0972 13.9367 740 111.209 1242.77 487.803
3528 0 55.0476 13.3157 733 112.685 1242.8 486.81
3529 0 57.0624 13.6342 778 110.584 1243.09 486.456
3530 0 60.0543 14.67 881 107.482 1242.97 484.64
3531 0 61.1217 15.0519 920 106.518 1243.15 484.751
3532 0 65.0543 14.5417 946 107.021 1243.06 483.588
3533 0 66.1393 14.0461 929 109.097 1242.7 480.682
3534 0 68.132 13.5913 926 116.387 1242.45 481.017
3535 0 69.1379 14.0444 971 115.282 1242.64 480.551
3536 0 71.072 13.5919 966 113.464 1242.88 475.925
3537 0 73.0375 12.0486 880 117.014 1242.81 477.49
3538 0 77.0701 13.7148 1057 112.88 1243.05 474.553
3539 0 79.0852 13.1251 1038 114.968 1243.4 473.878
3540 0 82.2229 12.4783 1026 116.395 1243 472.494
3541 0 86.0983 14.5647 1254 111.853 1243.19 471.413
3542 0 88.1567 13.6348 1202 114.82 1243.06 471.219
3543 0 91.2093 14.5599 1328 113.675 1243.14 467.398
3544 0 93.2328 12.8066 1194 118.488 1243.03 467.799
3545 0 96.2196 13.6043 1309 117.163 1243.07 465.847
3546 0 97.3976 12.9264 1259 120.917 1243.36 463.002
3547 0 102.338 13.817 1414 119.216 1242.8 459.748
3548 0 108.235 14.4131 1560 117.032 1242.64 456.429
3549 0 111.417 14.1451 1576 118.616 1242.61 453.834
3550 0 117.477 14.7093 1728 117.444 1243.44 452.089
3551 1 63.1883 12.1542 768 117.828 1243.36 480.734
3552 0 64.3465 13.1942 849 117.441 1243.02 479.503
3553 0 67.0382 13.1418 881 119.454 1242.25 477.972
3554 0 70.1398 13.3448 936 119.204 1242.65 479.157
3555 0 71.0742 12.0719 858 124.766 1242.15 477.068
3556 0 78.2164 14.0635 1100 118.184 1242.95 474.731
3557 0 77.2985 13.2085 1021 122.452 1242.51 471.002
3558 0 81.2445 13.4532 1093 121.753 1242.33 472.864
3559 0 83.235 14.0806 1172 120.723 1242.82 470.014
3560 0 86.2231 13.6506 1177 121.695 1242.63 468.7
3561 0 90.5287 13.5868 1230 121.822 1242.29 466.467
3562 0 93.2973 13.3552 1246 123.484 1242.8 463.397
3563 0 97.3057 13.658 1329 122.595 1243.11 462.421
3564 0 100.296 13.9687 1401 122.819 1243.28 458.808
3565 0 104.271 13.4744 1405 123.591 1243.3 459.123
3566 1 55.304 10.8672 601 120.737 1242.85 484.582
3567 0 57.2193 12.7404 729 116.842 1242.87 481.44
3568 0 59.1723 12.7086 752 116.424 1242.93 482.29
3569 0 63.2279 13.6174 861 112.792 1243.2 480.949
3570 0 65.159 12.5539 818 116.072 1243.3 481.024
3571 0 68.1773 13.0982 893 114.85 1242.49 478.56
3572 0 70.1771 13.8222 970 112.881 1242.74 478.865
3573 0 71.2307 12.4385 886 117.63 1242.88 475.562
3574 0 74.106 13.2918 985 115.024 1242.41 473.099
3575 0 78.2022 14.3346 1121 111.995 1242.69 473.406
3576 0 80.3749 12.591 1012 114.574 1242.28 470.341
3577 0 81.17 12.1227 984 115.269 1243.16 470.871
3578 0 86.1655 12.9866 1119 112.387 1242.44 469.454
3579 0 89.0807 12.1463 1082 115.179 1242.82 466.45
3580 0 91.2404 12.2314 1116 114.518 1242.75 465.803
3581 0 96.1112 12.8393 1234 113.067 1242.93 465.951
3582 0 97.1576 12.3819 1203 119.584 1242.53 462.109
3583 0 103.384 12.7099 1314 119.651 1243.4 460.08
3584 0 105.26 11.7519 1237 124.782 1243.69 454.656
3585 0 108.151 11.2898 1221 120.002 1242.6 459.337
3586 0 110.166 10.4661 1153 120.462 1242.62 459.398
3587 1 57.0567 12.1809 695 112.19 1242.3 481.816
3588 0 60.093 12.6138 758 110.161 1242.58 481.358
3589 0 63.083 12.4598 786 109.603 1242.7 479.397
3590 0 64.0608 11.9262 764 111.001 1242.78 478.533
3591 0 67.0969 13.3985 899 107.534 1243.08 478.297
3592 0 69.0783 12.4641 861 108.85 1243.5 477.326
3593 0 72.1576 13.5537 978 106.896 1242.68 475.955
3594 0 75.1048 13.7541 1033 105.933 1243.27 475.38
3595 0 78.1148 12.328 963 109.893 1242.58 472.097
3596 0 79.118 13.1196 1038 107.921 1242.76 473.23
3597 0 81.1439 12.2498 994 110.459 1243.04 468.936
3598 0 82.1436 11.0903 911 112.966 1242.56 470.878
3599 0 87.1474 12.9551 1129 108.625 1242.85 468.718
3600 0 89.1631 12.9089 1151 109.566 1243.13 466.714
3601 0 91.0557 12.0695 1099 111.395 1242.9 467.804
3602 0 95.1102 12.3646 1176 110.155 1242.68 465.606
3603 0 97.1637 11.5475 1122 112.039 1242.72 465.057
3604 0 99.0582 11.2964 1119 113.007 1243.14 461.859
3605 0 104.135 12.0421 1254 110.049 1243.18 458.559
3606 1 59.1404 11.4981 680 109.681 1242.35 480.897
3607 0 60.1418 12.1712 732 110.333 1242.99 477.862
3608 0 63.1606 12.017 759 108.15 1243.85 474.765
3609 0 63.132 11.7532 742 111.91 1243.19 476.772
3610 0 67.1282 11.7685 790 111.346 1242.77 476.273
3611 0 72.2024 11.911 860 109.757 1242.5 476.501
3612 0 75.2494 14.6845 1105 104.2 1243.08 473.814
3613 0 75.1882 13.5128 1016 103.345 1242.72 472.792
3614 0 77.2408 12.7264 983 105.686 1243.01 471.14
3615 0 76.1523 11.9366 909 110.559 1243.18 469.235
3616 0 81.2091 12.3016 999 109.186 1243.14 470.426
3617 0 84.1495 13.7375 1156 106.743 1243.31 467.661
3618 0 90.1137 14.0378 1265 105.402 1243.69 467.102
3619 0 89.2439 12.886 1150 109.072 1243.56 468.033
3620 0 93.253 12.3213 1149 111.057 1243.79 466.579
3621 0 97.2891 14.1229 1374 107.263 1244.42 462.354
3622 0 99.2542 12.5133 1242 110.994 1244.61 461.04
3623 0 105.263 13.1196 1381 109.6 1245.35 458.876
3624 0 108.332 12.3048 1333 111.457 1245.49 459.574
3625 0 110.221 13.4276 1480 109.864 1245.08 457.764
3626 0 116.378 14.9169 1736 105.723 1245.4 456.086
3627 1 63.0683 11.3211 714 103.613 1245.7 486.588
3628 0 64.0692 11.7217 751 105.836 1245.55 483.176
3629 0 66.1291 12.899 853 98.0363 1243.25 482.651
3630 0 67.0926 13.1162 880 98.2307 1243.23 479.261
3631 0 71.1195 14.2717 1015 95.1222 1243.02 481.304
3632 0 73.0579 13.1813 963 97.6843 1243.67 480.011
3633 0 76.1163 14.0049 1066 95.8527 1243.85 477.42
3634 0 78.0874 13.7154 1071 97.4547 1243.47 476.172
3635 0 80.1217 13.2049 1058 98.0775 1242.83 476.552
3636 0 84.081 12.5355 1054 99.4478 1243.23 473.821
3637 0 86.0999 12.8455 1106 98.0045 1243.87 473.749
3638 0 89.1222 12.8026 1141 97.9833 1243.15 471.601
3639 0 91.1323 12.2459 1116 99.6819 1242.48 470.977
3640 0 95.2395 14.5633 1387 94.4888 1242.84 467.896
3641 0 98.1921 13.3412 1310 98.5794 1242.81 467.147
3642 0 100.099 14.5856 1460 96.3377 1242.94 468.177
3643 0 102.179 13.8091 1411 98.9093 1243.29 464.027
3644 0 106.156 13.2634 1408 99.3082 1243.07 465.747
3645 0 108.143 14.1756 1533 99.1324 1242.98 462.058
3646 0 113.217 14.3441 1624 98.625 1242.44 461.825
3647 0 116.153 13.8696 1611 100.613 1243.12 459.549
3648 0 119.134 15.0838 1797 99.7206 1242.68 459.702
3649 1 66.0444 11.0986 733 101.753 1242.61 480.988
3650 0 65.076 10.772 701 101.046 1243.49 474.064
3651 0 69.1859 12.3002 851 89.3643 1244.96 476.952
3652 0 72.1605 12.0703 871 90.5327 1244.09 476.528
3653 0 75.0881 11.8661 891 92.2323 1243.44 478.762
3654 0 79.1761 13.5015 1069 89.6277 1243.45 476.969
3655 0 81.0946 12.6396 1025 91.8712 1243.23 477.59
3656 0 81.1149 12.2912 997 93.335 1243.45 474.981
3657 0 86.1892 12.8903 1111 91.3168 1242.96 471.969
3658 0 89.1034 12.435 1108 92.0921 1243.41 476.681
3659 0 92.1294 14.1974 1308 89.542 1243.35 470.312
3660 0 94.1861 13.0805 1232 92.1193 1243.74 468.787
3661 0 96.1846 12.0705 1161 94.5909 1243 467.394
3662 0 98.2141 11.9331 1172 94.9667 1242.91 466.266
3663 0 101.18 13.817 1398 92.299 1243.15 461.863
3664 0 105.169 13.3689 1406 93.1287 1242.98 460.651
3665 0 107.334 11.7484 1261 97.8945 1242.6 458.966
3666 0 111.285 11.6188 1293 98.7796 1242.65 457.263
3667 1 60.1045 12.0457 724 93.9199 1241.81 482.804
3668 0 63.0906 11.0793 699 95.4006 1242.16 482.662
3669 0 65.1471 12.6022 821 92.0706 1244.04 487.136
3670 0 64.143 12.0668 774 95.646 1244.5 483.606
3671 0 65.1074 11.5041 749 97.8491 1244.25 482.991
3672 0 71.1793 11.9276 849 97.1001 1244.03 480.684
3673 0 71.1647 11.7755 838 98.4785 1244.59 482.205
3674 0 73.1903 14.1549 1036 95.1303 1244.25 481.471
3675 0 75.3001 12.7092 957 98.977 1244.05 479.04
3676 0 77.1597 12.2473 945 101.639 1243.91 479.55
3677 0 82.2526 12.7656 1050 101.366 1243.6 479.834
3678 0 82.2311 12.7081 1045 104.082 1243.06 477.078
3679 0 85.1476 12.4725 1062 106.103 1242.65 474.191
3680 0 86.2414 12.0128 1036 108.874 1242.94 473.662
3681 0 91.238 12.5058 1141 107.337 1242.89 474.039
3682 0 92.0826 13.7703 1268 106.856 1242.78 471.976
3683 0 95.2555 12.7972 1219 110.043 1242.27 469.672
3684 0 99.3241 13.9442 1385 108.035 1242.72 467.154
3685 0 101.185 13.2134 1337 110.633 1241.9 466.387
3686 0 105.289 13.2397 1394 111.001 1241.73 463.132
3687 1 57.2737 12.9029 739 108.57 1241.96 485.869
3688 0 57.248 12.7865 732 110.456 1241.48 485.519
3689 0 61.1962 13.6773 837 107.514 1241.77 482.689
3690 0 62.2874 13.5822 846 107.973 1242.2 483.13
3691 0 64.1409 14.3434 920 107.141 1242.14 485.249
3692 0 67.1393 13.3752 898 110.431 1241.36 484.549
3693 0 68.0894 14.0844 959 109.315 1241 482.452
3694 0 69.0833 13.2304 914 112.2 1241.47 482.975
3695 0 72.1312 14.5152 1047 109.841 1241.78 479.788
3696 0 75.1529 14.038 1055 111.682 1241.08 479.173
3697 0 76.1529 13.4729 1026 114.431 1241.58 479.66
3698 0 78.1113 13.3784 1045 115.387 1241.19 478.062
3699 0 81.1692 14.4267 1171 112.904 1241.16 477.339
3700 0 85.2141 13.8357 1179 113.481 1240.9 477.584
3701 0 88.1655 15.2441 1344 111.488 1240.83 472.886
3702 0 90.0899 14.7297 1327 113.28 1240.89 472.472
3703 0 92.3483 15.3657 1419 113.192 1241.17 469.947
3704 0 94.2667 14.756 1391 115.641 1240.9 468.366
3705 0 98.2309 14.5372 1428 116.716 1241.15 466.237
3706 0 102.256 14.6496 1498 115.335 1240.93 467.408
3707 0 104.317 14.0246 1463 117.848 1240.93 465.624
3708 0 109.093 14.9047 1626 115.557 1241.94 465.015
3709 0 114.398 15.1226 1730 114.691 1241.74 460.761
3710 1 62.1348 13.3581 830 118.62 1240.64 486.036
3711 0 63.0533 12.989 819 120.99 1242.7 485.966
3712 0 65.2261 13.5375 883 120.217 1242.85 482.436
3713 0 67.3773 14.8121 998 117.709 1242.19 481.161
3714 0 71.1726 16.3968 1167 113.257 1242.21 478.805
3715 0 72.2398 14.1473 1022 120.041 1242.04 477.336
3716 0 76.3034 14.3637 1096 117.219 1242.3 476.414
3717 0 76.2235 14.4444 1101 118.492 1242.47 476.534
3718 0 79.118 14.7628 1168 115.654 1242.43 472.664
3719 0 80.2963 13.8861 1115 118.186 1242.18 473.232
3720 0 83.2973 14.6343 1219 117.658 1241.6 469.276
3721 0 87.3324 14.9773 1308 116.079 1241.48 467.401
3722 0 87.3924 13.7312 1200 119.518 1241.96 469.882
3723 0 93.19 14.3148 1334 117.358 1241.76 468.573
3724 0 94.315 13.6564 1288 120.811 1241.62 465.548
3725 0 97.1864 14.9095 1449 117.46 1241.44 462.175
3726 0 101.154 13.8601 1402 118.657 1241.15 464.905
3727 0 103.153 14.5706 1503 118.792 1241.43 460.735
3728 0 107.152 13.6815 1466 119.589 1242.25 459.001
3729 0 110.217 14.1811 1563 118.794 1242.2 454.437
3730 0 116.16 14.4886 1683 117.187 1241.65 454.046
3731 0 119.3 13.7385 1639 118.725 1241.77 451.746
3732 0 123.242 13.3883 1650 119.136 1241.94 449.722
3733 0 128.171 13.0607 1674 118.783 1242.22 450.618
3734 0 133.216 13.3317 1776 118.184 1241.64 445.738
3735 1 72.1361 13.1002 945 118.956 1242.48 474.363
3736 0 71.1271 12.2176 869 123.12 1242.79 468.003
3737 0 79.1073 14.3855 1138 115.515 1242.1 471.792
3738 0 81.2335 16.5326 1343 109.036 1243.06 470.643
3739 0 81.2317 13.8739 1127 116.295 1242.44 468.134
3740 0 85.2387 14.4183 1229 115.594 1242.84 464.561
3741 0 88.253 14.3225 1264 115.892 1242.68 464.601
3742 0 90.1816 15.3468 1384 115.012 1242.46 462.152
3743 0 92.1992 14.1867 1308 118.605 1242.45 461.612
3744 0 93.1743 13.9845 1303 120.12 1242.53 458.026
3745 0 96.2779 14.5205 1398 118.98 1242.52 457.732
3746 0 101.15 14.6911 1486 118.024 1242.65 455.108
3747 0 105.231 14.4729 1523 117.926 1242.97 456.117
3748 0 107.286 15.0253 1612 118.019 1241.96 453.501
3749 0 112.12 15.1623 1700 116.937 1242.37 451.572
3750 1 63.0574 12.8613 811 118.56 1242.23 476.116
3751 0 63.2202 12.7016 803 121.147 1242.97 478.346
3752 0 67.1969 14.6287 983 115.46 1243.76 476.268
3753 0 69.1297 14.075 973 114.409 1243.83 474.853
3754 0 71.2238 13.956 994 114.668 1243.63 472.891
3755 0 73.1792 13.5968 995 116.024 1243.43 472.866
3756 0 73.1655 13.2303 968 117.741 1244.07 469.826
3757 0 78.2741 15.1008 1182 112.19 1243.74 468.856
3758 0 80.2976 14.4712 1162 114.417 1244.42 466.261
3759 0 83.2213 14.6597 1220 113.891 1244.36 466.366
3760 0 85.1681 14.4068 1227 115.732 1244.7 464.895
3761 0 87.1885 12.5819 1097 119.847 1244.38 465.606
3762 0 88.2015 13.6506 1204 118.626 1244.58 463.412
3763 0 92.3817 12.7081 1174 119.218 1244.5 464.869
3764 0 97.2443 13.8928 1351 115.834 1244.99 461.073
3765 0 101.221 14.3646 1454 113.946 1244.62 458.51
3766 0 103.236 13.8033 1425 115.66 1244.32 456.709
3767 1 53.1675 13.0343 693 118.72 1244.04 481.241
3768 0 56.1249 11.7951 662 122.101 1244.85 479.541
3769 0 57.2028 14.0028 801 116.777 1244.63 478.73
3770 0 60.1485 13.6329 820 117.657 1244.94 479.404
3771 0 62.2261 14.1902 883 115.78 1244.6 476.074
3772 0 60.1001 11.8303 711 123.855 1244.65 476.114
3773 0 63.2187 13.1449 831 120.625 1244.55 474.987
3774 0 67.1051 13.844 929 117.139 1245.09 473.407
3775 0 70.1982 13.8608 973 116.432 1244.95 472.364
3776 0 72.2106 13.3498 964 117.865 1245.43 471.48
3777 0 74.1551 12.5952 934 119.76 1245.29 469.882
3778 0 77.2414 12.6357 976 119.31 1244.68 470.359
3779 0 80.1778 14.2059 1139 116.419 1244.61 468.489
3780 0 83.1832 14.6784 1221 115.916 1244.57 465.793
3781 0 84.2277 14.4252 1215 117.33 1244.56 464.115
3782 0 88.2182 15.337 1353 115.333 1244.51 462.917
3783 0 90.0749 13.2778 1196 121.064 1245 461.933
3784 0 95.1786 13.5745 1292 119.322 1245 461.128
3785 0 96.2522 13.8386 1332 119.505 1245.19 458.419
3786 0 100.252 13.6856 1372 119.181 1244.94 457.628
3787 0 106.222 13.7824 1464 117.977 1244.69 454.85
3788 1 59.1028 12.6898 750 120.287 1244.7 477.303
3789 0 60.1591 12.7495 767 120.617 1244.18 473.622
3790 0 64.2351 13.4662 865 115.421 1244.35 475.675
3791 0 65.1765 13.1796 859 118.525 1243.87 473.488
3792 0 66.3195 12.862 853 121.797 1244.29 472.047
3793 0 70.1744 14.1505 993 119.387 1245.18 471.924
3794 0 73.1602 14.2837 1045 119.822 1244.39 471.258
3795 0 76.2304 15.1383 1154 118.685 1244.29 467.815
3796 0 78.3524 15.1878 1190 120.199 1244.4 467.55
3797 0 79.2948 14.6668 1163 123.764 1244.48 463.942
3798 0 84.3979 15.0833 1273 121.85 1244.69 465.449
3799 0 87.4845 14.9284 1306 123.673 1244.41 462.92
3800 0 92.4044 16.8607 1558 118.038 1244.29 462.091
3801 0 94.3664 16.3935 1547 120.662 1244.34 459.794
3802 0 97.3264 15.0422 1464 124.523 1244.69 459.436
3803 0 100.215 15.3571 1539 125.293 1244.33 457.314
3804 0 105.209 16.5005 1736 121.371 1244.66 455.182
3805 0 110.425 15.0871 1666 125.978 1245.15 454.282
3806 0 111.364 15.4628 1722 125.689 1244.2 451.958
3807 0 115.23 15.3866 1773 125.825 1244.61 451.461
3808 0 120.34 15.6474 1883 125.035 1244.47 449.781
3809 1 66.2028 12.0539 798 127.489 1244.55 476.115
3810 0 70.2135 12.2626 861 127.617 1244.11 473.304
3811 0 74.2235 12.9474 961 121.228 1245.28 477.282
3812 0 76.1993 13.6615 1041 118.305 1244.84 476.08
3813 0 78.2419 13.765 1077 118.583 1244.84 474.903
3814 0 82.2745 14.3909 1184 116.658 1244.43 472.535
3815 0 83.2139 13.3271 1109 121.515 1245.13 468.623
3816 0 87.3744 12.7955 1118 123.309 1244.53 469.382
3817 0 90.2389 13.7745 1243 124.082 1244.19 467.487
3818 0 93.3929 14.6264 1366 120.838 1244.37 465.662
3819 0 97.2968 13.5667 1320 122.361 1244.2 465.58
3820 0 100.372 14.4462 1450 121.527 1244.37 461.69
3821 1 53.1214 11.1819 594 116.8 1244.48 487.754
3822 0 54.2387 10.9516 594 118.591 1245.46 486.323
3823 0 58.0694 12.795 743 113.678 1245.2 485.779
3824 0 57.1875 12.0481 689 116.607 1244.43 486.469
3825 0 59.1412 12.2081 722 116.874 1244.38 485.06
3826 0 62.2196 13.5648 844 113.319 1245.11 482.137
3827 0 65.1906 13.008 848 113.321 1245.14 482.708
3828 0 65.298 13.0632 853 115.067 1244.5 479.396
3829 0 68.434 13.5313 926 112.748 1245.25 479.197
3830 0 70.328 13.8352 973 112.172 1245.22 477.583
3831 0 72.2787 14.0014 1012 112.43 1244.8 476.514
3832 0 74.3892 12.569 935 115.947 1244.56 475.503
3833 0 78.2713 13.1849 1032 113.649 1244.81 473.328
3834 0 81.2717 12.7966 1040 115.682 1244.78 473.783
3835 0 80.3692 11.7831 947 120.6 1244.69 470.862
3836 0 86.3634 12.0653 1042 118.916 1244.11 470.327
3837 0 88.354 11.9406 1055 119.488 1244.44 469.012
3838 0 92.3985 13.7773 1273 116.174 1244.76 467.15
3839 0 93.5075 13.1219 1227 118.56 1244.47 464.576
3840 0 97.4326 13.3323 1299 116.386 1244.53 466.269
3841 0 101.452 12.4492 1263 118.63 1244.57 463.854
3842 0 105.451 13.3426 1407 116.565 1245.03 461.628
3843 1 55.2282 12.0772 667 112.985 1245.09 486.081
3844 0 58.2085 11.9055 693 112.335 1245.55 484.886
3845 0 59.1718 11.1371 659 114.654 1245.02 483.152
3846 0 61.2531 12.3912 759 110.27 1246.07 483.241
3847 0 64.2273 12.3779 795 110.231 1245.59 479.635
3848 0 65.164 11.4327 745 109.69 1245.79 481.514
3849 0 69.1554 12.1032 837 107.424 1245.32 479.171
3850 0 71.2224 12.0047 855 106.658 1245.6 477.711
3851 0 74.2022 11.8999 883 106.643 1244.76 476.023
3852 0 76.1828 12.3256 939 105.613 1245.08 475.583
3853 0 80.2469 12.0254 965 108.477 1244.74 471.665
3854 1 159.434 12.5444 2000 112.01 1244.21 433.732
3855 0 167.363 13.7964 2309 108.727 1244.06 431.162
3856 0 172.344 12.4983 2154 109.604 1243.65 428.475
3857 0 178.692 12.8489 2296 109.641 1243.76 423.483
3858 1 140.245 12.7277 1785 109.699 1243.74 440.297
3859 0 145.39 12.1123 1761 109.806 1244.14 441.84
3860 0 150.382 13.0534 1963 108.531 1243.42 435.255
3861 0 154.342 11.9929 1851 108.891 1243.68 437.072
3862 0 159.433 13.04 2079 106.952 1244.04 432.068
3863 0 165.327 11.8311 1956 108.972 1243.72 430.62
3864 0 170.338 12.1229 2065 108.787 1244.01 425.058
3865 1 63.1382 12.7181 803 97.7821 1244.97 481.319
3866 0 64.063 11.8165 757 100.943 1244.85 475.597
3867 0 67.0137 12.4154 832 99.8894 1244.06 479.572
3868 0 69.1322 13.3368 922 98.0228 1242.7 478.644
3869 0 71.1283 12.2455 871 101.757 1242.65 477.037
3870 0 72.1756 11.7076 845 103.857 1242.48 474.357
3871 0 78.0984 12.6891 991 100.568 1242.35 476.268
3872 0 78.0689 14.0773 1099 99.0328 1242.33 473.111
3873 0 81.1495 14.4548 1173 98.1944 1242.31 474.118
3874 0 82.1165 13.1033 1076 102.327 1242.73 472.771
3875 0 87.2026 12.9813 1132 97.5212 1242.66 467.348
3876 0 89.1699 12.4257 1108 98.5713 1243.28 466.556
3877 0 91.1491 12.496 1139 99.9579 1242.74 463.409
3878 0 94.1602 11.799 1111 101.899 1243.43 462.902
3879 0 96.1307 12.9095 1241 101.099 1243.59 460.429
3880 0 101.078 12.0502 1218 102.691 1244.18 460.516
3881 0 102.083 13.5381 1382 99.1136 1243.73 460.365
3882 0 106.254 11.7078 1244 103.827 1243.61 455.494
3883 0 109.126 10.8956 1189 107.188 1244.12 458.123
3884 0 115.271 14.3055 1649 106.964 1243.88 459.431
3885 0 118.131 14.0438 1659 107.3 1244.16 456.43
3886 0 117.28 12.176 1428 111.557 1243.41 453.88
3887 1 67.2698 10.941 736 110.038 1242.51 476.236
3888 0 69.2329 10.5152 728 106.457 1242.5 476.019
3889 0 71.1995 12.2613 873 103.903 1242.74 473.629
3890 0 76.0549 12.0571 917 102.842 1242.66 473.481
3891 0 75.1125 12.3814 930 102.483 1242.19 471.469
3892 0 81.0974 13.1694 1068 100.319 1242.24 470.389
3893 0 82.0879 13.3272 1094 100.265 1242.07 468.09
3894 0 86.1141 12.5415 1080 102.403 1242.3 468.383
3895 0 88.1357 13.0707 1152 101.529 1241.6 465.819
3896 0 88.1485 12.9668 1143 128.172 1240.6 465.787
3897 0 92.0887 13.1938 1215 102.628 1242.1 465.833
3898 0 96.1316 13.3255 1281 102.531 1241.41 461.971
3899 0 97.0882 12.4835 1212 105.51 1241.35 462.899
3900 0 101.064 12.6257 1276 104.71 1241.27 458.633
3901 0 105.168 13.0362 1371 104.583 1241.55 461.045
3902 0 103.103 11.2024 1155 110.055 1241.98 457.334
3903 0 110.087 12.7173 1400 105.652 1241.84 458.534
3904 0 113.155 13.0883 1481 106.666 1242.12 454.62
3905 0 117.307 11.747 1378 107.684 1243.49 449.402
3906 0 119.337 12.1002 1444 107.382 1243.33 453.134
3907 0 124.29 13.5812 1688 108.632 1242.77 445.066
3908 0 131.399 13.9194 1829 104.516 1243.47 446.239
3909 1 74.0814 11.0149 816 96.4865 1242.71 478.811
3910 0 77.1506 10.5897 817 96.4088 1242.8 473.083
3911 0 77.1524 10.7968 833 98.7119 1242.78 472.228
3912 0 81.2453 12.2715 997 95.9539 1242.38 473.502
3913 0 85.1937 11.6206 990 97.6192 1242.93 466.625
3914 0 89.3555 12.8364 1147 94.6391 1242.75 469.778
3915 0 90.3337 13.1623 1189 95.4668 1242.87 464.17
3916 0 93.3177 12.077 1127 98.7666 1241.5 467.06
3917 0 96.2764 12.7549 1228 97.9862 1241.69 465.06
3918 0 100.269 12.8354 1287 97.2813 1241.7 464.631
3919 0 101.295 12.2218 1238 99.004 1241.79 462.854
3920 0 106.16 13.1029 1391 97.1258 1241.75 461.505
3921 0 109.286 12.8378 1403 98.8546 1241.35 454.687
3922 0 112.147 13.2237 1483 97.4444 1242.58 455.792
3923 0 115.172 13.189 1519 97.7841 1243.11 455.917
3924 0 119.138 12.1036 1442 99.3738 1243.61 458.331
3925 0 121.26 12.8072 1553 99.4688 1243.02 454.716
3926 0 125.167 12.1758 1524 101.704 1242.76 449.142
3927 0 130.239 12.1546 1583 101.87 1242.91 450.791
3928 0 136.183 12.821 1746 100.981 1242.66 448.593
3929 1 76.1369 7.47338 569 104.337 1243.21 476.838
3930 0 82.2162 12.0657 992 100.92 1242.59 471.843
3931 0 85.1358 11.5345 982 104.969 1243.21 468.705
3932 0 86.1299 10.7744 928 107.241 1243.72 471.268
3933 0 88.0926 12.9523 1141 103.716 1244.06 469.776
3934 0 92.0564 12.992 1196 104.419 1243.78 466.556
3935 0 94.0541 13.0138 1224 105.057 1243.61 463.745
3936 0 98.0747 14.1525 1388 103.532 1243.68 463.586
3937 0 101.053 12.914 1305 105.88 1243.62 462.507
3938 0 103.123 12.936 1334 107.025 1243.31 460.581
3939 0 105.131 11.4904 1208 111.102 1243.92 458.604
3940 0 110.168 13.6428 1503 106.568 1243.44 458.897
3941 0 112.3 13.9091 1562 106.613 1243.5 455.698
3942 0 116.094 13.1532 1527 108.671 1243.04 454.292
3943 0 119.111 11.7705 1402 111.904 1243.41 455.755
3944 0 124.157 13.8856 1724 107.912 1242.98 452.187
3945 0 127.087 12.6606 1609 110.879 1242.87 451.559
