time division length width area intensity CMx CMy
0 0 120.24 12.1175 1457 90.9691 1340.08 441.058
1 0 122.281 12.2832 1502 91.4334 1340.06 438.188
2 1 61.3221 9.93117 609 92.7586 1339.82 467.205
3 0 66.1126 12.3426 816 90.7328 1340.6 465.162
4 0 67.1389 11.4539 769 91.2653 1339.94 467.544
5 0 72.0551 11.9908 864 87.5 1340.05 465.341
6 0 76.0919 12.3929 943 86.0021 1340.09 465.187
7 0 77.1531 12.715 981 86.3955 1339.7 464.64
8 0 80.073 13.3128 1066 86.1238 1340.15 460.914
9 0 83.0825 13.1797 1095 86.5763 1340.35 459.571
10 0 85.1086 12.6074 1073 87.4772 1340.08 458.25
11 0 90.1274 13.4365 1211 86.109 1340.18 457.754
12 0 91.2185 12.4865 1139 88.9315 1341.98 455.239
13 0 94.1182 13.3555 1257 85.4718 1341.42 455.568
14 0 99.157 13.0803 1297 91.0069 1341.82 455.214
15 0 101.166 12.1978 1234 92.0284 1341.57 452.077
16 0 104.245 11.5305 1202 90.7621 1341.45 448.394
17 0 110.128 12.7761 1407 88.5942 1341.79 446.949
18 0 113.117 12.2882 1390 89.6043 1341.67 445.278
19 1 56.1106 10.711 601 84.1464 1342.53 469.644
20 0 58.1375 9.28833 540 85.3907 1342.16 467.743
21 0 61.0755 10.2496 626 84 1342.75 465.39
22 0 64.141 10.9758 704 82.2372 1342.66 466.061
23 0 67.1668 11.3151 760 82.3303 1342.88 465.471
24 0 70.0798 11.6439 816 82.5797 1343.1 464.576
25 0 72.1062 11.9407 861 83.5412 1342.37 462.768
26 0 75.1336 12.6308 949 83.2455 1342.39 461.648
27 0 76.0767 10.4368 794 86.6259 1343.09 461.912
28 0 79.1439 11.0684 876 86.3002 1342.79 460.095
29 0 79.1439 11.1316 881 132.529 1341.8 460.07
30 0 83.1703 10.1719 846 91.6998 1342.43 454.563
31 0 83.1703 10.1118 841 144.446 1343.44 454.614
32 0 91.1435 11.8165 1077 88.974 1342.16 454.038
33 0 92.3214 11.8499 1094 90.0018 1342.34 449.273
34 1 48.1286 9.53696 459 84.8736 1343.2 475.586
35 0 53.147 10.6309 565 83.3628 1342.93 473.657
36 0 51.1685 10.8661 556 84.1565 1342.76 473.088
37 0 54.1133 11.3835 616 83.5244 1342.67 471.089
38 0 57.0822 11.282 644 84.4193 1341.24 473.561
39 0 59.0842 13.1338 776 81.1804 1341.33 472.152
40 0 59.086 11.0686 654 85.3746 1341.3 469.353
41 0 62.0545 10.5875 657 85.898 1341.5 471.099
42 0 63.0524 11.5777 730 85.0192 1341.12 470.827
43 0 68.1078 12.7739 870 82.3529 1341.92 468.986
44 0 69.1311 12.4401 860 82.8372 1342.05 467.272
45 0 68.1144 10.5558 719 87.0362 1341.43 465.188
46 0 72.0444 12.4506 897 83.961 1341.88 467.305
47 0 74.1432 11.4373 848 85.8373 1340.92 463.323
48 0 79.1347 13.0411 1032 83.499 1341.83 462.672
49 0 78.0655 12.4127 969 86.097 1341.5 461.873
50 0 81.0853 12.345 1001 86.5904 1341.45 459.826
51 0 85.1677 13.8081 1176 83.3427 1341.8 458.09
52 0 86.141 11.574 997 88.5687 1341.04 457.801
53 0 88.2332 12.0703 1065 87.893 1341.53 455.217
54 0 92.1624 12.5322 1155 88.9619 1341.13 454.745
55 0 93.1609 11.303 1053 93.8917 1341.5 455.832
56 1 49.1063 11.7093 575 86.473 1341.09 477.492
57 0 52.037 12.0876 629 85.7933 1341.1 476.331
58 0 52.0809 10.4645 545 88.6569 1341.41 475.855
59 0 54.0442 11.7496 635 93.7244 1340.76 474.513
60 0 57.0606 12.0223 686 98.6181 1340.86 472.157
61 0 61.0335 13.5991 830 94.906 1341 471.426
62 0 60.0844 12.8153 770 97.4455 1340.93 470.423
63 0 63.0259 12.8995 813 98.2079 1341.04 468.926
64 0 65.0351 12.0397 783 99.3997 1341.5 467.33
65 0 66.0773 11.7287 775 100.203 1341.51 468.334
66 0 71.0666 13.1004 931 96.8668 1340.77 466.323
67 0 73.0357 13.7193 1002 95.6477 1341.33 464.525
68 0 74.1474 12.4077 920 99.5544 1341.31 462.382
69 0 76.0779 13.4993 1027 96.9776 1341.3 462.873
70 0 79.1141 13.55 1072 96.4188 1341.25 463.274
71 0 82.1694 11.7805 968 99.5775 1341.49 462.123
72 0 81.1586 13.2334 1074 97.8203 1342.27 460.293
73 0 85.1658 13.9727 1190 95.4487 1342.13 459.405
74 0 88.0725 13.2959 1171 96.7891 1342.12 459.572
75 0 87.1979 13.3948 1168 99.0428 1341.9 454.402
76 0 92.12 12.7334 1173 100.686 1342.18 453.222
77 0 94.1074 12.5282 1179 101.366 1341.69 453.995
78 0 99.1283 14.0727 1395 98.2122 1341.98 451.653
79 0 101.179 12.384 1253 101.466 1342.29 450.176
80 0 106.21 13.9252 1479 100.056 1342.44 447.752
81 0 102.188 12.3792 1265 103.905 1342.58 445.243
82 1 54.1123 11.7903 638 89.3433 1342.36 466.694
83 0 57.2067 12.5685 719 89.2114 1341.92 466.433
84 0 55.1178 10.7043 590 85.5983 1342.01 466.166
85 0 59.1192 10.0982 597 86.7521 1342.41 464.41
86 0 57.1421 10.6226 607 88.5914 1341.9 460.928
87 0 62.0474 10.2502 636 87.1965 1341.94 462.998
88 0 64.042 12.2732 786 84.1908 1342.48 462.561
89 0 72.093 12.3036 887 89.9921 1342.43 469.161
90 0 72.0692 10.476 755 93.1603 1342.73 466.873
91 0 78.1142 12.6738 990 89.1252 1342.28 465.561
92 0 79.1199 12.0071 950 92.1884 1341.94 462.949
93 0 81.2278 11.4616 931 94.725 1341.47 462.896
94 0 83.102 13.2127 1098 91.479 1342.41 460.502
95 0 87.2708 13.143 1147 91.286 1341.58 459.432
96 0 88.2215 12.3779 1092 92.022 1341.89 460.244
97 0 91.1235 11.1826 1019 94.9804 1342.42 456.169
98 0 93.3067 12.132 1132 93.9505 1342.04 455.839
99 0 103.187 15.3605 1585 81.9009 1342 449.689
100 0 100.36 12.9434 1299 84.9523 1341.82 449.483
101 0 103.3 12.9816 1341 86.5399 1341.16 450.765
102 0 109.228 12.1763 1330 87.0759 1341.64 450.423
103 0 112.124 14.0559 1576 84.9664 1341.66 447.928
104 0 115.165 13.6413 1571 86.1349 1341.65 445.531
105 1 63.0932 13.7416 867 82.7301 1342.02 469.896
106 0 62.1018 10.4667 650 84.0338 1341.39 471.183
107 0 65.0936 10.4465 680 80.9176 1341.58 466.651
108 0 65.1112 11.9795 780 80.2141 1341.32 462.964
109 0 68.0793 11.942 813 80.8536 1341.41 463.172
110 0 73.2419 12.6703 928 78.9515 1340.95 464.5
111 0 71.0816 11.4376 813 83.1205 1341.27 460.477
112 0 75.1668 12.9445 973 81.4861 1340.97 461.163
113 0 80.1595 12.525 1004 82.4044 1340.85 459.863
114 0 82.1454 12.8431 1055 83.528 1341.27 457.554
115 0 84.2051 13.3127 1121 83.959 1340.67 455.73
116 0 85.3391 11.261 961 87.6119 1340.62 455.388
117 0 87.1523 11.4627 999 89.1051 1340.49 452.992
118 0 94.1101 14.228 1339 84.0657 1340.63 454.536
119 0 94.1381 12.5135 1178 88.3302 1340.92 450.211
120 0 98.1795 12.5179 1229 89.3214 1340.51 447.745
121 0 101.109 12.3628 1250 90.4584 1340.84 449.428
122 0 105.156 12.3341 1297 92.4773 1339.89 445.865
123 1 55.0919 8.16817 450 93.0422 1340.64 468.22
124 0 57.0528 9.46491 540 88.7333 1340.78 468.115
125 0 61.1953 11.4224 699 86.7883 1340.03 475.363
126 0 64.1036 10.9978 705 85.6298 1340.45 472.694
127 0 63.0591 10.8311 683 85.9326 1340.19 472.956
128 0 66.1368 10.8563 718 85.0794 1340.35 471.933
129 0 71.1814 10.691 761 84.8555 1340.4 470.85
130 0 73.1484 13.4931 987 79.9747 1341.51 468.85
131 0 74.0809 11.6224 861 83.417 1342.18 465.992
132 0 77.2503 9.94171 768 84.2344 1342.08 468.335
133 0 82.1419 13.781 1132 79.7844 1341.81 463.389
134 0 82.1799 11.0246 906 84.5949 1341.33 464.827
135 0 85.2072 11.9121 1015 84.4365 1341.12 461.394
136 0 89.1746 13.5465 1208 82.4917 1341.14 458.189
137 0 91.1883 9.56263 872 88.7706 1341.04 459.557
138 0 96.1591 13.7584 1323 83.059 1341.38 455.3
139 0 96.118 13.2233 1271 84.9701 1341.34 455.415
140 0 98.1637 11.4299 1122 90.7736 1340.98 450.623
141 0 103.257 12.9192 1334 88.407 1341.26 451.495
142 0 104.107 10.5757 1101 92.5322 1340.13 448.803
143 0 110.372 11.0172 1216 92.6702 1340.14 448.336
144 0 113.172 11.3014 1279 92.6482 1339.8 442.826
145 1 60.0895 10.1016 607 85.4514 1339.69 471.789
146 0 63.2225 9.99643 632 84.0222 1340.69 468.155
147 0 61.0406 7.84723 479 89.9666 1340.78 460.916
148 0 63.1452 8.4567 534 88.9888 1340.67 459.474
149 0 70.227 11.6052 815 82.5902 1341.18 466.929
150 0 71.2096 9.32459 664 85.8961 1340.81 469.393
151 0 74.1206 10.2805 762 85.4186 1339.69 467.831
152 0 77.1351 10.9678 846 84.2719 1340.97 465.695
153 0 80.212 12.654 1015 79.802 1340.74 460.858
154 0 79.1814 8.92887 707 85.1188 1340.38 456.338
155 0 82.1212 7.82989 643 85.4806 1341.34 460.723
156 0 86.1332 10.0658 867 83.9343 1340.64 455.036
157 0 90.1476 10.5494 951 82.9274 1340.41 454.642
158 0 93.1427 10.8221 1008 83.9216 1339.42 452.578
159 1 47.3213 10.08 477 79.6834 1339.74 472.975
160 0 47.3213 10.0166 474 113.405 1339.75 473.181
161 0 52.0611 10.2572 534 78.1498 1340.17 469.466
162 0 52.0611 10.334 538 116.794 1341.18 469.472
163 0 53.1728 9.9487 529 80.4367 1339.83 466.779
164 0 57.2246 9.71609 556 80.6691 1339.76 466.838
165 0 57.3001 10.0349 575 80.5304 1339.77 468.181
166 0 63.49 12.4902 793 77.1551 1339.67 466.805
167 0 64.2025 12.6163 810 77.6728 1339.56 464.998
168 0 64.1066 10.5917 679 82.5228 1340.03 464.445
169 0 67.1193 10.9655 736 81.3886 1339.99 468.245
170 0 66.1941 10.1973 675 84.4726 1339.77 464.64
171 0 74.1174 13.2492 982 81.7342 1340.06 466.801
172 0 73.2033 11.8984 871 81.434 1339.89 465.092
173 0 75.253 12.2653 923 81.5374 1340.05 461.829
174 0 79.1002 11.3021 894 82.4374 1340.18 461.994
175 0 79.1052 10.3154 816 84.3848 1339.74 456.896
176 0 79.1052 10.2142 808 134.29 1339.77 456.865
177 0 86.2668 11.9977 1035 82.6908 1339.76 455.298
178 0 88.0996 12.361 1089 83.5445 1339.66 451.075
179 0 94.3459 13.0795 1234 81.6613 1340.37 450.817
180 0 98.1957 10.8151 1062 86.113 1340.07 451.795
181 1 51.1404 11.8106 604 79.5348 1340.01 474.677
182 0 52.1488 10.2974 537 84.0484 1340.05 470.408
183 0 51.0392 10.6193 542 81.8358 1340.38 470.14
184 0 54.0631 11.2646 609 80.6552 1340.61 470.493
185 0 56.2389 11.8601 667 80.1934 1340.41 470.415
186 0 58.1374 10.8192 629 81.3466 1340.35 471.157
187 0 61.1848 11.9637 732 79.1161 1340.65 468.739
188 0 63.1098 10.3312 652 81.4126 1340.66 467.187
189 0 65.1333 12.0829 787 79.2071 1340.26 468.103
190 0 67.1438 11.4083 766 80.9151 1340.5 462.654
191 0 71.1912 12.5156 891 78.7082 1340.37 461.818
192 0 77.1227 10.9306 843 87.0854 1340.42 464.654
193 0 74.0458 11.6144 860 82.6372 1340.5 456.75
194 0 78.2227 12.1576 951 82.6151 1339.83 454.176
195 0 81.2278 11.4123 927 84.2578 1340.31 455.063
196 0 84.2082 12.3147 1037 81.0791 1339.28 453.908
197 0 89.4455 13.3154 1191 81.1209 1339.58 452.184
198 1 46.1317 9.84139 454 80.7159 1339.94 471.709
199 0 48.1442 10.6139 511 82.3268 1339.41 470.413
200 0 50.259 11.978 602 93.8854 1340.23 469.588
201 0 51.0818 10.6692 545 81.1908 1339.43 470.512
202 0 54.1106 12.4929 676 76.1317 1340.5 474.723
203 0 56.218 11.989 674 76.6068 1341.24 472.798
204 0 57.2468 13.2759 760 76.429 1340.07 470.376
205 0 59.177 12.488 739 76.977 1340.18 473.48
206 0 58.2018 12.2505 713 79.0168 1339.45 471.592
207 0 60.2079 11.8423 713 79.4376 1339.95 471.102
208 0 61.1914 12.8122 784 79.2041 1339.71 468.339
209 0 65.1293 12.7746 832 78.0817 1340.7 470.582
210 0 67.1497 13.7752 925 77.7492 1340.75 467.482
211 0 71.1763 14.2885 1017 77.6844 1340.63 466.885
212 0 73.3705 13.0025 954 80.9161 1340.83 466.512
213 0 73.3634 11.7497 862 84.5731 1340.49 462.113
214 0 73.1768 11.3834 833 88.3001 1339.93 456.854
215 0 76.3711 12.5702 960 86.3438 1341.36 457.999
216 0 81.3234 13.5754 1104 86.5562 1341.33 456.929
217 0 84.3281 14.0167 1182 87.5897 1341.19 454.449
218 0 86.4515 13.094 1132 90.265 1340.26 455.084
219 0 86.4515 13.0246 1126 150.686 1339.27 455.131
220 0 92.2884 11.9842 1106 93 1340.71 451.085
221 0 96.3879 13.1137 1264 90.6978 1340.29 451.46
222 0 99.3282 13.2188 1313 90.8111 1340.86 450.829
223 0 102.433 13.9115 1425 90.6751 1340.39 446.232
224 0 107.452 14.6856 1578 89.9442 1340.32 443.394
225 0 110.319 12.763 1408 93.2763 1340.4 444.991
226 0 113.433 13.012 1476 94.3218 1340.08 442.913
227 0 118.383 14.3686 1701 93.1775 1339.58 439.399
228 1 61.037 10.3708 633 92.3681 1340.04 469.381
229 0 66.2582 12.3004 815 89.4687 1339.98 467.163
230 0 68.1795 12.6724 864 89.5012 1340.52 466.488
231 0 68.2509 11.3405 774 92.6886 1340.6 465.955
232 0 73.3431 12.7347 934 90.4443 1340.66 464.304
233 0 74.2326 11.8816 882 92.5386 1340.09 462.024
234 0 77.12 11.8906 917 91.3337 1340.71 464.386
235 0 81.1888 12.2308 993 90.9899 1341.27 461.896
236 0 84.1966 14.1336 1190 88.5941 1341.18 459.393
237 0 86.2242 12.1196 1045 92.778 1340.83 459.013
238 0 88.1457 11.9915 1057 93.8997 1340.38 456.035
239 0 90.126 11.5727 1043 94.9147 1340.41 456.447
240 0 95.1814 13.2484 1261 92.1007 1340.49 456.896
241 0 96.1138 12.5372 1205 94.649 1340.35 455.096
242 0 99.2433 13.2805 1318 94.1586 1340.39 451.234
243 0 103.194 13.7895 1423 92.9255 1340.47 451.223
244 0 105.144 13.9427 1466 93.178 1340.86 448.26
245 0 109.273 13.1963 1442 93.0284 1340.93 449.35
246 0 112.196 12.1484 1363 96.6801 1340.3 442.241
247 0 118.325 14.0546 1663 91.3434 1340.58 444.259
248 0 122.244 12.7204 1555 93.7987 1340.54 442.673
249 0 127.232 13.8252 1759 92.2274 1340.89 437.435
250 0 133.343 13.4241 1790 93.4536 1340.81 433.665
251 1 69.2517 12.4329 861 93.2509 1341.15 463.866
252 0 73.2062 12.8814 943 93.8547 1341 464.985
253 0 75.0896 12.1455 912 93.5954 1341.16 463.372
254 0 78.2013 11.6622 912 95.1349 1341.16 462.771
255 0 79.2304 11.6748 925 96.6562 1340.64 461.506
256 0 82.2551 13.3122 1095 94.6959 1340.73 457.496
257 0 84.2367 12.4886 1052 95.3745 1340.79 459.075
258 0 89.2032 12.8919 1150 94.0713 1340.4 458.736
259 0 89.2992 11.9374 1066 97.1351 1339.79 456.371
260 0 94.3697 14.4326 1362 92.7562 1340.48 452.356
261 0 95.1346 13.791 1312 95.3216 1340.47 453.492
262 0 99.3699 12.9415 1286 97.3779 1340.58 451.443
263 0 100.233 12.4111 1244 100.568 1339.9 446.573
264 0 107.354 14.2146 1526 95.4823 1340.01 448.572
265 0 110.223 13.4818 1486 97.9213 1340.48 445.174
266 0 115.269 13.2993 1533 98.1416 1339.69 443.629
267 0 120.387 14.2707 1718 96.9889 1340.4 442.599
268 0 124.221 14.1522 1758 98.1223 1340.16 438.629
269 0 127.552 13.1241 1674 100.27 1339.92 437.652
270 1 71.3238 13.1934 941 94.254 1340.59 466.348
271 0 72.3743 12.1728 881 97.3144 1339.53 462.6
272 0 75.2888 12.5384 944 98.643 1339.19 462.296
273 0 77.2588 12.4776 964 98.7894 1340.04 460.914
274 0 79.4991 12.1008 962 99.8514 1340.39 457.509
275 0 79.2149 11.7023 927 100.289 1340.39 457.759
276 0 84.2125 13.0147 1096 97.7774 1340.02 456.621
277 0 87.2147 13.3464 1164 96.3918 1341.06 453.828
278 0 89.1485 12.395 1105 98.3891 1340.23 452.654
279 0 92.2617 13.5484 1250 96.176 1340.21 451.58
280 0 93.2037 11.5768 1079 100.153 1340.22 451.015
281 0 99.2311 12.3852 1229 97.8202 1339.91 450.32
282 0 101.24 12.8112 1297 97.175 1339.5 447.607
283 0 99.2492 11.194 1111 95.2718 1339.94 448.714
284 0 103.272 11.1163 1148 94.6951 1339.51 447.149
285 1 57.0967 9.30002 531 90.8267 1341.39 467.386
286 0 53.0746 11.173 593 88.747 1340.45 458.782
287 0 55.0824 11.1469 614 76.5521 1339.85 460.438
288 0 59.0986 9.57722 566 78.0671 1340.17 458.572
289 0 58.119 9.15363 532 79.3252 1340.3 458.423
290 0 61.1163 10.7009 654 78.3868 1339.84 454.612
291 0 65.0652 10.1129 658 79.1064 1339.43 454.486
292 0 69.0908 10.0737 696 79.5963 1338.59 453.145
293 0 70.138 9.73795 683 80.2123 1338.84 454.243
294 0 77.1507 11.7432 906 76.8002 1339.33 453.189
295 0 79.1848 10.2292 810 79.337 1339.45 450.506
296 0 80.0661 11.5405 924 78.698 1338.65 451.914
297 0 86.1878 13.0413 1124 76.3639 1339.31 448.873
298 0 87.2108 12.8768 1123 76.772 1339.48 450.577
299 0 89.1794 10.5293 939 81.4026 1339.16 445.04
300 0 94.2341 10.4633 986 81.8063 1340.09 442.921
301 0 96.146 11.1185 1069 81.2563 1339.79 446.429
302 0 100.276 12.2163 1225 86.1714 1339.63 444.724
303 0 105.151 12.9338 1360 85.1904 1339.5 443.876
304 1 60.1177 10.7456 646 84.3607 1339.59 469.159
305 0 59.0843 7.00694 414 91.1111 1340.5 462.391
306 0 61.2042 10.1137 619 85.567 1340.74 463.601
307 0 63.081 10.2725 648 84.5309 1341.55 462.937
308 0 63.253 10.1655 643 85.0871 1341.38 461.35
309 0 68.1595 10.1233 690 84.5696 1341.5 459.11
310 0 72.064 11.8367 853 82.3962 1340.6 459.857
311 0 77.2618 11.0663 855 82.5719 1340.31 461.411
312 0 76.165 11.8952 906 82.5508 1340.49 461.146
313 0 79.1032 10.9604 867 84.9896 1340.84 459.525
314 0 82.0984 11.3766 934 84.4133 1340.09 461.437
315 0 85.2617 11.6934 997 83.1986 1340.66 457.794
316 0 89.1821 10.8206 965 85.2124 1340.7 456.193
317 0 94.2425 11.6083 1094 83.9241 1341.19 453.766
318 0 93.2123 12.8738 1200 82.0758 1341.07 453.368
319 0 96.2824 10.2407 986 85.9807 1341.03 453.239
320 0 98.3601 12.5661 1236 83.2589 1339.99 450.089
321 1 53.2635 10.0444 535 75.2935 1339.38 474.791
322 0 53.3091 10.0921 538 75.803 1339.79 471.483
323 0 54.131 10.9734 594 75.0387 1340.1 477.172
324 0 56.2251 9.83547 553 76.9855 1339.87 475.036
325 0 57.2319 10.4662 599 77.4457 1340.34 471.922
326 0 58.0613 9.79999 569 80.7416 1340.52 470.559
327 0 61.1138 10.3577 633 79.4171 1339.91 472.005
328 0 64.278 11.4347 735 78.2762 1340.81 468.241
329 0 66.2221 10.9178 723 78.6224 1340.52 468.964
330 0 68.0911 10.6916 728 80.3778 1339.75 467.764
331 0 68.3232 11.3871 778 79.8805 1339.94 463.988
332 0 74.3224 12.6611 941 77.4708 1339.99 462.384
333 0 74.2518 12.8212 952 77.8298 1339.76 462.938
334 0 78.345 10.8877 853 80.7773 1339.43 460.812
335 0 81.2826 12.4258 1010 78.5267 1340.28 460.636
336 0 83.3474 12.7059 1059 78.4183 1339.87 459.986
337 0 85.1558 11.8841 1012 80.332 1340.14 455.849
338 0 88.1649 13.0211 1148 78.9216 1339.75 456.462
339 0 90.3563 13.9116 1257 78.2299 1339.56 453.708
340 0 92.1774 11.109 1024 82.6738 1339.82 452.364
341 0 95.349 11.9351 1138 82.1696 1339.84 451.843
342 0 98.2714 10.99 1080 83.9991 1340.05 450.94
343 1 55.1027 10.8162 596 78.2081 1340.16 476.634
344 0 55.164 11.3661 627 80.1324 1340.31 475.459
345 0 58.324 10.5103 613 79.8956 1340.57 475.002
346 0 59.1901 12.5021 740 78.0527 1340.56 473.297
347 0 60.2245 13.1342 791 78.1112 1341.42 471.469
348 0 63.4536 11.2523 714 81.8571 1341.06 470.774
349 0 66.3187 12.1534 806 81.4082 1340.87 470.872
350 0 68.3113 12.7358 870 81.1586 1340.98 467.414
351 0 67.1265 10.3089 692 84.7153 1340.96 468.075
352 0 69.1781 11.0584 765 83.6288 1340.68 468.409
353 0 72.2779 11.0684 800 84.71 1339.99 466.025
354 0 76.4849 12.3685 946 82.0106 1340.89 462.257
355 0 78.3295 13.1879 1033 80.5866 1341.31 464.776
356 0 81.5558 12.4823 1018 82.1297 1341.28 461.281
357 0 84.354 12.9929 1096 81.9243 1340.78 458.901
358 0 87.2701 11.3326 989 84.1203 1340.88 458.943
359 0 89.3802 12.6314 1129 82.5589 1341.07 458.864
360 0 94.2122 13.321 1255 82.4494 1340.57 456.324
361 0 97.2439 14.3042 1391 81.8045 1340.75 454.268
362 0 99.2092 13.4463 1334 84.8321 1340.83 449.272
363 0 103.141 14.5723 1503 83.9108 1341.23 452.217
364 1 52.2464 10.2399 535 82.9196 1341.01 479.232
365 0 53.2562 11.6794 622 83.5772 1341.44 476.125
366 0 54.2451 11.7246 636 84.0252 1342.07 476.325
367 0 54.2186 10.5683 573 86.8604 1340.93 474.531
368 0 59.0405 12.0087 709 84.7433 1340.83 473.444
369 0 58.1517 11.6076 675 86.6326 1340.41 473.695
370 0 63.2604 12.8042 810 83.6037 1340.96 474.312
371 0 64.1462 12.0194 771 85.5551 1341.39 473.406
372 0 67.1572 12.091 812 87.0086 1340.24 471.837
373 0 67.332 14.0646 947 85.1732 1340.83 469.638
374 0 70.3427 12.9793 913 86.1052 1340.79 471.104
375 0 74.0786 13.3372 988 86.92 1340.66 466.905
376 0 75.0746 12.1879 915 90.2634 1340.78 464.522
377 0 79.181 12.7808 1012 91.4081 1338.61 462.08
378 0 81.2823 13.8406 1125 89.9476 1339.12 461.738
379 0 83.301 13.7453 1145 92.1249 1338.84 459.518
380 0 90.2651 12.7292 1149 92.5387 1339.2 458.963
381 0 90.1986 14.0246 1265 91.8624 1338.91 457.128
382 0 92.2454 14.4723 1335 92.7333 1339.43 456.103
383 0 93.1937 14.8401 1383 93.5488 1339.72 453.841
384 0 96.1728 14.4531 1390 93.7403 1339.4 456
385 0 101.202 14.5847 1476 94.6599 1338.98 452.179
386 0 102.226 14.2821 1460 96.3404 1338.6 449.172
387 0 104.264 12.8903 1344 98.192 1338.66 451.615
388 0 111.176 14.4186 1603 94.8989 1338.77 447.596
389 0 112.284 13.9735 1569 97.0803 1338.79 447.025
390 0 118.379 14.4789 1714 96.0344 1338.72 444.589
391 0 117.302 14.6374 1717 97.4135 1338.52 441.639
392 0 123.242 15.1653 1869 96.0556 1338.47 439.418
393 0 125.276 14.919 1869 97.0792 1339.03 438.397
394 0 128.126 14.0097 1795 99.9153 1338.75 433.774
395 0 133.377 14.2229 1897 98.8687 1339.08 432.744
396 0 137.23 14.8292 2035 98.5351 1338.79 429.685
397 0 142.238 14.996 2133 98.662 1338.52 429.617
398 0 145.324 15.8336 2301 97.3333 1338.12 428.134
399 0 151.39 16.1239 2441 97.4363 1338.56 424.181
400 0 152.24 14.8319 2258 101.116 1338.29 418.821
401 0 158.26 15.3734 2433 100.97 1337.91 417.24
402 0 167.252 15.1388 2532 100.351 1338.37 418.115
403 0 168.157 14.873 2501 102.139 1338.37 414.333
404 0 177.38 15.8305 2808 99.6806 1338.97 409.295
405 0 183.177 16.798 3077 97.5778 1338.76 406.178
406 0 191.202 16.3963 3135 98.4054 1338.3 402.575
407 0 197.266 16.5208 3259 98.1988 1338.66 398.688
408 0 200.268 15.2645 3057 101.748 1338.52 398.021
409 0 210.417 15.6309 3289 100.991 1338.09 393.587
410 0 216.524 14.4234 3123 103.142 1338.49 394.008
411 0 223.247 14.5355 3245 102.681 1338.36 393.763
412 1 174.245 14.5714 2539 105.809 1338.97 409.087
413 0 182.226 15.1405 2759 104.867 1338.94 402.184
414 0 190.271 15.2467 2901 104.397 1338.8 401.275
415 0 196.331 15.0868 2962 105.528 1338.4 397.364
416 1 130.2 12.9723 1689 106.551 1338.74 429.309
417 0 134.135 12.7185 1706 107.435 1339.02 426.535
418 0 139.163 13.0926 1822 106.453 1338.85 425.458
419 0 141.136 12.8245 1810 109.473 1338.36 418.506
420 0 145.182 12.9768 1884 108.503 1338.7 415.924
421 0 150.155 13.5194 2030 107.474 1338.45 415.592
422 0 153.253 13.096 2007 107.029 1338.88 415.653
423 0 160.209 12.5274 2007 107.328 1338.42 413.925
424 0 165.163 13.8167 2282 105.862 1338.71 408.877
425 0 167.161 13.1849 2204 107.211 1338.79 405.551
426 0 172.261 12.9048 2223 107.368 1338.79 401.503
427 0 181.335 14.4208 2615 103.779 1338.65 402.229
428 0 187.49 12.95 2428 106.64 1338.13 397.323
429 0 193.22 14.2014 2744 104.596 1337.85 391.762
430 0 201.367 13.4083 2700 104.692 1338.48 392.862
431 1 213.627 13.3316 2848 104.347 1338.18 385.558
432 0 219.352 13.0886 2871 105.815 1337.82 380.608
433 0 231.455 14.4261 3339 101.787 1337.81 381.513
434 1 49.2071 8.61665 424 83.6038 1338.01 477.038
435 0 49.032 9.1165 447 81.1767 1338.2 476.694
436 0 51.1247 8.23476 421 75.4299 1339.35 479.938
437 0 52.1271 9.28501 484 75.1467 1338.86 475.793
438 0 55.1427 10.2099 563 74.3908 1338.01 476.353
439 0 56.1101 9.80216 550 73.3564 1340.05 474.547
440 0 57.048 8.18609 467 76.0278 1339.33 471.957
441 0 61.1209 9.17852 561 75.3832 1338.7 472.679
442 0 61.1741 10.3312 632 74.1313 1338.78 469.603
443 0 60.0599 8.29173 498 76.9518 1338.84 470.157
444 0 65.1021 8.09497 527 76.6034 1338.77 467.23
445 0 67.0712 9.84029 660 74.5136 1338.92 465.923
446 0 69.1551 10.2089 706 73.3626 1338.96 465.044
447 0 72.1834 9.98845 721 73.516 1339.9 462.107
448 0 74.1269 9.05204 671 74.4873 1339.55 463.373
449 0 78.1626 8.62305 674 74.5504 1338.86 459.967
450 0 82.1118 9.23132 758 84.7203 1339.86 459.497
451 0 90.1259 9.8085 884 82.0781 1339.47 459.586
452 1 48.1478 7.70544 371 78.5283 1339.94 477.677
453 0 49.0482 9.54164 468 76.4338 1339.61 475.564
454 0 51.1255 9.17351 469 76.3454 1338.93 476.426
455 0 48.0422 9.42921 453 76.5166 1338.88 475.894
456 0 49.0393 9.2171 452 76.4867 1339.1 477.25
457 0 54.0974 5.78586 313 78.8339 1337.1 477.994
458 0 53.0172 10.1665 539 76.1224 1338.5 473.299
459 0 58.0398 9.5624 555 75.7532 1338.2 474.65
460 0 61.119 8.9334 546 75.8773 1337.73 475.132
461 0 63.0467 10.1512 640 76.175 1338.3 472.2
462 0 69.1909 12.9641 897 69.8227 1338.37 468.894
463 0 68.119 11.0542 753 74.4449 1337.77 468.831
464 0 71.1847 11.3508 808 73.75 1337.88 471.4
465 0 69.1722 10.2209 707 77.3918 1336.9 469.525
466 0 74.0949 11.2153 831 75.7882 1337.95 467.446
467 0 76.1549 12.317 938 74.9659 1337.44 465.967
468 0 77.0877 11.675 900 76.2267 1337.52 466.371
469 0 79.1223 11.3495 898 76.8218 1337.95 464.318
470 0 80.1496 11.3163 907 78.677 1338 462.815
471 0 83.1448 9.93447 826 79.7046 1338.35 464.337
472 0 87.1243 13.0159 1134 76.224 1338.57 462.767
473 0 89.0936 12.2792 1094 77.1709 1338.77 464.201
474 0 91.2686 11.9099 1087 78.5667 1338.19 457.392
475 0 92.1962 10.662 983 79.4222 1339.19 458.193
476 0 95.19 12.1126 1153 78.0807 1338.97 457.174
477 0 99.0922 12.8466 1273 79.0676 1338.72 454.137
478 0 104.163 11.4724 1195 80.8435 1338.4 451.136
479 0 106.122 10.5162 1116 81.4812 1339.13 454.754
480 1 61.0562 10.3839 634 78.9085 1338.79 473.831
481 0 63.0768 10.6061 669 78.2227 1339.07 471.634
482 0 65.0616 12.5727 818 74.923 1338.73 473.167
483 0 69.1239 14.5391 1005 73.0955 1338.59 466.944
484 0 69.1071 12.5891 870 76.3448 1338.59 465.603
485 0 71.0956 11.8291 841 76.7444 1338.89 466.371
486 0 73.11 12.8163 937 76.0992 1339 467.211
487 0 75.1695 12.8643 967 75.9369 1338.65 466.338
488 0 78.0968 13.8162 1079 74.9639 1338.52 464.638
489 0 77.1284 12.3042 949 78.2076 1337.74 463.119
490 0 80.1745 13.8822 1113 75.619 1338.98 462.186
491 0 81.1221 12.8448 1042 78.3196 1339.68 460.751
492 0 86.2221 14.0683 1213 77.7395 1339.25 460.942
493 0 88.168 13.2248 1166 79.8679 1339.46 460.487
494 0 88.2457 12.4312 1097 83.0438 1339.52 458.897
495 0 92.2281 14.1714 1307 80.3389 1339.57 457.011
496 0 94.1801 12.9008 1215 80.9366 1338.89 454.821
497 0 90.156 13.0441 1176 79.0179 1338.86 447.528
498 0 97.2063 12.4169 1207 80.0041 1338.35 449.635
499 0 98.1353 11.9733 1175 82.1472 1338.63 445.736
500 0 96.1015 11.7688 1131 86.3431 1338.96 443.004
501 0 102.249 11.5404 1180 85.8754 1339.26 444.408
502 0 103.111 10.8039 1114 88.8546 1338.41 437.934
503 0 107.166 10.6657 1143 87.5144 1338.52 440.493
504 0 113.264 11.5747 1311 86.9718 1338.31 440.077
505 0 120.218 12.4108 1492 87.6776 1338.69 441.273
506 0 124.332 13.2065 1642 86.1931 1339.12 440.148
507 0 126.203 13.5258 1707 85.5747 1338.78 439.536
508 0 131.277 13.5439 1778 85.8391 1338.96 433.061
509 0 134.308 12.2108 1640 88.3524 1338.34 431.852
510 0 137.379 12.4837 1715 89.7907 1337.83 429.466
511 0 141.285 12.0891 1708 90.308 1338.47 428.304
512 0 145.257 12.5777 1827 90.6021 1338.77 423.983
513 0 151.292 13.9862 2116 89.2453 1339.02 424.448
514 0 158.354 14.3602 2274 87.5475 1339.18 422.868
515 0 162.295 12.2555 1989 92.4801 1338.45 419.894
516 0 167.462 12.5163 2096 92.7252 1338.04 413.604
517 0 171.328 12.9168 2213 91.9878 1338.04 408.748
518 0 177.474 13.5569 2406 91.2581 1338.38 404.216
519 0 183.312 12.9397 2372 92.3014 1338.46 406.397
520 0 189.38 13.0637 2474 93.9479 1338.27 404.076
521 0 195.387 13.4298 2624 93.9337 1338.61 399.508
522 0 200.45 13.5395 2714 93.3891 1338.55 396.62
523 0 210.333 13.065 2748 95.298 1338.86 394.685
524 1 46.04 8.03649 370 82.8216 1340.38 477.446
525 0 50.042 10.0116 501 78.8064 1340.29 480.543
526 0 48.1515 7.78793 375 83.712 1340.29 479.288
527 0 51.0455 9.32502 476 81.3529 1339.99 478.76
528 0 54.0909 11.3143 612 77.6144 1339.26 479.998
529 0 49.2219 8.71564 429 73.6317 1338.26 482.641
530 1 263.643 14.0076 3693 94.5356 1337.69 367.832
531 1 221.511 9.15529 2028 96.6346 1337.87 403.491
532 0 219.555 13.0719 2870 94.785 1337.98 384.443
533 0 227.465 13.1053 2981 94.2801 1337.49 384.651
534 0 237.544 13.7911 3276 93.188 1337.56 379.161
535 0 242.485 10.9863 2664 98.048 1337.42 373.246
536 1 63.1042 9.69825 612 75.2402 1339 472.892
537 0 63.1731 7.24992 458 78.7707 1339.3 473.393
538 0 67.1072 8.25545 554 77.2978 1338.88 472.287
539 0 68.2768 8.94886 611 78.6039 1338.45 468.188
540 0 72.101 9.51444 686 77.4592 1338.65 467.257
541 0 74.0921 10.6894 792 76.7058 1338.89 466.298
542 0 73.2026 10.0816 738 77.9038 1339.57 464.458
543 0 77.3156 11.3431 877 76.4846 1339.15 465.365
544 0 81.3073 10.0729 819 79.3382 1338.62 462.394
545 0 84.0888 11.5711 973 80.1665 1339.02 461.98
546 0 84.1929 10.2622 864 83.228 1337.87 465.035
547 0 89.1899 10.7411 958 87.1701 1337.96 457.052
548 0 88.2835 9.60542 848 84.5118 1338.74 456.938
549 0 93.287 9.61548 897 86.0892 1338.77 453.592
550 0 93.2158 10.2236 953 84.4418 1338.91 454.946
551 0 98.3541 10.0453 988 84.3856 1338.18 451.529
552 0 91.1706 10.2445 934 83.3822 1338.79 445.67
553 0 103.305 10.7352 1109 83.7114 1338.96 449.741
554 0 110.248 9.0614 999 84.1712 1338.86 444.274
555 1 57.2343 6.48213 371 74.7089 1339.27 469.995
556 0 59.1842 10.4082 616 71.1396 1338.33 465.813
557 0 60.1453 7.73127 465 75.2301 1339.77 465.804
558 0 63.1293 8.30042 524 71.7004 1339.99 467.689
559 0 67.2443 10.1867 685 68.1912 1340.07 469.769
560 0 61.1113 9.22906 564 71.8457 1340.26 468.101
561 0 61.1113 9.27816 567 121.804 1340.28 468.086
562 0 64.2034 9.92159 637 73.1036 1339.07 465.898
563 0 64.2531 8.46652 544 75.6728 1339.01 466.949
564 0 65.2018 10.7052 698 74.0888 1338.32 465.938
565 0 64.1404 6.75081 433 78.6305 1338.75 463.903
566 0 70.1642 9.53477 669 73.8102 1339.15 466.87
567 0 72.2536 9.49434 686 72.7391 1339.3 467.211
568 0 66.1449 8.01271 530 75.6717 1339.09 461.055
569 0 73.3328 8.98643 659 74.9135 1337.98 457.234
570 0 78.1658 8.94253 699 74.1774 1338.77 459.868
571 0 80.179 9.85295 790 71.5139 1339.21 465.968
572 0 81.2159 10.9584 890 71.7584 1339 455.588
573 0 86.1055 9.96452 858 72.4324 1338.75 458.114
574 0 88.2678 11.4311 1009 71.3072 1339.24 455.301
575 0 90.2461 11.6459 1051 71.6232 1338.47 455.931
576 0 89.316 8.97935 802 76.9763 1338.95 454.398
577 0 93.3082 9.77407 912 76.0888 1339.01 451.897
578 0 92.3747 8.46552 782 78.5614 1339.04 454.4
579 1 46.0475 7.99175 368 76.4918 1338.41 468.22
580 0 45.0534 7.81295 352 80.4148 1339.1 468.565
581 0 45.0698 9.96232 449 76.6659 1337.94 471.267
582 0 47.0937 8.40877 396 79.3561 1337.97 469.53
583 0 49.1118 9.99759 491 77.7495 1338.43 468.678
584 0 52.1271 8.78622 458 79.0196 1338.22 467.854
585 0 52.0786 10.5994 552 78.125 1338.81 466.326
586 0 54.1151 9.99722 541 80.3752 1337.45 466.067
587 0 51.0496 11.6357 594 81.3182 1337.61 463.768
588 0 55.0586 10.2255 563 81.7371 1337.7 465.861
589 0 59.0743 10.6307 628 81.9315 1338.28 464.801
590 0 59.0645 11.953 706 81.3598 1338.41 464.006
591 0 63.1604 10.0854 637 83.9482 1339.13 462.267
592 0 61.0921 10.6233 649 85.1448 1338.99 462.023
593 0 68.0959 9.47194 645 86.2837 1338.78 461.019
594 0 69.0654 10.8593 750 85.2533 1338.58 458.895
595 0 71.1504 12.846 914 85.7232 1338.68 459.422
596 0 71.1304 11.978 852 88.3592 1338.79 457.385
597 0 76.1852 11.6821 890 88.3584 1338.96 458.481
598 0 82.0882 10.3182 847 88.0815 1338.98 460.21
599 0 84.1499 10.9566 922 90.1399 1338.76 456.894
600 0 90.2815 13.1256 1185 88.3165 1338.71 457.254
601 1 53.153 9.50087 505 88.4752 1338.97 478.59
602 0 54.1846 11.184 606 89.6799 1338.7 476.378
603 0 57.1051 12.6433 722 92.4266 1338.76 475.719
604 0 58.0854 12.8948 749 93.4166 1338.31 475.555
605 0 60.106 12.8939 775 93.4013 1338.38 474.185
606 0 61.1325 13.4626 823 92.4763 1338.74 475.459
607 0 62.1466 12.4383 773 94.8254 1338.57 473.748
608 0 64.089 14.7919 948 90.7521 1338.68 473.601
609 0 65.1721 12.889 840 95.0679 1338.33 471.995
610 0 68.0786 12.6912 864 95.1516 1338.15 471.748
611 0 70.2368 14.2518 1001 92.7203 1337.78 470.007
612 0 71.1986 14.3121 1019 92.6938 1337.51 470.182
613 0 73.239 13.0668 957 95.1411 1338.09 468.808
614 0 77.1657 14.7216 1136 91.9903 1338.52 466.936
615 0 79.0995 14.2732 1129 94.0531 1338.45 465.318
616 0 83.4323 14.8384 1238 92.3901 1338.07 467.04
617 0 85.0738 14.8459 1263 93.2407 1337.72 464.85
618 0 88.2535 15.8747 1401 90.7916 1337.39 463.198
619 0 90.2077 14.4999 1308 94.9174 1338.11 461.525
620 0 94.1607 14.0611 1324 95.4184 1337.9 458.218
621 0 95.1691 14.1748 1349 96.1379 1337.61 456.703
622 0 98.1706 14.0572 1380 95.8906 1338.2 452.415
623 0 102.297 13.891 1421 95.4054 1337.89 450.332
624 0 101.193 12.827 1298 91.1109 1338.41 450.692
625 0 111.314 14.0414 1563 87.499 1337.5 450.501
626 1 60.1916 11.8123 711 81.8425 1338.67 472.861
627 0 64.0567 12.1923 781 81.9449 1338.12 472.346
628 0 65.0728 11.2797 734 82.3324 1338.33 470.27
629 0 69.1612 11.6106 803 81.4844 1338.18 469.259
630 0 71.227 11.33 807 81.8625 1337.34 466.771
631 0 75.1539 12.5077 940 79.3064 1338.52 467.584
632 0 78.1307 12.8759 1006 78.7545 1338.1 466.697
633 0 83.1456 13.0374 1084 78.6282 1337.86 465.414
634 0 84.0985 13.9836 1176 77.8648 1338.64 465.27
635 0 86.1619 12.9292 1114 79.7917 1338.4 465.301
636 0 87.1792 12.4686 1087 81.6486 1337.84 462.319
637 0 90.1983 14.2686 1287 80.272 1337.15 456.109
638 0 92.1018 13.3874 1233 82.0827 1337.7 454.619
639 0 92.1018 13.3548 1230 131.621 1338.69 454.541
640 0 99.1671 14.2083 1409 80.7871 1337.69 454.218
641 0 100.205 12.3547 1238 84.5897 1337.68 451.449
642 0 104.378 12.5314 1308 85.5734 1337.58 448.517
643 0 108.151 13.1483 1422 85.0134 1337.72 446.156
644 0 113.151 14.6883 1662 82.7912 1337.32 445.333
645 0 111.212 12.5886 1400 88.5436 1338.39 437.463
646 0 121.28 13.9265 1689 85.2126 1337.57 442.115
647 1 66.1035 11.2702 745 85.3866 1337.83 467.721
648 0 67.1625 11.2414 755 85.9775 1338.15 465.75
649 0 73.0793 12.2607 896 81.1797 1338.15 463.773
650 0 75.1304 10.5017 789 84.1546 1338.2 462.804
651 0 80.2533 12.6973 1019 80.9971 1338.48 462.248
652 0 82.1395 12.1744 1000 85.971 1338.5 464.676
653 0 84.216 12.5748 1059 86.8952 1338.06 461.255
654 0 89.1282 12.8915 1149 82.3464 1338.36 457.601
655 0 91.1479 12.7595 1163 83.626 1338.82 456.921
656 0 94.0859 13.3708 1258 84.7258 1338.27 452.348
657 0 97.2077 13.0648 1270 85.8276 1338.48 452.888
658 0 99.1379 12.992 1288 87.059 1339.02 453.039
659 0 103.098 13.0653 1347 88.0735 1338 448.651
660 0 107.115 13.3688 1432 87.5175 1338.75 451.031
661 0 110.146 14.1721 1561 87.8424 1338.44 445.493
662 0 114.117 13.0831 1493 90.8808 1338 443.721
663 0 117.177 12.8097 1501 92.9187 1337.79 441.735
664 0 124.22 13.3473 1658 91.5856 1338.46 439.789
665 0 129.191 13.7471 1776 91.0535 1338.79 433.186
666 0 136.592 15.1766 2073 93.9373 1337.82 435.735
667 0 142.454 15.8858 2263 93.776 1337.78 434.484
668 0 142.454 15.8156 2253 151.08 1336.77 434.429
669 1 79.1171 11.5525 914 93.7987 1338.21 462.769
670 0 84.1047 12.6628 1065 92.5408 1337.76 462.68
671 0 84.1545 11.5145 969 97.9587 1337.94 457.062
672 0 90.1889 12.0857 1090 96.4101 1337.53 457.522
673 0 93.1232 12.1559 1132 96.3666 1337.44 458.568
674 0 99.2059 13.2049 1310 94.7679 1337.11 456.733
675 0 101.311 12.8318 1300 95.7323 1337.42 456.124
676 0 102.146 11.6597 1191 99.7204 1336.91 452.916
677 0 110.147 12.0203 1324 97.0287 1337.78 452.473
678 0 112.162 13.0258 1461 97.0999 1337.34 446.563
679 0 117.254 13.0231 1527 95.7374 1338.47 443.096
680 0 123.416 13.3775 1651 95.55 1338.79 442.315
681 1 66.1039 11.2248 742 88.3787 1339.18 471.542
682 0 71.148 10.8225 770 89.2961 1339.21 473.553
683 0 73.2185 11.5681 847 88.876 1338.41 468.157
684 0 74.105 12.0505 893 90.6361 1337.52 465.864
685 0 78.0557 12.4655 973 89.2703 1337.97 464.614
686 0 81.1759 11.4812 932 88.8927 1338.99 464.933
687 0 83.1213 13.1254 1091 86.5371 1338.85 463.418
688 0 86.1972 12.6918 1094 87.2194 1339.51 459.144
689 0 86.1318 10.4375 899 90.7052 1338.49 452.958
690 0 89.2238 11.2974 1008 90.1776 1339.17 451.257
691 0 90.1801 11.5325 1040 91.3317 1339.12 448.957
692 0 94.219 10.5393 993 93.855 1338.82 449.014
693 0 99.1398 10.2381 1015 95.6434 1338.78 446.353
694 0 102.2 10.8024 1104 94.7138 1339.22 447.13
695 0 104.271 12.1126 1263 92.578 1338.76 445.048
696 0 109.165 10.562 1153 95.353 1339.2 445.095
697 0 115.197 12.8302 1478 92.3417 1338.83 443.752
698 0 120.164 12.0918 1453 97.9491 1339.12 443.952
699 1 69.2158 10.5034 727 96.2682 1339.88 470.364
700 0 70.2643 10.7309 754 98.504 1340.06 467.436
701 0 71.1843 11.983 853 103.64 1339.56 466.669
702 0 73.1618 12.9302 946 101.293 1339 465.999
703 0 77.2014 11.8651 916 104.51 1339.52 462.408
704 0 78.111 12.6231 986 102.711 1340.15 463.293
705 0 80.2759 12.9055 1036 102.47 1339.93 461.638
706 0 84.1805 12.8058 1078 103.253 1339.3 459.389
707 0 86.1325 13.4908 1162 101.73 1339.75 457.114
708 0 87.2208 13.0703 1140 103.689 1339.66 457.455
709 0 93.3232 14.2301 1328 100.326 1340.08 455.091
710 0 93.1662 13.4169 1250 103.73 1339.58 452.09
711 0 95.3133 12.716 1212 105.801 1339.64 450.519
712 0 99.4344 13.3455 1327 104.359 1339.74 449.375
713 0 103.339 15.2895 1580 100.066 1339.45 448.568
714 0 104.524 12.6382 1321 107.146 1338.98 446.454
715 0 109.376 13.1656 1440 105.018 1339.27 444.643
716 0 113.319 14.1724 1606 98.7186 1338.88 441.514
717 0 115.282 13.3412 1538 100.178 1339.47 440.58
718 0 119.185 12.5183 1492 97.384 1338.91 434.336
719 0 122.148 12.6813 1549 96.9154 1339.35 435.003
720 0 125.164 12.7114 1591 96.7002 1338.83 435.684
721 1 70.0976 10.3142 723 88.9765 1338.99 468.462
722 0 74.3347 11.1254 827 90.2273 1339.77 464.753
723 0 77.2882 12.5634 971 86.4923 1340.58 467.551
724 0 77.2882 12.5375 969 125.126 1341.59 467.585
725 0 81.1974 11.86 963 89.9138 1340.54 463.626
726 0 84.2424 11.1939 943 91.9268 1339.78 464.455
727 0 88.1485 10.9134 962 93.815 1339.65 462.725
728 0 88.2914 11.0656 977 96.3572 1338.58 458.468
729 0 92.1779 11.9985 1106 93.7152 1339.33 460.389
730 0 96.3018 11.6924 1126 93.8899 1339.7 459.384
731 0 98.1912 10.6934 1050 95.6495 1339.68 459.024
732 0 101.263 11.0899 1123 96.2021 1339.38 455.817
733 0 104.187 12.3335 1285 93.5619 1339.09 454.658
734 0 106.395 10.837 1153 96.4536 1338.46 450.411
735 0 108.34 11.0024 1192 97.5998 1338.61 444.855
736 0 114.422 11.8596 1357 94.3397 1338.63 447.136
737 0 117.322 11.234 1318 96.8976 1337.42 441.995
738 0 125.404 11.14 1397 95.1074 1338.79 439.887
739 0 130.622 11.7438 1534 93.1278 1338.9 437.836
740 1 71.3411 12.265 875 84.84 1338.55 467.875
741 0 74.1543 11.7053 868 84.5173 1338.96 469.098
742 0 76.2418 10.6241 810 86.0901 1338.65 469.305
743 0 78.1487 10.9791 858 85.8462 1339.46 468.93
744 0 83.4046 11.6061 968 86.9576 1339.08 460.282
745 0 86.2036 12.6561 1091 85.4555 1338.99 460.422
746 0 88.188 11.2941 996 88.1737 1338.78 459.635
747 0 92.4478 12.5584 1161 86.261 1338.38 459.637
748 0 92.3312 11.0797 1023 90.0987 1338.79 455.545
749 0 96.4147 11.3779 1097 89.1768 1338.28 453.173
750 0 99.2681 11.2725 1119 90.1483 1338.3 451.257
751 0 103.268 11.1845 1155 90.7429 1338.46 450.275
752 0 106.437 12.5426 1335 89.8112 1338.06 446.08
753 0 110.335 12.1358 1339 90.4735 1338.04 448.664
754 1 121.43 16.9646 2060 79.7107 1337.77 436.956
755 0 120.425 15.4951 1866 84.2776 1337.69 438.083
756 0 123.489 12.4383 1536 90.2214 1337.52 438.865
757 0 127.396 12.308 1568 90.9133 1337.72 436.235
758 1 69.3228 11.6989 811 84.603 1338.16 468.236
759 0 72.3816 12.1163 877 88.6294 1337.61 463.998
760 0 75.1507 12.6413 950 80.6968 1338.87 470.722
761 0 79.2102 12.8266 1016 81.935 1338.11 468.179
762 0 77.4747 11.4102 884 86.6267 1337.96 461.587
763 0 83.3498 11.7577 980 85.8112 1338.63 461.75
764 0 85.4234 12.5024 1068 86.1245 1338.02 460.184
765 0 88.3464 12.1341 1072 87.8209 1337.22 460.734
766 0 90.2856 12.1392 1096 89.4662 1337.34 457.905
767 0 93.3922 12.2815 1147 91.9869 1337.84 455.275
768 0 95.3674 12.4781 1190 93.0034 1338.05 455.536
769 0 100.374 13.1209 1317 92.9544 1337.6 451.913
770 0 103.442 13.3505 1381 92.8566 1338.13 453.776
771 0 105.496 13.0527 1377 94.5817 1337.67 450.694
772 0 107.29 12.9835 1393 95.7093 1337.7 447.904
773 0 113.374 14.7741 1675 92.0848 1337.56 447.281
774 0 116.334 13.4269 1562 95.1901 1337.69 444.809
775 0 120.492 15.8102 1905 91.2189 1338.28 442.14
776 0 124.352 13.6306 1695 96.0602 1337.85 440.838
777 0 126.386 12.6596 1600 99.3481 1337.07 435.901
778 0 133.307 13.7802 1837 96.5482 1337.41 434.813
779 0 137.29 13.5844 1865 97.0032 1337.71 436.145
780 1 76.2623 11.1982 854 92.6768 1338.06 465.737
781 0 79.1703 12.1258 960 90.8917 1338.15 466.738
782 0 82.219 12.3086 1012 92.3557 1337.88 461.623
783 0 85.1781 12.4915 1064 92.157 1338 459.076
784 0 89.2666 12.3786 1105 123.425 1337.35 459.252
785 0 89.2949 10.9077 974 102.542 1337.87 458.656
786 0 94.3302 13.0711 1233 91.1671 1337.41 458.461
787 0 96.3034 13.3536 1286 91.2722 1337.45 457.187
788 0 96.3256 12.0321 1159 93.7179 1336.66 454.078
789 0 101.245 12.692 1285 92.1805 1336.94 455.733
790 0 108.337 14.9349 1618 87.6452 1337.43 450.936
791 0 111.259 14.0123 1559 89.4772 1336.88 450.827
792 0 111.319 13.34 1485 90.9017 1336.47 451.607
793 0 115.425 14.0958 1627 90.6872 1336.62 447.522
794 0 119.267 13.8513 1652 95.4237 1336.67 435.668
795 0 125.233 15.036 1883 94.8524 1337.73 429.251
796 0 128.166 13.0456 1672 101.157 1336.88 433.786
797 0 133.189 14.288 1903 99.7288 1337.37 431.066
798 1 73.1342 12.3882 906 97.692 1337.7 462.795
799 0 75.0621 12.3631 928 100.594 1337.21 468.454
800 0 74.2204 12.5437 931 100.651 1337.59 466.067
801 0 79.08 13.1007 1036 101.038 1337.23 466.199
802 0 82.0578 14.4776 1188 96.1397 1338.41 466.806
803 0 82.2238 12.6606 1041 100.996 1337.59 463.218
804 0 86.1356 12.5268 1079 101.569 1337.33 461.239
805 0 88.128 12.7655 1125 101.194 1337.28 462.636
806 0 92.1584 14.0844 1298 99.1965 1337.19 459.02
807 0 93.0652 13.5711 1263 100.797 1337.62 458.402
808 0 95.117 13.4992 1284 94.2103 1337.21 456.756
809 0 97.1006 12.9453 1257 95.4694 1337.01 457.519
810 0 101.152 12.8717 1302 95.3894 1337.77 457.177
811 0 105.068 13.0107 1367 95.673 1337.6 455.078
812 0 109.273 12.9675 1417 96.8405 1337.14 452.488
813 0 112.31 12.8662 1445 97.1287 1337.15 448.299
814 0 118.194 12.5218 1480 96.9149 1337.51 448.945
815 0 122.162 13.0647 1596 98.4568 1337.4 446.179
816 1 68.1952 12.6548 863 97.0012 1337.56 472.927
817 0 70.104 12.1676 853 98.313 1336.8 469.628
818 0 73.1261 13.5246 989 93.6825 1337.69 471.519
819 0 77.0907 14.3078 1103 92.1079 1337.73 471.271
820 0 79.1662 13.3517 1057 95.6017 1337.69 465.168
821 0 82.1287 13.4058 1101 95.4405 1337.43 465.997
822 0 84.0411 14.6357 1230 94.1797 1337.87 463.93
823 0 88.0655 14.5006 1277 94.0298 1337.72 462.017
824 0 91.0949 14.194 1293 95.7077 1337.39 459.66
825 0 93.1398 13.5925 1266 97.5047 1337.3 461.076
826 0 97.0688 14.3918 1397 96.5268 1337.42 455.858
827 0 98.1572 13.3969 1315 100.164 1336.86 456.584
828 0 101.111 12.9264 1307 101.343 1337.53 454.778
829 0 104.089 13.008 1354 101.589 1337.28 451.871
830 0 109.094 13.493 1472 100.55 1337.25 450.46
831 0 110.166 13.4161 1478 101.551 1337.55 445.286
832 0 115.191 14.0723 1621 99.3177 1337.41 441.513
833 1 62.0712 9.84354 611 105.589 1337.42 463.146
834 0 67.0789 11.5685 776 100.097 1337.77 464.246
835 0 68.0516 12.0203 818 100.009 1338 462.564
836 0 72.1641 12.4854 901 98.1299 1338.07 461.669
837 0 75.0502 11.2458 844 101.336 1337.53 464.446
838 0 78.2042 13.6054 1064 96.719 1337.73 460.838
839 0 83.0767 13.0843 1087 96.8914 1337.73 458.617
840 0 82.097 12.3269 1012 93.0138 1337.91 458.81
841 0 86.1378 13.2578 1142 99.4527 1338.08 462.41
842 0 88.1821 12.7123 1121 100.695 1338.58 461.035
843 0 92.163 14.3225 1320 98.6068 1337.75 456.739
844 0 96.1978 13.1604 1266 99.5916 1338.86 457.648
845 0 101.192 15.0408 1522 96.6794 1337.81 453.606
846 0 101.098 12.8093 1295 103.147 1337.63 450.097
847 0 107.219 13.0854 1403 100.15 1338.32 449.994
848 0 108.152 14.3131 1548 99.5814 1337.94 446.697
849 0 111.234 12.7749 1421 98.0394 1338.07 443.695
850 0 114.195 13.1442 1501 97.6309 1338.6 442.021
851 0 116.103 13.6086 1580 100.298 1338.36 436.815
852 0 120.334 13.6869 1647 100.06 1338.04 434.251
853 0 127.257 12.7459 1622 101.644 1337.58 433.573
854 0 132.156 12.803 1692 102.446 1336.94 430.938
855 0 140.216 12.7161 1783 101.394 1337.07 430.65
856 1 79.0998 10.3287 817 98.0269 1337.54 462.222
857 0 87.1764 14.1437 1233 97.1241 1337.52 461.645
858 0 89.113 12.097 1078 100.904 1337.86 463.315
859 0 93.1873 13.6392 1271 99.5673 1337.46 460.52
860 0 96.2553 14.8252 1427 97.0827 1337.07 458.997
861 0 98.1293 13.6962 1344 100.746 1337.24 459.202
862 0 100.232 13.1994 1323 101.735 1336.71 456.847
863 0 103.133 13.8655 1430 100.742 1337.7 454.394
864 0 104.103 14.6009 1520 99.9401 1337.18 454.482
865 0 108.121 13.9658 1510 100.564 1337.55 452.71
866 0 112.206 14.4021 1616 100.405 1337.61 449.949
867 0 115.384 13.5547 1564 102.464 1337.49 450.373
868 0 119.133 14.7567 1758 100.243 1336.72 446.19
869 0 122.122 14.1007 1722 101.033 1336.85 445.84
870 0 123.121 12.6623 1559 105.783 1337.62 442.091
871 0 129.188 12.8263 1657 105.081 1337.26 438.448
872 0 138.301 14.8083 2048 97.811 1337.39 437.787
873 0 141.149 13.6097 1921 102.003 1337.55 435.537
874 0 141.283 12.1459 1716 71.4854 1337.18 436.21
875 1 79.1392 10.7279 849 95.51 1337.4 467.878
876 0 84.2216 11.8734 1000 93.058 1336.84 463.936
877 0 87.123 12.6832 1105 91.9113 1336.79 463.121
878 0 87.123 12.5914 1097 145.644 1337.81 463.146
879 0 94.1819 13.5058 1272 89.4465 1337.2 458.2
881 0 98.2779 13.6145 1338 88.9895 1337.08 458.26
882 0 101.078 14.3453 1450 88.8069 1336.98 455.354
883 0 102.149 13.1769 1346 92.318 1336.9 454.007
884 0 107.184 13.8454 1484 91.7466 1337.36 452.542
885 0 111.128 14.5597 1618 91.2169 1336.86 451.062
886 0 115.159 13.121 1511 93.3077 1337.07 449.466
887 0 120.225 13.3 1599 94.5572 1337.18 445.801
888 0 125.234 13.5267 1694 95.0443 1337.28 441.805
889 0 129.247 14.2672 1844 93.9089 1337.42 441.181
890 0 136.209 14.2795 1945 95.1285 1337.47 436.02
891 0 137.258 13.4419 1845 98.0526 1337.6 433.842
892 0 145.298 13.173 1914 99.7539 1337.95 431.699
893 1 79.143 11.0307 873 99.8098 1338.26 465.224
894 0 84.1635 12.2262 1029 95.1866 1338.5 462.366
895 0 87.1021 12.8814 1122 94.1488 1338.33 458.848
896 0 88.0774 12.7615 1124 93.0249 1337.14 460.915
897 0 88.1177 10.3952 916 93.8865 1336.88 450.064
898 0 92.1058 10.5639 973 93.9168 1337.33 452.012
899 0 99.1316 12.6095 1250 92.504 1338.05 456.269
900 0 100.097 12.6278 1264 92.5095 1338.53 455.915
901 0 105.301 12.1746 1282 94.5179 1337.75 452.125
902 0 109.145 13.8531 1512 92.0582 1338.09 450.003
903 0 110.053 13.5208 1488 96.5934 1337.59 449.551
904 0 115.098 13.0237 1499 97.9593 1337.81 447.885
905 0 121.068 14.0416 1700 94.1082 1337.78 442.748
906 0 126.223 14.1892 1791 93.6175 1337.98 439.774
907 0 130.183 12.7052 1654 97.1034 1337.05 439.323
908 0 135.161 14.59 1972 96.3621 1337.36 436.733
909 0 139.318 14.4059 2007 96.0857 1338.12 435.771
910 0 144.117 14.3495 2068 95.0285 1338.02 430.576
911 0 150.302 14.4243 2168 96.8109 1337.64 426.702
912 0 153.272 14.471 2218 95.4757 1338.13 427.211
913 0 160.158 14.7604 2364 94.3181 1337.3 426.69
914 0 166.214 14.1865 2358 93.6586 1337.75 422.685
915 0 166.262 12.348 2053 93.2246 1337.54 410.705
916 0 169.122 12.4644 2108 92.444 1337.55 408.213
917 0 178.389 13.7228 2448 90.3501 1337.76 405.839
918 0 179.308 13.2453 2375 92.2775 1337.65 401.336
919 0 183.21 12.5266 2295 93.3224 1337.46 401.081
920 1 211.303 9.62127 2033 96.0605 1337.83 403.706
921 0 207.37 9.8375 2040 99.0176 1337.25 394.45
922 0 209.377 12.3605 2588 94.9741 1337.1 383.443
923 1 40.0652 10.1085 405 75.4617 1336.93 470.798
924 0 43.0202 11.8549 510 71.051 1338.84 471.331
925 0 49.1136 10.4859 515 78.934 1338.94 478.01
926 0 53.1662 11.4547 609 77.9179 1338.98 476.68
927 0 53.1334 10.9536 582 79.8385 1338.02 475.777
928 0 55.1606 12.4727 688 78.0174 1339 477.215
929 0 57.1748 10.9139 624 80.3926 1338.5 476.603
930 0 62.1499 12.4698 775 78.1032 1338.29 472.262
931 0 65.1651 14.563 949 75.3087 1338.7 470.486
932 0 65.1331 12.605 821 80.9988 1339.01 469.378
933 0 69.0895 13.4608 930 79.8172 1338.32 467.36
934 0 69.1219 10.807 747 84.5114 1339.35 471.428
935 0 69.1312 11.3986 788 84.6675 1339.28 469.718
936 0 72.2201 12.7527 921 83.5244 1338.35 465.992
937 0 74.156 14.6043 1083 80.9381 1338.07 465.524
938 0 78.1928 13.1214 1026 83.8246 1337.76 465.845
939 0 82.144 11.7964 969 84.8999 1338.28 463.913
940 0 82.083 12.5483 1030 84.5136 1338.58 463.742
941 0 86.2003 13.3758 1153 83.4753 1337.76 463.778
942 0 90.1548 13.1662 1187 83.6512 1338.87 461.093
943 0 91.2231 13.1984 1204 84.4111 1338.05 457.282
944 0 94.0887 13.3916 1260 84.3159 1338.17 456.464
945 0 95.1503 11.4345 1088 88.6498 1336.75 453.968
946 0 101.263 13.4402 1361 85.9493 1337.66 452.392
947 0 104.189 11.9111 1241 88.4891 1337.91 452.397
948 1 60.0643 12.42 746 86.0952 1337.42 470.653
949 0 60.1447 12.3037 740 85.9392 1337.59 470.664
950 0 62.1956 12.7019 790 83.324 1337.42 472.782
951 0 63.1369 13.4628 850 85.0671 1337.72 472.408
952 0 65.0798 11.3399 738 88.4214 1338.23 471.245
953 0 71.1028 13.4313 955 84.0346 1337.97 473.078
954 0 70.1149 13.5492 950 86.6863 1337.73 470.702
955 0 73.0974 14.7338 1077 84.221 1338.21 470.536
956 0 75.0981 13.6355 1024 86.9561 1337.79 466.739
957 0 77.0941 14.0867 1086 86.802 1338.02 467.148
958 0 79.1376 13.8114 1093 88.3577 1337.85 465.548
959 0 80.1214 13.9663 1119 89.378 1338.44 462.119
960 0 84.0656 12.8352 1079 90.7757 1338.08 462.421
961 0 87.1036 15.1888 1323 86.257 1337.83 463.723
962 0 88.0756 14.6011 1286 88.1026 1337.71 461.047
963 0 92.2132 13.9785 1289 88.8604 1337.82 460.15
964 0 96.0821 15.4347 1483 86.8975 1337.48 459.188
965 0 97.0666 13.0735 1269 91.911 1337.36 455.802
966 0 98.1497 13.5202 1327 92.2856 1337.23 454.969
967 0 99.1571 12.697 1259 94.7204 1337.46 454.075
968 0 105.11 13.1101 1378 94.0283 1337.4 452.173
969 1 62.0573 10.2486 636 94.338 1337.75 472.667
970 0 65.0884 11.6457 758 92.2177 1337.92 470.778
971 0 68.2222 14.1743 967 88.5336 1338.02 464.994
972 0 72.1442 13.3344 962 95.4917 1338.1 469.054
973 0 74.0754 13.9858 1036 95.7973 1336.71 465.653
974 0 75.1369 12.2177 918 99.1405 1336.98 464.442
975 0 78.0649 12.3359 963 98.6282 1336.97 463.282
976 0 81.0932 13.0467 1058 96.6389 1337.13 462.589
977 0 84.0922 12.962 1090 97.022 1337.3 459.129
978 0 88.0733 13.7953 1215 95.3621 1336.62 458.867
979 0 88.0704 13.2735 1169 92.4893 1337.31 458.425
980 0 93.0453 14.0362 1306 90.9472 1337.52 460.013
981 0 96.1251 14.5956 1403 92.3542 1337.4 455.873
982 0 98.0613 13.2162 1296 98.2878 1337.13 453.199
983 0 102.097 14.3393 1464 95.8654 1337.38 452.084
984 0 102.125 12.5826 1285 101.149 1337.31 448.57
985 0 107.163 12.4857 1338 100.197 1336.81 448.214
986 0 113.102 14.7831 1672 96.6328 1337.29 446.187
987 0 117.18 14.0553 1647 98.4444 1337.11 438.039
988 0 120.154 14.1984 1706 97.5469 1337.05 440.104
989 0 126.185 14.9622 1888 95.8294 1338.22 437.724
990 0 132.232 15.14 2002 94.8741 1337.81 436.8
991 1 79.1206 11.4635 907 93.4134 1336.69 464.805
992 0 82.1218 11.6047 953 93.1259 1337.24 457.797
993 0 83.1663 13.96 1161 92.323 1337.07 460.289
994 0 83.1378 12.5936 1047 87.1538 1339.12 463.08
995 0 85.0805 11.3422 965 90.4311 1338.38 461.246
996 0 88.1471 12.2976 1084 89.4428 1338.65 457.74
997 0 93.0983 12.2988 1145 89.662 1338.31 458.098
998 0 96.1263 11.4017 1096 90.4498 1338.66 457.915
999 0 100.114 11.9563 1197 91.0652 1338.08 450.119
1000 0 105.298 13.0012 1369 89.2418 1339.08 450.982
1001 0 108.193 12.6995 1374 90.4891 1339.12 448.508
1002 0 111.143 12.6684 1408 90.3892 1338.03 449.774
1003 0 115.09 12.7118 1463 91.3876 1338.07 443.155
1004 0 119.117 14.1373 1684 88.5024 1338.21 439.989
1005 0 124.176 14.1653 1759 87.7999 1338.34 438.463
1006 0 130.13 13.7017 1783 94.4885 1337.95 438.254
1007 0 133.295 12.9037 1720 96.1006 1337.82 435.444
1008 0 132.168 9.8057 1296 91.7322 1337.69 432.316
1009 0 139.205 11.2712 1569 87.6954 1337.95 433.856
1010 0 148.237 12.6892 1881 87.4981 1338.64 428.138
1011 0 151.302 12.9014 1952 90.4144 1339.07 424.574
1012 0 159.371 13.0388 2078 90.7353 1338.9 419.926
1013 1 93.1267 11.3931 1061 82.8614 1338.85 453.892
1014 0 97.2418 11.4971 1118 81.8417 1339.32 454.164
1015 0 100.214 10.8867 1091 83.1888 1339.24 453.817
1016 0 102.137 11.8076 1206 82.7438 1339.47 450.682
1017 0 105.153 9.76672 1027 85.2483 1339.55 446.475
1018 0 109.177 12.6583 1382 81.063 1340.05 449.218
1019 0 110.236 10.1963 1124 85.9938 1339.58 443.265
1020 0 116.276 11.6878 1359 83.9375 1339.41 441.782
1021 0 118.285 12.5883 1489 83.311 1339.94 439.333
1022 0 121.158 10.2428 1241 88.7768 1339.57 435.351
1023 0 127.143 11.3337 1441 86.8772 1339.17 434.741
1024 0 134.265 11.8125 1586 85.3272 1339.36 433.873
1025 0 138.257 10.1912 1409 88.9844 1338.31 431.368
1026 0 143.315 12.1132 1736 85.7195 1338.5 425.807
1027 0 150.215 10.8977 1637 86.7679 1338.44 426.864
1028 1 84.1199 10.3305 869 79.504 1339.06 460.037
1029 0 89.1698 12.1117 1080 80.012 1339.06 456.342
1030 0 86.2547 9.26326 799 80.8849 1338.29 448.73
1031 0 92.1633 9.70018 894 80.2427 1338.36 449.284
1032 0 93.2202 8.05619 751 83.1052 1337.95 448.289
1033 0 98.2151 11.5766 1137 78.6113 1338.83 447.947
1034 0 96.3467 9.63188 928 83.7274 1337.85 442.099
1035 0 105.416 10.1313 1068 82.279 1338.75 444.999
1036 0 110.208 12.0046 1323 80.1973 1339.07 441.28
1037 0 112.279 9.77919 1098 85.184 1338.55 436.298
1038 0 114.253 12.9099 1475 81.1878 1338.82 441.936
1039 0 118.218 11.8679 1403 84.5588 1338.36 436.808
1040 0 123.216 11.8004 1454 87.6596 1339.08 434.896
1041 0 127.359 11.2517 1433 86.5206 1339.3 431.621
1042 0 129.202 10.4952 1356 90.7109 1339.15 426.913
1043 0 135.239 11.1358 1506 91.672 1338.34 427.186
1044 0 139.192 12.5653 1749 90.8439 1338.31 423.876
1045 1 80.1124 10.9222 875 83.624 1339.23 457.414
1046 0 85.2731 10.9296 932 84.044 1340.22 459.967
1047 0 87.1575 12.2652 1069 79.0356 1339.88 458.216
1048 0 89.2685 12.244 1093 80.4483 1339.48 456.903
1049 0 91.2315 11.4873 1048 83.5038 1339.08 452.525
1050 0 92.2944 12.5035 1154 83.2678 1338.81 450.311
1051 0 96.3544 11.603 1118 84.754 1338.83 451.569
1052 0 99.2262 12.9502 1285 86.621 1338.38 444.96
1053 0 102.364 12.6216 1292 92.8607 1338.68 445.03
1054 0 107.382 13.7267 1474 90.6479 1338.71 443.51
1055 0 108.491 13.4205 1456 92.3132 1338.54 441.391
1056 0 111.313 13.0623 1454 94.1217 1339.01 436.26
1057 0 115.478 13.5264 1562 92.42 1338.71 439.233
1058 0 118.48 13.3018 1576 94.1009 1338.68 435.758
1059 0 123.509 13.7561 1699 92.1107 1337.93 436.888
1060 0 124.518 12.7692 1590 96.4862 1338.72 427.953
1061 0 124.315 12.4683 1550 99.3529 1338.3 428.784
1062 1 68.0809 9.48871 646 97.0944 1337.96 457.868
1063 0 76.4106 12.8647 983 88.12 1337.73 461.591
1064 0 79.115 12.2986 973 89.6691 1338.3 457.801
1065 0 80.1981 11.7833 945 89.6148 1338.58 459.243
1066 0 83.1928 13.8834 1155 86.7662 1338.71 454.701
1067 0 86.0861 13.9163 1198 85.879 1339.08 454.195
1068 0 87.2398 13.0101 1135 89.1489 1338.53 450.333
1069 0 85.0971 12.5386 1067 91.4892 1339.09 446.337
1070 0 91.1649 14.0076 1277 88.8825 1338.76 444.424
1071 0 92.247 12.9001 1190 91.0933 1339.77 441.354
1072 0 92.4846 11.6776 1080 94.4907 1339.51 439.306
1073 0 100.263 12.537 1257 91.8807 1339.35 440.554
1074 0 98.1958 11.9455 1173 94.7928 1338.78 435.137
1075 0 102.34 12.9569 1326 92.6787 1338.87 434.636
1076 0 102.151 13.392 1368 92.9488 1338.82 429.546
1077 0 110.357 14.5346 1604 90.1895 1338.83 431.13
1078 0 111.28 13.9199 1549 91.9651 1339.42 430.358
1079 0 119.224 12.682 1512 92.9868 1338.68 427.18
1080 0 122.323 11.6168 1421 96.1773 1338.27 426.392
1081 0 126.353 10.8189 1367 97.3116 1339.08 423.805
1082 0 136.176 11.8449 1613 94.1432 1338.99 420.661
1083 1 74.1632 9.61393 713 97.2244 1339.16 447.314
1084 0 81.1253 12.9922 1054 89.7097 1339.13 451.907
1085 0 82.089 11.4997 944 91.3199 1338.59 454.129
1086 0 84.214 12.5395 1056 90.1544 1339.09 451.428
1087 0 86.1042 11.5441 994 92.6408 1338.9 449.223
1088 0 85.0847 11.2711 959 93.8926 1339.4 447.298
1089 0 89.1865 12.6477 1128 91.5257 1339.48 443.826
1090 0 89.1524 12.2823 1095 94.2621 1338.97 437.903
1091 0 95.1994 12.9728 1235 91.6753 1338.4 438.2
1092 0 100.15 13.2801 1330 91.1188 1339.33 437.023
1093 0 103.157 12.7766 1318 92.9272 1338.23 433.093
1094 0 105.315 13.7207 1445 91.5426 1338.45 433.762
1095 0 108.23 12.9354 1400 94.1136 1338.79 429.833
1096 0 112.299 14.132 1587 92.1178 1338.55 426.162
1097 0 115.244 13.1634 1517 94.2953 1338.59 425.891
1098 0 125.183 14.1632 1773 90.4332 1339.21 425.223
1099 0 127.323 13.9724 1779 91.4486 1339.28 420.158
1100 1 71.0992 11.3925 810 94.3025 1339.24 451.143
1101 0 75.0986 11.7712 884 91.9898 1340.2 450.123
1102 0 76.0731 12.4223 945 92.6064 1338.93 449.46
1103 0 85.0505 13.8153 1175 86.4502 1338.75 452.593
1104 0 85.1255 12.5109 1065 90.3606 1338.85 448.3
1105 0 88.0628 14.0468 1237 87.2498 1338.95 445.634
1106 0 91.1878 12.3481 1126 91.1332 1338.78 443.181
1107 0 95.108 13.7948 1312 87.6021 1339.39 443.809
1108 0 99.1414 13.5967 1348 88.0549 1339.04 442.361
1109 0 102.112 14.5036 1481 86.5233 1338.9 438.305
1110 0 104.137 14.9227 1554 86.879 1339.01 438.533
1111 0 105.236 12.8189 1349 92.5686 1339.01 432.669
1112 0 109.151 13.5042 1474 90.9315 1339.32 428.733
1113 0 112.248 13.4969 1515 91.0601 1338.73 428.664
1114 0 116.304 13.9892 1627 90.4604 1339.09 422.033
1115 0 124.298 13.6285 1694 90.6576 1339.09 423.587
1116 1 64.1526 10.4594 671 92.8331 1338.62 449.24
1117 0 66.0514 12.7174 840 89.9476 1339 449.105
1118 0 69.0847 12.0577 833 80.7431 1339.07 447.483
1119 0 69.0887 11.8399 818 82.3521 1338.4 447.927
1120 0 71.0786 13.267 943 79.913 1339.02 449.386
1121 0 72.1003 10.8737 784 86.3393 1338.22 447.551
1122 0 74.232 12.1511 902 85.5676 1339.4 445.389
1123 0 77.0848 10.6766 823 88.0851 1338.77 444.064
1124 0 82.0707 12.5867 1033 86.3214 1339.01 441.169
1125 0 84.1074 11.4496 963 87.8598 1339.05 441.154
1126 0 87.1335 12.1767 1061 87.623 1338.97 436.63
1127 0 88.1542 12.8298 1131 86.7701 1339.01 438.136
1128 0 96.2001 12.3389 1187 86.3134 1339.05 430.097
1129 0 98.1088 11.9051 1168 88.2988 1338.47 432.95
1130 0 103.103 11.3576 1171 88.1921 1338.95 433.798
1131 0 101.076 11.3676 1149 89.9852 1338.87 428.395
1132 0 106.323 12.5843 1338 86.5508 1339.66 431.88
1133 0 111.139 12.066 1341 86.7248 1339.19 425.923
1134 0 113.204 12.7292 1441 85.5989 1338.5 424.499
1135 0 121.265 13.0952 1588 84.0428 1339.42 421.831
1136 0 121.15 13.2728 1608 84.7344 1339.05 418.501
1137 1 70.1293 12.5625 881 82.9546 1339.97 447.142
1138 0 70.2447 11.8158 830 84.7446 1339.66 444.077
1139 0 73.0868 11.8216 864 85.2083 1339.66 442.204
1140 0 82.0561 12.6621 1039 81.0905 1339.45 451.628
1141 0 83.1855 13.5841 1130 80.1726 1339.32 449.839
1142 0 85.211 13.9067 1185 79.7747 1339.78 446.581
1143 0 86.1262 14.7574 1271 79.1109 1339.02 442.449
1144 0 87.162 13.4003 1168 82.4152 1339.47 439.421
1145 0 88.1707 12.5552 1107 84.86 1339.05 440.485
1146 0 92.2085 13.8599 1278 83.403 1338.75 436.948
1147 0 95.2874 11.0823 1056 88.661 1338.37 432.384
1148 0 99.2557 13.7423 1364 83.7053 1339.29 432.057
1149 0 101.159 12.1096 1225 86.7086 1338.92 435.134
1150 0 103.141 12.1193 1250 88.1464 1338.68 431.084
1151 0 107.34 12.6421 1357 86.8062 1338.31 430.993
1152 0 112.253 15.5007 1740 82.2701 1338.31 427.172
1153 0 117.273 12.6457 1483 86.4922 1338.6 423.856
1154 0 122.241 11.6164 1420 87.743 1339.76 425.352
1155 0 127.228 11.7427 1494 88.2122 1338.51 421.68
1156 0 136.593 12.0431 1645 86.0103 1339.24 421.441
1157 1 78.2101 11.418 893 80.8567 1339.6 451.177
1158 0 83.0783 10.4239 866 78.3106 1339.73 454.089
1159 0 86.2363 12.5469 1082 72.903 1339.74 452.967
1160 0 88.2861 10.5792 934 78.4315 1339.07 444.878
1161 0 92.5858 10.9628 1015 77.8867 1340.22 448.108
1162 0 96.4558 12.555 1211 77.8704 1339.63 446.22
1163 0 98.2937 11.5572 1136 82.7509 1339.63 441.072
1164 0 99.2809 11.0495 1097 83.7967 1340.15 439.775
1165 0 104.42 12.4881 1304 81.5844 1339.12 442.373
1166 0 107.317 11.2191 1204 84.1105 1339.91 436.56
1167 0 112.325 12.3391 1386 81.8391 1339.54 438.131
1168 0 116.541 12.4848 1455 82.2131 1339.86 437.53
1169 0 118.281 12.614 1492 82.0999 1339.66 433.278
1170 0 122.372 12.8379 1571 83.3202 1339.43 430.732
1171 0 126.646 12.3967 1570 84.7682 1338.46 431.531
1172 0 131.422 13.0495 1715 83.6869 1338.92 430.64
1173 0 136.783 13.8322 1892 83.2484 1339.24 427.048
1174 0 137.476 12.7732 1756 85.8303 1339.09 428.207
1175 0 146.434 14.3341 2099 84.3359 1339.59 419.694
1176 1 85.1731 11.1185 947 79.4857 1339.57 460.267
1177 0 85.3058 12.801 1092 81.946 1339.28 454.059
1178 0 88.142 13.569 1196 79.5025 1339.42 452.657
1179 0 90.2817 12.2062 1102 80.9392 1339.07 451.636
1180 0 94.2642 14.767 1392 81.092 1339.17 449.722
1181 0 96.5518 12.8118 1237 84.4705 1339.57 447.503
1182 0 98.3392 13.0263 1281 84.822 1338.91 446.931
1183 0 102.408 13.8954 1423 84.6992 1338.58 444.008
1184 0 103.533 12.7013 1315 87.3909 1339.32 443.474
1185 0 107.387 12.8414 1379 88.182 1338.84 441.679
1186 0 109.419 13.1878 1443 88.6812 1339.01 440.798
1187 0 110.432 11.5637 1277 92.2428 1339.81 438.785
1188 0 115.307 12.6272 1456 89.9622 1339.88 438.141
1189 0 115.158 12.1051 1394 92.5122 1339 434.675
1190 0 122.471 13.6196 1668 89.4335 1339.22 434.08
1191 0 124.657 13.0036 1621 90.0635 1339.27 434.812
1192 0 127.435 13.1125 1671 90.6553 1339.6 431.956
1193 0 130.165 13.5751 1767 90.5659 1338.64 427.357
1194 0 136.377 14.8632 2027 86.961 1339.08 430.491
1195 0 141.256 13.9959 1977 88.2868 1338.64 427.345
1196 0 145.314 13.3091 1934 90.1794 1338.97 420.23
1197 0 148.541 11.1821 1661 93.0506 1338.4 423.939
1198 1 83.5322 10.5349 880 89.0955 1338.77 450.834
1199 0 91.4419 13.823 1264 83.4051 1339.06 451.852
1200 0 92.309 12.3823 1143 87.0131 1338.8 449.678
1201 0 98.3824 13.0918 1288 85.1172 1338.76 450.144
1202 0 96.3478 10.9084 1051 90.764 1338.62 445.811
1203 0 103.311 13.1254 1356 86.8754 1338.8 446.47
1204 0 105.171 12.494 1314 88.8318 1338.45 446.553
1205 0 108.354 12.9114 1399 87.9664 1338.48 443.673
1206 0 112.278 12.9679 1456 88.4526 1338.32 441.46
1207 0 113.423 12.8193 1454 89.8418 1338.52 437.119
1208 0 118.564 14.1611 1679 86.4818 1338.96 438.11
1209 0 121.588 13.5704 1650 88.1921 1339.36 436.374
1210 0 128.475 12.734 1636 89.3441 1339.11 435.545
1211 0 129.493 11.1048 1438 92.7789 1339.04 431.159
1212 0 134.61 12.7851 1721 90.4253 1338.65 429.079
1213 0 137.623 13.428 1848 90.3994 1338.88 426.09
1214 0 139.488 10.94 1526 95.768 1339.02 420.121
1215 0 149.386 12.8927 1926 90.8172 1338.91 425.397
1216 0 156.368 14.8688 2325 87.8249 1338.78 421.098
1217 0 161.502 14.3961 2325 89.5166 1339.15 414.676
1218 0 166.524 14.016 2334 89.1508 1339 414.142
1219 0 170.46 13.7511 2344 88.2871 1338.5 412.828
1220 1 102.372 11.4875 1176 90.4549 1339.07 445.798
1221 0 105.389 13.009 1371 89.1036 1338.87 443.025
1222 0 109.469 13.4376 1471 87.9905 1339.17 442.008
1223 0 112.554 12.8117 1442 89.0312 1338.94 442.384
1224 0 114.468 13.4186 1536 89.2878 1339.65 438.572
1225 0 112.498 11.698 1316 93.6626 1339.98 434.505
1226 0 120.374 13.4082 1614 90.4851 1339.15 435.781
1227 0 123.496 13.3608 1650 90.8333 1339.58 434.837
1228 0 126.422 13.7159 1734 91.2434 1339.38 430.682
1229 0 128.404 11.8299 1519 96.2442 1339.21 430.247
1230 0 136.699 14.0674 1923 91.7972 1339.72 429.628
1231 0 137.568 13.746 1891 93.9937 1340.01 425.837
1232 0 141.376 14.4932 2049 93.9312 1339.59 421.927
1233 0 145.406 15.4189 2242 93.475 1339.19 423.194
1234 0 150.452 14.4033 2167 95.3927 1339.79 422.912
1235 0 155.252 15.1431 2351 94.3832 1340.12 421.205
1236 0 159.394 15.3519 2447 95.5309 1339.95 416.979
1237 0 163.259 14.6026 2384 97.9987 1340.33 413.438
1238 0 166.373 15.321 2549 97.0651 1340.11 413.277
1239 0 171.34 14.9586 2563 98.8958 1340.86 405.261
1240 0 177.462 15.254 2707 98.6173 1340.46 404.888
1241 0 180.374 15.2904 2758 99.3633 1340.22 402.972
1242 0 189.429 14.9502 2832 99.7758 1339.71 399.867
1243 0 193.337 15.2376 2946 100.554 1339.4 396.312
1244 0 201.475 15.6943 3162 99.2979 1339.7 394.096
1245 0 205.315 14.4802 2973 102.772 1339.57 391.422
1246 0 212.377 15.0722 3201 101.048 1339.53 387.853
1247 0 218.393 16.1956 3537 98.2966 1340.13 385.967
1248 0 225.601 15.2659 3444 100.819 1339.58 384.875
1249 0 233.506 15.9182 3717 99.2098 1339.47 383.041
1250 0 237.386 16.2394 3855 99.1492 1338.76 375.536
1251 1 14.002 6.28482 88 74.625 1338.26 489.295
1252 0 10.0037 3.39875 34 72.7647 1338.94 493.176
1253 0 15.0064 2.86545 43 75.5581 1339.67 491.326
1254 0 19.0342 5.46386 104 70.2981 1341.25 489.558
1255 0 18.037 4.15811 75 71.92 1341.07 489.973
1256 0 21.0117 4.52129 95 71.6947 1340.67 491.463
1257 0 18.0139 5.05166 91 72.7143 1341.13 489.56
1258 0 23.027 5.99296 138 72.6087 1341.05 488.101
1259 0 24.0383 6.69764 161 71.472 1340.74 488.491
1260 0 30.0621 4.29112 129 74.1628 1340.51 487.938
1261 0 34.0258 6.46568 220 71.5273 1341.55 482.732
1262 0 31.0238 4.22256 131 75.5114 1339.92 482.634
1263 0 35.0882 4.27494 150 73.8 1339.85 482.273
1264 0 34.0576 3.58217 122 75.5164 1339.35 484.787
1265 0 36.0242 6.19028 223 71.4798 1339.82 481.825
1266 0 36.0385 7.9637 287 69.2822 1339.15 479.558
1267 1 0 0 6.3745e-314 -nan 461 -0.0500711
1268 1 38.0228 7.1273 271 68.9299 1338.51 482.292
1269 0 35.0507 8.38784 294 68.1905 1339.56 479.418
1270 0 38.0288 5.94286 226 70.9425 1339.3 479.845
1271 0 38.0157 6.73406 256 69.4688 1339.73 483.602
1272 0 39.0124 5.99809 234 70.3761 1339.47 480.222
1273 0 41.0314 7.2871 299 67.9666 1340.32 476.963
1274 0 42.0431 6.96904 293 68.4164 1340.79 479.031
1275 0 42.0439 7.9203 333 68.5586 1340.16 479.198
1276 0 42.0131 8.66396 364 67.5028 1340.84 477.602
1277 0 44.0742 5.9899 264 70.1439 1340.47 480.314
1278 0 45.0292 6.46247 291 68.7732 1340.44 479.048
1279 0 43.0338 7.85429 338 67.5178 1340.53 475.012
1280 0 45.0564 10.0319 452 65.1925 1340.25 475.077
1281 0 45.0474 6.70406 302 69.7119 1339.92 475.258
1282 0 49.0809 7.25333 356 67.441 1340.85 475.593
1283 0 50.0326 7.43516 372 63.6559 1342.09 476.379
1284 0 43.1341 5.61041 242 62.8223 1340.83 467.037
1285 0 47.1638 4.83422 228 63.1886 1341.67 465.338
1286 0 44.042 4.79088 211 63.3981 1342.02 462.185
1287 0 43.0542 5.99245 258 62.8954 1342.5 462.717
1288 0 44.1142 3.24158 143 66.6224 1342.46 459.105
1289 0 35.0582 4.36417 153 65.9085 1342.17 460.248
1290 1 50.093 6.06871 304 64.2303 1342.29 464.895
1291 0 48.1332 2.86704 138 68.8623 1342.43 459.109
1292 0 51.0352 5.89789 301 65.2824 1342.47 463.452
1293 0 55.1313 4.8067 265 66.7245 1343.28 465.732
1294 0 57.1299 5.81132 332 65.7048 1343.17 467.675
1295 0 57.0535 6.37997 364 66.0934 1342.96 462.775
1296 0 65.0797 6.06948 395 66.6633 1343.27 464.858
1297 0 63.0425 8.02633 506 65.7549 1342.66 463.176
1298 0 65.0624 8.54564 556 65.9065 1343.08 466.031
1299 0 67.1333 7.98412 536 67.5149 1342.97 465.317
1300 0 69.1378 7.21748 499 69.8036 1342.36 460.433
1301 0 68.1022 7.25381 494 70.5344 1342.56 465.711
1302 0 71.0863 8.90467 633 68.6319 1342.7 464.182
1303 0 73.1554 7.94199 581 70.6007 1341.93 461.673
1304 0 71.2676 9.317 664 70.3268 1341.61 457.505
1305 0 71.1986 8.8204 628 71.1672 1341.72 459.038
1306 0 72.2081 9.44492 682 71.2551 1342.04 456.246
1307 0 74.2516 6.97628 518 73.6448 1342.19 460.39
1308 0 76.283 8.29804 633 73.3223 1341.32 454.776
1309 0 76.1958 7.61197 580 74.1086 1341.74 454.493
1310 0 79.4276 9.75732 775 71.0426 1342.07 455.345
1311 0 78.3152 8.32533 652 74.1932 1341.53 452.31
1312 0 79.3001 9.8991 785 72.5707 1342.06 451.801
1313 0 81.2461 6.89264 560 76.2304 1341.23 447.448
1314 0 82.2 8.44283 694 75.17 1341.51 449.339
1315 0 86.2692 9.18057 792 73.4242 1341.32 455.792
1316 0 89.2187 8.18214 730 74.8644 1341.94 448.252
1317 0 87.1568 7.34309 640 76.3469 1340.91 442.167
1318 0 91.0762 9.78301 891 73.2189 1340.03 446.377
1319 0 88.1481 10.2214 901 76.5916 1340.44 449.406
1320 0 92.0797 10.9579 1009 74.5421 1340.02 448.362
1321 0 96.172 9.91973 954 73.4895 1339.89 448.589
1322 1 10.0015 4.09939 41 68.122 1339.83 492.341
1323 0 11.0022 4.99899 55 66.7636 1339.18 492.691
1324 0 12.0042 4.41513 53 68.6226 1339.43 491.811
1325 0 10.0005 2.59987 26 69.6923 1340.08 492.885
1326 0 11.0012 3.18148 35 67.8571 1340.09 491.343
1327 0 9.00296 4.55406 41 66.4878 1341.12 493.61
1328 0 10.0007 3.09978 31 66.3871 1341.74 493
1329 1 113.412 10.5192 1193 77.1718 1339.04 436.029
1330 0 118.334 12.6591 1498 74.0854 1338.84 440.271
1331 0 120.26 11.8576 1426 75.4432 1338.92 436.579
1332 0 123.279 11.3482 1399 76.3102 1338.38 435.995
1333 0 124.191 11.5709 1437 76.341 1338.87 430.424
1334 0 126.154 11.9933 1513 76.4078 1338.36 434.462
1335 0 132.227 12.4332 1644 78.4404 1339.16 432.215
1336 0 132.144 10.7232 1417 81.4989 1339.4 430.284
1337 0 136.21 11.4088 1554 81.5296 1338.75 424.923
1338 0 137.165 11.5336 1582 80.6321 1338.7 427.142
1339 0 144.168 11.7016 1687 79.4849 1337.93 425.128
1340 0 147.279 14.2247 2095 76.5618 1338.69 421.944
1341 1 66.1196 9.87604 653 75.4165 1338.14 465.815
1342 0 67.1955 8.3339 560 77.8036 1337.72 458.702
1343 1 12.0013 1.08322 13 67.9231 1339.77 496.231
1344 0 10.002 4.79903 48 64.5208 1338.31 494.979
1345 0 10.0007 7.59945 76 62.8947 1338.86 494.961
1346 0 13.0011 2.69208 35 64.7429 1339.06 496.286
1347 0 10.0191 5.28991 53 63.8113 1339.19 496.302
1348 0 14.0263 4.63416 65 64.5231 1339.57 492.185
1349 1 56.1121 5.0613 284 77.3697 1338.67 451.891
1350 0 79.1054 8.65933 685 72.0161 1338.65 458.893
1351 0 72.1293 5.97538 431 74.9513 1338.64 454.29
1352 0 81.1655 8.78452 713 72.4502 1338.35 460.028
1353 0 80.2619 5.9555 478 76.7071 1338.65 451.398
1354 0 83.1315 7.85502 653 74.7106 1338.47 450.596
1355 0 88.0975 6.90145 608 75.0362 1338.37 455.385
1356 0 88.0954 2.9627 261 80.6513 1338.22 449.517
1357 0 92.143 7.71627 711 75.4655 1338.41 451.366
1358 0 89.18 4.86656 434 78.1567 1338.86 448.083
1359 0 98.1384 8.50839 835 73.6934 1339.19 453.206
1360 0 102.245 9.40877 962 74.4792 1338.16 449.808
1361 0 104.156 8.75607 912 75.8004 1337.68 448.862
1362 0 109.25 9.51949 1040 74.2683 1338.07 452.179
1363 0 110.185 10.4098 1147 75.2206 1337.79 444.953
1364 0 109.167 6.40306 699 80.774 1337.67 438.803
1365 0 119.26 11.0012 1312 73.7995 1337.72 442.932
1366 0 123.218 9.30874 1147 76.1996 1337.63 438.966
1367 0 126.292 11.7109 1479 73.0737 1337.51 440.168
1368 1 72.0856 9.86328 711 70.1533 1338.31 471.983
1369 0 75.152 11.1108 835 70.8192 1339 470.61
1370 0 67.163 8.01036 538 69.684 1338.56 459.11
1371 0 65.1789 8.42297 549 71.0273 1337.47 453.965
1372 0 65.1333 9.93348 647 70.1515 1337.48 458.168
1373 0 73.1382 9.91274 725 69.1145 1337.72 460.628
1374 0 73.1507 8.80374 644 71.7112 1337.79 454.852
1375 0 72.2024 10.3736 749 70.785 1337.67 450.702
1376 0 78.2443 10.7356 840 69.9298 1338.06 454.127
1377 0 74.1184 9.33642 692 74.5535 1337.59 441.21
1378 0 79.2768 11.3526 900 70.9 1337.37 447.608
1379 0 81.1516 10.314 837 73.0418 1337.59 445.485
1380 0 82.104 10.0726 827 73.5889 1337 446.591
1381 0 84.1814 11.3564 956 73.2406 1336.51 443.488
1382 0 86.1328 11.6912 1007 72.5879 1336.47 450.741
1383 0 86.1634 12.4763 1075 72.8605 1336.68 443.135
1384 0 92.229 11.9052 1098 73.3579 1336.86 445.422
1385 0 93.1198 12.2316 1139 73.6005 1336.31 444.974
1386 0 97.1993 12.6956 1234 72.7553 1337.21 441.69
1387 0 99.2065 10.3017 1022 77.2906 1336.61 439.131
1388 0 101.175 13.0566 1321 74.1786 1336.8 436.756
1389 0 105.16 11.0023 1157 77.6353 1336.37 437.124
1390 0 103.264 13.5479 1399 75.4718 1335.75 433.63
1391 0 107.28 12.2856 1318 77.6305 1336.19 435.659
1392 0 102.225 10.6138 1085 82.3742 1335.88 429.834
1393 0 112.157 12.964 1454 77.4574 1335.5 434.61
1394 1 124.093 12.8049 1589 82.708 1335.71 440.847
1395 0 128.173 13.9343 1786 81.117 1335.68 437.733
1396 0 132.191 13.2081 1746 82.8568 1335.17 437.558
1397 0 137.255 14.841 2037 81.7977 1335.66 435.429
1398 0 142.191 14.6001 2076 81.843 1335.66 433.127
1399 1 81.0462 9.78454 793 81.6583 1335.59 460.032
1400 0 80.0943 10.9121 874 73.9245 1335.91 454.826
1401 0 78.137 9.1378 714 77.6443 1336.87 455.252
1402 0 83.0769 11.3268 941 75.7524 1336.7 453.165
1403 0 80.1429 10.4688 839 78.944 1336.72 447.759
1404 0 79.0846 10.71 847 78.7226 1336.63 451.089
1405 0 87.0608 8.6721 755 82.7457 1336.62 444.817
1406 0 89.1054 10.179 907 79.9603 1336.74 448.749
1407 0 90.2358 10.9713 990 79.8929 1336.52 446.159
1408 0 92.1003 10.1411 934 82.5664 1336.23 445.094
1409 0 95.1579 10.2041 971 82.6004 1336.74 442.358
1410 0 97.1258 10.5739 1027 82.8909 1336.32 444.906
1411 0 103.118 9.76553 1007 84.5928 1336.62 439.086
1412 0 108.137 12.4564 1347 80.4736 1336.51 445.666
1413 0 114.197 12.2333 1397 80.8318 1336.44 443.042
1414 0 113.229 11.0573 1252 83.7444 1336.43 441.323
1415 0 115.073 11.8881 1368 83.2792 1335.73 440.372
1416 0 118.106 11.6506 1376 83.6483 1336.13 435.251
1417 0 121.142 11.8208 1432 82.1969 1336 434.276
1418 0 126.135 11.0913 1399 83.9635 1335.71 434.833
1419 0 133.097 12.8102 1705 82.9073 1336.21 438.501
1420 0 135.19 11.7168 1584 87.1275 1335.82 434.132
1421 0 139.125 13.0459 1815 86.0468 1336.61 432.818
1422 0 146.162 11.7267 1714 88.8512 1337.32 425.821
1423 1 87.202 11.1465 972 83.0658 1337.23 458.827
1424 0 87.0854 12.0571 1050 83.0381 1337.9 454.666
1425 0 90.1333 11.9379 1076 83.9684 1337.17 454.232
1426 0 92.107 13.7232 1264 82.14 1337.28 452.226
1427 0 94.1692 13.0616 1230 83.6683 1337.72 450.768
1428 0 98.2103 12.6972 1247 83.85 1337.99 454.639
1429 0 100.271 13.1145 1315 84.073 1337.67 452.799
1430 0 103.131 12.7604 1316 85.4096 1337.56 450.907
1431 0 104.324 12.4804 1302 86.9194 1337.67 447.064
1432 0 106.117 12.571 1334 87.7579 1337.8 446.478
1433 0 109.269 11.8515 1295 90.2556 1336.83 447.826
1434 0 112.184 13.8344 1552 87.5342 1337.51 443.907
1435 0 113.169 11.6552 1319 92.5519 1337.03 444.877
1436 0 116.259 12.085 1405 92.9957 1336.63 444.169
1437 0 119.235 11.6744 1392 94.773 1336.52 441.573
1438 0 122.193 13.6751 1671 90.7726 1336.22 443.08
1439 0 125.282 13.5693 1700 92.2288 1335.84 441.431
1440 0 128.254 13.4499 1725 93.7287 1336.02 436.98
1441 0 131.394 13.4405 1766 94.3222 1336.27 434.834
1442 0 132.305 13.2346 1751 94.7716 1336.48 430.34
1443 0 136.165 13.9683 1902 93.8754 1335.82 421.56
1444 0 132.288 12.1553 1608 98.4944 1336.15 420.937
1445 0 142.187 14.8115 2106 92.2873 1335.87 416.679
1446 0 148.193 14.1909 2103 93.0219 1335.38 418.074
1447 0 146.325 11.7752 1723 99.3111 1335.41 412.154
1448 0 154.188 14.4629 2230 94.0117 1334.69 413.659
1449 0 158.272 13.1862 2087 97.4691 1335.7 403.91
1450 0 161.19 11.1359 1795 101.29 1334.93 401.458
1451 0 172.263 13.1427 2264 96.0424 1335.36 403.462
1452 0 172.194 13.7403 2366 96.1306 1335.68 399.055
1453 0 173.405 13.0677 2266 98.714 1335.84 393.626
1454 1 187.422 13.7924 2585 96.6665 1335.87 394.33
1455 0 191.334 13.824 2645 96.558 1335.73 395.056
1456 0 194.27 14.4386 2805 96.4578 1336.01 388.465
1457 0 199.338 13.7305 2737 98.3935 1336.23 388.104
1458 0 210.311 14.5166 3053 96.3364 1336.51 388.888
1459 0 213.287 13.9624 2978 97.4295 1336.97 384.648
1460 0 217.403 14.296 3108 97.5962 1336.36 373.984
1461 0 222.372 13.8372 3077 98.3351 1335.74 374.748
1462 0 231.397 16.5041 3819 92.8599 1336.11 368.842
1463 0 234.213 14.5466 3407 96.3822 1335.66 368.523
1464 0 240.426 14.3579 3452 97.9493 1335.44 358.159
1465 0 246.416 15.0031 3697 96.3497 1335.65 354.432
1466 1 62.0406 9.28425 576 74.2274 1336.81 469.476
1467 0 62.11 9.11286 566 72.0601 1336.67 473.177
1468 0 66.2285 9.9051 656 70.3582 1336.41 469.218
1469 0 69.2816 9.2521 641 70.3136 1337.17 471.2
1470 0 69.2489 10.3106 714 69.8291 1337.22 467.529
1471 0 71.2076 10.5326 750 69.8373 1336.86 468.335
1472 0 73.2002 9.0027 659 71.9196 1337.07 467.102
1473 0 77.1188 9.37514 723 71.0996 1337.51 466.596
1474 0 76.227 9.61602 733 70.8186 1337.14 464.209
1475 0 79.1226 8.68272 687 71.0349 1337.15 466.243
1476 0 80.1948 9.53928 765 70.4379 1337.26 464.029
1477 0 83.1194 10.9962 914 69.1554 1336.54 462.798
1478 0 86.1776 10.3507 892 69.9809 1335.99 460.254
1479 0 85.1133 8.20084 698 72.8854 1336.96 461.605
1480 0 84.1256 5.89594 496 74.7722 1336.39 462.216
1481 0 86.2406 4.49904 388 75.1186 1337.29 463.008
1482 0 89.1616 7.60417 678 74.5428 1336.07 449.854
1483 1 101.209 12.2322 1238 67.37 1336.45 445.498
1484 0 98.234 9.47737 931 72.4028 1336.31 447.662
1485 0 98.138 6.64371 652 77.388 1335.6 449.026
1486 0 106.333 10.6081 1128 70.5266 1336.58 451.052
1487 0 113.277 12.9859 1471 67.639 1336.05 448.368
1488 0 115.222 12.7059 1464 67.4132 1336.38 450.934
1489 0 119.339 13.4491 1605 67.9402 1336.11 444.308
