time division length width area intensity CMx CMy
0 0 46.0745 12.7619 588 123.66 1332.99 478.9
1 0 46.037 12.9461 596 123.564 1333.58 479.487
2 0 47.0822 12.3401 581 123.8 1334.04 479.215
3 0 50.0321 13.3314 667 120.925 1333.86 477.775
4 0 50.0504 12.2676 614 124.298 1334.63 478.58
5 0 51.1082 12.4442 636 123.736 1334.77 478.116
6 0 54.0372 12.843 694 120.388 1334.67 477.942
7 0 54.1555 12.5749 681 121.714 1334.2 476.38
8 0 55.0448 12.0266 662 123.591 1333.02 476.047
9 0 57.0593 11.0236 629 124.137 1332.93 478.076
10 0 60.0327 12.9763 779 119.199 1332.89 475.789
11 1 32.0028 11.9677 383 120.888 1332.88 488.668
12 0 34.0096 12.2025 415 118.617 1332.68 488.494
13 0 35.0049 12.084 423 119.324 1332.73 488.087
14 0 35.0463 13.5821 476 115.912 1332.99 487.576
15 0 35.0889 12.7676 448 116.924 1332.49 486.08
16 0 32.014 10.9015 349 119.33 1333.5 490.808
17 0 33.0785 12.1227 401 116.716 1333.47 490.085
18 0 37.0303 11.5581 428 115.411 1332.72 489.234
19 0 37.0573 12.4942 463 114.449 1333.38 488.192
20 0 39.0263 11.9407 466 114.742 1332.95 488.938
21 0 42.0473 13.3659 562 111.463 1332.81 487.349
22 0 41.07 12.9291 531 112.904 1332.48 488.54
23 0 43.0143 12.5772 541 113.954 1332.22 487.808
24 0 45.0384 12.3894 558 113.978 1332.22 486.72
25 0 46.032 12.8389 591 111.403 1332.46 487.11
26 0 49.0563 13.8005 677 109.329 1332.09 485.808
27 0 51.0392 13.1076 669 111.045 1332.37 485.513
28 0 52.0391 13.2016 687 111.001 1332.14 484.213
29 0 53.1382 12.4581 662 113.298 1331.61 484.432
30 0 55.0441 14.1523 779 110.311 1331.47 481.875
31 0 59.0388 13.4657 795 109.904 1330.95 482.03
32 0 58.1168 13.6965 796 111.319 1331.22 480.577
33 0 60.0506 14.4378 867 108.797 1330.18 481.392
34 0 64.0753 15.2477 977 107.104 1330.87 480.094
35 0 65.0924 14.6407 953 109.635 1330.91 477.738
36 0 68.0532 15.0177 1022 108.393 1330.98 477.344
37 0 69.1158 15.0183 1038 110.864 1330.74 476.643
38 0 73.1569 14.8448 1086 109.565 1330.75 477.112
39 0 76.1009 14.9276 1136 111.04 1330.53 474.457
40 0 76.0729 15.8532 1206 110.391 1330.93 471.935
41 0 82.1897 13.3958 1101 116.333 1331.05 471.246
42 0 83.1139 13.8124 1148 116.208 1330.86 469.578
43 0 89.0834 14.5594 1297 112.285 1330.86 469.636
44 0 90.0648 13.4792 1214 116.683 1330.58 466.642
45 1 46.0822 12.8249 591 118.481 1330.84 487.487
46 0 49.0139 14.098 691 115.184 1330.55 486.877
47 0 51.0248 14.7967 755 107.571 1329.97 486.074
48 0 53.0269 13.7477 729 108.951 1330.32 486.587
49 0 54.057 13.2638 717 110.707 1330.8 485.883
50 0 57.0553 14.7576 842 106.749 1330.42 484.097
51 0 56.1082 13.6166 764 110.353 1330.45 484.048
52 0 60.08 12.9161 776 111.238 1330.7 483.192
53 0 61.0499 13.5135 825 109.536 1330.9 481.979
54 0 62.0655 12.6479 785 111.176 1330.82 482.085
55 0 65.0906 13.9498 908 108.704 1330.49 478.589
56 0 68.0984 12.7463 868 110.386 1330.62 478.351
57 0 71.0674 14.0289 997 106.338 1331.57 476.822
58 0 73.0918 12.6964 928 109.395 1330.68 475.598
59 0 76.103 13.1926 1004 106.763 1330.52 476.305
60 0 81.1616 13.8736 1126 105.756 1330.37 474.003
61 0 83.0899 14.1895 1179 105.008 1330.47 471.813
62 1 43.0131 10.9502 471 108.359 1331.14 492.705
63 0 43.0201 12.4128 534 105.361 1331.16 490.998
64 0 44.045 12.351 544 104.377 1331.02 491.149
65 0 47.0463 12.6258 594 103.212 1331.12 489.512
66 0 48.0457 12.8419 617 100.647 1330.27 490.259
67 0 48.0311 13.054 627 101.311 1330.43 489.386
68 0 49.0599 13.3714 656 102.148 1329.43 486.127
69 0 52.0812 12.9989 677 100.752 1328.9 487.622
70 0 55.0377 14.4446 795 96.9371 1328.98 486.714
71 0 55.0281 13.0661 719 101.676 1329.35 486.025
72 0 57.0234 13.3629 762 100.488 1329.41 486.61
73 0 58.0542 13.3324 774 101.38 1329.37 483.317
74 0 60.0519 12.9221 776 102.527 1329.33 482.464
75 0 62.0916 12.5299 778 103.582 1328.84 481.195
76 0 66.079 12.3337 815 103.156 1328.62 483.083
77 0 68.143 13.7358 936 100.886 1329.01 480.988
78 0 71.0661 14.001 995 101.159 1329.01 476.518
79 0 74.1079 14.2765 1058 101.744 1328.67 478.268
80 0 77.057 14.5347 1120 101.751 1329 476.71
81 0 80.0595 13.3151 1066 103.345 1329.32 476.544
82 0 81.087 13.4917 1094 105.205 1328.9 472.291
83 0 84.0708 13.2626 1115 105.115 1329.11 472.813
84 0 86.0418 13.9816 1203 105.772 1328.63 469.76
85 0 90.0787 13.9434 1256 104.573 1328.84 470.06
86 0 92.078 14.2705 1314 104.966 1328.17 468.701
87 0 95.0316 13.7954 1311 104.998 1328.69 469.648
88 0 99.1927 14.1543 1404 103.574 1327.98 465.867
89 1 53.0881 12.2061 648 105.193 1327.16 488.048
90 0 54.1277 11.9532 647 106.389 1326.94 487.411
91 0 56.148 14.1056 792 105.131 1326.92 485.49
92 0 60.0313 12.7767 767 108.188 1327.49 485.163
93 0 58.0383 12.5262 727 104.369 1327.05 486.373
94 0 62.1178 13.8125 858 103.045 1326.96 484.436
95 0 64.1913 14.0362 901 106.507 1327.24 482.124
96 0 67.0849 15.9052 1067 102.191 1327.46 481.213
97 0 67.0804 13.6553 916 108.548 1327.43 479.912
98 0 69.0431 14.2809 986 107.4 1327.54 478.655
99 0 72.1327 13.7802 994 108.185 1327.75 476.741
100 0 76.0647 15.4211 1173 104.124 1328.62 476.835
101 0 79.1663 15.2717 1209 103.354 1327.9 475.256
102 0 80.2393 14.6188 1173 106.095 1327.94 474.009
103 0 84.1264 16.5346 1391 101.191 1328.31 471.577
104 0 86.3491 15.391 1329 103.74 1327.63 471.445
105 0 88.2335 15.561 1373 103.688 1327.84 467.951
106 0 89.2128 13.7985 1231 107.037 1327.64 470.011
107 0 93.235 13.5679 1265 106.912 1327.63 468.124
108 1 47.1689 10.9818 518 102.888 1328.54 490.942
109 0 48.2657 12.0168 580 101.11 1328.56 489.176
110 0 51.1778 12.3686 633 101.673 1328.47 487.378
111 0 51.0457 12.577 642 97.1106 1327.1 490.274
112 0 51.0488 11.9494 610 100.293 1327.53 488.866
113 0 52.027 12.7049 661 99.1952 1327.07 487.864
114 0 56.0204 11.478 643 99.9518 1327.24 488.068
115 0 56.0289 12.1366 680 98.6794 1327.33 488.034
116 0 59.0672 12.9683 766 97.564 1327.39 485.943
117 0 61.0289 12.7644 779 98.4326 1327.52 485.241
118 0 61.075 12.6893 775 98.991 1327.46 484.587
119 0 66.0504 13.52 893 97.4916 1328.18 483.012
120 0 66.0643 13.3052 879 100.258 1327.15 481.3
121 0 70.0818 14.3119 1003 98.326 1327.05 480.75
122 0 71.1416 13.691 974 99.7125 1327.19 479.875
123 0 73.104 13.6107 995 101.47 1326.74 476.097
124 0 79.1308 14.7351 1166 98.7479 1327.34 475.258
125 0 78.1948 13.6838 1070 103.126 1327.01 474.303
126 0 83.1634 14.3453 1193 101.76 1326.85 472.292
127 0 86.1496 14.9507 1288 99.337 1327.46 471.686
128 0 87.0715 13.5521 1180 102.385 1327.05 470.862
129 0 92.0965 14.2025 1308 100.973 1327.33 468.319
130 0 93.0888 14.6419 1363 99.5686 1327.63 468.661
131 0 95.1566 13.3359 1269 102.463 1327.6 465.076
132 0 102.163 14.3202 1463 98.8394 1327.82 464.558
133 1 49.0241 11.117 545 102.007 1327.73 486.738
134 0 51.0581 12.476 637 93.898 1327.89 487.6
135 0 55.1493 12.3846 683 92.448 1327.37 486.206
136 0 54.0467 12.1932 659 93.8695 1327.93 486.131
137 0 57.0408 11.3954 650 95.1846 1328.02 486.463
138 0 58.1824 12.3577 719 93.8122 1328.29 483.885
139 0 61.1095 12.404 758 93.8193 1328.21 484.346
140 0 64.0696 12.4084 795 93.6289 1328.84 482.663
141 0 63.1118 11.7252 740 96.527 1328.41 481.969
142 0 66.064 12.6998 839 94.9261 1328.22 480.862
143 0 67.1102 12.3975 832 97.8798 1328 478.197
144 0 69.1709 13.0835 905 96.2453 1328.48 480.208
145 0 73.1892 12.5838 921 97.7503 1328.13 478.344
146 0 76.1866 15.357 1170 93.8393 1327.72 475.861
147 0 77.133 11.9663 923 101.681 1326.86 473.483
148 0 79.1816 12.4145 983 101.707 1327.45 472.338
149 0 83.0961 11.9861 996 101.256 1327.18 472.915
150 0 83.2651 11.1571 929 103.132 1327.46 471.385
151 0 87.2285 11.6705 1018 100.827 1327.35 471.35
152 0 92.1637 12.1957 1124 100.488 1327.45 466.47
153 1 49.0813 10.4113 511 98.638 1327.82 488.779
154 0 52.0399 11.5296 600 95.4017 1327.8 487.037
155 0 54.2527 12.0547 654 95.2263 1328.12 484.982
156 0 53.2296 10.9526 583 99.1407 1327.69 484.575
157 0 55.0636 11.0963 611 97.6694 1329.11 483.16
158 0 58.0782 10.1071 587 98.1022 1328.3 486.141
159 0 57.1938 9.3192 533 101.343 1328.41 482.946
160 0 63.1254 11.691 738 96.3062 1328.96 482.137
161 0 64.1432 11.1781 717 97.841 1328.22 480.184
162 0 68.1508 13.0886 892 94.2265 1327.58 478.584
163 0 69.1989 11.5464 799 97.7972 1327.82 479.324
164 0 73.1521 11.975 876 96.3893 1328.21 478.236
165 0 76.2487 10.7936 823 98.147 1327.61 477.97
166 0 78.1835 11.8056 923 97.7801 1327.71 474.086
167 0 81.1925 13.0185 1057 96.0114 1327.12 471.201
168 0 84.108 12.6504 1064 96.2472 1327.36 470.601
169 0 83.2572 10.0051 833 102.765 1327.87 467.807
170 0 91.2924 11.8411 1081 97.9861 1328.31 467.757
171 0 93.2282 11.7454 1095 97.3215 1328.89 465.469
172 1 47.1397 10.2674 484 95.1983 1328.62 488.878
173 0 51.1411 12.3775 633 89.3081 1328.89 488.016
174 0 51.0858 13.4284 686 87.9927 1329.09 488.87
175 0 51.0542 11.4192 583 92.837 1329.32 487.868
176 0 54.0858 12.0364 651 91.8326 1329.12 485.402
177 0 53.075 10.7207 569 95.6854 1329.02 485.663
178 0 55.0898 11.0547 609 94.8851 1329.69 483.878
179 0 56.0609 11.0237 618 95.2783 1329.09 483.117
180 0 60.0635 12.7698 767 91.4602 1329.2 481.463
181 0 63.073 11.4629 723 93.0152 1329.08 482.053
182 0 63.1535 12.0342 760 94.5329 1329.15 479.779
183 0 66.0854 12.045 796 102.102 1327.78 478.411
184 0 70.1596 12.4716 875 100.41 1328.03 478.005
185 0 71.2692 11.0286 786 102.924 1328.36 476.726
186 0 74.1442 11.6125 861 102.408 1328.28 475.475
187 0 78.1507 11.2475 879 103.328 1328.06 476.022
188 0 79.2315 12.7222 1008 101.574 1328.23 472.133
189 0 83.1363 12.245 1018 100.768 1328.02 473.688
190 1 43.0176 9.94942 428 100.201 1328.15 492.339
191 0 45.049 10.4997 473 97.8922 1328.29 492.497
192 0 48.0768 11.5024 553 96.6944 1328.4 490.087
193 0 48.0391 11.0327 530 98.6585 1328.26 491.153
194 0 49.1154 12.2568 602 97.4551 1328.12 488.831
195 0 52.1049 12.6476 659 95.1775 1328.69 488.153
196 0 51.0434 12.7734 652 97.5061 1328.81 486.183
197 0 52.0771 12.6351 658 98.4422 1328.46 488.895
198 0 52.0386 10.8958 567 104.27 1328.65 485.608
199 0 54.0393 12.0653 652 101.193 1328.2 488.021
200 0 55.0761 11.4569 631 103.699 1327.88 487.111
201 0 58.0966 11.5497 671 102.909 1327.35 486.201
202 0 59.0677 12.7312 752 101.967 1327.7 483.364
203 0 61.0935 12.5545 767 101.922 1327.74 484.046
204 0 62.0604 11.7788 731 105.082 1327.42 482.328
205 0 64.0934 13.2619 850 102.082 1327.35 482.141
206 0 66.0688 12.5324 828 102.85 1327.56 482.528
207 0 67.078 13.4619 903 103.017 1327.89 478.398
208 0 68.0442 10.9488 745 107.223 1327.38 479.615
209 0 72.029 13.0087 937 102.43 1327.38 477.794
210 0 71.1261 11.7678 837 107.129 1328.12 477.355
211 0 78.0288 12.7645 996 103.272 1328.06 477.504
212 0 80.0949 12.5976 1009 104.74 1328.06 474.491
213 0 82.0398 13.7494 1128 102.743 1327.6 473.502
214 0 83.0724 13.6628 1135 104.099 1327.56 471.06
215 0 85.1241 11.9473 1017 108.142 1327.88 472.903
216 0 88.1373 12.9684 1143 107.354 1328.17 467.998
217 1 46.0117 12.4968 575 103.066 1328.17 490.122
218 0 48.0536 12.0698 580 102.703 1328.03 489.119
219 0 49.0098 11.7936 578 100.666 1327.85 489.178
220 0 48.0559 10.5294 506 105.045 1328.06 489.51
221 0 51.0593 11.4181 583 102.192 1328.05 487.527
222 0 52.0247 11.2447 585 102.991 1327.5 487.296
223 0 53.0298 11.1824 593 102.019 1327.17 488.853
224 0 57.0181 11.9436 681 99.7445 1327.62 486.022
225 0 57.0231 11.6444 664 102.437 1327.15 484.771
226 0 59.042 11.6697 689 101.213 1327.7 483.527
227 0 62.0671 12.567 780 98.6038 1327.1 482.238
228 0 65.1109 13.9454 908 95.2896 1326.94 482.204
229 0 65.0267 13.4868 877 97.4949 1327.4 479.88
230 0 67.0609 11.333 760 99.3605 1327.17 482.786
231 0 70.0377 13.507 946 96.0486 1327.55 478.46
232 0 70.0695 11.8026 827 98.8658 1327.77 480.368
233 0 75.0921 12.225 918 97.317 1327.95 476.802
234 0 76.0536 14.424 1097 93.4713 1327.94 474.757
235 0 81.047 13.1282 1064 95.0827 1327.69 474.794
236 0 81.2147 12.4239 1009 96.2924 1328.05 473.84
237 0 83.0681 11.3882 946 99.3922 1327.51 470.878
238 0 84.0822 12.0002 1009 98.894 1326.95 469.277
239 0 89.2774 12.87 1149 95.8538 1327.97 467.017
240 0 92.221 13.5002 1245 94.8747 1327.57 467.076
241 0 93.148 12.7646 1189 97.254 1327.45 464.956
242 0 98.2443 12.5402 1232 96.2581 1327.39 464.597
243 1 50.1036 12.9133 647 95.3184 1327.27 485.816
244 0 53.0956 13.1461 698 93.6046 1327.32 484.378
245 0 53.146 12.2869 653 89.0628 1327.42 487.387
246 0 52.1621 11.3684 593 92.1147 1327.24 485.749
247 0 56.144 10.9005 612 93.317 1327.12 483.964
248 0 58.2129 11.7672 685 91.7241 1327.58 483.636
249 0 58.054 11.9199 692 92.0376 1327.42 482.611
250 0 61.3249 12.393 760 90.5829 1327.94 480.887
251 0 61.3616 10.3811 637 94.6546 1327.45 480.002
252 0 66.1519 12.3352 816 91.2794 1327.69 477.044
253 0 66.1231 10.5712 699 94.3233 1327.63 479.814
254 0 68.1692 11.1781 762 94.0735 1327.83 478.469
255 0 73.0957 12.381 905 92.9028 1327.6 475.306
256 0 74.1632 10.6252 788 97.5165 1326.96 473.652
257 0 77.1079 12.087 932 95.1073 1326.83 472.912
258 0 80.0867 11.5625 926 95.2322 1327.14 473.239
259 0 84.2155 12.5986 1061 93.1894 1326.86 470.675
260 0 87.1854 12.8921 1124 92.6762 1327.09 468.144
261 0 90.1564 11.3913 1027 94.7945 1327.26 465.863
262 0 95.1482 12.8011 1218 91.7947 1327.37 465.688
263 0 97.1662 12.1441 1180 92.8805 1327.78 464.066
264 0 99.2027 10.8465 1076 94.8625 1328.31 463.64
265 0 98.2767 9.10694 895 96.067 1327.65 465.446
266 1 52.0501 11.2776 587 86.0153 1327.59 486.905
267 0 51.0423 11.7354 599 85.626 1328.11 488.199
268 0 53.0658 9.83684 522 89.8831 1327.74 485.126
269 0 53.1708 10.5133 559 90.1914 1327.82 485.973
270 0 57.046 10.5529 602 88.7259 1327.76 485.942
271 0 61.0297 12.3219 752 86.0106 1328.52 485.686
272 0 60.1046 9.91605 596 92.3087 1327.88 482.985
273 0 65.073 12.4937 813 87.9938 1327.69 481.237
274 0 64.0756 11.3928 730 92.1767 1328.12 481.462
275 0 66.1526 10.7781 713 95.0056 1327.52 480.095
276 0 69.0721 11.944 825 94.8376 1327.44 480.322
277 0 69.0767 10.3363 714 98.8333 1328.07 479.745
278 0 73.0591 11.7165 856 98.2897 1327.81 475.944
279 0 76.074 12.9611 986 96.6542 1328.27 475.896
280 0 79.0908 11.923 943 99.8993 1328 474.376
281 0 82.1443 12.3198 1012 99.6808 1328.27 471.801
282 0 80.1453 12.415 995 128.03 1330.24 471.546
283 0 88.1481 12.8193 1130 98.6478 1328.49 470.311
284 1 48.0745 10.3797 499 98.6693 1328.99 489.786
285 0 48.0457 10.6149 510 96.7216 1328.58 490.424
286 0 48.0637 11.9009 572 95.2168 1329.5 487.339
287 0 47.0216 10.5271 495 98.2263 1328.96 486.592
288 0 49.0525 11.4571 562 96.1228 1328.77 489.256
289 0 50.0899 10.3614 519 98.7091 1329.31 488.175
290 0 52.0779 9.88904 515 98.6291 1329.78 489.173
291 0 53.0442 10.6138 563 98.7318 1329.12 487.155
292 0 56.1417 11.5244 647 97.4019 1329.6 485.345
293 0 57.0784 10.3542 591 99.2775 1329.75 485.14
294 0 59.0246 10.9954 649 99.3544 1329.17 483.94
295 0 61.0782 11.1824 683 98.6911 1329.25 482.398
296 0 64.1606 13.0298 836 94.445 1329.18 485.37
297 0 63.108 10.8386 684 102.206 1328.89 482.49
298 0 66.2134 11.5384 764 100.268 1329.11 481.105
299 0 71.0529 13.6659 971 96.1782 1328.3 479.232
300 0 73.2058 12.7859 936 98.3472 1328.24 478.457
301 0 72.1244 10.9256 788 102.213 1327.92 479.211
302 0 78.1431 12.6435 988 98.4929 1328.42 477.105
303 0 79.1069 12.2366 968 99.9215 1328.43 476.271
304 0 81.1011 11.5535 937 102.032 1328.36 474.978
305 0 85.2498 12.1877 1039 102.073 1328.44 474.445
306 0 88.224 13.205 1165 101.445 1328.02 470.692
307 0 91.2252 12.6391 1153 104.886 1328.83 469.291
308 0 94.1017 12.4652 1173 107.569 1327.79 467.433
309 1 49.0337 11.1148 545 104.991 1328.33 489.817
310 0 50.0289 12.073 604 105.687 1327.92 486.28
311 0 50.1476 12.8421 644 105.217 1326.79 486.494
312 0 55.0621 12.4587 686 103.211 1327.56 487.426
313 0 56.1066 11.9594 671 104.462 1327.79 487.104
314 0 58.117 13.6793 795 100.678 1327.36 486.189
315 0 60.0831 12.8322 771 103.489 1326.71 485.145
316 0 57.0398 11.6585 665 109.623 1327.34 483.701
317 0 61.0871 12.6213 771 106.214 1326.76 481.16
318 0 65.0589 12.2504 797 106.661 1326.98 482.822
319 0 66.0676 14.6971 971 102.442 1326.96 481.008
320 0 68.0682 13.2073 899 105.672 1327.42 478.964
321 0 69.1174 13.8026 954 106.212 1327.43 478.586
322 0 71.0941 13.2641 943 107.653 1327.43 477.266
323 0 75.0877 13.5974 1021 106.42 1327.99 479.02
324 0 76.0921 14.5219 1105 106.85 1327.22 475.305
325 0 80.1542 14.023 1124 106.511 1327.51 477.416
326 0 81.129 12.7944 1038 111.926 1327.95 472.038
327 0 86.1064 13.913 1198 109.042 1327.64 472.236
328 0 87.0761 14.2174 1238 107.882 1327.98 471.616
329 0 92.0747 14.2927 1316 107.422 1328.3 470.326
330 0 95.0994 13.6909 1302 109.563 1328.26 468.429
331 0 96.1143 13.2967 1278 110.597 1329.3 468.392
332 1 53.0259 12.3336 654 109.118 1328.52 487.898
333 0 51.0181 12.7406 650 102.614 1327.93 488.729
334 0 53.0689 11.9467 634 103.016 1328.8 488.508
335 0 54.0361 13.0468 705 101.67 1328.34 486.704
336 0 56.0303 12.7431 714 104.091 1327.96 485.681
337 0 58.0772 12.9655 753 102.675 1327.93 487.255
338 0 60.0281 12.794 768 102.926 1327.4 486.954
339 0 61.0664 12.0688 737 104.733 1327.77 485.716
340 0 61.2117 12.6283 773 105.234 1328.07 482.887
341 0 65.0594 12.5731 818 104.117 1327.82 484.297
342 0 65.0291 11.764 765 106.226 1328.29 482.204
343 0 70.0393 12.4216 870 103.478 1327.44 482.554
344 0 72.0566 11.6853 842 104.85 1327.76 481.638
345 0 74.1603 12.055 894 104.16 1327.65 479.821
346 0 79.0491 12.7389 1007 101.189 1327.89 478.744
347 0 80.0312 12.4701 998 102.192 1327.88 477.598
348 0 83.0431 11.8011 980 103.408 1327.75 478.239
349 1 47.1074 11.4207 538 103.217 1328.71 493.058
350 0 46.1433 11.1825 516 105.248 1329 491.465
351 0 49.1183 11.8082 580 102.741 1328.34 492.445
352 0 49.0583 12.7603 626 102.131 1327.76 490.558
353 0 50.0117 11.0574 553 106.51 1328.05 490.922
354 0 52.0235 11.7255 610 104.133 1327.97 491.116
355 0 53.0415 11.2553 597 107.05 1327.71 489.772
356 0 53.0261 12.0318 638 106.172 1327.52 488.154
357 0 54.0565 9.50857 514 109.79 1327.9 490.342
358 0 56.0258 12.048 675 106.784 1327.93 485.578
359 0 57.1428 10.2025 583 109.42 1328.36 487.322
360 0 61.0377 13.0411 796 103.416 1328.15 485.798
361 0 63.0207 12.3451 778 105.296 1328.28 483.763
362 0 63.0441 11.9123 751 105.599 1328.62 485.374
363 0 67.0739 12.3446 828 105.83 1328.58 482.731
364 0 68.0339 10.9357 744 109.106 1328.56 482.527
365 0 70.0823 11.9288 836 106.533 1329.08 481.264
366 0 75.0569 13.5897 1020 102.993 1328.88 479.582
367 0 76.1245 13.1101 998 104.906 1328.87 476.978
368 0 77.1385 12.4063 957 107.411 1328.75 475.369
369 0 81.0796 12.4199 1007 107.648 1328.08 476.378
370 0 83.1448 12.2557 1019 110.033 1328.22 473.782
371 1 44.0383 12.0577 531 106.339 1328.38 492.782
372 0 44.0566 10.8724 479 107.666 1327.6 493.075
373 0 46.1331 11.185 516 106.653 1327.76 491.89
374 0 44.1225 10.6521 470 105.84 1328.01 492.864
375 0 46.0867 12.6501 583 103.362 1328.09 490.638
376 0 47.1055 12.886 607 102.555 1328.1 490.995
377 0 49.0983 10.2651 504 106.48 1328.03 491.5
378 0 52.128 11.4142 595 103.318 1328.04 490.857
379 0 52.1656 12.5753 656 103.454 1327.35 487.709
380 0 52.0594 11.0259 574 106.751 1327.76 488.629
381 0 54.0708 10.8192 585 107.687 1327.51 487.607
382 0 58.0797 12.4484 723 104.08 1326.71 485.682
383 0 61.0454 12.0075 733 104.222 1327.44 484.015
384 0 60.0576 11.2559 676 106.26 1327.9 484.571
385 0 63.1485 12.6369 798 103.115 1328.14 482.838
386 0 66.1276 12.3398 816 104.074 1328.26 483.241
387 0 69.1164 11.864 820 105.257 1328.12 482.054
388 0 70.0747 12.5866 882 105.037 1328.1 478.563
389 0 72.1217 12.9503 934 104.467 1327.96 477.105
390 0 77.1252 11.2804 870 107.969 1327.24 478.478
391 1 39.0153 11.2776 440 107.359 1327.73 495.652
392 0 38.028 11.2286 427 108.553 1327.76 496.119
393 0 42.0581 12.9345 544 105.329 1326.29 495.116
394 0 38.0695 10.4546 398 108.621 1326.8 497.191
395 0 40.0157 10.5458 422 108.28 1327.05 495.891
396 0 43.0355 11.6416 501 104.529 1327.07 494.543
397 0 44.0241 13.22 582 102.077 1327.18 492.213
398 0 47.0406 13.6265 641 98.6271 1328.02 493.435
399 0 46.0658 13.1551 606 102.315 1326.75 492.167
400 0 48.0563 12.0276 578 102.933 1326.68 491.896
401 0 49.0277 12.0544 591 103.525 1326.75 490.937
402 0 53.0843 11.6984 621 101.75 1327.65 491.668
403 0 52.0291 12.2816 639 102.308 1327.46 489.793
404 0 53.0612 10.9496 581 105.666 1327.48 487.985
405 0 55.1066 10.7973 595 105.286 1327.45 488.257
406 0 58.0464 13.5409 786 98.7837 1327.39 487.285
407 0 59.1039 12.7741 755 101.306 1327.03 486.207
408 0 60.0888 10.7341 645 104.518 1327.86 487.029
409 0 64.1292 11.8667 761 102.196 1327.63 483.059
410 0 66.114 10.981 726 103.634 1327.72 483.09
411 0 67.0216 12.1752 816 102.233 1326.82 481.765
412 0 67.0447 10.4855 703 106.489 1326.95 481.61
413 0 71.1148 10.5463 750 106.231 1326.82 480.735
414 1 39.0154 11.0726 432 104.111 1326.6 495.734
415 0 37.0115 10.132 375 108.379 1326.81 495.643
416 0 40.0264 11.0927 444 106.804 1326.36 494.786
417 0 42.1146 11.065 466 107.815 1326.95 494.597
418 0 40.076 10.3304 414 103.935 1327.58 494.816
419 0 42.0687 11.1484 469 103.224 1328.21 492.439
420 0 42.0201 11.3755 478 102.6 1328.12 493.6
421 0 45.0662 11.2945 509 102.305 1327.45 492.825
422 0 45.0184 10.5957 477 103.352 1327.74 493.358
423 0 48.0256 11.9311 573 100.733 1328.33 492.284
424 0 49.0161 12.2205 599 99.9082 1327.61 492.606
425 0 50.0437 11.6498 583 102.149 1327.63 490.557
426 0 52.0432 10.7219 558 103.514 1328.07 488.943
427 0 54.0896 11.2776 610 103.79 1327.19 488.303
428 0 55.0696 10.7137 590 106.992 1326.85 487.093
429 0 59.0713 11.6977 691 104.425 1327.71 485.929
430 0 61.0422 12.0409 735 103.38 1327.86 485.691
431 0 65.0322 12.1786 792 101.808 1327.8 485.878
432 0 65.0489 11.2531 732 105.02 1328.32 482.473
433 0 69.0391 11.3704 785 104.252 1327.63 483.255
434 0 68.1026 10.5723 720 107.136 1327.59 482.015
435 0 73.0517 11.9915 876 103.791 1327.51 480.438
436 1 40.0396 11.7134 469 105.207 1327.74 495.397
437 0 40.0257 9.64381 386 109.275 1327.66 496.715
438 0 40.0525 12.5585 503 103.376 1327.47 496.306
439 0 44.0525 11.6225 512 102.143 1328.29 495.254
440 0 42.031 11.1108 467 104.448 1328.59 495.878
441 0 43.0214 11.6454 501 103.251 1328.87 495.529
442 0 46.0276 12.2318 563 101.332 1329.01 494.59
443 0 47.0777 11.4916 541 104.311 1328.55 493.189
444 0 48.0516 11.4876 552 103.603 1328.69 494.357
445 0 47.0307 11.248 529 105.456 1328.69 493.155
446 0 50.022 12.6544 633 102.801 1328.25 490.731
447 0 51.0518 12.1641 621 104.24 1328.64 489.953
448 0 53.0376 11.8972 631 105.022 1328.7 490.338
449 0 53.1106 11.2219 596 107.728 1328.33 487.52
450 0 56.0652 12.1109 679 104.486 1328.1 489.361
451 0 59.045 12.2788 725 105.068 1328.14 487.392
452 0 61.0318 11.961 730 105.307 1327.78 488.393
453 0 64.1088 12.9467 830 103.024 1327.88 486.028
454 0 64.0495 13.3803 857 103.609 1327.87 484.306
455 0 67.072 12.4344 834 106.388 1328.21 483.411
456 0 69.084 13.4329 928 103.694 1328.21 482.887
457 0 72.0263 13.6895 986 103.47 1328.15 482.767
458 0 73.0531 12.1008 884 107.709 1328.26 481.836
459 0 75.0867 11.4934 863 109.685 1328.05 481.078
460 1 42.0332 10.7534 452 112.232 1328.81 495.608
461 0 42.0144 11.6151 488 114.654 1328.48 494.738
462 0 43.0508 11.9626 515 108.095 1328.12 495.856
463 0 41.0784 10.4435 429 114.732 1328.12 494.762
464 0 45.0826 11.5566 521 110.764 1327.46 494.244
465 0 49.0197 12.0564 591 108.525 1327.4 493.695
466 0 49.0931 11.305 555 110.625 1328.34 492.622
467 0 49.0259 11.7693 577 110.038 1328.07 491.419
468 0 51.041 12.4606 636 109.11 1327.21 490.796
469 0 52.0828 10.4065 542 113.498 1328.07 490.476
470 0 54.0422 13.3784 723 107.422 1327.85 488.243
471 0 56.1395 12.1661 683 107.999 1328.19 490.032
472 0 57.099 11.7165 669 109.16 1327.64 488.892
473 0 60.1394 10.6419 640 111.488 1327.5 487.188
474 0 62.0445 13.1519 816 105.788 1327.94 485.797
475 0 61.0401 11.1894 683 110.881 1328 486.545
476 0 67.111 11.9056 799 107.041 1328.32 484.429
477 0 68.0912 11.7343 799 107.708 1328.02 483.76
478 0 70.1345 12.4333 872 105.75 1327.68 482.187
479 1 34.0531 11.6876 398 104.907 1328.66 499.269
480 0 37.0144 11.9143 441 102.41 1328.26 498.345
481 0 38.0509 12.9563 493 98.5578 1328.22 497.426
482 0 35.0532 11.3827 399 104.85 1328.56 496.474
483 0 36.0306 10.7686 388 106.015 1328.19 497.085
484 0 39.0169 11.149 435 102.729 1328.68 497.894
485 0 37.0181 11.1837 414 105.645 1327.76 496.609
486 0 39.0141 10.5347 411 106.409 1328.68 495.818
487 0 43.0477 11.1504 480 104.244 1328.51 496.021
488 0 44.0871 11.5453 509 103.587 1327.78 494.171
489 0 46.033 12.5345 577 103.147 1327.99 492.614
490 0 47.0719 11.9179 561 104.829 1327.91 492.656
491 0 47.0361 11.2042 527 106.294 1328.05 493.71
492 0 50.0308 12.7721 639 104.172 1328.24 492.283
493 0 49.1013 12.5862 618 106.701 1327.88 491.731
494 0 51.0763 11.9038 608 108.633 1327.64 491.281
495 0 52.1108 11.725 611 110.254 1327.74 489.851
496 0 56.1478 13.5535 761 105.955 1327.96 489.94
497 0 58.1412 12.9684 754 108.715 1327.92 488.179
498 0 58.0856 13.1014 761 110.783 1327.57 486.184
499 0 60.079 13.4489 808 109.856 1327.41 488.041
500 0 61.1058 13.6648 835 113.759 1328.55 486.275
501 0 65.1262 13.9575 909 115.33 1327.99 485.077
502 0 65.0985 13.8866 904 119.158 1327.99 483.595
503 0 69.1628 13.6634 945 118.846 1328.17 483.757
504 0 69.1229 12.7599 882 123.35 1328.06 482.044
505 0 72.0566 14.1278 1018 119.81 1327.41 481.929
506 0 74.1211 13.6803 1014 123.035 1327.97 479.643
507 0 77.062 13.5605 1045 123.316 1328.09 478.934
508 0 80.0788 15.3973 1233 119.59 1327.52 477.192
509 0 83.1602 14.7426 1226 121.075 1327.95 477.045
510 0 84.1226 13.9202 1171 125.252 1327.63 475.046
511 0 87.2114 15.193 1325 121.666 1327.68 475.374
512 0 92.1027 15.9062 1465 120.463 1327.78 471.358
513 0 94.1461 14.6156 1376 124.718 1327.58 470.985
514 0 97.2429 14.2735 1388 125.563 1327.76 468.94
515 0 100.129 14.8408 1486 123.825 1327.8 467.316
516 0 104.227 14.6028 1522 125.352 1327.66 465.706
517 1 56.0484 12.1502 681 130.72 1327.99 487.192
518 0 59.0456 12.5158 739 127.31 1328.53 488.127
519 0 60.0554 12.8215 770 127.49 1328.61 487.035
520 0 62.0288 13.5582 841 127.128 1328.6 485.221
521 0 63.1578 13.2684 838 128.947 1328.22 484.706
522 0 67.1249 13.7654 924 126.174 1329.11 483.594
523 0 68.0507 13.0932 891 128.177 1328.07 482.496
524 0 70.0549 13.6607 957 126.789 1328.12 479.424
525 0 71.0372 12.7961 909 129.469 1327.72 481.336
526 0 75.0864 12.9584 973 129.196 1327.82 479.667
527 0 77.07 13.4294 1035 127.979 1327.57 478.444
528 0 80.0635 13.3019 1065 127.605 1327.18 477.509
529 0 81.1078 12.8101 1039 129.478 1327.77 476.539
530 0 85.0692 13.4361 1143 126.19 1328.25 474.633
531 0 88.0994 13.2237 1165 127.678 1328.24 472.036
532 1 46.0648 11.4838 529 116.529 1327.34 494.552
533 0 47.0369 11.6717 549 115.84 1327.73 494.031
534 0 45.0474 10.2559 462 121.489 1327.61 494.491
535 0 48.0359 11.8037 567 119.843 1327.48 491.737
536 0 50.0288 11.6133 581 117.929 1327.48 491.895
537 0 52.1222 12.912 673 115.207 1327.67 489.44
538 0 52.0143 11.8429 616 118.19 1327.75 489.42
539 0 55.0635 11.4595 631 119.043 1326.57 489.468
540 0 56.0896 12.3909 695 117.268 1327.02 488.695
541 0 59.2551 12.2184 724 117.198 1327.62 487.348
542 0 61.0894 11.7205 716 118.486 1326.8 486.529
543 0 62.1314 11.5079 715 119.19 1327.53 485.364
544 0 65.0986 11.7668 766 119.789 1327.02 483.832
545 0 65.1758 10.5561 688 123.64 1327.01 484.094
546 0 70.231 12.2738 862 118.261 1326.9 482.513
547 0 72.1239 11.6744 842 120.911 1326.76 480.582
548 0 74.1886 11.7403 871 120.924 1327.33 477.869
549 1 40.1241 11.0408 443 117.072 1327.54 497.409
550 0 43.1058 11.9705 516 113.705 1327.31 495.864
551 0 42.048 12.0101 505 114.206 1327.22 496.101
552 0 45.0139 12.3962 558 111.799 1328.2 494.642
553 0 45.0289 12.0589 543 114.665 1327.41 494.621
554 0 47.0518 13.3045 626 111.746 1327.88 493.259
555 0 48.0371 13.2189 635 112.2 1327.99 491.767
556 0 49.0971 12.791 628 113.295 1327.74 493.478
557 0 50.0582 13.2246 662 112.591 1328.24 491.313
558 0 52.0247 11.7444 611 116.444 1328.29 491.196
559 0 54.147 13.3341 722 112.535 1327.82 489.573
560 0 55.0986 13.1582 725 113.134 1328.35 487.967
561 0 56.0567 11.8273 663 117.876 1328.17 489.115
562 0 58.0503 11.3178 657 119.006 1328.26 490.239
563 0 60.1553 12.8002 770 116.284 1328.81 487.505
564 0 61.09 12.7353 778 117.765 1328.55 487.604
565 0 61.0799 11.6077 709 120.756 1328.37 486.333
566 0 65.085 12.1994 794 118.686 1329.16 484.195
567 0 68.1372 13.2967 906 116.763 1328.43 483.426
568 0 71.1223 13.2026 939 115.57 1328.07 483.825
569 0 72.0635 11.4899 828 120.989 1327.76 482.008
570 0 74.0421 12.2903 910 118.725 1328.35 481.918
571 1 42.0581 11.7932 496 117.085 1328.59 496.827
572 0 43.0086 11.8813 511 118.669 1328.14 494.902
573 0 46.059 12.9399 596 111.819 1328.09 493.414
574 0 43.0161 10.9261 470 120.155 1328.1 494.251
575 0 47.0477 12.0516 567 114.538 1328.36 493.741
576 0 48.1164 12.1996 587 115.124 1327.68 493.376
577 0 51.0558 13.9259 711 110.271 1328.14 491.882
578 0 52.0627 13.3493 695 111.813 1328.22 490.18
579 0 53.033 12.6902 673 113.667 1328.06 490.037
580 0 54.0762 12.5009 676 114.938 1327.4 488.929
581 0 55.1333 13.1681 726 112.594 1328.31 487.758
582 0 57.0377 12.6758 723 112.97 1328.2 487.586
583 0 59.1166 13.5664 802 109.603 1328.1 488.975
584 0 60.0562 11.6558 700 115.291 1328.36 485.663
585 0 64.0679 13.4545 862 111.05 1328.2 484.136
586 0 68.079 14.1306 962 108.546 1327.85 482.129
587 0 68.095 12.4238 846 113.879 1328.21 480.686
588 0 72.0351 11.9664 862 113.126 1327.97 481.287
589 0 74.0634 12.2868 910 113.674 1328.45 480.178
590 0 77.0727 13.0137 1003 110.236 1328.08 481.127
591 0 81.1306 13.5707 1101 110.698 1327.6 478.042
592 0 83.1251 12.7158 1057 117.216 1327.8 475.91
593 0 86.1326 11.8422 1020 119.25 1328.02 473.857
594 1 46.0567 10.4871 483 110.188 1328 495.383
595 0 44.038 11.3311 499 110.463 1328.09 494.028
596 0 48.0221 11.4531 550 109.484 1327.98 492.133
597 0 50.0385 12.0707 604 107.712 1328.49 492.384
598 0 51.0833 13.1746 673 106.652 1327.77 489.737
599 0 52.0389 12.0679 628 108.537 1327.48 491.796
600 0 52.0471 11.8546 617 109.203 1327.88 490.556
601 0 54.0962 12.6626 685 108.496 1328.29 489.296
602 0 58.1647 13.2726 772 105.943 1328.22 486.057
603 0 58.0557 12.2469 711 109.153 1328.2 486.058
604 0 61.2164 12.0883 740 109.108 1328.54 485.634
605 0 63.1661 12.4117 784 108.17 1328.39 484.922
606 0 64.052 11.678 748 110.821 1328.05 484.471
607 0 67.0989 12.1015 812 109.243 1328 483.44
608 0 68.0577 12.1808 829 109.357 1328.16 482.733
609 0 72.0979 11.9282 860 110.717 1327.95 481.234
610 0 74.0938 12.4842 925 109.903 1328.44 478.441
611 0 77.0712 10.925 842 112.223 1328.04 478.449
612 0 79.1336 11.0573 875 112.693 1328.06 476.927
613 0 83.166 12.1564 1011 108.593 1328.01 475.866
614 0 86.0837 11.7909 1015 109.773 1328.55 473.02
615 0 88.1934 10.5563 931 112.182 1328.22 470.097
616 1 49.0074 10.8759 533 104.501 1329.06 492.953
617 0 51.1091 11.2309 574 104.81 1328.6 490.317
618 0 51.0255 11.4453 584 105.341 1328.18 490.091
619 0 54.2408 11.0065 597 105.362 1327.79 489.697
620 0 56.1387 12.8432 721 101.333 1328.33 487.796
621 0 58.1751 11.9467 695 102.54 1328.6 486.704
622 0 59.0932 11.3211 669 103.864 1328.74 487.534
623 0 59.231 11.9363 707 103.171 1328.22 485.069
624 0 63.0633 12.8125 808 100.12 1328.27 483.302
625 0 66.1908 12.5395 830 101.034 1328.13 482.08
626 0 67.1395 11.2006 752 113.922 1326.88 480.411
627 0 72.1267 12.9078 931 107.628 1327.14 481.449
628 0 72.1231 11.6052 837 110.769 1327.1 479.804
629 0 75.1442 11.8971 894 110.727 1327.42 478.502
630 0 77.1071 11.9833 924 111.491 1326.58 476.71
631 0 81.1014 12.4535 1010 109.694 1326.86 474.684
632 0 84.1453 11.7416 988 111.863 1327.03 472.843
633 0 88.1757 13.2803 1171 106.785 1328.21 472.239
634 0 90.1809 12.8852 1162 109.12 1327.74 469.351
635 0 92.1003 11.8458 1091 110.131 1328.24 467.952
636 0 97.25 12.0617 1173 109.791 1328.1 468.016
637 0 99.306 12.6075 1252 109.862 1328.41 464.747
638 0 103.14 11.1305 1148 111.947 1328.58 462.956
639 1 55.226 9.39775 519 103.004 1329.6 490.844
640 0 58.1695 10.16 591 104.281 1329.13 485.658
641 0 59.13 12.0074 710 95.8155 1329.98 485.673
642 0 61.2124 11.5826 709 94.323 1328.55 485.862
643 0 62.1471 12.0038 746 94.3727 1328.89 485.626
644 0 65.3101 12.0961 790 95.0152 1329.08 483.137
645 0 66.1764 11.7565 778 96.0437 1328.67 481.006
646 0 68.213 11.9625 816 96.4056 1328.13 480.993
647 1 134.518 11.4037 1534 111.268 1327.94 451.14
648 1 73.3122 11.4442 839 107.88 1328.07 478.253
649 0 77.3586 11.9314 923 106.644 1328.23 477.618
650 0 79.2876 12.133 962 106.893 1328.3 475.08
651 0 82.5549 13.2639 1095 103.876 1327.83 474.262
652 0 84.3471 12.8635 1085 105.856 1327.8 473.885
653 0 87.4259 11.2667 985 109.458 1327.79 474.829
654 0 88.3409 10.3463 914 112.441 1327.99 468.97
655 0 94.3702 11.741 1108 107.695 1327.88 467.267
656 1 49.1112 9.91627 487 97.3203 1329.27 491.789
657 0 50.1137 9.61813 482 94.8817 1328.66 491.34
658 0 51.116 11.0533 565 93.3628 1327.99 490.25
659 0 54.1222 11.3262 613 92.1566 1327.72 489.502
660 0 55.1171 12.5369 691 90.699 1328.13 488.289
661 0 57.048 11.3238 646 93.2399 1327.76 489.265
662 0 57.1088 11.3818 650 93.74 1327.49 488.625
663 0 60.1033 11.8463 712 92.2163 1327.84 487.669
664 0 57.0537 9.64004 550 99.6418 1327.17 484.153
665 0 60.1626 10.0893 607 96.8962 1326.7 485.639
666 0 61.0943 11.5068 703 94.5391 1327.2 482.903
667 0 64.1086 11.6677 748 93.2072 1327.63 480.872
668 0 65.1142 10.3203 672 95.0759 1327.86 483.778
669 0 66.1429 9.72137 643 97.3499 1327.7 482.655
670 0 69.1679 10.901 754 95.3316 1327.26 481.889
671 0 72.0759 10.4751 755 95.7735 1327.62 480.695
672 0 73.1497 11.2372 822 95.9355 1327.73 478.987
673 0 76.1242 11.2054 853 97.1278 1327.79 477.34
674 0 78.2406 11.0429 864 98.5567 1327.59 476.87
675 0 81.2101 11.1439 905 98.1812 1327.27 475.779
676 0 84.1831 11.4037 960 98.2771 1327.91 474.534
677 0 87.1351 10.478 913 101.043 1327.98 472.046
678 0 89.3185 11.7669 1051 105.506 1327.61 470.056
679 0 94.2099 12.642 1191 97.7901 1327.93 470.43
680 0 99.2044 12.9531 1285 103.344 1327.92 468.249
681 0 100.252 12.6979 1273 104.465 1327.71 466.655
682 0 106.205 12.2029 1296 104.469 1328.1 465.523
683 0 106.173 12.4419 1321 105.672 1328.03 463.357
684 0 112.371 11.5421 1297 106.827 1328.07 464.452
685 1 63.0268 11.7728 742 97.2143 1327.32 485.616
686 0 62.0228 11.2378 697 99.033 1327.58 486.644
687 0 66.0875 11.9992 793 97.4224 1327.85 486.308
688 0 67.047 13.0953 878 95.1583 1325.98 485.233
689 0 66.0541 11.6268 768 99.6211 1326.04 481.871
690 0 70.0506 12.4339 871 97.9495 1325.9 482.115
691 0 73.0914 13.9551 1020 93.8039 1326.34 482.649
692 0 73.095 11.1088 812 99.7414 1326.62 483.406
693 0 74.1335 11.2365 833 102.054 1326.79 480.807
694 0 78.108 11.6121 907 101.607 1326.05 480.075
695 0 82.1454 11.6014 953 101.455 1325.71 481.391
696 0 83.0889 12.0112 998 102.195 1326.23 476.427
697 0 85.186 11.9151 1015 104.602 1325.99 475.59
698 0 89.1408 12.2503 1092 104.471 1326.31 472.677
699 0 91.3769 12.3445 1128 104.029 1326.26 472.619
700 0 94.1812 11.531 1086 105.999 1327.29 471.36
701 0 96.1081 12.0281 1156 105.975 1326.68 468.02
702 1 50.0131 11.9569 598 104.528 1326.58 491.819
703 0 54.0828 12.2035 660 104.011 1327.07 490.317
704 0 55.0286 13.0478 718 99.5933 1327.2 489.37
705 0 56.0596 12.7186 713 101.487 1326.87 487.067
706 0 56.0609 12.0226 674 104.639 1326.84 487.245
707 0 60.0917 12.7638 767 101.578 1327.41 486.911
708 0 61.0419 13.2696 810 101.911 1327.22 485.414
709 0 61.088 12.4083 758 105.094 1326.54 485.579
710 0 63.1223 13.355 843 103.094 1326.66 483.346
711 0 68.1048 14.1253 962 99.4241 1327.01 483.898
712 0 70.0172 14.0108 981 100.659 1326.96 480.518
713 0 70.0884 13.3546 936 103.243 1326.63 480.591
714 0 74.1099 12.8863 955 102.736 1326.63 481.115
715 0 73.1627 12.8207 938 104.287 1326.51 479.31
716 0 77.1662 12.972 1001 103.582 1326.47 477.686
717 0 77.0614 11.3027 871 107.61 1326.47 478.442
718 0 77.0569 11.3423 874 153.024 1326.47 478.518
719 0 83.1072 11.9123 990 107.267 1326.54 474.542
720 0 88.1389 12.3668 1090 103.666 1327.58 474.714
721 0 89.1292 13.3963 1194 103.494 1327.1 470.09
722 0 92.117 13.3851 1233 102.982 1327.26 471.049
723 0 93.1457 12.8723 1199 104.566 1327.28 468.791
724 0 96.1464 12.845 1235 105.033 1327.03 468.489
725 0 102.245 12.9396 1323 104.859 1326.83 466.416
726 1 59.0664 12.359 730 102.726 1326.46 488.089
727 0 60.207 11.9587 720 105.29 1326.94 484.839
728 0 59.1252 12.7357 753 105.4 1326.44 483.27
729 0 62.0787 12.4519 773 100.841 1326.48 484.29
730 0 64.0641 13.268 850 98.0929 1327.38 482.669
731 0 65.0641 13.3868 871 97.7072 1327.53 483.456
732 0 68.0983 12.2323 833 100.028 1327.55 482.443
733 0 67.1527 13.2534 890 99.8494 1327.23 479.593
734 0 73.0604 14.6317 1069 95.0645 1327 479.945
735 0 73.0249 13.8172 1009 99.4301 1326.79 477.788
736 0 74.053 13.936 1032 99.8362 1327.23 478.966
737 0 76.0334 13.0206 990 103.584 1326.46 476.202
738 0 80.0977 13.2214 1059 102.761 1326.67 475.644
739 0 84.0416 13.5647 1140 102.208 1326.5 473.425
740 0 87.1379 14.0811 1227 100.796 1326.93 472.849
741 0 90.1298 13.9133 1254 102.809 1326.59 469.156
742 0 93.108 13.9408 1298 102.706 1326.8 469.656
743 0 96.1309 14.4387 1388 101.766 1326.73 468.787
744 1 49.0886 11.1839 549 106.18 1326.49 488.75
745 0 52.0292 12.7236 662 101.603 1326.14 489.032
746 0 54.1719 13.7341 744 100.86 1327.61 485.645
747 0 56.0581 13.0579 732 103.236 1328 485.471
748 0 58.1214 11.9577 695 105.301 1328.1 483.653
749 0 58.1299 12.0076 698 107.427 1327.18 482.894
750 0 62.1482 13.2747 825 103.274 1327.73 480.642
751 0 61.1212 12.5816 769 106.484 1327.93 478.944
752 0 65.1453 13.585 885 102.894 1327.8 478.406
753 0 65.322 11.6959 764 108.924 1327.33 475.993
754 0 68.1588 12.5883 858 107.667 1327.39 477.021
755 0 70.1935 13.1779 925 107.294 1328.28 475.436
756 0 74.2678 14.0303 1042 105.614 1327.66 474.863
757 0 74.4553 13.2697 988 108.787 1327.7 474.058
758 0 78.3185 13.3302 1044 109.076 1327.23 471.525
759 0 81.4441 13.4816 1098 109.438 1327.14 471.286
760 0 85.3837 14.792 1263 106.141 1328.05 468.099
761 0 88.557 15.0073 1329 105.938 1328.27 468.926
762 0 90.3941 14.7023 1329 108.831 1327.65 466.43
763 0 91.2939 13.6592 1247 109.905 1327.69 467.359
764 0 95.0934 13.3237 1267 108.262 1327.33 468.594
765 0 99.1492 12.8392 1273 109.19 1327.04 466.263
766 1 55.0989 12.16 670 102.642 1326.5 488.928
767 0 55.0513 12.3884 682 98.9135 1326.52 490.572
768 0 58.0332 11.9242 692 99.8656 1326.6 488.822
769 0 59.1704 12.033 712 101.478 1326.13 486.683
770 0 60.1047 13.2436 796 101.489 1326.16 487.157
771 0 62.1159 12.7987 795 102.668 1326.1 485.434
772 0 64.1633 13.3721 858 101.956 1326.09 483.085
773 0 68.1301 12.8284 874 101.569 1326.04 484.986
774 0 69.1077 13.2402 915 103.023 1325.87 482.518
775 0 72.2103 12.976 937 103.313 1325.93 480.55
776 0 75.1708 14.6866 1104 100.029 1325.76 478.729
777 0 78.2485 14.7607 1155 100.506 1326.43 477.162
778 0 77.1966 13.213 1020 106.627 1326.42 475.396
779 0 83.1999 14.8918 1239 101.776 1326.51 474.056
780 0 85.2075 14.494 1235 103.114 1326.89 473.041
781 0 88.2431 15.2646 1347 101.024 1326.48 473.146
782 0 91.3445 13.8596 1266 104.272 1327.04 469.717
783 0 93.339 14.2813 1333 104.272 1326.47 467.105
784 1 49.176 12.5874 619 101.184 1328.19 489.855
785 0 49.1138 10.6691 524 103.052 1327.08 491.546
786 0 50.1368 11.4686 575 101.407 1327.95 488.216
787 0 52.0476 12.527 652 102.923 1328.1 488.436
788 0 56.077 13.3745 750 99.9667 1329 484.697
789 0 55.089 12.3618 681 102.128 1328.36 486.787
790 0 58.1125 11.9768 696 101.243 1328.35 485.825
791 0 58.0481 11.9901 696 101.608 1328.79 484.684
792 0 59.0894 11.9988 709 101.47 1328.08 483.59
793 0 62.0322 11.7842 731 100.06 1328.72 481.927
794 0 64.0534 13.0672 837 97.8877 1328.38 481.312
795 0 66.0719 13.0464 862 98.2413 1328.59 480.884
796 0 67.0329 13.4561 902 98.0078 1328.79 479.511
797 0 69.0903 13.4317 928 98.8114 1328.27 479.517
798 0 70.0341 13.008 911 101.674 1328.35 478.565
799 0 75.0377 13.833 1038 99.1724 1329.03 476.798
800 0 77.0779 15.6335 1205 95.4822 1328.92 476.241
801 0 78.1005 13.8539 1082 99.8373 1329.03 475.394
802 0 81.1008 14.2662 1157 98.9974 1329.31 472.304
803 0 83.175 14.4635 1203 98.5528 1329.49 472.348
804 0 87.1174 14.9568 1303 96.5764 1328.98 471.933
805 0 89.0878 14.177 1263 98.4996 1329.12 469.639
806 0 90.0854 15.0968 1360 97.6243 1327.95 469.605
807 0 93.255 14.9697 1396 99.1024 1327.25 461.702
808 0 97.384 13.6059 1325 100.934 1327.49 466.475
809 1 51.1658 10.808 553 103.669 1328 487.11
810 0 53.2746 12.1259 646 100.48 1327.24 484.808
811 0 55.2941 10.7606 595 99.7244 1327.73 481.82
812 0 55.1722 10.8932 601 99.02 1327.16 481.697
813 0 55.1722 10.9113 602 148.397 1327.14 481.503
814 0 62.1265 12.2653 762 104.492 1327.66 486.165
815 0 63.2703 13.6399 863 102.709 1326.56 483.767
816 0 65.2234 11.6369 759 105.908 1326.92 484.484
817 0 67.2418 12.8491 864 103.094 1326.96 483.182
818 0 71.3112 12.8872 919 102.799 1326.85 480.629
819 0 73.1839 13.2406 969 103.133 1327.7 478.74
820 0 76.3627 13.3835 1022 102.192 1327.3 480.515
821 0 81.3648 14.0847 1146 98.603 1327.75 479.175
822 0 83.2459 12.361 1029 100.345 1327.77 478.519
823 0 85.3199 12.3769 1056 102.033 1327.45 475.258
824 0 87.3116 12.61 1101 101.499 1327.97 473.948
825 0 91.1841 11.9758 1092 101.143 1327.7 469.334
826 0 94.1982 12.5799 1185 95.3165 1327.07 469.653
827 0 99.2757 12.8934 1280 96.3141 1326.94 470.931
828 1 54.0517 10.49 567 95.5591 1327.89 491.231
829 0 56.1273 11.8481 665 94.4331 1327.36 489.752
830 0 57.0983 12.0494 688 95.4142 1327.69 486.593
831 0 62.067 12.841 797 92.5784 1327.66 486.887
832 0 61.0941 12.9636 792 94.1477 1327.52 485.879
833 0 65.0831 15.1345 985 89.3127 1327.45 484.344
834 0 66.0307 13.9481 921 93.3887 1327.09 483.244
835 0 67.1306 13.1088 880 95.3386 1327.35 482.72
836 0 70.1103 13.764 965 91.6663 1327.48 481.917
837 0 74.0933 14.4278 1069 90.5154 1327.62 480.181
838 0 76.1729 14.1258 1076 91.3086 1327.08 481.217
839 0 78.0693 13.7442 1073 93.2395 1327.03 477.083
840 0 82.1804 15.0158 1234 90.3793 1326.85 474.628
841 0 85.2358 13.1048 1117 94.1289 1326.91 474.566
842 1 43.0219 11.2501 484 97.1405 1326.42 493.684
843 0 46.1269 12.8342 592 94.8328 1325.71 493.959
844 0 47.1624 11.5558 545 89.3927 1326.58 492.895
845 0 50.1968 12.1721 611 84.8969 1326.68 489.324
846 0 50.2493 11.9604 601 86.8369 1326.74 488.82
847 0 53.1822 11.8649 631 86.1759 1327.07 489.829
848 0 53.2841 11.8609 632 88.0728 1326.48 487.848
849 0 56.1594 12.055 677 86.5879 1325.87 487.083
850 0 55.1643 11.2754 622 90.2428 1326.67 484.034
851 0 60.2394 12.5499 756 87.5013 1325.96 483.534
852 0 59.1423 12.6306 747 88.0281 1326.65 483.871
853 0 59.1453 11.5816 685 91.3825 1326.22 482.502
854 0 59.08 12.39 732 91.4112 1326.24 480.724
855 0 63.1045 13.5965 858 88.1667 1325.95 480.631
856 0 66.0753 12.4101 820 90.4744 1326.02 480.611
857 0 69.1241 12.8175 886 89.7178 1326.11 479.147
858 0 69.0579 14.1765 979 88.7508 1325.96 476.309
859 0 72.0852 11.8748 856 92.9638 1326 477.515
860 0 76.0783 13.2364 1007 90.7349 1325.96 475.717
861 0 79.1339 13.4961 1068 90.8624 1326.18 472.674
862 0 80.0564 12.4537 997 93.8245 1326.7 470.674
863 0 84.1873 13.5056 1137 91.6904 1326.59 469.758
864 0 86.1137 12.4951 1076 93.8271 1326.53 469.799
865 0 89.219 13.0465 1164 93.8832 1326.64 466.29
866 0 92.1027 12.9421 1192 94.0973 1326.31 466.995
867 0 95.1982 12.6368 1203 94.4464 1326.49 464.327
868 0 98.2468 13.802 1356 93.3577 1326.98 461.955
869 1 49.1559 11.1482 548 93.6606 1326.76 485.332
870 0 52.2153 11.0695 578 95.5052 1326.58 486.196
871 0 54.1132 11.439 619 97.9386 1326.47 483.598
872 0 54.1699 10.8917 590 93.1831 1325.72 486.503
873 0 57.0597 11.8823 678 91.1003 1325.99 486.024
874 0 61.1201 12.4018 758 90.8984 1326.27 484.726
875 0 62.1979 12.6532 787 90.4612 1326.82 483.385
876 0 64.0897 12.8726 825 90.737 1326 482.315
877 0 69.0984 13.5025 933 88.3751 1326.85 481.722
878 0 71.1354 13.1299 934 89.9604 1326.36 481.199
879 0 71.2152 13.1152 934 90.8383 1325.42 480.603
880 0 76.1229 12.1251 923 91.8873 1326.17 478.51
881 0 76.0714 13.0009 989 90.9039 1326.48 476.929
882 0 81.1826 13.5004 1096 89.9361 1326.09 475.495
883 0 85.1825 13.383 1140 89.2746 1326.65 472.193
884 0 89.2004 14.0582 1254 87.5885 1326.45 471.218
885 1 46.0741 11.156 514 88.1226 1326 493.377
886 0 47.0268 10.4621 492 88.1667 1325.64 489.453
887 0 48.0563 12.09 581 87.7608 1325.36 490.165
888 0 51.0607 11.9074 608 86.0543 1327.61 489.985
889 0 49.0418 11.9898 588 88.017 1326.77 489.639
890 0 52.022 11.3029 588 88.466 1326.59 489.602
891 0 54.0486 12.5258 677 86.1315 1327.15 488.833
892 0 57.0858 12.9104 737 84.9973 1326.97 487.199
893 0 59.1262 13.6319 806 84.1898 1326.86 485.069
894 0 61.0786 11.8208 722 87.259 1327.56 485.057
895 0 63.1663 11.9684 756 88.2077 1326.9 482.368
896 0 65.1149 12.071 786 88.9618 1326.71 483.322
897 0 60.0791 11.102 667 91.8576 1327.22 476.114
898 0 70.1329 12.4763 875 89.128 1326.93 480.85
899 0 71.1537 13.1546 936 89.8002 1326.82 478.751
900 0 74.0913 12.3361 914 92.3326 1326.55 478.993
901 0 75.132 11.2469 845 95.6544 1326.29 477.245
902 0 79.269 11.4042 904 95.6504 1327.21 476.019
903 0 82.2908 11.5687 952 95.2962 1327.19 474.362
904 1 42.2248 10.373 438 93.9041 1327.85 490.605
905 0 44.2087 9.68135 428 93.028 1327.93 490.984
906 0 47.3592 10.7688 510 91.0529 1327.72 492.461
907 0 47.1607 11.0049 519 92.3699 1327.64 489.848
908 0 49.1541 10.8434 533 94.4334 1327.19 488.484
909 0 52.196 12.7788 667 89.1334 1327.27 489.58
910 0 53.2006 12.3119 655 92.4855 1327.55 489.055
911 0 55.1606 13.7054 756 90.2156 1326.55 489.87
912 0 57.1485 12.5813 719 91.9485 1326.91 487.872
913 0 58.1494 11.0405 642 94.7991 1326.93 489.146
914 0 58.1553 12.0539 701 95.2026 1327.02 485.632
915 0 61.0971 12.8157 783 92.9898 1327.45 484.649
916 0 64.174 13.1206 842 92.6698 1327.52 483.258
917 0 67.2652 13.1123 882 92.7449 1326.75 482.739
918 0 66.1632 12.454 824 95.5995 1327.44 481.709
919 0 69.1676 13.648 944 94.0127 1327.41 480.012
920 0 73.1735 11.9032 871 97.1561 1327.13 481.481
921 0 72.1705 12.4566 899 98.8854 1327.76 477.406
922 0 74.1821 11.8762 881 100.126 1327.95 476.692
923 0 77.1361 12.1733 939 100.806 1327.82 476.014
924 0 82.0952 12.7048 1043 99.2589 1327.63 474.408
925 0 85.1231 13.4629 1146 98.6239 1327.62 472.424
926 0 86.1815 12.4737 1075 102.248 1327.33 470.771
927 0 89.0605 12.6543 1127 101.811 1326.68 469.919
928 0 93.2237 13.3657 1246 101.523 1326.93 468.022
929 1 54.0404 11.0473 597 97.8325 1327.59 491.868
930 0 54.0251 12.1055 654 98.0443 1327.11 488.02
931 0 57.1338 12.392 708 101.888 1327.48 487.268
932 0 58.0363 11.8202 686 106.895 1327.53 487.583
933 0 61.07 13.329 814 104.181 1327.75 485.76
934 0 60.0307 12.5769 755 106.955 1327.77 483.574
935 0 64.0641 13.3928 858 104.346 1327.74 484.397
936 0 64.0906 12.7632 818 106.921 1327.64 483.672
937 0 67.0742 12.9856 871 106.086 1327.53 481.372
938 0 70.1635 14.7513 1035 102.147 1327.71 480.031
939 0 72.1014 12.6766 914 107.096 1327.47 479.392
940 0 76.0989 13.1408 1000 105.003 1327.83 478.808
941 0 74.0571 12.7064 941 107.526 1327.42 476.484
942 0 78.1872 13.1607 1029 106.431 1327.09 476.296
943 0 81.1554 12.6794 1029 109.263 1326.88 474.082
944 0 83.2584 12.6354 1052 108.896 1326.88 473.55
945 0 87.2082 13.0034 1134 110.57 1326.58 470.558
946 0 90.3095 14.2731 1289 107.504 1326.73 468.698
947 0 91.2844 13.6277 1244 109.686 1326.43 468.383
948 0 94.0739 12.9792 1221 102.576 1326.25 468.958
949 0 98.2037 13.2378 1300 102.069 1326.76 466.444
950 0 99.1182 12.137 1203 105.219 1326.28 465.88
951 1 52.1145 10.995 573 103.171 1326.4 486.611
952 0 55.0362 11.8649 653 96.5926 1327.64 486.706
953 0 57.1799 12.5743 719 97.0236 1326.74 484.741
954 0 59.2094 12.8696 762 98.3333 1326.61 482.042
955 0 60.0889 11.7326 705 97.583 1327.49 486.782
956 0 61.1119 12.0435 736 98.5448 1327.85 483.832
957 0 64.0641 12.4719 799 97.9324 1327.94 482.418
958 0 67.08 12.0155 806 98.4975 1327.27 483.48
959 0 69.0534 12.57 868 98.0806 1327.57 479.421
960 0 71.0849 11.4792 816 100.232 1327.74 479.066
961 0 74.0849 13.0796 969 99.324 1327.24 477.023
962 0 76.1399 13.4752 1026 97.2466 1327.19 476.977
963 0 79.1777 12.2888 973 99.1881 1327.32 475.629
964 0 81.1065 12.4158 1007 99.8779 1327.45 472.302
965 0 83.163 12.3252 1025 100.809 1327.63 473.142
966 0 86.1837 12.9955 1120 99.8134 1327.75 469.036
967 0 90.2402 12.4002 1119 100.759 1327.6 467.8
968 1 48.0936 11.3737 547 100.282 1328.2 489.951
969 0 49.0875 11.4286 561 104.881 1327.29 488.299
970 0 47.2151 11.8394 559 99.9374 1326.43 481.633
971 0 53.1281 10.917 580 100.705 1327.3 487.612
972 0 55.0737 12.565 692 96.3208 1327.29 486.035
973 0 56.0365 12.2063 684 98.0292 1327.33 484.285
974 0 58.1722 12.3942 721 98.9667 1327.36 482.004
975 0 60.125 13.2058 794 97.4798 1327.86 482.132
976 0 63.0774 12.3658 780 97.5103 1327.58 482.467
977 0 63.0636 11.4963 725 100.179 1327.92 481.874
978 0 67.297 13.7153 923 95.2048 1328.07 479.802
979 0 71.1326 13.0882 931 95.5467 1328.43 478.339
980 0 72.1808 13.7294 991 94.777 1328.55 479.08
981 0 75.1623 12.5196 941 97.8247 1327.81 475.023
982 0 77.172 12.9322 998 98.7355 1327.88 475.667
983 0 78.2517 12.5748 984 102.184 1327.42 473.294
984 0 84.2567 13.7793 1161 98.4789 1327.24 470.344
985 0 87.2087 14.5742 1271 96.8324 1327.6 469.682
986 0 89.3257 14.7326 1316 97.5091 1327.61 469.835
987 0 93.361 14.2136 1327 98.7438 1327.93 466.443
988 0 96.2351 13.228 1273 101.326 1327.99 466.056
989 0 100.331 15.0602 1511 97.1396 1327.68 462.506
990 0 103.563 15.0053 1554 98.4916 1327.15 462.075
991 1 52.1296 11.011 574 105.23 1327.76 486.3
992 0 55.0587 11.4787 632 96.2326 1327.54 487.187
993 0 55.1005 10.7984 595 97.6437 1327.82 487.289
994 0 54.0344 10.6969 578 100.151 1328.03 485.427
995 0 61.0288 12.7317 777 94.5611 1327.49 486.14
996 0 62.027 13.075 811 94.9642 1327.96 483.602
997 0 65.0438 13.2987 865 93.9769 1327.74 482.302
998 0 64.0511 11.4908 736 100.269 1327.1 482.413
999 0 68.0439 12.9181 879 98.198 1327.15 480.792
1000 0 70.0769 12.6861 889 100.157 1326.71 480.987
1001 0 70.039 11.4508 802 102.829 1327.32 481.123
1002 0 75.1059 12.7021 954 99.6698 1327.06 478.723
1003 0 77.0653 12.6646 976 100.702 1326.83 478.625
1004 0 78.0652 12.8867 1006 100.861 1326.72 477.138
1005 0 81.1079 13.2539 1075 100.425 1326.84 474.984
1006 0 82.0633 12.6122 1035 102.881 1327.11 472.552
1007 0 86.1363 12.2132 1052 103.721 1326.57 473.994
1008 0 91.1691 13.1514 1199 102.602 1326.9 473.224
1009 0 93.2166 13.0342 1215 103.428 1327 469.714
1010 0 98.161 13.1519 1291 102.084 1326.99 469.329
1011 1 51.0964 11.8404 605 101.992 1326.78 490.109
1012 0 52.1521 12.1951 636 97.8852 1328.71 488.701
1013 0 53.0631 12.9092 685 98.2672 1328.41 485.385
1014 0 56.1208 12.3127 691 98.7858 1327.83 486.507
1015 0 54.0906 11.5177 623 106.987 1327.59 488.305
1016 0 56.0845 11.8928 667 105.594 1327.21 487.484
1017 0 58.0882 12.6187 733 104.353 1328.06 486.057
1018 0 62.0275 13.1393 815 102.791 1327.56 486.007
1019 0 62.1214 11.88 738 106.432 1327.51 484.642
1020 0 68.2121 14.2497 972 99.4496 1327.74 482.968
1021 0 69.0856 12.9984 898 102.415 1327.5 481.492
1022 0 72.2386 12.9986 939 102.132 1327.6 478.846
1023 0 73.1692 12.7239 931 104.46 1327.69 478.798
1024 0 76.3087 13.2095 1008 104.015 1327.15 478.016
1025 0 80.2028 13.4659 1080 104.969 1326.38 475.085
1026 0 81.2693 13.8798 1128 104.714 1326.81 472.841
1027 0 82.1587 13.0966 1076 106.999 1326.51 473.134
1028 0 86.2137 13.281 1145 106.158 1326.64 471.857
1029 0 88.2753 13.4919 1191 105.756 1326.57 471.057
1030 0 93.3206 12.891 1203 106.096 1326.3 469.017
1031 0 95.1763 13.9531 1328 105.515 1326.33 466.2
1032 1 52.0475 10.3559 539 108.531 1324.87 486.683
1033 0 52.0837 8.94713 466 104.755 1326.24 480.118
1034 0 55.2345 10.8447 599 90.8648 1327 483.411
1035 0 56.2357 10.7049 602 92.0598 1326.97 480.992
1036 0 57.1292 11.2552 643 92.084 1326.71 478.095
1037 0 58.1167 10.4789 609 93.22 1327.06 479.297
1038 0 59.1449 10.7364 635 93.1165 1327.15 477.887
1039 0 60.2867 11.5117 694 90.9467 1327.18 478.578
1040 0 64.1861 11.3576 729 91.1399 1327.43 474.652
1041 0 67.2262 11.6472 783 90.6015 1326.68 475.201
1042 0 70.2321 11.5617 812 90.8054 1327.35 474.855
1043 0 73.1747 10.9191 799 92.0638 1326.92 472.84
1044 0 73.1433 11.8534 867 89.8754 1327.64 474.128
1045 0 76.2366 11.0839 845 91.4391 1328.34 471.892
1046 0 80.2774 11.5973 931 91.3136 1328.21 470.14
1047 0 79.1733 11.1275 881 93.412 1328.65 464.614
1048 0 86.408 11.33 979 91.7845 1327.42 468.982
1049 0 91.123 13.5751 1237 93.6095 1326.87 472.694
1050 0 90.1581 13.1547 1186 96.1669 1326.55 470.037
1051 0 96.2442 13.1644 1267 94.1839 1327.36 468.507
1052 0 99.121 12.2779 1217 94.8644 1327.58 468.617
1053 1 50.0952 11.0589 554 95.8971 1328.14 489.374
1054 0 53.2338 11.5904 617 95.4538 1328.59 489.825
1055 0 54.162 12.9242 700 94.1757 1327.74 489.741
1056 0 53.0441 11.1794 593 99.6273 1326.48 489.13
1057 0 56.1871 12.7253 715 95.6727 1327.93 488.285
1058 0 57.1291 12.0954 691 98.2909 1328.02 486.119
1059 0 56.1348 12.0781 678 100.531 1327.96 486.08
1060 0 59.179 12.2848 727 99.3453 1327.89 486.135
1061 0 61.0963 12.5867 769 99.6528 1327.24 484.784
1062 0 64.2758 13.4421 864 97.61 1327.45 482.483
1063 0 63.14 11.7517 742 102.908 1327.4 482.604
1064 0 67.1408 13.3004 893 98.4905 1328 482.479
1065 0 69.0875 13.2006 912 100.553 1327.27 478.999
1066 0 70.2125 11.2658 791 104.867 1327.19 479.138
1067 0 75.2435 12.7984 963 101.109 1328.36 479.158
1068 0 76.2307 13.2624 1011 99.2562 1328.3 477.007
1069 0 78.1336 12.9522 1012 97.165 1328.29 472.268
1070 0 81.2344 12.9871 1055 96.2171 1328.39 471.38
1071 0 85.1192 13.2168 1125 95.8693 1327.78 470.728
1072 0 88.1357 13.2636 1169 95.5056 1327.2 470.627
1073 0 90.1516 12.6897 1144 98.2142 1327.21 466.913
1074 0 93.1488 12.7753 1190 99.3151 1326.31 464.781
1075 0 96.1461 12.6474 1216 100.214 1326.88 463.489
1076 0 99.2188 12.9512 1285 99.8591 1326.93 462.778
1077 1 49.1176 9.5078 467 98.8244 1327.41 482.43
1078 0 57.1086 13.2905 759 105.181 1326.65 486.805
1079 0 58.1971 13.7636 801 103.172 1327.23 486.828
1080 0 57.1935 13.6029 778 105.625 1327.85 484.737
1081 0 61.2223 13.5245 828 105.754 1327.78 483.442
1082 0 65.2553 12.9032 842 106.684 1327.35 483.115
1083 0 66.1654 13.6023 900 105.939 1327.24 482.461
1084 0 68.1655 12.9978 886 107.157 1327.6 481.444
1085 0 70.2481 13.737 965 106.585 1327.41 478.33
1086 0 74.2514 13.9795 1038 105.168 1327.4 477.85
1087 0 76.1041 12.9165 983 107.595 1327.97 477.91
1088 0 78.1609 14.291 1117 105.006 1327.96 477.013
1089 0 80.1651 12.9108 1035 108.218 1328.25 474.469
1090 1 43.0303 10.969 472 105.023 1328.73 493.985
1091 0 44.0894 12.8149 565 101.113 1329.17 492.789
1092 0 46.0723 13.0013 599 100.644 1328.75 490.442
1093 0 48.0624 13.0663 628 100.123 1328.32 490.457
1094 0 49.0612 12.9226 634 101.918 1328.63 489.465
1095 0 50.0632 13.9024 696 100.266 1327.9 487.014
1096 0 51.0093 13.3309 680 101.506 1327.27 486.924
1097 0 54.0236 14.142 764 98.2932 1327.99 487.109
1098 0 54.0295 13.7888 745 100.181 1328.38 486.2
1099 0 55.0215 13.0313 717 103.102 1327.85 485.746
1100 0 59.0187 14.775 872 98.1778 1328.47 484.377
1101 0 58.1682 13.9767 813 101.781 1328.05 484.402
1102 0 59.0523 12.9038 762 104.871 1328.25 481.159
1103 0 64.0488 14.7388 944 99.5858 1327.92 481.967
1104 0 66.1239 14.4123 953 101.916 1328.36 482.058
1105 0 68.0317 14.1846 965 103.176 1328.17 479.402
1106 0 72.1318 13.5724 979 103.531 1328.04 479.104
1107 0 75.1025 15.6852 1178 99.3506 1327.79 477.933
1108 0 75.0994 14.847 1115 102.401 1328.94 475.507
1109 0 78.1637 15.9537 1247 100.958 1328.31 474.98
1110 0 79.1361 14.0391 1111 106.18 1328.04 473.896
1111 0 82.1062 15.005 1232 104.198 1327.96 470.69
1112 0 84.0725 14.321 1204 106.953 1327.69 468.463
1113 0 87.0829 15.6518 1363 102.544 1327.94 469.234
1114 0 90.2274 14.53 1311 106.409 1327.2 462.098
1115 1 51.1739 11.9592 612 104.538 1327.7 488.511
1116 0 52.2437 12.1354 634 103.986 1327.37 484.309
1117 0 55.2157 14.3075 790 100.3 1326.69 480.881
1118 0 55.1007 13.5026 744 103.073 1327.39 485.121
1119 0 57.118 12.658 723 105.402 1327.34 485.362
1120 0 57.1183 13.3758 764 105.788 1327.38 481.836
1121 0 61.1833 13.7129 839 103.83 1327.79 482.745
1122 0 63.1048 14.1669 894 104.221 1327.19 481.916
1123 0 65.1571 13.8435 902 107.239 1327.56 481.996
1124 0 70.232 14.5945 1025 104.931 1326.91 481.786
1125 0 71.2057 14.7882 1053 105.499 1327.25 480.312
1126 0 72.1994 14.3353 1035 107.41 1327.31 480.99
1127 0 75.2129 15.6888 1180 104.664 1327.16 477.781
1128 0 76.2369 14.5205 1107 108.264 1327.92 476.813
1129 0 81.1579 15.168 1231 106.95 1327.17 475.041
1130 0 82.3481 14.3658 1183 109.105 1327.46 474.635
1131 0 87.2328 15.6019 1361 106.406 1327.52 471.212
1132 0 89.3374 15.268 1364 107.916 1326.59 467.378
1133 0 91.1838 12.897 1176 107.855 1326.66 466.338
1134 0 94.1519 14.0836 1326 106.635 1326.76 465.73
1135 0 98.1114 14.1778 1391 105.458 1326.41 469.004
1136 0 102.145 14.5773 1489 102.998 1327.06 466.178
1137 1 56.0555 12.6303 708 101.209 1327.21 488.442
1138 0 58.1672 12.9626 754 101.765 1327.44 486.672
1139 0 60.2161 12.9533 780 100.733 1326.82 482.532
1140 0 64.0855 14.387 922 97.2592 1326.46 481.748
1141 0 64.0916 13.075 838 96.0394 1326.92 481.191
1142 0 67.0287 13.5912 911 95.8068 1326.68 478.824
1143 0 68.1684 12.7038 866 97.6478 1326.98 477.276
1144 0 70.0905 13.5682 951 96.3849 1326.78 473.647
1145 0 74.1063 14.5871 1081 93.9621 1326.76 473.866
1146 0 76.0859 13.3139 1013 96.8825 1326.4 472.794
1147 0 78.1297 13.196 1031 97.065 1326.76 470.213
1148 0 80.091 13.3099 1066 97.0994 1326.85 469.348
1149 0 86.1055 14.5171 1250 94.8144 1326.23 466.683
1150 0 87.1935 13.2579 1156 97.5398 1326.01 465.35
1151 0 91.0737 13.0114 1185 103.012 1325.98 466.842
1152 0 96.2095 14.2502 1371 107.446 1325.06 468.549
1153 0 99.1268 13.74 1362 109.022 1325.91 465.034
1154 0 101.143 13.6143 1377 108.872 1325.75 463.482
1155 0 105.146 14.732 1549 107.081 1325.63 459.977
1156 1 57.032 12.0459 687 106.435 1326.52 486.437
1157 0 59.0696 11.715 692 105.987 1326.29 486.527
1158 0 60.0945 12.6301 759 105.917 1326.79 484.659
1159 0 63.0691 13.1284 828 105.209 1326.12 482.414
1160 0 65.0618 13.2797 864 105.402 1326.77 482.708
1161 0 66.0265 12.4495 822 108.044 1326.59 479.082
1162 0 70.1181 13.0209 913 107.11 1326.8 478.97
1163 0 70.0691 12.6304 885 108.829 1326.48 476.775
1164 0 75.0894 13.1976 991 105.946 1326.88 476.532
1165 0 74.1291 12.168 902 108.996 1326.91 475.717
1166 0 78.105 13.6611 1067 105.249 1326.68 472.162
1167 0 80.0718 11.9393 956 108.719 1326.94 470.373
1168 0 85.2367 13.1868 1124 103.627 1327.23 470.733
1169 0 86.1068 12.078 1040 107.138 1326.94 467.731
1170 0 92.3247 13.2576 1224 103.109 1327.4 469.494
1171 0 94.2305 13.6049 1282 103.146 1327.33 466.146
1172 0 99.2554 13.7322 1363 101.217 1326.78 467.704
1173 1 52.1433 11.5835 604 97.9404 1327.44 489.376
1174 0 56.0763 11.8232 663 100.356 1327.54 489.312
1175 0 56.1079 12.4938 701 100.508 1327.65 487.094
1176 0 58.2476 12.6014 734 102.154 1326.06 484.534
1177 0 59.1985 12.4496 737 102.773 1326.79 485.521
1178 0 60.2497 11.7013 705 105.071 1326.2 483.539
1179 0 65.2277 13.0313 850 100.525 1326.41 483.588
1180 0 66.3436 12.5408 832 102.483 1326.92 480.65
1181 0 70.2838 13.8439 973 99.8448 1326.54 478.302
1182 0 72.276 13.8774 1003 100.224 1326.45 478.474
1183 0 73.2176 13.1116 960 101.905 1326.31 477.357
1184 0 77.4123 13.9384 1079 99.7665 1326.12 475.82
1185 0 80.2947 13.027 1046 102.038 1326.39 474.014
1186 0 83.314 13.4671 1122 100.273 1326.3 474.107
1187 0 82.176 12.96 1065 97.892 1327.29 473.666
1188 0 86.2387 13.8221 1192 95.9379 1327.23 470.362
1189 0 91.1856 14.0263 1279 95.0469 1327.22 469.114
1190 0 93.1101 12.1684 1133 97.4272 1327.78 467.74
1191 0 97.0955 12.462 1210 96.7116 1328 465.101
1192 1 54.107 10.3868 562 98.2811 1328.28 486.379
1193 0 50.0923 10.5206 527 95.2922 1327.51 479.641
1194 0 52.1581 11.6952 610 89.182 1327.33 478.451
1195 0 52.1109 9.55654 498 89.7631 1328.09 480.074
1196 0 56.0838 11.3045 634 86.9558 1328.24 480.976
1197 0 57.0706 9.42692 538 91.3234 1327.8 477.972
1198 0 57.0425 9.74712 556 91.6367 1327.19 477.286
1199 0 62.0948 10.2263 635 89.6252 1327.74 477.957
1200 0 64.1034 9.87467 633 91.1169 1327.63 474.477
1201 0 65.073 9.036 588 93.2993 1327.78 474.435
1202 0 69.0826 9.95909 688 92.7776 1327.11 473.603
1203 0 71.2805 11.097 791 90.4678 1327.24 474.723
1204 0 72.1162 9.26283 668 95.6602 1326.71 472.091
1205 0 76.1679 11.6322 886 91.4786 1326.17 475.554
1206 0 77.1159 10.0757 777 94.6988 1325.95 472.972
1207 0 86.1093 10.8467 934 91.9229 1326.72 472.958
1208 0 86.1322 12.3763 1066 90.9259 1327.52 469.951
1209 0 84.1541 11.0155 927 95.2071 1327.41 467.646
1210 0 89.175 11.584 1033 94.0949 1327.8 467.041
1211 0 90.1159 11.0191 993 96.4431 1328.12 467.19
1212 0 93.0703 12.1091 1127 95.1988 1328.27 466.592
1213 0 96.0879 11.8954 1143 95.7288 1328.35 465.119
1214 0 101.142 12.1414 1228 96.0212 1328.11 462.344
1215 0 103.186 12.4241 1282 96.6856 1327.94 461.983
1216 0 106.145 12.1626 1291 96.1255 1328.02 460.933
1217 0 109.128 11.9951 1309 97.8411 1327.36 459.189
1218 0 114.159 12.6315 1442 96.1789 1327.82 458.686
1219 1 66.2254 10.6455 705 95.8894 1326.95 480.94
1220 0 68.3183 13.3346 911 92.7673 1327.2 478.093
1221 0 71.1907 13.3866 953 93.4187 1327.57 476.876
1222 0 71.0303 13.2901 944 91.2977 1327.81 478.833
1223 0 73.3161 11.1708 819 91.3785 1326.93 477.598
1224 0 78.3891 13.1651 1032 86.8973 1327.2 476.589
1225 0 77.1596 11.9363 921 90.6189 1327.18 475.265
1226 0 82.1132 13.3961 1100 88.0473 1326.72 474.335
1227 0 84.1654 13.0933 1102 88.2232 1326.89 473.425
1228 0 88.2129 13.2974 1173 88.1313 1327.36 472.762
1229 0 92.1734 14.1473 1304 86.2615 1327.24 470.423
1230 0 92.2027 12.4291 1146 90.4337 1327.22 466.068
1231 0 96.2529 12.5295 1206 90.0274 1326.55 468.399
1232 0 99.1972 13.206 1310 88.7702 1327.05 464.92
1233 0 97.2784 10.804 1051 94.0599 1326.8 460.715
1234 0 104.268 14.0695 1467 89.0579 1326.43 463.673
1235 0 108.147 13.2135 1429 92.0644 1326 460.628
1236 0 109.348 12.2545 1340 93.7261 1326.6 457.761
1237 1 60.1859 12.5112 753 90.506 1325.99 485.299
1238 0 61.2197 10.9769 672 94.1384 1325.78 483.466
1239 0 65.1454 11.789 768 94.4844 1325.71 481.747
1240 0 65.1523 11.3887 742 95.2776 1326.04 483.439
1241 0 69.1259 12.3398 853 93.4736 1326.05 482.353
1242 0 71.2665 13.204 941 93.2752 1325.98 479.309
1243 0 73.2568 12.1763 892 94.8419 1326.14 479.369
1244 0 75.3034 13.3593 1006 93.9911 1325.95 476.893
1245 0 78.3044 13.0261 1020 94.7706 1326.45 477.036
1246 0 81.2678 13.4248 1091 93.0018 1327.62 477.297
1247 0 83.2771 12.8247 1068 95.089 1327.33 475.598
1248 0 86.2085 13.1542 1134 94.784 1326.76 475.75
1249 0 89.1606 14.5019 1293 92.2049 1326.99 473.494
1250 0 91.384 14.4993 1325 93.2121 1326.94 469.471
1251 0 93.1737 13.6305 1270 94.9417 1327.1 468.793
1252 0 95.2198 14.3668 1368 95.1265 1326.87 468.305
1253 0 98.2276 14.3341 1408 95.2259 1327.13 467.038
1254 0 102.197 13.9632 1427 96.1731 1327.43 464.911
1255 0 102.146 12.8443 1312 99.1006 1327.83 464.014
1256 0 108.193 15.5464 1682 93.5933 1327.19 459.358
1257 0 112.244 14.2546 1600 96.245 1327.15 458.366
1258 1 62.2074 13.7443 855 92.6795 1326.74 483.585
1259 0 64.2751 13.4889 867 94.8812 1325.7 482.146
1260 0 66.2187 13.7121 908 95.1652 1325.28 481.24
1261 0 66.3821 13.7838 915 96.4361 1325.14 480.062
1262 0 70.3531 13.9724 983 95.3316 1325.63 478.04
1263 0 72.4877 14.7611 1070 94.9336 1324.91 474.098
1264 0 74.2801 12.4798 927 99.4757 1325.04 477.04
1265 0 77.4996 13.1614 1020 98.1549 1325.79 474.126
1266 0 79.2069 14.3296 1135 97.2546 1325.83 469.38
1267 0 84.4628 13.284 1122 98.5731 1325.22 470.823
1268 0 85.2097 14.1768 1208 98.0298 1325.8 469.065
1269 0 88.5711 14.6436 1297 97.0108 1326.31 468
1270 0 90.342 14.6443 1323 97.4142 1325.88 468.027
1271 0 92.5619 14.5848 1350 98.8052 1325.14 464.99
1272 0 96.4567 14.6802 1416 98.9816 1325.85 464.197
1273 0 98.2103 15.2122 1494 98.8273 1326.06 461.489
1274 0 101.45 15.2981 1552 98.3582 1326.18 458.398
1275 0 103.305 12.981 1341 103.368 1326.04 458.922
1276 0 111.452 16.0427 1788 96.1616 1325.62 457.469
1277 1 59.2783 11.3532 673 98.8648 1326.07 483.339
1278 0 60.3346 11.6848 705 99.3021 1326.07 481.708
1279 0 62.3306 13.3482 832 97.0024 1325.63 480.952
1280 0 65.1444 12.9405 843 100.593 1325.16 481.751
1281 0 65.1058 12.2877 800 100.454 1325.85 480.686
1282 0 70.0618 13.0028 911 98.382 1325.51 480.622
1283 0 70.0661 12.5167 877 99.7583 1326.26 479.708
1284 0 75.1655 13.8494 1041 97.9366 1325.91 475.128
1285 0 77.2774 12.8369 992 99.5141 1326.33 475.555
1286 0 77.2107 12.563 970 101.387 1326.3 474.161
1287 0 82.5599 13.6507 1127 98.8092 1325.78 472.8
1288 0 84.2844 12.3748 1043 101.907 1325.91 469.67
1289 0 86.3339 12.4401 1074 101.702 1325.65 468.562
1290 0 91.2674 13.9371 1272 98.4151 1325.94 466.196
1291 0 92.3273 14.3511 1325 98.3336 1326.11 462.559
1292 0 95.333 12.2308 1166 101.947 1326.39 461.727
1293 0 99.4708 13.3909 1332 98.7095 1326.03 462.318
1294 0 104.386 15.481 1616 93.69 1326.64 459.583
1295 0 108.317 13.3774 1449 98.3865 1325.92 454.852
1296 0 111.362 13.5774 1512 98.1038 1326.3 453.661
1297 0 114.134 13.782 1573 98.1691 1325.8 453.727
1298 1 59.1234 10.3174 610 95.1311 1325.82 481.269
1299 0 64.2351 12.6566 813 90.9852 1326.13 477.456
1300 0 66.132 13.5789 898 90.01 1324.98 474.182
1301 0 67.1407 12.9281 868 90.4931 1326.43 474.407
1302 0 71.0541 11.2027 796 92.5251 1326.42 477.065
1303 0 74.1344 12.5448 930 89.1785 1327.06 475.603
1304 0 77.1406 12.717 981 89.581 1327.25 473.133
1305 0 78.1095 11.9064 930 91.7043 1326.61 469.28
1306 0 83.2931 14.1668 1180 86.9542 1326.67 471.406
1307 0 83.0886 12.264 1019 90.8773 1326.65 467.596
1308 0 88.1331 12.2882 1083 90.1099 1326.75 471.11
1309 0 91.1568 13.2958 1212 89.8746 1326.6 466.474
1310 0 93.0936 12.5895 1172 91.8925 1326.35 463.163
1311 0 99.2291 12.8491 1275 91.2651 1326.4 461.891
1312 0 102.244 12.7245 1301 90.761 1327.08 463.217
1313 0 107.332 13.6026 1460 91.0158 1326.37 460.579
1314 0 104.21 10.1334 1056 94.4403 1325.7 451.071
1315 1 61.1522 12.3299 754 92.5133 1324.92 482.971
1316 0 64.0772 12.5005 801 91.5755 1324.58 480.901
1317 0 67.1362 13.9418 936 88.313 1324.73 480.396
1318 0 69.1596 13.5339 936 90.0791 1324.65 479.256
1319 0 70.0552 12.8042 897 93.0045 1325.03 478.255
1320 0 74.1742 13.347 990 92.3889 1324.66 474.025
1321 0 77.0463 12.7845 985 92.8853 1324.39 474.989
1322 0 79.0767 12.1907 964 94.9346 1324.69 474.245
1323 0 83.1109 14.0174 1165 90.8429 1324.61 474.551
1324 0 84.1503 13.6185 1146 92.3857 1324.6 470.954
1325 0 88.186 14.356 1266 90.9139 1324.7 469.524
1326 0 90.1329 14.1236 1273 93.5137 1324.97 463.227
1327 0 93.1762 13.7589 1282 94.3783 1324.93 464.027
1328 0 94.2306 13.2229 1246 96.5225 1325.24 460.679
1329 0 98.1441 13.5108 1326 95.8808 1325.41 461.284
1330 0 102.245 13.9371 1425 95.2119 1324.4 461.064
1331 0 107.133 15.5041 1661 92.5852 1324.44 459.474
1332 0 110.093 14.3969 1585 96.159 1325.05 456.242
1333 0 112.228 13.8558 1555 96.418 1326.03 450.904
1334 1 61.2381 9.16097 561 94.3262 1327.35 471.85
1335 0 63.126 11.2157 708 89.4633 1327.13 474.504
1336 0 65.1329 11.3921 742 84.1267 1325.77 476.313
1337 0 67.1043 11.3257 760 93.2513 1324.6 479.683
1338 0 71.0638 12.341 877 91.7446 1324.8 477.81
1339 0 73.0871 12.2593 896 91.865 1325.01 476.458
1340 0 75.1247 11.7139 880 93.8534 1324.48 476.085
1341 0 78.0368 13.5705 1059 90.711 1325.22 475.513
1342 0 82.1541 12.4644 1024 93.4219 1324.56 474.199
1343 0 83.0642 11.1841 929 97.2207 1324.92 473.591
1344 0 85.1536 13.3641 1138 94.6239 1324.69 472.614
1345 0 89.2405 12.9426 1155 98.3065 1324.89 470.945
1346 0 92.1854 12.9413 1193 98.9413 1324.67 471.973
1347 0 92.0677 11.9586 1101 103.24 1324.37 468.674
1348 0 96.0998 12.383 1190 101.84 1324.3 467.243
1349 0 98.1501 12.9088 1267 102.272 1324.91 464.828
1350 0 101.128 12.4792 1262 103.04 1325.16 463.791
1351 0 107.116 13.3127 1426 100.422 1324.94 462.38
1352 0 109.252 13.3178 1455 101.331 1324.68 460.195
1353 0 113.171 13.6873 1549 99.6417 1325.39 459.59
1354 0 115.207 12.7684 1471 101.914 1325.44 458.995
1355 0 119.38 12.2298 1460 102.625 1325.49 454.938
1356 0 125.465 13.1749 1653 101.326 1325.32 449.952
1357 1 74.1339 12.0727 895 103.055 1324.23 476.277
1358 0 76.0633 11.6876 889 105.934 1324.74 473.175
1359 0 80.1656 12.549 1006 103.371 1324.97 474.06
1360 0 81.1861 13.1673 1069 103.326 1324.51 473.771
1361 0 83.2135 13.5074 1124 103.27 1324.64 471.105
1362 0 84.2194 13.5836 1144 103.929 1324.24 470.582
1363 0 86.2032 13.677 1179 103.813 1324.48 470.158
1364 0 89.2254 13.0792 1167 105.919 1324.64 466.805
1365 0 93.2786 13.5401 1263 103.412 1325.09 464.975
1366 0 96.1054 14.2136 1366 100.874 1324.27 464.807
1367 0 98.203 15.2643 1499 99.0547 1324.88 463.338
1368 0 104.136 12.8774 1341 104.35 1324.89 460.784
1369 0 106.077 14.3669 1524 101.167 1324.88 458.222
1370 0 108.184 13.2922 1438 103.261 1325.79 458.611
1371 0 109.257 13.8847 1517 102.103 1325.89 456.628
1372 1 59.1563 10.785 638 97.3354 1327.54 482.378
1373 0 57.1155 10.1374 579 94.2832 1326.72 473.121
1374 0 62.0147 12.4325 771 94.8145 1324.79 474.961
1375 0 62.113 11.5757 719 98.8401 1324.35 475.658
1376 0 68.0445 12.0509 820 95.7537 1324.78 476.068
1377 0 68.1315 11.9915 817 95.8825 1324.59 476.305
1378 0 69.0622 11.2073 774 99.5297 1324.29 473.649
1379 0 73.0533 13.4012 979 94.7314 1324.43 472.674
1380 0 76.0679 12.5546 955 96.7257 1324.76 469.881
1381 0 78.0617 13.7199 1071 94.6965 1324.82 470.387
1382 0 79.0258 11.9834 947 100.002 1324.57 469.423
1383 0 82.065 12.2342 1004 99.9392 1323.99 469.631
1384 0 82.0863 11.6341 955 101.155 1324.31 463.54
1385 0 86.1162 13.6792 1178 96.9304 1324.24 463.269
1386 0 86.0859 11.9416 1028 101.526 1324.54 460.082
1387 0 92.0644 12.3392 1136 99.3891 1324.75 460.156
1388 0 96.0864 12.4888 1200 98.3033 1325.14 459.342
1389 0 97.1279 12.6328 1227 98.4132 1325.82 458.648
1390 0 99.131 11.2377 1114 99.6086 1325.53 461.394
1391 0 105.187 13.5377 1424 90.4789 1326.25 458.215
1392 0 106.057 12.0596 1279 94.7506 1325.99 458.388
1393 0 111.056 12.6603 1406 94.0213 1326.06 453.349
1394 0 113.17 11.3016 1279 95.6841 1325 452.729
1395 1 62.2021 10.7713 670 94.4806 1327.31 482.927
1396 0 63.2524 11.1774 707 96.6393 1327.52 482.041
1397 0 69.1027 13.0675 903 95.2259 1327.9 480.372
1398 0 71.1187 13.2876 945 93.2011 1327.88 479.966
1399 0 72.1339 11.9916 865 93.7249 1328.04 478.711
1400 0 75.1269 12.8449 965 92.5979 1327.96 475.979
1401 0 78.1679 10.0169 783 97.8148 1327.81 474.724
1402 0 79.0783 11.634 920 95.2467 1327.86 473.417
1403 0 83.1117 14.7392 1225 88.5576 1327.52 471.312
1404 0 85.0695 12.0607 1026 94.5556 1327.52 471.636
1405 0 89.3477 13.4978 1206 91.5962 1327.15 470.531
1406 0 91.1917 13.181 1202 93.0324 1326.59 468.714
1407 0 95.1734 13.7433 1308 91.8463 1326.16 465.661
1408 0 96.1219 12.7858 1229 94.1497 1326.43 464.268
1409 0 100.175 13.3665 1339 92.6744 1326.28 461.602
1410 0 104.234 13.3929 1396 93.303 1326.37 462.597
1411 0 104.166 13.1425 1369 94.4244 1326.38 461.485
1412 0 108.172 13.46 1456 94.6353 1326.24 458.73
1413 0 112.224 13.3305 1496 95.3904 1326.17 457.503
1414 0 114.381 13.0616 1494 96.3414 1326.27 454.184
1415 0 117.317 13.5019 1584 95.5436 1326.46 452.098
1416 0 119.412 12.9719 1549 96.9296 1326.19 452.235
1417 0 125.171 14.3564 1797 94.0351 1326.82 448.163
1418 0 129.227 12.8766 1664 97.3233 1326.5 444.831
1419 0 132.274 12.9731 1716 97.2628 1326.21 445.145
1420 0 139.294 13.2526 1846 96.3066 1326.13 442.847
1421 0 142.44 12.9388 1843 97.8074 1326.09 440.768
1422 0 146.3 13.6363 1995 96.8145 1325.55 437.353
1423 0 151.287 14.0462 2125 96.4969 1325.85 435.297
1424 0 155.321 12.3679 1921 99.063 1325.65 433.809
1425 0 160.348 12.5228 2008 100.91 1326.15 433.476
1426 0 167.582 12.1911 2043 99.8253 1327 433.654
1427 0 171.391 13.2037 2263 99.1776 1326.67 428.989
1428 0 178.53 13.1575 2349 99.7974 1326.36 425.044
1429 0 184.564 12.0229 2219 102.091 1326.12 423.452
1430 0 189.627 14.2121 2695 99.3161 1325.58 413.729
1431 0 194.397 12.8603 2500 101.319 1325.66 418.796
1432 0 202.448 13.5986 2753 100.764 1325.84 410.858
1433 1 156.419 12.3259 1928 101.27 1325.61 436.295
1434 0 164.239 12.6219 2073 101.057 1325.26 433.809
1435 0 167.32 12.3296 2063 102.637 1326.84 428.865
1436 0 173.314 12.9246 2240 101.116 1326.17 429.147
1437 0 179.148 12.2246 2190 104.117 1326.48 422.695
1438 0 181.18 13.0478 2364 104.173 1325.5 419.642
1439 0 190.291 14.4725 2754 100.646 1326.83 417.825
1440 0 195.271 12.7822 2496 104.382 1326.65 413.17
1441 0 203.259 13.067 2656 103.501 1326.56 409.628
1442 0 211.315 13.61 2876 102.125 1326.37 409.024
1443 0 216.331 13.0494 2823 104.29 1326.45 400.21
1444 0 222.36 12.2864 2732 105.936 1326.29 399.811
1445 0 234.374 13.1627 3085 103.498 1326.48 394.656
1446 0 239.261 13.6253 3260 103.24 1326.3 388.945
1447 0 249.563 15.2387 3803 99.8727 1326.74 386.256
1448 0 258.273 14.2795 3688 101.926 1326.59 382.287
1449 0 267.385 12.4764 3336 105.683 1326.91 375.499
1450 0 277.52 13.3504 3705 104.348 1326.58 376.191
1451 0 286.37 14.6454 4194 103.314 1326.14 365.118
1452 0 339.119 24.2334 8218 76.3636 1325.83 324.292
1453 1 293.405 11.963 3510 104.123 1326.14 371.6
1454 1 244.597 13.6183 3331 100.846 1325.55 388.36
1455 0 252.428 14.7527 3724 101.557 1325.92 393.383
1456 0 259.437 15.0865 3914 101.387 1325.93 385.327
1457 0 267.727 14.7165 3940 102.733 1325.82 383
1458 0 275.452 14.9935 4130 102.097 1326.19 375.131
1459 1 69.1283 12.0211 831 98.9832 1327.93 476.748
1460 0 71.0309 12.5016 888 101.208 1327.12 477.249
1461 0 73.1742 12.7504 933 92.0557 1326.65 474.036
1462 0 76.1736 12.6422 963 91.945 1326.52 472.953
1463 0 78.0918 12.5237 978 93.5961 1326.9 469.253
1464 0 79.1538 12.8863 1020 92.3451 1326.07 467.948
1465 0 83.1605 12.2294 1017 92.4956 1326.76 466.971
1466 0 89.131 13.1941 1176 104.735 1326.06 470.582
1467 0 91.2628 14.0693 1284 102.17 1326.61 467.371
1468 0 94.2695 12.0824 1139 107.007 1326.2 464.899
1469 0 98.2737 12.4754 1226 102.218 1326.3 463.28
1470 1 54.0403 12.2871 664 92.9639 1326.62 488.372
1471 0 57.1407 13.2655 758 90.4182 1324.76 485.669
1472 0 61.0226 14.5356 887 94.7903 1323.92 476.579
1473 0 61.0564 13.7905 842 98.3195 1323.82 457.569
1474 0 63.0353 14.6109 921 97.2704 1323.98 451.997
1475 0 66.0426 14.3241 946 96.76 1323.95 454.801
1476 0 68.0831 16.1274 1098 92.8525 1324.03 455.513
1477 0 69.0608 13.6402 942 98.655 1323.65 451.109
1478 0 72.0166 13.7746 992 98.1764 1323.73 461.259
1479 0 71.0717 12.7055 903 101.492 1324.58 465.617
1480 0 72.1139 13.4648 971 101.702 1324.32 463.977
1481 0 76.1131 13.9661 1063 100.087 1324.81 464.12
1482 0 78.1922 13.6075 1064 101.221 1324.09 465.858
1483 0 82.1967 15.0249 1235 98.6113 1324.49 463.981
1484 0 82.1313 13.9776 1148 99.9861 1324.18 475.138
1485 0 84.0648 12.8353 1079 104.244 1324.17 471.573
1486 0 90.1793 14.7817 1333 98.2468 1324.56 472.095
1487 1 48.092 10.7918 519 102.181 1324.21 490.247
1488 0 51.2885 12.4199 637 96.9341 1325.01 488.405
1489 0 53.1917 12.8967 686 91.1647 1326.46 487.636
1490 0 55.1093 13.8271 762 89.9199 1326.66 486.944
1491 0 54.1537 12.7231 689 93.7242 1326.76 486.784
1492 0 57.0978 13.4331 767 92.0613 1326.78 486.167
1493 0 58.1533 13.2581 771 95.7108 1326.53 482.834
1494 0 60.1172 14.0559 845 95.0059 1326.68 483.865
1495 0 62.1173 14.7785 918 92.9107 1326.52 485.902
1496 0 62.1017 13.6711 849 97.3628 1326.08 483.236
1497 0 64.1589 15.181 974 94.7146 1326.58 481.457
1498 0 65.1369 13.6942 892 98.6626 1326.82 482.376
1499 0 70.1851 15.0744 1058 93.8989 1326.62 480.777
1500 0 70.1116 13.3644 937 98.6489 1326.59 480.125
1501 0 72.1072 13.7573 992 97.8538 1326.44 479.358
1502 0 75.0819 14.038 1054 96.9108 1326.26 478.231
1503 0 77.1988 13.6531 1054 96.8159 1326.91 476.717
1504 0 80.036 13.9937 1120 90.492 1326.31 476.768
1505 0 80.0453 14.3169 1146 92.8054 1325.39 475.013
1506 0 79.0804 13.0121 1029 99.2459 1325.98 474.253
1507 0 81.1474 13.5433 1099 98.1137 1325.94 472.483
1508 0 83.1059 13.4407 1117 98.2731 1325.4 474.292
1509 1 43.0807 11.6758 503 102.298 1323.73 494.336
1510 0 45.0533 13.0734 589 96.0153 1324.09 493.749
1511 0 46.0612 14.2202 655 90.3344 1325.12 493.956
1512 0 45.0661 11.0726 499 96.493 1325.25 492.727
1513 0 47.053 13.9205 655 90.1954 1325.18 491.072
1514 0 51.1047 13.5995 695 88.2216 1324.89 490.465
1515 0 51.0451 12.7534 651 89.6467 1325.13 490.135
1516 0 53.0276 13.5024 716 88.0503 1324.98 488.581
1517 0 55.0501 12.3524 680 88.9044 1324.28 489.663
1518 0 56.0843 15.4945 869 84.4522 1324.11 487.112
1519 0 56.0794 12.8746 722 90.018 1324.08 487.96
1520 0 59.0568 12.9706 766 90.0379 1324.12 484.889
1521 0 60.0692 13.2181 794 89.267 1325.55 486.589
1522 0 62.1 13.2206 821 90.8526 1324.98 483.491
1523 0 62.1525 12.3084 765 94.1529 1325.25 484.001
1524 0 64.0582 12.1296 777 95.6911 1325.53 483.644
1525 0 66.106 11.8749 785 96.5121 1325.59 485.236
1526 0 68.1698 11.8381 807 97.72 1325.86 483.107
1527 0 72.1426 12.8773 929 95.859 1325.64 483.336
1528 0 74.2589 13.3048 988 96.1488 1325.19 482.539
1529 1 40.0968 11.0732 444 100.975 1325.62 498.101
1530 0 42.1929 12.3006 519 101.052 1324.63 495.135
1531 0 44.1412 12.0975 534 101.845 1324.68 495.736
1532 0 43.0795 12.2564 528 104.32 1325.03 494.511
1533 0 43.0855 11.3263 488 108.332 1325.42 495.01
1534 0 46.0587 12.9183 595 105.361 1325.94 493.375
1535 0 47.0173 11.9743 563 108.693 1325.76 492.078
1536 0 48.0959 12.5374 603 109.421 1325.69 491.539
1537 0 49.0551 12.435 610 110.307 1325.75 491.854
1538 0 50.1155 12.7705 640 110.127 1325.95 492.034
1539 0 52.0782 12.9229 673 110.068 1325.66 491.536
1540 0 55.0602 13.2219 728 109.963 1325.62 490.181
1541 0 55.0436 13.7709 758 109.865 1325.76 489.942
1542 0 58.1059 14.1638 823 108.482 1325.86 488.694
1543 0 59.0158 14.4368 852 108.479 1326.24 487.65
1544 0 63.0473 14.5922 920 107.387 1325.76 487.417
1545 0 62.0546 14.036 871 110.763 1325.82 487.227
1546 0 64.0257 14.5098 929 109.997 1325.22 485.811
1547 0 65.0487 13.805 898 110.723 1325.5 486.67
1548 0 69.0559 15.3499 1060 107.6 1324.65 483.068
1549 0 68.0893 12.792 871 115.851 1324.65 482.472
1550 0 72.06 14.0161 1010 112.383 1324.47 480.488
1551 0 75.1013 14.5936 1096 112.093 1323.9 479.635
1552 0 77.2187 14.4266 1114 113.034 1323.27 478.662
1553 0 81.0779 13.6782 1109 111.823 1324.28 479.063
1554 0 83.1337 14.1218 1174 111.417 1324.04 476.807
1555 0 87.1582 13.2977 1159 114.348 1323.63 473.648
1556 0 90.2747 14.5002 1309 111.358 1323.48 472.955
1557 1 48.1218 12.5723 605 111.636 1323.96 494.6
1558 0 47.046 13.1148 617 110.467 1323.29 494.476
1559 0 47.0993 13.3548 629 104.75 1322.86 491.502
1560 0 49.0065 13.2227 648 106.12 1323.44 490.031
1561 0 50.0672 11.924 597 108.258 1323.84 491.087
1562 0 52.0874 12.9974 677 105.251 1323.91 491.019
1563 0 54.0319 11.3637 614 107.603 1323.85 490.381
1564 0 56.0492 12.0251 674 105.798 1324.1 489.543
1565 0 60.093 11.6985 703 103.832 1324.28 490.009
1566 0 61.0785 12.1974 745 104.035 1323.65 487.694
1567 0 63.0851 13.7909 870 101.074 1323.18 483.423
1568 0 65.0746 11.8787 773 104.461 1323.74 484.965
1569 0 68.0695 12.2816 836 101.658 1323.69 484.62
1570 0 72.029 13.5362 975 100.463 1323.49 480.983
1571 0 75.2334 13.3451 1004 101.753 1322.7 481.357
1572 0 78.0847 13.3445 1042 103.622 1322.13 478.725
1573 0 81.1993 13.5962 1104 103.54 1322.59 477.759
1574 0 84.1625 13.5809 1143 103.981 1322.65 474.866
1575 1 43.0516 13.2631 571 106.79 1322.78 494.478
1576 0 46.086 13.605 627 101.424 1323.72 494.628
1577 0 47.0162 13.4209 631 97.6434 1324.19 494.921
1578 0 49.1455 14.3655 706 95.6615 1323.78 494.487
1579 0 49.0215 12.7699 626 100.717 1323.94 492.093
1580 0 52.055 14.8113 771 96.3437 1324.4 491.573
1581 0 53.0215 14.1452 750 98.3747 1323.84 490.351
1582 0 55.0885 13.5963 749 98.749 1324.58 489.198
1583 0 56.0255 14.8861 834 97.5 1324.68 487.677
1584 0 59.0809 14.8271 876 97.3482 1324.61 487.612
1585 0 60.0554 12.605 757 103.108 1324.73 486.251
1586 0 64.1372 15.1082 969 97.5067 1324.18 484.89
1587 0 65.0765 14.4292 939 100.446 1324.76 484.157
1588 0 70.1092 15.376 1078 97.3534 1324.02 484.314
1589 0 70.1694 14.1942 996 101.421 1324.43 483.807
1590 0 73.1333 15.0137 1098 100.506 1323.67 482.396
1591 0 76.0847 13.5638 1032 104.218 1323.44 480.93
1592 1 39.0677 12.4655 487 109.647 1322.92 497.899
1593 0 40.3956 12.5756 508 107.583 1323.49 494.996
1594 0 40.2506 13.0433 525 109.377 1323.79 494.762
1595 0 41.1388 13.5395 557 108.88 1324.1 495.25
1596 0 44.1741 14.1259 624 106.676 1323.53 494.595
1597 0 47.2224 13.2776 627 108.679 1323.38 493.737
1598 0 46.1677 15.1621 700 107.196 1323.89 492.003
1599 0 45.1548 12.4682 563 114.508 1324.15 492.439
1600 0 49.296 13.4088 661 110.843 1323.69 491.587
1601 0 51.1103 15.3198 783 106.676 1323.53 490.181
1602 0 53.2523 14.6285 779 108.633 1323.12 487.915
1603 0 54.111 14.3779 778 110.05 1322.99 486.859
1604 0 56.2277 14.6014 821 108.823 1323.49 485.94
1605 0 59.1291 14.7981 875 107.626 1323.6 485.792
1606 0 58.2952 14.3923 839 110.305 1323.72 484.274
1607 0 60.215 16.3082 982 106.561 1323.53 482.773
1608 0 63.2088 15.8839 1004 107.864 1323.68 479.982
1609 0 65.2382 15.1598 989 109.829 1322.78 480.085
1610 0 66.2485 15.457 1024 109.008 1323.36 479.564
1611 0 67.2647 13.707 922 115.253 1322.64 477.843
1612 0 71.248 14.7794 1053 111.082 1323.17 476.335
1613 0 72.062 14.2516 1027 113.224 1322.79 474.538
1614 0 74.1344 14.7975 1097 110.947 1322.85 473.456
1615 0 80.18 14.3053 1147 105.738 1323.51 472.506
1616 0 81.2765 14.5799 1185 106.484 1322.98 470.046
1617 0 83.2546 14.1133 1175 107.008 1323.24 470.561
1618 0 86.0908 14.8448 1278 105.803 1323.15 465.722
1619 0 89.1425 14.5161 1294 106.201 1323.26 465.774
1620 1 48.1301 13.235 637 112.251 1324.69 484.509
1621 0 52.1585 13.1714 687 112.303 1323.13 482.041
1622 0 52.0624 15.6351 814 105.801 1323.67 480.663
1623 0 56.1213 15.2527 856 104.369 1323.64 480.081
1624 0 57.0763 14.9624 854 105.472 1324.21 479.393
1625 0 60.1702 15.1903 914 103.914 1324.07 479.249
1626 0 60.0809 13.8147 830 107.973 1323.63 477.74
1627 0 64.1131 15.5194 995 102.934 1324.16 475.982
1628 0 65.2616 14.0052 914 107.744 1323.42 474.115
1629 0 68.3877 13.9353 953 106.96 1323.69 473.22
1630 0 72.106 15.4911 1117 102.729 1323.57 471.892
1631 0 74.0785 14.8626 1101 105.115 1323.09 470.121
1632 0 76.1875 14.7268 1122 105.597 1322.73 468.459
1633 0 79.2555 14.5605 1154 105.938 1322.37 467.22
1634 0 83.2741 14.7465 1228 105.502 1323.09 466.797
1635 0 84.1853 14.9551 1259 105.832 1322.92 465.588
1636 0 89.1671 13.6037 1213 107.303 1322.62 462.51
1637 0 92.1887 15.1103 1393 103.381 1322.98 461.382
1638 1 47.181 12.1447 573 110.147 1322.99 481.501
1639 0 48.0677 13.1481 632 107.032 1323.17 481.821
1640 0 50.0892 13.8553 694 105.767 1322.95 480.308
1641 0 51.0426 12.421 634 107.491 1323.23 482.47
1642 0 51.0666 12.3564 631 110.063 1322.96 478.385
1643 0 53.023 12.4097 658 109.848 1323.04 476.936
1644 0 59.0916 13.9783 826 104.222 1322.85 475.992
1645 0 59.1128 13.1613 778 107.497 1322.46 474.51
1646 0 59.1165 13.4142 793 107.05 1322.74 473.288
1647 0 63.1922 13.3402 843 107.637 1322.39 472.849
1648 0 66.1661 12.9976 860 110.02 1322.01 474.586
1649 0 68.3316 13.2003 902 108.104 1322.26 470.466
1650 0 70.1118 13.4927 946 108.319 1322.49 467.929
1651 0 73.208 13.9602 1022 107.719 1322.64 466.398
1652 0 76.2203 13.5528 1033 108.084 1322.38 466.338
1653 0 80.0856 14.2847 1144 105.663 1322.61 465.663
1654 0 83.0783 14.3479 1192 105.945 1322.35 464.012
1655 0 85.0665 13.2485 1127 109.177 1322.26 460.326
1656 0 88.1894 13.6751 1206 107.454 1322.81 461.274
1657 0 93.3289 14.1971 1325 105.831 1322.72 459.404
1658 1 44.1905 10.9979 486 98.821 1321.99 486.235
1659 0 45.1433 10.6993 483 99.942 1321.66 484.037
1660 0 48.1498 10.7581 518 94.3822 1322.53 486.577
1661 0 50.1677 11.043 554 94.7545 1322.27 485.231
1662 0 50.1111 10.5965 531 96.3974 1322.12 488.744
1663 0 54.1393 12.4124 672 94.4003 1322.39 486.496
1664 0 55.1435 12.0594 665 94.6571 1322.54 487.466
1665 0 54.1088 12.2346 662 98.7764 1322.24 488.094
1666 0 57.0765 12.2818 701 99.0842 1322.16 486.275
1667 0 61.0948 12.6852 775 96.1871 1322.3 485.533
1668 0 62.0947 13.8498 860 94.9221 1322.15 483.101
1669 0 65.0924 12.705 827 96.1318 1322.36 483.131
1670 0 65.0737 11.0797 721 99.0832 1322.05 484.021
1671 0 67.0612 11.0645 742 100.919 1321.48 481.271
1672 0 70.2108 12.4625 875 98.1531 1321.39 477.649
1673 0 74.0605 12.5573 930 96.9774 1321.62 478.571
1674 0 77.076 11.7417 905 98.1967 1322.11 477.759
1675 0 80.2063 11.7572 943 97.3542 1321.8 475.145
1676 0 81.1926 11.3434 921 97.81 1321.94 472.223
1677 1 44.1154 10.5405 465 95.871 1321.16 494.692
1678 0 43.054 11.0791 477 93.7421 1321.43 492.765
1679 0 46.0602 10.8554 500 91.284 1322.32 489.108
1680 0 47.0889 11.7862 555 93.8162 1323.35 491.645
1681 0 48.066 11.7963 567 93.0794 1323.52 492.623
1682 0 49.128 11.4395 562 94.5658 1323.41 490.84
1683 0 50.0166 12.196 610 93.2049 1324.35 489.682
1684 0 52.0179 10.7847 561 96.8378 1323.59 490.093
1685 0 54.1333 11.3239 613 94.5057 1323.92 489.32
1686 0 56.1244 11.0112 618 95.6019 1323.86 488.718
1687 0 59.1043 12.1818 720 92.4833 1323.31 486.007
1688 0 60.0539 11.0234 662 96.9637 1323.5 486.112
1689 0 64.1245 12.5849 807 93.9591 1323.75 483.513
1690 0 66.2109 11.5087 762 95.1404 1323.59 484.192
1691 0 69.0804 12.898 891 92.8081 1323.43 482.813
1692 0 70.1175 11.4379 802 96.0885 1323.88 481.16
1693 0 72.1333 11.5203 831 95.2948 1323.62 481.626
1694 0 73.1818 11.1366 815 97.811 1323.11 479.443
1695 0 75.197 10.785 811 98.1134 1323.23 477.922
1696 0 80.2737 11.7099 940 97.7223 1323.64 474.243
1697 1 40.0644 10.2585 411 95.8735 1323.71 495.487
1698 0 45.2536 12.1979 552 90.9475 1321.57 490.946
1699 0 42.1201 11.0873 467 95.5353 1323.15 492.298
1700 0 44.1173 10.2908 454 96.8524 1323.88 493.993
1701 0 46.1064 11.5602 533 95.1276 1323.82 492.73
1702 0 47.0414 10.5226 495 95.7313 1324.31 493.269
1703 0 48.2055 11.6584 562 94.8203 1324.18 491.696
1704 0 49.3514 10.8406 535 95.3402 1324.05 492.082
1705 0 51.2109 12.0677 618 91.4094 1324.26 489.566
1706 0 51.1544 11.1818 572 94.5734 1324.17 488.395
1707 0 55.1564 12.4192 685 90.4803 1324.45 488.438
1708 0 57.1235 11.7815 673 92.8767 1323.49 487.883
1709 0 59.1425 10.7537 636 94.5204 1324.17 486.017
1710 0 61.2195 12.4797 764 92.538 1323.34 486.334
1711 0 65.1408 13.3096 867 90.5952 1323.08 486.047
1712 0 66.2673 12.1478 805 95.0547 1322.92 482.732
1713 0 67.2866 12.7811 860 94.15 1323.3 481.249
1714 0 71.2488 13.6143 970 93.7258 1323.28 480.63
1715 0 72.2943 11.799 853 97.0234 1322.86 482.236
1716 0 75.1983 12.2077 918 99.1329 1322.89 478.313
1717 0 80.3691 13.9233 1119 95.0447 1322.86 475.424
1718 0 80.5033 12.1734 980 99.7857 1322.31 477.338
1719 0 83.3566 12.3206 1027 99.0419 1322.65 473.932
1720 0 88.3893 12.4223 1098 98.8479 1322.65 473.005
1721 0 92.3263 13.7772 1272 96.9984 1322.59 472.419
1722 1 47.1337 12.9843 612 99.5703 1322.98 492.758
1723 0 47.1176 12.1823 574 102.611 1324.19 492.545
1724 0 50.3472 12.7117 640 102.525 1322.6 488.136
1725 0 52.2987 13.0405 682 102.818 1322.21 488.415
1726 0 52.312 12.8842 674 103.297 1322.13 489.451
1727 0 53.2471 13.2402 705 105.248 1322.28 487.779
1728 0 56.1192 12.8655 722 104.375 1324.31 489.194
1729 0 53.0419 13.4611 714 108.014 1324.23 486.71
1730 0 58.0426 14.2309 826 103.741 1324.53 486.705
1731 0 59.1216 12.9563 766 108.033 1324.33 485.362
1732 0 61.1639 14.4039 881 105.623 1323.64 485.604
1733 0 63.0584 14.9385 942 104.414 1323.71 485.223
1734 0 65.0925 13.6268 887 108.416 1323.78 482.93
1735 0 66.0829 13.9673 923 108.828 1323.15 482.115
1736 0 68.106 14.2719 972 108.954 1323.1 480.286
1737 0 71.1576 15.1214 1076 104.347 1323.83 482.31
1738 0 72.1189 13.3945 966 109.444 1324.19 480.921
1739 0 74.1986 13.5717 1007 110.115 1323.82 478.178
1740 0 77.2183 13.9216 1075 110.603 1323.68 475.798
1741 0 80.109 14.2681 1143 108.938 1324.14 475.167
1742 0 82.233 14.3495 1180 106.655 1323.63 474.221
1743 0 85.2318 13.0233 1110 110.269 1323.66 475.808
1744 1 46.1118 10.995 507 112.349 1324.11 491.507
1745 0 45.0988 10.9094 492 114.079 1324.06 492.606
1746 0 49.4413 13.5514 670 105.987 1323.87 488.869
1747 0 50.0688 11.9835 600 92.5483 1324.39 488.558
1748 0 49.1158 11.1573 548 95.3613 1323.81 487.381
1749 0 48.1629 10.2984 496 98.9274 1323.78 489.748
1750 0 51.148 10.9095 558 98.5538 1324.22 487.134
1751 0 53.1155 10.4866 557 100.142 1323.46 486.271
1752 0 53.0741 10.4382 554 98.6877 1323.73 486.292
1753 0 57.1184 10.7496 614 99.1401 1323.36 484.01
1754 0 57.0884 11.0705 632 100.215 1322.57 482.829
1755 0 59.1128 10.9452 647 100.507 1323.72 482.218
1756 0 61.1865 10.705 655 101.837 1323.22 481.163
1757 0 65.1131 10.7812 702 101.665 1323.7 480.426
1758 0 65.0688 10.6964 696 103.187 1323.71 477.434
1759 0 68.0726 10.7238 730 103.105 1323.41 475.949
1760 0 71.0608 11.6098 825 102.835 1323.3 474.905
1761 0 71.2434 11.973 853 103.068 1323.11 472.341
1762 0 76.1242 11.4944 875 102.931 1323.36 474.03
1763 0 78.0341 11.3924 889 104.424 1323.34 470.51
1764 0 81.1744 10.9887 892 105.263 1323.59 470.135
1765 0 83.1357 11.5474 960 105.383 1323.57 469.121
1766 0 86.053 11.6556 1003 107.326 1323.48 466.789
1767 0 89.0616 12.6092 1123 106.042 1323.69 464.688
1768 0 92.0996 12.2259 1126 107.014 1323.76 465.954
1769 0 95.1502 12.8954 1227 107.139 1322.97 460.777
1770 0 99.07 13.0009 1288 107.734 1323.56 458.71
1771 0 102.092 13.3409 1362 107.159 1323.19 458.582
1772 0 102.083 11.6963 1194 112.127 1323.86 459.89
1773 0 105.141 11.6415 1224 114.368 1323.32 456.372
1774 0 107.101 11.8859 1273 114.898 1323.17 455.782
1775 0 113.153 12.8852 1458 114.445 1323.2 452.704
1776 0 116.108 12.5142 1453 115.702 1323.74 451.9
1777 0 121.272 13.4162 1627 114.949 1322.39 447.851
1778 0 125.221 14.2068 1779 113.148 1321.99 447.404
1779 0 126.214 11.6469 1470 119.025 1322.47 448.857
1780 0 130.332 11.1792 1457 121.75 1322.83 441.605
1781 0 138.201 12.2937 1699 117.012 1322.99 444.644
1782 0 144.444 13.3616 1930 114.569 1323.25 439.215
1783 0 149.222 12.3842 1848 118.781 1323.42 434.267
1784 1 82.2176 12.1993 1003 106.828 1323.72 467.641
1785 0 82.1489 10.6149 872 104.087 1322.72 469.916
1786 0 85.1145 9.85731 839 105.625 1322.58 473.117
1787 0 87.1817 9.5777 835 107.553 1322.8 467.522
1788 0 92.1602 11.3932 1050 103.77 1322.61 467.931
1789 0 96.1585 11.6058 1116 102.959 1322.79 464.643
1790 0 96.2473 10.9094 1050 105.65 1323.02 461.909
1791 0 100.111 10.9278 1094 106.754 1322.85 460.202
1792 0 103.151 11.6044 1197 107.167 1321.78 457.229
1793 0 107.128 12.7698 1368 104.831 1321.99 454.77
1794 0 112.179 14.8602 1667 113.383 1321.11 460.43
1795 0 116.194 15.3881 1788 112.501 1321.14 456.618
1796 0 119.173 15.8257 1886 110.6 1321.58 457.732
1797 0 119.157 14.1997 1692 117.213 1321.58 454.494
1798 0 127.132 14.8429 1887 113.431 1322.07 453.494
1799 0 128.174 13.7469 1762 117.692 1322.02 449.692
1800 0 133.243 15.4154 2054 112.178 1322.16 453.613
1801 0 134.238 14.3253 1923 117.329 1322.04 448
1802 0 134.242 14.2802 1917 149.198 1321.04 448.031
1803 0 142.355 14.5481 2071 118.405 1322.59 443.437
1804 0 147.413 15.209 2242 115.172 1322.82 445.872
1805 0 150.37 15.003 2256 116.68 1322.64 440.205
1806 0 154.745 15.8842 2458 115.798 1322.56 436.35
1807 0 157.53 15.597 2457 117.548 1322.68 435.799
1808 0 160.642 15.3136 2460 116.652 1322.97 433.919
1809 0 163.254 15.0195 2452 109.035 1322.98 430.208
1810 0 168.116 15.3525 2581 109.252 1323.01 434.182
1811 0 169.125 15.0244 2541 114.745 1323.14 430.764
1812 0 175.171 15.9616 2796 109.468 1322.85 429.343
1813 0 177.162 13.9477 2471 119.752 1322.09 426.614
1814 0 180.338 15.9978 2885 113.356 1322.11 424.687
1815 0 183.385 14.2487 2613 117.883 1322.5 419.498
1816 0 186.282 14.7357 2745 116.845 1322 416.4
1817 0 191.357 15.3013 2928 115.144 1322.1 414.092
1818 0 180.408 13.3309 2405 122.161 1322.64 420.625
1819 0 184.417 14.1201 2604 119.785 1321.98 422.414
1820 0 183.537 13.5286 2483 122.079 1322 423.421
1821 0 190.396 13.1516 2504 123.271 1322.03 416.294
1822 0 193.459 14.3235 2771 119.231 1322.27 417.896
1823 0 192.373 13.9053 2675 121.499 1322.06 415.164
1824 0 191.51 14.0045 2682 121.778 1322.21 413.362
1825 0 191.51 14.062 2693 161.911 1322.21 413.342
1826 0 192.535 13.4106 2582 163.469 1322.21 415.105
1827 1 219.567 15.107 3317 115.596 1322.85 402.461
1828 0 223.853 16.0909 3602 112.426 1322.56 396.557
1829 0 224.425 15.5598 3492 113.998 1323.02 398.228
1830 0 226.555 15.6739 3551 113.719 1322.66 396.693
1831 0 231.581 16.6162 3848 110.044 1322.71 396.378
1832 0 231.509 14.4141 3337 116.177 1321.98 395.628
1833 0 236.707 16.7507 3965 109.021 1322.54 393.11
1834 0 237.648 15.8049 3756 111.563 1322.14 391.1
1835 0 239.585 15.3933 3688 112.367 1321.99 392.643
1836 0 241.796 15.1119 3654 112.828 1322.06 391.316
1837 0 245.789 16.323 4012 109.358 1321.69 388.76
1838 0 246.874 15.5505 3839 111.071 1321.88 389.211
1839 0 248.689 15.252 3793 112.095 1322.07 387.086
1840 0 248.552 14.1218 3510 115.914 1321.84 385.005
1841 0 250.653 15.5394 3895 111.116 1322.15 387.441
1842 0 250.657 15.5631 3901 151.605 1322.15 387.274
1843 0 254.816 14.328 3651 114.119 1322 389.322
1844 0 257.549 15.9853 4117 110.264 1321.38 386.773
1845 0 257.648 14.7139 3791 112.828 1321.67 383.307
1846 0 259.523 15.1316 3927 111.334 1321.94 385.533
1847 0 261.72 15.5357 4066 110.166 1322.13 380.819
1848 0 262.629 17.0697 4483 106.578 1321.94 379.523
1849 0 264.481 15.6117 4129 110.279 1321.65 377.902
1850 0 265.388 15.2682 4052 110.105 1321.9 376.964
1851 0 266.496 14.7432 3929 111.075 1321.57 380.361
1852 0 267.581 15.8344 4237 109.224 1321.24 374.362
1853 0 270.534 14.4529 3910 111.136 1321.67 378.275
1854 0 271.59 14.7097 3995 110.597 1321.53 377.077
1855 0 271.487 14.1812 3850 112.028 1321.81 373.882
1856 0 274.416 15.0538 4131 109.147 1321.65 376.992
1857 0 275.641 13.5829 3744 112.581 1321.08 377.529
1858 0 276.454 14.78 4086 109.871 1320.96 371.776
1859 0 278.356 15.8646 4416 107.138 1320.93 371.483
1860 0 277.586 14.392 3995 109.506 1321.43 374.711
1861 0 281.6 15.6534 4408 106.123 1321.57 378.719
1862 0 281.588 15.3203 4314 107.142 1321.18 372.546
1863 0 282.526 15.9773 4514 105.621 1321.82 368.759
1864 0 284.551 16.9284 4817 102.771 1321.36 371.909
1865 0 285.495 14.5852 4164 108.34 1321.5 368.639
1866 0 285.433 15.4432 4408 105.795 1321.62 367.593
1867 0 284.645 14.3617 4088 107.833 1321.84 365.647
1868 0 288.634 15.6322 4512 104.353 1322.18 367.247
1869 0 289.574 15.7093 4549 104.027 1322.1 362.464
1870 0 289.397 15.6947 4542 104.369 1321.85 365.873
1871 0 287.521 14.8059 4257 106.316 1321.83 367.118
1872 0 289.512 14.065 4072 106.283 1321.49 367.752
1873 0 291.399 15.532 4526 102.846 1322.13 363.867
1874 0 291.555 15.016 4378 103.624 1321.86 358.619
1875 0 292.531 14.4566 4229 105.143 1321.53 361.313
1876 0 292.692 14.0079 4100 105.681 1321.5 363.224
1877 0 291.59 12.9566 3778 107.857 1321.28 364.834
