time division length width area intensity CMx CMy
0 0 67.2019 13.5859 913 117.469 731.715 366.749
1 0 67.1567 11.7784 791 124.692 731.927 363.962
2 0 71.1796 12.5176 891 122.373 731.706 360.669
3 0 74.1783 13.5484 1005 119.867 731.593 361.382
4 0 75.2457 12.014 904 128.191 731.054 358.106
5 0 79.2117 12.233 969 125.644 731.61 357.683
6 0 81.2243 13.3334 1083 125.368 732.07 356.826
7 0 86.2414 13.2767 1145 126.301 731.721 357.112
8 0 88.2844 13.4792 1190 125.416 732.182 357.387
9 0 91.2264 12.8691 1174 127.939 732.53 354.789
10 0 93.2843 12.1993 1138 129.231 731.863 351.33
11 0 98.2897 13.6128 1338 124.072 732.028 352.088
12 0 100.293 11.7855 1182 128.825 733.62 348.462
13 1 54.2037 11.3276 614 116.676 733.318 372.651
14 0 59.1548 11.1572 660 113.268 733.098 373.902
15 0 60.1271 11.2595 677 113.022 732.897 373.616
16 0 59.1085 9.27109 548 116.96 733.37 372.531
17 0 62.158 11.6638 725 112.778 733.588 368.454
18 0 62.2446 11.262 701 115.011 733.653 369.151
19 0 64.1983 11.4178 733 115.342 733.805 369.42
20 0 69.1529 13.1159 907 110.566 733.681 365.897
21 0 70.191 11.7964 828 114.164 733.984 364.616
22 0 73.1696 11.2478 823 113.706 733.872 360.77
23 0 74.2818 10.514 781 116.885 733.94 358.766
24 0 78.124 11.9937 937 114.168 734.235 361.761
25 0 81.1695 12.209 991 112.264 733.35 361.042
26 0 80.2528 11.1523 895 114.317 733.037 360.46
27 0 85.2426 12.482 1064 112.086 734.01 357.758
28 0 87.1645 11.5184 1004 113.848 733.707 354.255
29 0 87.1752 11.54 1006 140.508 733.687 354.291
30 0 95.3178 12.579 1199 110.308 733.739 353.035
31 0 99.2182 12.0946 1200 109.888 733.534 352.139
32 0 101.272 11.8493 1200 110.459 733.013 350.181
33 1 60.0336 11.6268 698 109.835 732.57 367.182
34 0 56.0804 11.8936 667 106.03 732.811 362.822
35 0 58.0365 12.4921 725 106.363 732.726 361.521
36 0 59.159 12.7453 754 105.037 733.963 366.635
37 0 61.3022 10.9947 674 109.574 733.904 364.497
38 0 62.1591 10.7627 669 110.587 733.879 358.502
39 0 65.2271 11.6669 761 107.325 733.915 353.782
40 0 68.0864 12.2491 834 106.743 734.028 351.507
41 0 70.0818 12.7851 896 107.27 734.349 352.971
42 0 71.0957 11.7869 838 109.437 733.961 359.671
43 0 71.1523 12.7192 905 109.625 734.813 358.601
44 0 77.1445 10.9405 844 112.9 734.671 346.556
45 0 80.1043 11.2603 902 112.848 734.004 345.343
46 0 83.0996 12.4429 1034 111.935 734.438 345.409
47 0 86.1343 12.2715 1057 112.392 733.514 349.721
48 0 89.0947 13.0984 1167 112.707 734.166 341.84
49 0 95.1479 13.5894 1293 111.805 733.906 341.034
50 0 98.1396 14.999 1472 110.271 733.993 334.183
51 0 97.2404 13.3792 1301 114.505 734.284 334.081
52 0 102.136 13.061 1334 114.954 733.504 333.592
53 0 105.053 13.9644 1467 110.175 733.8 331.997
54 0 107.173 12.2326 1311 113.719 733.33 331.908
55 1 63.209 11.4224 722 108.41 733.611 355.719
56 0 64.0675 10.8167 693 109.949 733.395 351.925
57 0 65.1534 12.1559 792 108.177 733.653 353.101
58 0 69.1366 11.9763 828 108.521 733.96 352.31
59 0 71.1892 11.9541 851 109.834 733.361 350.51
60 0 74.0885 10.555 782 111.66 733.569 350.753
61 0 76.2263 12.1087 923 107.842 733.509 349.607
62 0 76.1421 10.0339 764 116.437 733.562 344.418
63 0 80.1677 11.5009 922 112.769 733.672 345.666
64 0 85.2406 11.7784 1004 110.502 733.974 345.78
65 0 84.0857 10.4655 880 115.511 733.647 340.053
66 0 89.0491 10.7806 960 112.903 732.955 341.455
67 0 91.0681 11.3981 1038 111.258 733.591 339.627
68 0 94.3329 12.2863 1159 109.178 734.506 338.353
69 0 101.268 12.2842 1244 107.023 734.497 336.522
70 0 101.397 10.9372 1109 110.977 734.221 331.17
71 0 107.211 13.2263 1418 103.45 734.255 333.588
72 1 57.0607 10.3574 591 95.1624 734.457 361.607
73 0 56.0482 10.4196 584 99.0188 735.622 353.094
74 0 60.0962 9.33504 561 98.9358 735.553 355.579
75 0 58.063 9.0419 525 101.514 735.166 351.691
76 0 61.1056 9.98271 610 98.2541 735.452 352.184
77 0 67.1306 11.0978 745 93.9114 735.174 351.835
78 0 65.0787 9.41936 613 99.832 734.595 350.266
79 0 69.1244 10.9079 754 96.435 735.179 348.281
80 0 69.2422 9.87837 684 90.2339 734.936 350.715
81 0 71.058 9.79481 696 92.5158 735.17 346.068
82 0 74.0736 10.1251 750 91.964 734.872 352.451
83 0 73.3159 10.5025 770 92.6974 734.305 348.766
84 0 77.1581 11.4051 880 92.4557 734.02 346.705
85 0 80.1097 10.1361 812 95.7463 734.493 343.755
86 0 85.1209 10.6437 906 95.0132 734.067 342.529
87 0 88.1811 12.3836 1092 94.2766 734.067 342.539
88 0 94.322 13.0192 1228 92.2752 734.33 341.579
89 0 94.1189 11.273 1061 102.703 734.249 335.535
90 0 99.1879 11.4933 1140 102.196 734.487 335.572
91 1 54.1461 8.66175 469 93.3625 734.047 359.962
92 0 56.0568 12.0414 675 95.0874 732.387 359.215
93 0 59.0802 11.8652 701 94.5521 732.435 357.779
94 0 60.1985 11.595 698 94.851 733.327 358.854
95 0 63.2051 13.9704 883 90.7418 732.653 355.392
96 0 62.1464 12.6154 784 94.4707 733.068 357.339
97 0 65.1778 12.2128 796 95.3028 733.697 356.648
98 0 66.1543 12.4557 824 94.9235 733.308 353.521
99 0 67.0878 11.5818 777 91.5573 733.201 353.891
100 0 70.1008 13.7516 964 84.0166 733.441 352.021
101 0 71.1421 11.8917 846 86.5236 732.589 354.058
102 0 74.2223 12.9206 959 86.2086 733.094 350.598
103 0 76.0981 12.7993 974 87.4271 733.219 351.219
104 0 78.1124 12.7125 993 87.8187 733.05 352.559
105 0 80.0504 12.6296 1011 88.6142 732.858 352.05
106 0 83.055 14.4603 1201 86.2448 732.22 349.639
107 0 84.1288 13.0514 1098 90.7632 732.646 345.907
108 0 87.1191 13.2003 1150 90.3983 732.425 345.557
109 0 90.2197 13.2233 1193 90.4057 732.704 344.141
110 0 93.2562 13.5755 1266 90.1604 732.457 342.605
111 0 97.145 12.7438 1238 90.7173 732.704 344.789
112 0 97.1247 12.7774 1241 94.4247 732.571 342.508
113 0 102.178 14.7097 1503 88.6128 732.31 341.024
114 1 58.0914 10.931 635 92.8882 732.032 363.926
115 0 59.1005 12.7241 752 90.1609 731.918 362.673
116 0 60.1169 12.3759 744 90.9798 731.978 363.332
117 0 63.0859 12.6019 795 90.3233 731.726 361.874
118 0 62.1211 13.2 820 91.2732 732.239 358.971
119 0 63.162 11.4151 721 94.4064 732.449 360.89
120 0 68.0932 13.5403 922 89.9187 732.081 359.938
121 0 67.0922 13.5783 911 92.1449 732.267 358.637
122 0 69.1406 11.8599 820 96.1878 731.612 357.487
123 0 73.1317 13.6876 1001 91.7443 732.455 354.864
124 0 74.1334 13.6511 1012 92.997 732.007 352.743
125 0 74.1051 12.0639 894 97.3915 731.708 354.603
126 0 79.229 13.3537 1058 101.784 732.346 350.819
127 0 83.1601 14.2857 1188 99.484 732.096 349.313
128 0 83.1861 13.7884 1147 100.298 732.025 351.146
129 0 87.2848 13.0492 1139 103.881 732.299 346.801
130 0 89.0483 13.6667 1217 102.918 732.64 345.694
131 0 91.1528 13.8559 1263 103.246 733.398 344.758
132 0 95.1681 14.3536 1366 101.967 733.196 340.92
133 0 96.2814 14.0422 1352 97.4578 733.626 342.788
134 0 100.125 12.794 1281 99.7822 732.989 348.128
135 0 103.513 12.4525 1289 100.826 732.904 338.638
136 1 56.0758 10.0043 561 94.057 732.463 360.556
137 0 56.1049 11.2468 631 91.5594 732.796 361.049
138 0 57.1053 12.2581 700 93.1614 733.223 357.084
139 0 59.1921 12.5017 740 90.6243 733.336 358.449
140 0 58.0574 12.0915 702 97.6695 733.319 358.769
141 0 66.2591 12.1795 807 95.9256 733.538 357.389
142 0 64.0627 11.1297 713 99.0224 732.571 355.014
143 0 65.1801 12.2583 799 96.4593 732.622 354.531
144 0 68.0341 11.7588 800 97.3712 732.965 353.728
145 0 73.1803 11.8065 864 97.5463 732.713 349.719
146 0 73.0832 11.0696 809 99.4054 732.826 351.88
147 0 73.0959 11.8611 867 98.0842 732.859 350.647
148 0 77.2671 12.9162 998 96.8277 732.063 349.626
149 0 79.2488 13.262 1051 96.7136 732.136 351.46
150 0 80.3239 14.0307 1127 101.15 731.804 349.572
151 0 83.1496 14.4318 1200 96.4367 730.875 347.764
152 0 84.2854 12.4695 1051 102.132 732.093 345.854
153 0 89.1884 14.3516 1280 98.5375 731.88 344.138
154 0 90.3116 12.8223 1158 101.706 732.269 336.91
155 0 94.3063 13.6576 1288 99.6429 733.064 337.207
156 0 96.1907 13.6084 1309 99.7662 732.566 337.548
157 0 99.2439 13.4416 1334 100.72 732.316 336.701
158 0 103.267 13.5571 1400 101.259 731.334 333.505
159 1 55.0906 11.7624 648 96.7299 732.216 360.085
160 0 55.0906 11.8895 655 141.947 732.214 360.029
161 0 57.1325 13.5124 772 93.285 731.387 364.03
162 0 55.3525 11.9236 660 97.7348 731.886 364.114
163 0 59.2742 12.0288 713 97.913 731.18 361.972
164 0 60.3229 12.3834 747 98.3186 731.166 359.981
165 0 61.1494 12.2487 749 98.2951 731.271 360.401
166 0 63.1406 12.4643 787 98.4015 731.092 359.357
167 0 66.249 11.4417 758 100.15 730.917 359.914
168 0 69.2963 14.3153 992 97.3911 731.327 356.17
169 0 71.3196 14.2878 1019 97.8194 731.378 355.298
170 0 74.2086 13.1925 979 101.566 731.527 353.085
171 0 76.1265 14.3446 1092 100.974 731.612 351.381
172 0 78.3749 12.8613 1008 105.324 731.539 350.185
173 0 82.2889 14.0481 1156 101.809 731.466 351.481
174 0 82.2163 12.7104 1045 106.656 731.64 349.505
175 0 87.1284 13.8531 1207 103.843 731.36 347.42
176 0 89.3097 13.3356 1191 106.086 730.982 346.84
177 0 92.5148 14.6355 1354 102.405 731.302 348.258
178 0 96.3958 13.8699 1337 106.041 731.33 343.819
179 0 98.4472 12.8292 1263 108.246 731.853 344.17
180 0 101.446 14.1455 1435 106.346 731.604 340.679
181 0 101.296 13.5938 1377 109.07 731.537 339.887
182 0 107.215 13.6734 1466 106.643 731.679 341.782
183 0 110.413 14.011 1547 107.217 731.988 337.474
184 0 115.531 13.9097 1607 106.755 732.182 336.177
185 0 116.481 13.0837 1524 108.451 731.948 335.51
186 0 121.557 13.7631 1673 107.555 731.819 332.339
187 0 125.508 14.8516 1864 105.726 732.148 329.141
188 0 130.409 14.3242 1868 107.636 732.182 327.56
189 0 132.494 13.827 1832 110.162 731.894 324.438
190 0 135.376 14.4265 1953 109.576 731.964 324.943
191 0 143.392 14.2128 2038 109.925 731.808 322.676
192 0 145.447 15.1877 2209 112.192 731.996 319.211
193 0 151.733 15.2109 2308 108.634 732.108 319.714
194 0 154.318 15.0987 2330 109.886 731.825 314.129
195 0 159.561 13.3554 2131 112.846 732.24 316.441
196 0 165.33 14.2926 2363 110.584 731.333 312.781
197 1 93.3988 11.5205 1076 108.879 731.665 349.244
198 0 98.4597 13.1932 1299 105.905 731.952 346.583
199 0 100.496 12.8662 1293 107.354 731.326 344.812
200 0 106.331 13.853 1473 108.838 731.743 343.553
201 0 108.415 13.5036 1464 110.27 731.279 343.66
202 0 112.473 13.8967 1563 110.802 731.959 339.416
203 0 116.241 13.644 1586 110.898 732.697 340.093
204 0 121.418 14.1001 1712 110.111 732.027 337.305
205 0 123.33 13.5895 1676 111.968 731.809 336.263
206 0 129.332 14.0027 1811 110.818 731.152 334.458
207 0 135.356 15.027 2034 104.611 731.498 333.708
208 1 74.3812 12.3015 915 103.38 730.997 364.596
209 0 78.1738 12.3187 963 105.647 731.876 360.437
210 0 80.3175 12.8988 1036 105.136 732.176 357.867
211 0 84.34 12.8172 1081 105.197 731.999 358.631
212 0 87.4758 13.5809 1188 102.236 732.194 359.556
213 0 92.4149 12.0652 1115 105.619 731.913 359.298
214 0 94.2952 12.1851 1149 105.471 731.634 358.221
215 0 95.3423 12.0513 1149 106.428 733.012 357.365
216 0 97.5002 12.5846 1227 106.106 732.901 358.412
217 0 104.416 13.5419 1414 103.214 732.964 356.624
218 0 107.37 13.3557 1434 104.561 732.153 350.766
219 0 107.37 13.4116 1440 155.531 732.162 350.753
220 1 60.1904 11.1147 669 107.57 732.979 371.404
221 0 60.1717 9.55598 575 110.377 732.81 369.282
222 0 66.2643 11.2429 745 103.953 732.317 371.597
223 0 68.2268 12.5317 855 100.903 732.284 371.832
224 0 69.2218 11.4704 794 103.855 732.067 372.071
225 0 72.2742 11.5947 838 102.18 732.153 371.2
226 0 72.2851 10.6523 770 104.234 731.818 369.201
227 0 75.1767 11.3599 854 96.1335 731.152 368.358
228 0 78.2369 12.1937 954 94.499 731.22 368.961
229 0 80.1003 10.5118 842 97.418 730.952 369.012
230 0 81.2803 11.7495 955 97.1372 731.402 366.85
231 0 83.4172 10.6693 890 97.3955 731.279 371.817
232 0 87.2287 12.0603 1052 97.0951 731.424 368.193
233 0 91.2628 12.2942 1122 97.7424 731.041 364.365
234 0 93.3159 12.4523 1162 98.4398 731.639 362.114
235 0 97.2414 11.6206 1130 99.8558 732.112 360.246
236 0 99.3848 11.9133 1184 100.823 732.22 357.843
237 0 104.349 12.3336 1287 99.4771 731.754 360.269
238 0 107.248 11.8883 1275 103.715 731.472 353.703
239 0 110.322 12.0738 1332 103.81 731.502 347.586
240 0 111.428 10.7873 1202 106.892 731.826 345.223
241 0 118.452 12.6802 1502 103.164 731.726 342.359
242 0 120.334 12.9473 1558 103.971 731.985 342.234
243 0 126.475 12.2317 1547 107.591 732.023 339.546
244 1 71.3186 10.6284 758 106.332 732.459 370.228
245 0 66.2286 10.5242 697 104.267 732.482 357.808
246 0 70.362 11.2703 793 103.049 732.159 350.841
247 0 70.218 10.7095 752 105.685 732.56 350.547
248 0 73.2159 12.0602 883 102.718 732.434 350.456
249 0 79.2209 10.8431 859 104.678 732.801 347.879
250 0 76.4168 12.2879 939 105.281 732.365 344.609
251 0 81.3745 11.4286 930 104.44 732.417 346.13
252 0 83.2167 10.8272 901 107.285 732.166 343.997
253 0 89.151 12.6303 1126 104.735 731.863 346.179
254 0 91.1402 12.7167 1159 105.272 731.786 342.01
255 0 92.1312 12.6667 1167 105.237 731.373 342.915
256 1 55.1796 9.65937 533 103.281 732.146 370.505
257 0 57.1107 13.36 763 98.5858 731.784 375.225
258 0 60.2107 11.0778 667 101.469 731.038 374.162
259 0 61.1314 13.2829 812 97.0628 730.213 371.589
260 0 60.203 11.1622 672 102.969 731.097 372.802
261 0 62.1476 12.4542 774 100.065 730.939 374.083
262 0 64.1966 12.7733 820 100.743 731.321 368.823
263 0 65.1144 12.1018 788 102.915 730.953 367.626
264 0 71.2592 12.9106 920 99.212 730.754 367.775
265 0 71.1351 11.7523 836 103.291 731.459 365.385
266 0 70.0998 12.9387 907 102.542 731.001 361.576
267 0 74.197 13.1003 972 103.474 731.438 362.269
268 0 74.257 13.0627 970 104.761 731.366 362.448
269 0 77.1033 12.5935 971 105.324 731.101 360.866
270 0 79.2158 12.0052 951 107.406 731.161 360.203
271 0 81.1318 13.7431 1115 104.292 731.006 357.56
272 0 84.124 13.3018 1119 105.744 730.618 357.066
273 0 86.1403 12.3403 1063 107.126 731.398 358.46
274 0 89.1274 13.0487 1163 106.071 731.29 355.873
275 0 90.2257 12.8566 1160 107.873 731.317 351.85
276 0 92.095 12.8237 1181 108.326 730.984 351.858
277 0 98.16 14.5986 1433 103.219 731.992 350.382
278 0 98.0756 13.2551 1300 106.602 731.288 347.953
279 0 101.294 13.4263 1360 106.4 731.312 338.769
280 0 104.142 13.7024 1427 103.722 731.574 336.165
281 1 59.1057 11.0311 652 104.413 730.669 360.475
282 0 61.0351 11.6327 710 103.876 732.928 355.245
283 0 63.0945 13.4402 848 99.3726 731.505 359.44
284 0 64.2285 12.9538 832 97.7957 731 361.56
285 0 64.1895 11.9957 770 101.47 731.413 361.343
286 0 66.1002 12.7836 845 100.592 731.179 357.944
287 0 69.2232 13.3192 922 98.6182 731.048 358.821
288 0 70.123 14.2464 999 97.2192 731.617 355.361
289 0 70.1642 13.1121 920 99.2033 731.702 356.387
290 0 73.0919 12.5185 915 101.417 731.709 354.329
291 0 76.1195 13.3606 1017 99.4159 731.463 352.509
292 0 78.1166 12.7758 998 99.6834 730.536 353.028
293 0 80.15 13.2377 1061 98.9821 730.791 351.544
294 0 82.1596 12.0619 991 102.407 731.24 350.043
295 0 85.1505 11.145 949 102.903 731.307 351.22
296 0 87.092 11.8381 1031 103.384 730.713 347.681
297 0 92.1756 12.205 1125 102.206 730.849 345.726
298 0 94.2238 12.0989 1140 102.523 731.03 341.603
299 1 55.092 11.1813 616 102.07 730.148 362.295
300 0 56.0585 10.3642 581 104.406 731.401 357.324
301 0 55.1046 10.5073 579 90.7306 732.123 359.603
302 0 55.0887 12.0896 666 89.0931 732.209 359.004
303 0 57.1531 11.4954 657 90.3486 731.851 361.619
304 0 58.0582 11.1784 649 100.613 731.969 358.988
305 0 62.0571 11.006 683 100.346 732.375 357.1
306 0 65.1081 11.3196 737 98.6079 732.472 355.64
307 0 68.0948 11.8071 804 96.5149 732.891 355.611
308 0 69.0843 12.8828 890 94.5809 732.562 354.417
309 0 72.0964 12.0533 869 96.5086 732.73 348.423
310 0 74.0389 13.0742 968 93.8595 731.929 348.343
311 0 76.0872 12.5777 957 96.2988 731.605 345.224
312 0 79.1426 13.0903 1036 93.1815 731.861 347.274
313 0 80.2156 11.7683 944 96.2903 732.212 347.269
314 0 81.0988 10.7893 875 99.5177 731.653 343.496
315 0 86.2577 12.2076 1053 95.8034 732.111 340.781
316 0 88.2338 12.0135 1060 96.5302 732.214 340.11
317 0 87.0765 11.3578 989 97.4904 732.708 340.975
318 0 90.1561 13.5654 1223 94.973 732.64 338.686
319 0 95.2 13.0042 1238 95.7746 732.127 336.742
320 0 100.291 13.1816 1322 95.3056 731.3 333.983
321 0 103.138 14.1266 1457 93.5731 731.158 333.183
322 0 105.083 14.5218 1526 92.9508 731.403 331.851
323 0 108.164 14.2192 1538 94.0013 731.767 331.198
324 0 111.235 12.3972 1379 97.4452 731.579 332.347
325 0 113.274 12.5801 1425 97.7579 731.902 332.804
326 0 118.302 14.4292 1707 96.1535 732.216 323.722
327 0 121.163 12.446 1508 100.249 731.659 322.272
328 0 127.186 14.1131 1795 97.1955 732.406 320.171
329 1 72.074 11.9322 860 93.8884 731.77 348.669
330 0 73.0845 12.2598 896 94.2746 731.802 347.706
331 0 73.1202 12.4042 907 88.9879 732.508 344.939
332 0 76.1217 10.6146 808 90.1027 732.582 346.666
333 0 77.1854 11.2197 866 89.306 732.358 346.532
334 0 81.1105 11.2439 912 89.5537 732.089 344.146
335 0 85.1385 10.9586 933 89.3623 732.839 344.628
336 0 87.0949 10.6895 931 91.0559 732.198 341.61
337 0 89.1519 10.7569 959 90.0063 732.668 342.4
338 0 94.1266 12.2282 1151 87.9618 732.248 339.09
339 0 96.1641 12.0731 1161 88.7606 732.042 337.682
340 0 100.161 12.2702 1229 89.0106 732.299 333.947
341 0 104.184 12.1227 1263 90.0491 732.29 332.838
342 0 110.126 12.5946 1387 88.682 732.259 330.322
343 1 63.1316 10.8503 685 84.0832 732.28 353.353
344 0 63.103 10.6651 673 85.6954 732.354 351.168
345 0 67.2124 12.4382 836 80.134 732.524 350.86
346 0 67.1624 11.2265 754 83.0981 732.257 347.332
347 0 71.0852 12.0841 859 80.7148 733.049 350.369
348 0 71.1063 9.78816 696 85.4353 732.631 349.273
349 0 75.0905 10.4807 787 92.4689 732.385 346.394
350 0 77.0822 11.6888 901 91.0744 732.66 344.511
351 0 78.0383 11.3406 885 92.5571 732.687 343.892
352 0 84.1454 13.1915 1110 88.9793 732.398 341.25
353 0 84.2351 11.0643 932 93.1738 731.519 339.555
354 0 88.2622 12.1003 1068 91.9953 732.625 337.845
355 0 92.1322 12.1239 1117 92.2256 732.799 336.941
356 0 95.1753 11.6732 1111 93.4932 733.005 334.016
357 0 100.198 12.8945 1292 91.2005 732.43 329.665
358 0 104.203 13.0706 1362 90.7885 732.51 328.396
359 1 56.1829 11.5694 650 83.7077 732.982 353.22
360 0 58.1189 12.0271 699 86.8555 732.775 343.944
361 0 60.1702 12.9134 777 87.704 732.974 346.762
362 0 61.2367 10.9412 670 89.2328 733.398 350.334
363 0 61.1192 12.4674 762 88.9344 733.627 346.684
364 0 63.0936 13.2026 833 87.9652 731.527 351.223
365 0 65.1217 12.7914 833 88.6975 732.126 349.455
366 0 66.1496 12.0484 797 89.857 732.386 352.125
367 0 69.1386 12.757 882 89.7234 731.53 348.484
368 0 72.1619 12.6937 916 89.3614 731.212 347.817
369 0 74.0889 12.2016 904 90.1836 730.758 347.933
370 0 76.2129 14.1708 1080 86.5898 731.554 347.429
371 0 78.067 12.9888 1014 91.0888 732.029 341.94
372 0 82.1645 12.2437 1006 90.8121 730.785 344.349
373 0 86.1782 13.3328 1149 90.4508 731.577 339.014
374 0 87.058 12.9224 1125 91.88 731.647 336.464
375 0 91.1601 13.8877 1266 90.9992 731.468 335.525
376 0 93.142 13.5277 1260 94.3508 731.78 332.662
377 0 96.1359 13.3457 1283 96.6118 730.928 330.719
378 0 100.267 12.1376 1217 99.3706 731.805 327.308
379 1 55.2055 13.495 745 89.6524 731.46 349.791
380 0 57.1151 13.429 767 89.7406 732.301 350.297
381 0 58.08 12.8271 745 89.8738 732.435 348.847
382 0 60.0613 11.455 688 84.0988 731.93 358.92
383 0 61.1665 12.278 751 84.4714 732.091 359.015
384 0 62.062 12.0202 746 85.3043 731.977 357.909
385 0 65.0977 13.3799 871 84.9506 731.445 353.441
386 0 66.0318 12.2365 808 88.1683 731.041 352.184
387 0 68.0584 12.2836 836 89.5526 731.592 353.464
388 0 70.2071 12.2495 860 90.5686 731.486 352.174
389 0 73.1775 13.4058 981 90.052 731.578 352.36
390 0 71.1368 12.0191 855 95.7731 731.464 350.303
391 0 76.219 12.8839 982 93.9806 731.258 349.757
392 0 77.2443 12.933 999 95.4384 731.311 350.25
393 0 79.1786 11.9098 943 99.0891 731.603 349.555
394 0 79.1176 11.8052 934 102.676 731.348 346.171
395 0 86.2208 12.4912 1077 100.195 731.585 344.218
396 0 88.1365 13.2522 1168 99.9135 731.08 344.723
397 0 91.2388 13.1523 1200 101.013 730.886 345.487
398 0 93.1635 13.2885 1238 102.886 730.509 340.891
399 0 96.2427 13.0607 1257 104.213 731.146 342.066
400 0 99.3803 12.5578 1248 105.085 730.941 339.839
401 0 104.242 13.1808 1374 104.569 730.703 335.338
402 0 108.191 13.0233 1409 105.363 731.011 336.6
403 0 110.213 13.0203 1435 105.644 731.008 334.431
404 1 61.0897 13.2756 811 104.02 731.838 356.438
405 0 63.1165 11.7719 743 109.151 731.69 350.939
406 0 64.0791 12.4065 795 107.936 731.054 350.86
407 0 68.0964 12.9082 879 104.879 731.536 353.268
408 0 67.0309 10.2639 688 106.436 730.647 355.1
409 0 68.0613 12.5328 853 104.882 729.85 354.698
410 0 72.067 13.0434 940 103.127 730.3 352.874
411 0 74.0439 12.5196 927 105.449 730.879 352.099
412 0 78.0944 12.1776 951 104.179 731.543 351.082
413 0 82.1368 13.0027 1068 102.063 730.888 348.808
414 0 83.0881 12.7214 1057 102.434 730.845 348.176
415 0 88.2047 13.5594 1196 98.8788 730.379 346.92
416 0 87.1532 11.8986 1037 103.27 730.415 347.303
417 0 94.0637 12.8424 1208 102.324 730.743 343.811
418 0 96.2665 11.8629 1142 104.61 730.933 340.306
419 0 101.153 14.1864 1435 100.629 730.879 337.367
420 1 55.0691 11.6762 643 106.159 731.774 358.496
421 0 58.2637 12.9412 754 103.647 731.17 360.125
422 0 60.1641 11.8675 714 105.324 731.766 358.06
423 0 59.206 12.7014 752 105.957 731.306 355.719
424 0 63.1696 12.6485 799 104.917 731.459 356.667
425 0 64.058 14.2059 910 102.996 731.622 354.98
426 0 66.2278 12.6533 838 106.407 731.562 354.471
427 0 70.1233 13.3907 939 103.726 731.315 353.94
428 0 72.1176 13.2145 953 103.773 730.894 352.453
429 0 73.059 12.7979 935 103.487 730.241 350.625
430 0 74.0792 12.1492 900 102.502 731.037 350.674
431 0 76.1677 14.363 1094 98.6188 730.786 346.684
432 0 78.0811 13.4604 1051 100.109 730.452 346.676
433 0 81.1155 14.3253 1162 98.7582 730.435 344.543
434 0 85.1979 14.4018 1227 97.1312 730.768 344.007
435 0 87.114 13.6832 1192 99.9161 730.994 340.719
436 0 91.1746 13.0299 1188 103.326 730.812 339.37
437 0 94.225 12.7036 1197 103.995 730.47 334.332
438 0 100.262 14.1329 1417 99.4954 729.75 332.322
439 0 102.34 13.4844 1380 99.8326 731.05 333.262
440 1 56.3137 11.8621 668 94.4356 730.132 356.593
441 0 57.1044 12.4334 710 95.0577 730.17 349.261
442 0 57.0722 11.1963 639 87.0782 730.377 359.088
443 0 59.1046 12.7232 752 85.1609 730.718 355.843
444 0 59.0246 12.0119 709 87.6742 730.628 355.331
445 0 64.1039 11.575 742 88.1132 730.542 355.643
446 0 64.1214 11.2443 721 87.7337 730.836 353.062
447 0 65.0683 11.8952 774 88.2687 731.412 348.539
448 0 70.2051 13.3466 937 85.5656 731.079 350.406
449 0 71.0538 12.2161 868 89.0853 730.559 350.063
450 0 75.1618 12.8922 969 88.5562 730.975 349.336
451 0 77.0762 13.558 1045 87.9301 730.459 347.548
452 0 79.0446 13.2583 1048 90.0353 731.175 348.476
453 0 81.0769 13.8881 1126 90.6039 731.108 346.046
454 0 83.1896 12.6699 1054 93.7268 731.018 344.528
455 0 87.0696 13.4031 1167 99.7669 730.911 343.665
456 0 88.0701 13.2622 1168 100.479 730.948 343.727
457 0 92.0602 14.1972 1307 98.5073 730.219 342.797
458 0 93.1004 13.9205 1296 98.8503 730.882 343.35
459 0 100.139 14.7495 1477 95.1246 730.512 344.245
460 0 102.138 15.4008 1573 93.5772 730.721 339.378
461 1 52.1451 10.7393 560 95.9893 730.6 358.762
462 0 56.0218 11.3349 635 94.0504 731.08 356.529
463 0 57.0983 12.3646 706 85.9363 730.746 357.132
464 0 59.1488 11.7162 693 86.1775 730.833 358.747
465 0 62.1438 10.8136 672 88.7738 729.893 354.827
466 0 64.0629 13.5492 868 84.5991 730.911 353.615
467 0 64.1211 12.8195 822 87.4501 730.495 352.209
468 0 67.1978 12.0689 811 88.6338 730.803 351.4
469 0 67.1518 12.7919 859 87.9395 730.929 349.076
470 0 70.0507 13.7329 962 86.5832 730.923 350.794
471 0 74.1299 12.8018 949 88.8841 731.135 347.278
472 0 77.0815 13.1679 1015 88.9054 731.327 349.23
473 0 75.0424 13.3391 1001 90.9241 731.379 345.934
474 0 82.1281 14.4652 1188 88.2441 731.015 346.693
475 0 83.2001 12.8005 1065 92.7305 731.778 347.039
476 0 86.1506 13.4184 1156 93.0043 731.516 349.037
477 0 88.118 14.2877 1259 92.5719 731.372 343.64
478 0 89.1786 13.0861 1167 97.8458 730.849 340.847
479 0 93.2302 13.3969 1249 98.4099 731.612 341.812
480 0 96.1388 14.6247 1406 97.0946 731.381 337.755
481 0 98.5499 13.6378 1344 98.2217 731.69 339.026
482 1 55.0552 10.5167 579 98.7116 731.767 362.86
483 0 59.0273 12.9093 762 91.6877 730.945 368.089
484 0 60.0421 11.825 710 90.8761 731.261 367.023
485 0 64.0921 12.0296 771 90.7043 731.608 365.521
486 0 66.1057 10.8916 720 95.4444 731.9 365.503
487 0 71.1764 13.038 928 91.3211 731.253 367.61
488 0 71.0394 12.0919 859 95.0722 730.948 364.938
489 0 73.1162 13.0477 954 94.8375 730.438 362.65
490 0 76.178 13.2715 1011 94.451 730.568 358.052
491 0 79.0925 13.5917 1075 94.9749 731.092 357.402
492 0 82.0883 13.924 1143 96.3202 730.565 357.067
493 0 84.0622 12.4789 1049 100.555 730.502 356.137
494 0 89.0356 13.3767 1191 99.3358 730.741 358.496
495 0 91.0873 13.0534 1189 101.476 730.844 351.003
496 0 94.178 12.4233 1170 103.897 730.345 350.121
497 0 96.0895 12.9775 1247 103.102 730.662 348.732
498 0 100.066 12.9114 1292 103.933 730.235 347.765
499 0 105.114 13.9563 1467 101.44 730.854 347.103
500 0 109.267 12.4924 1365 105.202 731.015 339.678
501 1 58.1219 11.2178 652 96.4509 731.046 366.31
502 0 57.0585 11.9176 680 96.5971 730.429 363.521
503 0 58.1089 11.9603 695 97.9439 730.655 368.05
504 0 63.1596 12.7613 806 96.0868 730.521 370.959
505 0 64.1148 12.9455 830 96.2422 730.939 371.798
506 0 66.0989 11.3164 748 100.068 731.269 371.184
507 0 68.043 11.1547 759 100.859 730.685 368.423
508 0 72.0887 13.1782 950 99.1821 730.783 368.437
509 0 75.1185 11.9544 898 101.751 730.31 358.4
510 0 76.1074 13.113 998 99.8377 729.899 364.042
511 0 79.1512 12.5582 994 101.983 730.504 363.068
512 0 81.1709 11.8639 963 105.29 730.892 362.163
513 0 83.1166 10.8883 905 108.339 731.275 359.967
514 0 88.2737 11.1698 986 106.769 731.501 359.209
515 0 91.1442 12.7051 1158 105.085 730.901 357.15
516 0 95.1215 12.0477 1146 106.797 730.24 354.089
517 0 100.168 12.5988 1262 105.901 730.22 352.34
518 0 103.386 11.7521 1215 107.578 730.402 353.44
519 0 104.078 10.5497 1098 111.177 730.686 347.751
520 1 56.1042 10.0171 562 103.302 730.722 371.872
521 0 62.1333 12.3927 770 100.958 730.795 372.106
522 0 62.1364 11.2977 702 104.875 730.812 371.231
523 0 64.0525 11.1159 712 106.451 731.198 369.69
524 0 63.2718 9.4829 600 110.875 730.375 369.155
525 0 67.1592 10.6463 715 108.441 730.519 368.625
526 0 68.0846 11.1773 761 107.888 730.84 367.7
527 0 72.1182 10.9126 787 108.355 730.455 366.246
528 0 75.0797 11.4811 862 107.59 729.811 365.585
529 0 76.1643 11.7509 895 110.105 730.375 360.72
530 0 79.0442 11.9174 942 109.62 730.697 360.365
531 0 79.1198 10.8569 859 113.88 730.803 360.185
532 0 86.1498 12.8845 1110 108.478 730.912 357.392
533 0 89.1126 11.8053 1052 111.736 730.355 356.704
534 0 91.1485 12.2986 1121 109.747 730.422 358.427
535 0 94.1879 13.0378 1228 108.629 730.32 356.157
536 0 97.0848 11.9071 1156 111.558 730.601 353.049
537 1 55.1332 9.6675 533 99.0769 730.891 377.97
538 0 55.0834 11.2012 617 97.8963 730.877 373
539 0 57.0837 10.8788 621 104.081 730.588 372.57
540 0 59.1149 11.3169 669 103.746 731.055 371.42
541 0 61.0994 11.604 709 102.889 730.927 372.693
542 0 61.0915 9.42849 576 108.62 731.075 371.531
543 0 64.0562 11.9426 765 105.25 730.732 368.821
544 0 68.0369 11.9347 812 104.304 730.729 369.094
545 0 66.1186 11.7062 774 106.712 731.053 368.585
546 0 68.0895 10.8827 741 109.405 730.008 366.637
547 0 73.2093 13.2633 971 103.695 730.133 365.517
548 0 73.1318 11.24 822 108.754 730.58 363.982
549 0 77.304 12.0434 931 106.943 730.531 364.324
550 0 79.0641 12.2685 970 106.606 730.572 362.631
551 0 83.179 12.5152 1041 105.562 730.003 363.025
552 0 86.0815 12.128 1044 105.463 730.062 362.4
553 0 88.2334 13.0223 1149 104.208 730.246 360.831
554 0 89.1577 11.7208 1045 106.306 730.1 360.854
555 0 94.1085 12.5068 1177 103.434 731.047 352.805
556 0 93.214 11.6721 1088 105.519 730.072 352.665
557 0 97.1443 12.3836 1203 107.366 731.587 350.345
558 0 99.292 12.1158 1203 103.699 731.69 352.658
559 0 101.131 11.9251 1206 102.635 731.451 351.255
560 0 102.071 12.8637 1313 104.13 731.709 348.947
561 0 103.142 12.187 1257 106.79 731.5 349.998
562 1 56.1552 10.3641 582 100.959 730.789 373.067
563 0 55.0552 10.5167 579 101.501 730.589 374.549
564 0 57.064 11.2155 640 103.062 729.516 372.266
565 0 58.0618 11.3328 658 101.629 730.029 373.717
566 0 60.0837 11.6338 699 100.232 730.362 372.094
567 0 60.0318 10.2945 618 102.084 730.494 371.249
568 0 63.04 10.5647 666 99.4144 730.697 372.779
569 0 66.0143 11.2097 740 97.5338 729.93 371.103
570 0 69.061 11.917 823 96.8676 730.275 364.084
571 0 68.1269 10.0694 686 101.483 730.595 361.421
572 0 70.0578 12.0615 845 97.8402 730.632 360.391
573 0 75.0944 11.9183 895 98.143 730.349 357.864
574 0 75.1656 11.029 829 101.786 730.899 357.018
575 0 79.1026 11.8959 941 100.848 730.202 357.336
576 0 80.0444 11.6185 930 104.646 730.706 354.163
577 0 79.1456 12.2053 966 104.598 730.916 352.451
578 0 84.0785 13.3923 1126 102.8 730.744 353.312
579 0 86.0859 11.9067 1025 108.068 730.05 352.091
580 0 82.174 10.3074 847 115.478 730.55 353.904
581 0 89.0991 11.0888 988 115.113 730.188 354.539
582 0 93.0798 11.9897 1116 113.602 729.884 348.531
583 0 96.235 12.1785 1172 114.675 730.483 343.32
584 0 98.1589 11.9398 1172 120.89 730.034 331.362
585 1 56.1148 11.922 669 110.245 730.562 356.1
586 0 56.0224 12.5307 702 105.859 729.588 360.717
587 0 57.0367 11.0105 628 105.879 729.503 366.866
588 0 60.1736 11.9488 719 104.777 729.544 366.528
589 0 62.1355 11.9095 740 105.822 730.108 366.039
590 0 62.0806 10.6797 663 110.024 730.285 366.315
591 0 65.0758 11.4174 743 109.248 731.04 365.25
592 0 67.0469 11.5442 774 111.599 730.981 358.171
593 0 67.1305 12.0512 809 113.365 730.622 356.434
594 0 71.2528 11.4662 817 113.515 730.602 359.843
595 0 73.2814 13.0456 956 113.299 730.538 356.242
596 0 76.2012 12.3751 943 113.452 730.721 356.792
597 0 75.1805 12.4101 933 116.028 730.85 353.413
598 0 80.1583 12.3131 987 116.57 730.994 352.531
599 0 80.1032 12.2966 985 116.939 730.834 352.789
600 0 82.0492 11.7003 960 119.716 730.614 351.029
601 0 85.0883 12.1168 1031 119.652 730.377 349.741
602 0 90.0524 13.6698 1231 116.522 730.035 348.089
603 0 92.124 12.9717 1195 119.362 730.934 347.372
604 0 93.0683 12.7648 1188 122.772 730.141 345.571
605 0 97.0818 13.0199 1264 124.11 730.206 341.589
606 0 101.135 13.3881 1354 124.104 730.621 341.104
607 0 103.1 12.8807 1328 126.058 730.431 341.556
608 0 106.182 12.6951 1348 125.595 730.436 339.064
609 1 62.045 10.8147 671 119.988 729.998 361.267
610 0 65.1153 11.7638 766 121.55 730.213 355.794
611 0 66.1422 10.9915 727 121.576 729.532 360.162
612 0 69.0949 12.9387 894 115.603 729.57 358.537
613 0 71.1118 12.6561 900 117.18 730.108 356.958
614 0 73.1405 10.8968 797 122.71 730.91 354.148
615 0 75.1119 11.2499 845 123.183 730.821 352.512
616 0 77.0253 12.035 927 119.321 730.452 353.264
617 0 82.1016 11.8999 977 119.529 730.006 350.323
618 0 83.0728 12.3988 1030 117.642 729.64 349.94
619 0 87.084 12.4592 1085 117.819 730.547 347.87
620 0 89.0509 12.0717 1075 118.372 730.323 343.783
621 0 90.1217 11.6287 1048 120.165 729.592 341.066
622 0 96.0832 11.7086 1125 117.45 730.133 337.666
623 0 98.3015 12.3904 1218 117.872 729.878 333.061
624 0 103.168 12.0677 1245 118.461 730.308 329.75
625 1 56.1421 12.8068 719 106.769 729.419 351.782
626 0 56.1241 10.2273 574 108.378 730.444 352.519
627 0 60.0916 12.1648 731 109.311 729.484 353.508
628 0 60.1804 12.3628 744 116.313 729.497 354.22
629 0 62.1161 12.0903 751 107.362 729.655 358.234
630 0 63.0441 12.0551 760 108.92 728.81 356.478
631 0 64.0688 11.7218 751 108.961 730.214 360.439
632 0 66.1535 10.8233 716 111.906 729.743 357.229
633 0 72.08 10.9462 789 111.667 729.523 354.825
634 0 72.1256 11.6602 841 111.854 730.413 352.817
635 0 76.0857 12.3019 936 110.498 729.944 350.724
636 0 78.1431 13.6032 1063 108.206 729.533 349.204
637 0 80.0903 10.5506 845 114.647 728.78 349.966
638 0 84.1628 13.0462 1098 110.241 729.42 346.135
639 0 89.1116 12.2431 1091 111.524 729.417 345.148
640 0 90.0639 12.2691 1105 112.715 729.616 340.13
641 0 94.0869 12.7861 1203 110.103 729.404 344.91
642 0 96.121 11.6728 1122 114.504 729.424 339.838
643 0 100.152 12.481 1250 112.071 729.643 339.774
644 0 107.167 14.4541 1549 106.245 729.296 338.157
645 0 107.167 11.832 1268 113.489 730.588 336.577
646 0 111.103 12.7089 1412 114.74 729.628 334.018
647 1 64.1222 11.5249 739 112.66 729.513 358.046
648 0 65.0731 11.7406 764 115.668 730.284 355.428
649 0 68.1971 12.7571 870 115.123 730.045 354.454
650 0 70.1389 12.518 878 117.958 729.874 350.076
651 0 74.1499 13.9043 1031 111.546 729.928 353.012
652 0 75.0944 13.4098 1007 114.817 730.044 351.273
653 0 79.104 14.0701 1113 111.934 729.502 350.395
654 0 81.0564 13.6078 1103 114.104 730.059 349.335
655 0 85.1438 14.3992 1226 111.85 730.516 346.967
656 0 86.0749 13.5696 1168 115.412 730.078 344.775
657 0 88.1958 13.9122 1227 115.498 730.328 346.414
658 0 91.1577 12.9665 1182 118.916 730.684 344.295
659 0 94.1611 14.0185 1320 116.195 729.835 342.028
660 0 98.1542 13.8965 1364 115.488 730.545 340.919
661 0 101.079 12.9404 1308 121.041 730.317 334.029
662 0 105.165 13.8925 1461 118.398 730.07 334.712
663 0 107.129 13.9178 1491 116.657 729.887 334.369
664 0 111.186 14.1295 1571 115.282 730.635 332.571
665 0 115.083 13.6597 1572 117.448 730.901 331.503
666 1 65.051 12.8515 836 115.459 730.049 355.821
667 0 66.119 12.0994 800 118.784 729.942 353.695
668 0 70.1335 15.2281 1068 108.38 730.233 354.64
669 0 71.0834 12.7456 906 107.844 729.915 355.475
670 0 71.0714 11.1578 793 114.468 729.821 352.933
671 0 75.069 11.7226 880 112.769 730.006 352.648
672 0 82.0995 13.1913 1083 109.05 729.763 349.644
673 0 82.0432 13.1394 1078 112.75 729.769 348.349
674 0 85.0336 13.0066 1106 114.233 729.348 346.811
675 0 87.0321 13.8799 1208 115.895 729.848 341.174
676 0 92.0717 15.0535 1386 111.014 729.19 341.721
677 0 96.0708 14.0834 1353 112.36 730.134 340.891
678 0 97.1775 12.6778 1232 117.455 729.728 337.51
679 0 102.09 13.4979 1378 115.518 730.372 332.512
680 0 107.087 14.3995 1542 113.643 730.56 330.468
681 0 111.206 13.8033 1535 113.894 730.64 327.124
682 1 63.0953 10.6664 673 110.64 730.438 357.7
683 0 64.1667 10.9558 703 107.819 730 360.825
684 0 68.0901 10.4567 712 111.081 729.802 360.657
685 0 70.1288 11.0083 772 108.464 730.237 360.991
686 0 73.0589 10.3068 753 110.356 729.988 358.675
687 0 76.0904 12.0909 920 105.396 729.824 358.728
688 0 79.1926 11.491 910 108.136 730.548 354.685
689 0 79.2474 10.9278 866 110.688 729.74 352.2
690 0 83.2817 11.4431 953 109.65 730.679 350.599
691 0 86.2273 11.5741 998 108.38 730.641 348.827
692 0 89.2063 12.2861 1096 109.307 730.339 342.319
693 0 90.2501 10.5041 948 114.87 730.372 340.117
694 0 95.2233 11.7723 1121 111.975 730.531 339.324
695 0 99.1914 12.3297 1223 113.341 730.283 332.156
696 0 102.264 12.0961 1237 115.363 730.829 330.858
697 0 108.352 13.9729 1514 111.773 730.112 324.758
698 0 109.315 13.5389 1480 112.992 730.521 321.349
699 0 113.212 12.7725 1446 115.057 730.724 323.237
700 0 116.354 12.4276 1446 115.313 730.993 323.271
701 0 121.246 13.353 1619 113.407 730.948 321.245
702 0 122.334 12.1961 1492 117.891 730.445 316.908
703 0 128.362 12.5115 1606 116.6 730.177 318.397
704 0 132.313 13.2489 1753 114.876 731.013 315.504
705 0 138.342 13.1702 1822 114.681 730.739 313.533
706 0 143.314 14.2345 2040 111.436 730.187 312.684
707 0 147.276 13.6003 2003 113.944 730.805 307.616
708 0 153.497 14.1697 2175 113.646 730.678 306.106
709 0 157.389 13.7875 2170 115.293 731.238 302.48
710 0 162.424 13.8403 2248 117.431 730.807 300.139
711 0 167.397 14.0086 2345 116.99 730.735 301.856
712 0 171.385 13.5951 2330 120.448 730.975 296.432
713 0 177.365 13.9824 2480 118.795 731.159 292.266
714 0 200.417 23.1716 4644 92.5749 730.644 275.736
715 0 189.36 16.5347 3131 112.554 730.979 285.19
716 0 195.366 16.1236 3150 113.585 730.761 286.164
717 0 200.359 17.4637 3499 111.239 731.473 278.214
718 0 207.402 18.0229 3738 109.699 731.46 276.586
719 0 215.539 17.9643 3872 109.593 731.947 272.483
720 0 222.44 16.6112 3695 112.695 731.434 273.286
721 1 171.379 13.1288 2250 118.668 731.611 301.647
722 0 177.341 14.3734 2549 116.601 731.928 298.759
723 0 181.336 14.2332 2581 117.404 731.954 299.056
724 0 188.547 14.1928 2676 118.191 731.975 295.688
725 0 194.624 14.2223 2768 117.797 732.141 294.229
726 0 202.315 16.2272 3283 112.354 731.36 279.3
727 0 206.418 15.0133 3099 116.295 731.296 275.675
728 0 215.326 17.1926 3702 111.061 730.402 276.902
729 0 224.541 16.0372 3601 113.893 730.939 275.288
730 0 228.202 15.5783 3555 115.688 731.379 273.134
731 0 238.501 15.958 3806 113.925 731.417 270.728
732 1 67.1382 7.06006 474 113.821 731.228 364.654
733 0 71.0804 10.664 758 107.1 730.186 362.637
734 0 72.1411 8.74674 631 101.93 730.555 357.279
735 0 70.069 7.46407 523 105.547 730.43 359.075
736 0 83.1732 12.3117 1024 89.8418 731.141 354.452
737 0 80.1693 9.66705 775 98.9677 729.778 355.178
738 0 82.3059 10.1329 834 104.583 731.179 351.884
739 0 90.0889 12.0992 1090 97.689 731.298 334.705
740 0 91.1458 11.4542 1044 100.224 730.849 334.282
741 0 96.1805 12.0295 1157 98.5065 730.856 341.264
742 0 102.272 13.8846 1420 93.4155 730.316 342.149
743 1 19.0125 1.94609 37 81.8919 732.162 390.432
744 0 22.0614 3.80756 84 81.4881 732.429 388.619
745 0 24.0174 5.87075 141 79.1348 732.489 390.404
746 0 20.0857 4.43102 89 80.8427 732.652 390.461
747 0 23.0586 7.06895 163 79.3068 732.074 388.546
748 0 20.0133 7.29516 146 78.4384 732.685 391.24
749 1 73.1921 9.27696 679 90.5317 729.829 365.795
750 0 75.124 9.19812 691 91.7221 729.666 365.848
751 0 79.1574 11.9509 946 85.2812 730.515 362.933
752 0 75.1272 10.0896 758 89.9881 729.566 362.799
753 0 77.163 6.66122 514 95.5214 730.097 356.228
754 0 78.2371 8.74265 684 92.1725 730.482 357.63
755 0 80.1491 8.8585 710 93.2239 730.213 358.306
756 0 82.2463 10.809 889 89.4061 730.018 358.746
757 0 85.2512 10.3107 879 92.5631 730.187 355.329
758 0 88.242 11.1058 980 92.2694 730.151 355.706
759 0 89.2801 9.92382 886 95.6986 729.667 353.488
760 0 91.086 10.4517 952 96.3288 730.131 350.272
761 0 94.1377 8.95497 843 99.1886 729.38 350.199
762 0 94.0939 10.6064 998 97.3607 729.52 350.203
763 0 96.0932 9.6781 930 101.433 729.998 345.942
764 0 103.125 11.297 1165 97.6738 729.614 344.84
765 0 105.134 11.6423 1224 98.6144 728.682 346.377
766 0 107.097 12.1012 1296 99.6458 728.718 339.167
767 0 111.117 11.6903 1299 99.2055 729.258 344.703
768 0 118.135 11.6392 1375 97.6865 729.689 339.993
769 0 119.11 11.2417 1339 99.5228 729.122 334.947
770 0 126.219 12.0505 1521 100.174 729.619 338.477
771 0 126.205 12.0677 1523 101.315 729.234 336.655
772 0 131.12 12.7135 1667 101.001 729.479 327.474
773 1 77.1881 10.3384 798 98.5865 730.415 355.787
774 0 83.1691 9.4867 789 100.471 729.324 355.439
775 0 85.0593 10.7219 912 98.0472 729.697 356.214
776 0 81.0994 10.6043 860 102.76 729.512 350.812
777 0 88.077 10.7974 951 100.821 728.67 352.769
778 0 92.1382 10.2889 948 94.98 729.891 351.828
779 0 92.2355 9.09628 839 98.9523 730.315 347.78
780 0 99.2283 10.632 1055 95.9678 730.518 346.538
781 0 102.236 10.1725 1040 96.4385 730.696 345.628
782 0 107.223 12.087 1296 91.7909 730.376 349.223
783 0 105.142 10.6808 1123 95.7346 730.547 346.648
784 1 184.47 11.0912 2046 241.65 726.799 339.263
785 1 101.24 7.92173 802 113.348 729.682 331.271
786 0 118.442 11.1447 1320 97.4841 729.589 339.707
787 0 114.43 9.56921 1095 104.406 729.477 332.881
788 1 20.1746 5.155 104 72.75 732.952 394.346
789 0 14.0013 2.9283 41 70.4146 731.707 399.024
790 0 10.0022 2.19951 22 71.5455 732.409 395.273
791 0 12.0011 3.58301 43 68.7442 731.14 401.023
792 0 15.0014 3.26636 49 69.1633 731.306 399.98
793 1 2 4 8 72.125 730.125 390.625
794 1 13.0042 2.99904 39 73.6667 730.692 394.487
795 0 13.0009 3.23055 42 92.2381 731.619 394.833
796 0 12.0024 2.08292 25 72.6 730.48 396.08
797 0 3 4 12 72.4167 731.25 397.167
798 0 9.00124 4.33274 39 69.1795 731.333 400.154
799 0 9.00315 5.10932 46 69.6522 730.87 396.587
800 0 11.0073 4.99667 55 71.4 729.927 397.109
801 0 6 0.5 3 78 728.667 397
802 0 11.0051 3.99815 44 70.3636 731.295 398.205
803 0 9.00092 3.33299 30 72.4667 730.633 397.967
804 0 6 1 6 74.8333 730.667 398.333
805 0 8.00042 4.24978 34 70.9706 730.559 397.588
806 0 5 1.6 8 74.375 729.75 398.625
807 1 92.0685 11.2742 1038 93.6195 729.687 351.469
808 0 97.0959 12.7091 1234 92.4344 729.105 350.511
809 0 99.1294 11.7725 1167 94.7481 728.924 349.589
810 0 101.109 11.7892 1192 95.7374 729.75 345.874
811 0 107.157 13.5129 1448 93.0463 729.306 347.11
812 0 107.251 11.198 1201 99.9367 728.87 344.151
813 0 109.123 12.0048 1310 101.02 728.982 338.192
814 0 116.136 12.4853 1450 101.563 729.195 337.051
815 0 119.132 13.355 1591 100.287 729.048 337.752
816 0 122.239 13.0564 1596 101.457 729.076 336.905
817 0 127.157 14.2108 1807 102.681 729.03 324.388
818 0 132.337 14.0626 1861 102.24 729.053 328.735
819 1 69.037 8.82136 609 101.864 728.98 363.724
820 0 71.0569 9.86533 701 99.8417 729.011 360.317
821 0 70.072 8.7196 611 93.3257 728.666 363.056
822 0 74.1703 10.0849 748 90.639 729.389 363.838
823 0 77.0614 11.4454 882 88.6043 729.194 363.139
824 0 78.1771 11.8833 929 89.3132 728.943 361.314
825 0 84.1179 11.1986 942 97.8726 728.884 360.136
826 0 85.2388 11.2038 955 99.1969 729.103 355.857
827 0 88.177 12.078 1065 96.7408 728.688 357.772
828 0 82.143 11.3582 933 102.999 729.214 350.397
829 0 93.1362 10.4041 969 102.058 729.141 351.736
830 0 93.2708 11.6006 1082 101.323 729.065 349.502
831 0 96.198 11.3412 1091 102.349 729.074 347.253
832 0 98.2031 13.6859 1344 98.2865 728.914 347.587
833 0 103.125 11.9952 1237 103.238 728.385 348.042
834 0 104.103 11.4886 1196 105.021 729.046 344.554
835 0 108.089 13.0818 1414 103.192 729.166 343.68
836 0 112.202 12.1477 1363 105.462 729.522 341.787
837 0 117.282 13.6593 1602 103.26 728.931 341.743
838 0 119.161 13.5027 1609 105.774 729.057 336.18
839 0 124.199 13.575 1686 106.392 728.93 336.86
840 0 127.221 13.9992 1781 106.418 729.328 337.653
841 0 135.179 16.0454 2169 103.041 729.714 331.935
842 1 78.1665 11.693 914 99.5667 729.928 363.922
843 0 81.1837 11.0736 899 103.95 729.232 359.338
844 0 83.1518 11.5331 959 103.882 730.258 359.178
845 0 84.1117 10.4385 878 98.4544 729.161 360.99
846 0 85.0792 10.8017 919 99.4951 728.887 360.854
847 0 90.1642 11.4569 1033 99.6563 729.577 355.852
848 0 91.0899 11.6698 1063 100.625 729.173 357.142
849 0 96.1336 12.4826 1200 99.1525 729.542 354.253
850 0 100.066 11.2425 1125 101.97 730.089 354
851 0 104.102 13.3523 1390 98.1489 730.017 354.616
852 0 105.117 12.1579 1278 102.979 729.768 353.673
853 0 108.26 13.5785 1470 101.248 729.359 348.363
854 0 108.083 11.9815 1295 107.433 728.897 345.536
855 0 113.127 13.1622 1489 104.438 729.116 344.978
856 0 118.092 13.0237 1538 103.663 729.481 346.786
857 0 123.208 13.4488 1657 102.838 728.85 340.173
858 0 126.159 12.8409 1620 104.854 728.852 338.611
859 0 133.172 13.5614 1806 102.087 729.328 337.488
860 0 136.136 13.9493 1899 101.417 728.912 334.351
861 0 141.22 13.1993 1864 102.914 729.131 329.658
862 1 86.1788 12.5205 1079 97.1029 728.451 360.832
863 0 88.1119 11.0768 976 98.6547 729.134 358.109
864 0 88.1243 11.6994 1031 91.0407 728.715 353.905
865 0 93.1006 11.3533 1057 97.5979 729.33 354.545
866 0 97.1166 12.0165 1167 96.1054 729.517 351.662
867 0 98.1135 12.9748 1273 90.5577 729.111 350.482
868 0 102.161 11.756 1201 93.0458 728.375 350.452
869 0 105.313 11.8029 1243 93.3443 728.644 350.467
870 0 111.109 13.1942 1466 96.369 729.005 348.419
871 0 115.187 13.2047 1521 95.545 728.857 344.413
872 0 119.15 13.034 1553 96.0103 729.185 332.986
873 0 119.287 12.6167 1505 96.9143 729.511 326.149
874 0 124.403 16.2698 2024 68.3503 729.598 328.384
875 0 131.302 14.2496 1871 91.7055 729.631 327.327
876 0 135.206 13.032 1762 94.2418 729.426 322.88
877 1 74.0636 11.2876 836 98.0215 729.541 349.599
878 0 79.0668 11.8254 935 95.231 729.028 351.032
879 0 82.2072 11.471 943 91.1888 729.519 357.6
880 0 84.1137 11.8887 1000 90.616 729.425 357.219
881 0 88.2242 11.0854 978 92.0879 729.368 354.515
882 0 92.2215 13.3266 1229 88.0838 729.191 355.14
883 0 94.1393 11.568 1089 90.2452 729.695 356.526
884 0 97.2925 12.7759 1243 90.1054 729.189 350.939
885 0 101.38 11.5506 1171 92.6319 729.254 347.624
886 0 106.192 11.9783 1272 89.7673 729.145 350.13
887 0 109.266 13.0233 1423 87.2432 728.989 347.741
888 0 111.245 11.8297 1316 89.3579 729.057 349.92
889 0 115.358 13.3324 1538 89.3765 729.246 344.575
890 0 119.229 12.7821 1524 90.3996 729.362 342.32
891 1 69.3032 12.4669 864 81.5602 729.394 370.207
892 0 69.1746 11.1602 772 84.9262 729.742 370.131
893 0 73.3028 12.346 905 88.9105 730.275 353.212
894 0 75.137 11.2062 842 91.8955 730.049 364.086
895 0 77.1253 11.9027 918 92.244 730.056 360.351
896 0 81.2382 11.891 966 92.5093 729.739 359.518
897 0 81.1611 12.6538 1027 91.6796 729.251 360.268
898 0 86.1313 11.4244 984 94.1961 729.803 358.566
899 0 91.2035 13.3876 1221 91.2645 730.391 356.688
900 0 92.2516 13.0404 1203 92.6941 731.019 356.959
901 0 95.4072 13.3218 1271 92.9835 730.349 357.045
902 0 98.292 12.3408 1213 96.5111 730.5 353.142
903 0 102.341 12.1848 1247 96.7129 729.9 354.648
904 0 106.133 13.8977 1475 94.7586 729.947 352.552
905 0 110.377 13.3633 1475 96.1308 729.742 352.094
906 0 112.245 13.515 1517 97.6829 729.769 347.094
907 0 115.205 12.9074 1487 98.772 729.232 347.582
908 0 117.304 12.1139 1421 101.626 729.237 344.486
909 0 122.257 14.6332 1789 95.9916 729.511 345.028
910 0 124.545 13.4409 1674 99.2151 729.618 343.385
911 0 130.351 13.4867 1758 99.0859 729.149 336.962
912 1 75.1487 10.8851 818 90.2702 729.551 370.764
913 0 78.221 13.0144 1018 89.1955 728.804 365.691
914 0 84.3313 14.2177 1199 86.598 729.532 366.224
915 0 84.2454 11.8107 995 91.81 729.602 365.689
916 0 87.3244 12.1157 1058 92.9036 729.746 362.275
917 0 91.288 12.006 1096 91.9672 729.936 362.327
918 0 94.1541 11.4281 1076 94.4935 729.946 359.513
919 0 98.3262 12.9569 1274 89.6523 729.719 361.401
920 0 101.193 12.9752 1313 91.4455 730.002 357.343
921 0 103.249 11.7677 1215 94.7893 729.654 354.079
922 0 107.49 11.8523 1274 95.6562 729.464 350.626
923 0 112.3 13.366 1501 93.505 729.374 347.805
924 0 115.421 13.1605 1519 94.8374 730.176 343.968
925 0 119.416 13.2562 1583 95.8812 729.944 327.404
926 0 124.321 14.0925 1752 95.5103 729.889 320.913
927 1 69.3046 11.0382 765 95.7699 728.795 350.766
928 0 72.2291 12.9588 936 91.8761 729.838 346.879
929 0 73.1532 11.8655 868 93.5795 729.68 349.346
930 0 75.2374 10.6463 801 96.0687 729.122 347.22
931 0 78.0998 10.8067 844 96.6682 729.485 344.819
932 0 81.1928 10.7522 873 97.3345 729.577 343.584
933 0 84.1163 12.9107 1086 95.5479 729.006 340.687
934 0 86.1947 12.959 1117 96.7099 730.012 336.18
935 0 90.197 13.3486 1204 96.4493 729.882 336.656
936 0 94.3454 13.2068 1246 98.675 729.477 334.726
937 0 97.1736 14.2426 1384 98.56 729.135 333.884
938 0 99.3074 13.5337 1344 100.778 728.864 328.962
939 0 102.217 14.0583 1437 98.9638 729.574 329.502
940 0 107.126 13.9182 1491 99.3313 729.99 329.439
941 0 111.15 14.6289 1626 98.318 729.177 326.916
942 0 111.17 13.205 1468 102.976 730.545 323.731
943 0 119.242 14.1896 1692 98.8091 729.677 324.238
944 0 117.164 12.1368 1422 105.243 730.084 320.144
945 0 123.218 13.8048 1701 101.337 729.062 317.299
946 0 129.105 13.3303 1721 101.728 729.096 316.968
947 0 135.295 13.8586 1875 101.19 729.464 312.67
948 0 141.202 15.0564 2126 98.7672 730.785 308.747
949 1 77.0562 12.134 935 100.246 729.886 340.565
950 0 82.1068 12.8248 1053 94.8395 729.35 340.73
951 0 84.0672 12.942 1088 98.068 729.677 337.281
952 0 87.1729 13.5248 1179 96.6319 730.377 336.961
953 0 90.1196 13.1381 1184 97.7365 730.138 333.756
954 0 97.0904 14.5328 1411 100.418 729.709 331.85
955 0 100.17 13.6767 1370 101.207 730.072 330.472
956 0 101.169 12.9387 1309 102.797 729.81 325.793
957 0 107.232 13.1677 1412 99.8307 729.953 327.14
958 0 111.121 12.9138 1435 99.3366 729.805 325.691
959 0 115.176 13.8918 1600 96.5912 730.377 322.194
960 0 119.161 14.3839 1714 95.4014 729.978 317.6
961 0 123.081 13.4789 1659 96.1507 729.916 317.076
962 0 127.118 14.1286 1796 94.7923 729.73 314.641
963 0 132.304 13.6353 1804 95.5915 729.784 312.733
964 0 137.174 13.3553 1832 95.6299 729.278 313.139
965 0 141.251 12.5026 1766 96.9275 729.271 308.649
966 0 148.203 15.4855 2295 91.6649 728.812 303.236
967 0 154.254 14.3141 2208 93.7056 729.408 300.447
968 0 159.274 13.8629 2208 95.1988 729.863 298.846
969 0 164.136 13.2329 2172 97.256 730.138 292.316
970 0 173.233 14.7662 2558 93.8065 729.724 290.071
971 0 181.314 13.5235 2452 96.6856 729.434 288.6
972 0 186.293 14.5792 2716 99.3483 729.618 283.213
973 1 103.204 12.1507 1254 93.0933 729.144 327.103
974 0 107.176 11.6164 1245 90.3767 729.127 346.234
975 0 110.119 12.3684 1362 88.7871 729.326 348.537
976 0 112.091 11.9634 1341 92.8195 729.757 339.868
977 0 117.212 12.1233 1421 91.8902 729.636 341.424
978 0 120.312 10.3314 1243 95.8439 729.005 335.8
979 0 125.219 11.6037 1453 94.3365 729.71 335.158
980 0 130.272 11.6679 1520 93.8605 729.822 335.314
981 0 133.371 12.5439 1673 93.0215 729.72 330.172
982 0 137.268 12.4355 1707 94.0135 729.416 329.312
983 0 144.348 12.4352 1795 93.7866 729.619 330.532
984 0 146.404 10.6622 1561 98.4228 729.692 323.785
985 0 154.28 13.5273 2087 94.1442 729.089 307.017
986 0 160.272 12.5848 2017 97.6004 729.479 302.144
987 0 169.229 14.2943 2419 96.7673 729.162 298.085
988 0 176.263 13.7976 2432 98.8384 729.352 295.807
989 0 183.461 13.7305 2519 100.916 729.98 290.338
990 0 186.172 14.6585 2729 96.0304 730.187 301.475
991 0 192.398 13.5916 2615 97.2761 729.258 309.52
992 0 196.451 13.3367 2620 97.6282 730.139 305.323
993 1 114.115 12.3735 1412 94.8406 729.981 347.425
994 0 116.33 11.7252 1364 99.1151 730.459 346.237
995 0 119.122 10.7873 1285 96.9712 729.672 335.027
996 0 126.187 10.0248 1265 101.716 730.139 335.543
997 0 128.253 12.5221 1606 97.6644 730.13 332.933
998 0 133.156 12.3915 1650 97.3012 730.455 331.756
999 0 137.162 11.4682 1573 98.1068 729.765 329.479
1000 0 144.31 12.1336 1751 97.4323 730.734 326.227
1001 0 150.187 14.3688 2158 93.2039 730.857 324.691
1002 0 152.534 12.712 1939 97.8829 729.734 322.418
1003 0 158.255 12.442 1969 97.9919 729.924 319.446
1004 0 162.159 11.4456 1856 100.96 730.094 314.639
1005 0 167.374 11.7939 1974 100.671 730.358 307.295
1006 0 176.219 13.6194 2400 97.3521 730.607 306.648
1007 0 182.259 13.4534 2452 97.5102 730.577 306.83
1008 0 190.533 14.6327 2788 100.622 729.738 288.018
1009 0 198.628 17.5152 3479 92.5441 729.865 280.711
1010 0 202.536 15.9873 3238 98.1106 730.212 277.654
1011 0 208.478 15.6132 3255 99.9859 731.335 273.91
1012 0 215.429 15.4622 3331 101.169 731.025 271.301
1013 0 225.317 15.5381 3501 101.584 730.588 265.24
1014 0 234.886 17.6256 4140 96.4425 730.773 257.058
1015 0 243.542 19.6681 4790 92.1428 731.1 256.45
1016 1 177.386 12.4305 2205 107.133 731.236 296.741
1017 0 183.398 12.4483 2283 106.413 731.426 293.869
1018 0 189.272 12.8651 2435 107.185 731.967 291.275
1019 0 200.16 15.9173 3186 99.3456 731.422 285.612
1020 0 205.382 13.3264 2737 106.699 731.465 283.306
1021 0 213.401 16.7009 3564 97.5028 731.834 277.888
1022 0 220.503 16.0905 3548 100.525 731.441 272.586
1023 0 229.437 17.3338 3977 97.6258 731.002 263.062
1024 0 237.392 15.9441 3785 103.25 730.932 262.691
1025 1 59.1481 8.92674 528 93.4981 731.087 356.816
1026 0 60.1406 8.9457 538 96.2602 730.591 361.264
1027 0 60.1476 10.7236 645 88.3752 729.808 365.124
1028 0 64.0455 9.97729 639 90.5775 730.606 365.269
1029 0 64.0645 9.02216 578 94.3564 730.374 363.661
1030 0 67.0948 10.2243 686 91.8907 730.926 365.127
1031 0 68.1012 11.8353 806 87.9442 730.036 360.274
1032 0 70.066 10.3759 727 88.0413 730.078 361.282
1033 0 71.1394 12.0046 854 85.2775 730.787 360.67
1034 0 72.0971 10.902 786 88.9555 730.097 361.524
1035 0 78.1752 10.2078 798 97.9373 730.495 360.689
1036 0 78.1004 11.5108 899 96.7742 730.957 358.464
1037 0 81.1007 11.2946 916 96.1048 730.417 361.788
1038 0 80.0935 11.8487 949 96.0221 730.411 363.071
1039 0 86.0541 11.7252 1009 96.0178 729.816 355.038
1040 0 89.1264 12.2074 1088 95.1765 730.475 353.135
1041 0 89.083 11.1694 995 98.7276 730.719 349.456
1042 0 94.0539 11.9825 1127 97.0355 730.548 348.012
1043 0 97.0762 12.073 1172 95.6903 730.186 347.33
1044 0 101.17 11.3176 1145 98.6323 730.388 345.628
1045 0 105.155 11.64 1224 96.7778 730.597 343.275
1046 0 110.175 11.6724 1286 97.0498 731.35 338.306
1047 1 64.129 9.77717 627 89.8979 731.351 358.383
1048 0 68.1394 11.3004 770 87.8597 731.036 354.449
1049 0 68.1055 10.6893 728 89.9011 730.721 357.324
1050 0 71.0645 12.172 865 87.7827 730.483 358.659
1051 0 72.1161 11.8281 853 90.0305 730.642 356.977
1052 0 74.1515 11.8137 876 91.6507 730.346 353.394
1053 0 78.0816 11.7697 919 89.8248 730.478 357.43
1054 0 82.091 12.7541 1047 89.4489 730.765 355.181
1055 0 84.2456 12.5585 1058 91.1248 730.254 354.529
1056 0 87.165 12.0346 1049 92.9361 730.988 353.547
1057 0 89.1343 13.4067 1195 95.0444 730.563 349.501
1058 0 90.1703 11.0569 997 99.9198 730.604 348.333
1059 0 96.2373 12.8432 1236 97.5566 729.916 350.81
1060 0 97.0949 12.9976 1262 98.9636 730.746 346.399
1061 0 101.314 11.6864 1184 100.541 730.44 348.368
1062 0 103.179 12.2505 1264 102.665 729.612 343.323
1063 0 105.185 10.9521 1152 105.271 729.772 343.798
1064 0 108.202 11.0349 1194 105.913 730.281 342.746
1065 0 114.146 13.3776 1527 102.739 730.617 337.084
1066 0 117.157 12.607 1477 105.364 730.639 335.357
1067 0 121.128 13.0358 1579 105.762 731.3 331.631
1068 0 127.294 13.5749 1728 103.874 730.665 332.609
1069 0 130.164 13.2832 1729 106.168 731.381 331.189
1070 1 80.2309 12.3145 988 95.2621 731.287 347.996
1071 0 82.0927 12.4128 1019 97.8901 732.012 345.717
1072 0 83.1229 10.298 856 103.231 731.856 345.612
1073 0 86.0571 11.3297 975 110.942 731.223 349.249
1074 0 90.1564 11.835 1067 110.46 730.68 349.394
1075 0 92.163 11.9462 1101 112.802 731.047 348.597
1076 0 95.1969 12.7735 1216 111.641 731.018 349.059
1077 0 100.104 12.2873 1230 113.09 731.029 347.778
1078 0 101.138 12.3396 1248 115.97 731.508 343.252
1079 0 104.063 12.0312 1252 116.363 730.778 343.541
1080 0 109.222 13.3398 1457 113.839 730.45 341.524
1081 0 111.126 12.1034 1345 111.191 731.313 342.76
1082 0 113.152 13.009 1472 111.255 730.974 339.84
1083 0 117.235 13.3919 1570 111.21 731.117 338.514
1084 0 122.214 13.4027 1638 112.275 730.926 334.064
1085 0 127.227 12.7489 1622 113.684 730.644 330.732
1086 0 132.193 13.3819 1769 116.062 731.253 325.724
1087 0 137.168 13.9609 1915 113.571 731.105 322.43
1088 1 81.0862 10.754 872 102.866 731.383 350.376
1089 0 82.1112 9.7307 799 101.949 731.67 351.523
1090 0 86.2062 11.2057 966 100.046 731.091 351.647
1091 0 91.1566 11.3102 1031 110.917 730.828 349.84
1092 0 92.0617 11.5901 1067 111.363 731.634 348.861
1093 0 97.1198 12.0161 1167 110.718 730.448 344.755
1094 0 101.055 12.2804 1241 110.734 730.913 343.056
1095 0 102.128 12.3472 1261 111.995 731.236 341.458
1096 0 103.122 12.4609 1285 112.469 731.167 341.208
1097 0 101.21 10.829 1096 119.485 731.027 336.626
1098 0 110.227 12.8099 1412 114.036 731.634 333.521
1099 0 115.241 13.2765 1530 112.235 731.742 337.703
1100 0 115.205 13.2806 1530 114.333 731.488 333.922
1101 0 126.129 15.3018 1930 107.676 731.778 329.295
1102 0 127.258 14.2545 1814 111.735 730.978 329.859
1103 0 132.175 13.3081 1759 114.501 731.466 325.68
1104 0 136.192 13.8554 1887 112.269 731.64 322.468
1105 0 143.361 13.7485 1971 111.019 731.669 319.117
1106 0 148.295 13.426 1991 112.483 731.184 316.776
1107 0 149.323 12.6906 1895 114.759 731.707 319.293
1108 0 156.413 11.8533 1854 116.028 731.404 317.529
1109 1 95.3543 11.7666 1122 100.417 731.228 349.702
1110 0 97.3318 10.9522 1066 106.788 731.361 346.398
1111 0 98.3044 10.9049 1072 108.106 731.198 342.312
1112 0 104.255 11.7788 1228 104.416 731.34 342.901
1113 0 108.421 11.6214 1260 105.315 730.708 340.102
1114 0 110.222 10.8871 1200 108.078 731.112 335.468
1115 0 115.293 11.7007 1349 104.749 730.955 338.138
1116 0 115.254 10.8716 1253 106.672 730.975 338.721
1117 0 123.259 12.1289 1495 105.666 730.38 334.254
1118 0 126.292 11.6239 1468 107.855 730.625 332.364
1119 0 131.185 13.4847 1769 104.204 730.525 330.492
1120 0 132.297 12.1998 1614 106.397 731.165 331.802
1121 0 137.351 12.2314 1680 107.004 730.274 330.279
1122 0 143.291 14.4601 2072 103.504 731.524 324.221
1123 0 148.337 12.5727 1865 107.374 730.713 322.983
1124 0 151.225 13.5163 2044 106.856 730.938 318.932
1125 0 156.382 13.4542 2104 107.061 730.921 318.872
1126 0 162.385 13.6404 2215 107.21 730.8 315.428
1127 0 166.297 13.548 2253 107.529 730.742 313.397
1128 0 171.357 12.7337 2182 108.495 730.86 313.775
1129 0 178.371 12.4067 2213 110.308 730.398 307.83
1130 0 185.277 13.9251 2580 106.867 730.836 305.972
1131 0 190.415 12.8877 2454 109.668 730.958 304.893
1132 0 199.508 14.0746 2808 108.416 731.917 299.705
1133 0 196.344 10.94 2148 115.47 731.221 301.848
1134 1 117.248 11.3776 1334 102.995 730.582 342.915
1135 0 121.193 11.6096 1407 105.323 731.142 335.146
1136 0 127.199 12.563 1598 102.046 730.848 338.618
1137 0 131.298 12.6811 1665 101.66 731.714 337.279
1138 0 135.299 12.3283 1668 102.082 731.293 335.031
1139 0 136.246 10.9581 1493 106.542 731.369 330.621
1140 0 143.481 13.4234 1926 101.421 731.543 328.554
1141 0 149.397 11.8945 1777 104.344 731.436 328.379
1142 0 152.205 12.0693 1837 104.507 731.944 324.43
1143 0 157.201 12.1882 1916 104.326 731.126 322.266
1144 0 161.287 12.9149 2083 103.886 731.502 319.995
1145 0 166.334 13.6653 2273 104.185 731.114 315.2
1146 0 170.321 13.2985 2265 106.522 730.725 314.169
1147 0 177.353 12.7091 2254 110.335 730.37 306.117
1148 0 183.287 12.745 2336 110.954 731.39 303.277
1149 1 106.159 10.8234 1149 100.642 730.923 345.216
1150 0 112.174 12.6144 1415 99.0014 730.952 340.492
1151 0 113.136 12.5424 1419 100.338 730.592 339.118
1152 0 116.24 12.1042 1407 102.37 730.501 338.108
1153 0 119.313 11.7422 1401 104.186 730.922 337.061
1154 0 126.165 13.0544 1647 100.382 732.156 336.336
1155 0 127.222 12.2228 1555 103.648 730.803 335.615
1156 0 131.215 12.4528 1634 104.09 731.411 331.064
1157 0 136.301 13.8444 1887 101.28 731.772 331.549
1158 0 140.262 12.826 1799 103.746 731.555 330.17
1159 0 145.305 13.1448 1910 103.407 731.778 305.739
1160 0 150.573 13.1232 1976 104.777 731.227 300.967
1161 0 158.337 15.5491 2462 100.546 732.426 298.924
1162 0 166.475 17.7384 2953 94.7961 731.844 290.464
1163 0 180.461 21.2068 3827 86.347 731.755 285.464
1164 0 173.424 15.4822 2685 101.039 732.015 292.059
1165 1 101.151 9.30291 941 97.1116 730.778 336.672
1166 0 104.355 10.5505 1101 97.9964 731.956 337.891
1167 0 108.157 11.0118 1191 100.563 731.566 336.673
1168 0 110.274 9.69404 1069 102.823 731.828 337.016
1169 0 118.346 11.6353 1377 97.4415 731.822 336.826
1170 0 120.273 11.5819 1393 97.8449 731.517 335.366
1171 0 124.261 11.3068 1405 99.3125 730.664 332.426
1172 0 129.29 12.414 1605 95.8044 730.867 335.368
1173 0 132.211 11.5497 1527 98.7439 731.121 331.862
1174 0 132.325 10.3155 1365 101.686 731.359 325.173
1175 0 138.27 10.1974 1410 101.074 731.739 324.818
1176 0 143.446 10.5963 1520 100.182 731.19 321.001
1177 0 147.413 10.0602 1483 100.54 731.033 323.738
1178 0 152.248 12.8343 1954 96.284 731.47 320.77
1179 0 156.465 10.047 1572 100.709 731.364 317.37
1180 0 161.506 12.3773 1999 97.6168 731.352 302.657
1181 1 172.608 16.9169 2920 87.5651 731.908 285.327
1182 0 172.48 11.7347 2024 100.976 731.308 297.034
1183 0 178.442 12.654 2258 101.304 731.19 289.96
1184 0 182.308 13.3565 2435 100.351 731.971 285.167
1185 0 186.343 12.4233 2315 102.819 731.488 282.746
1186 0 194.387 18.062 3511 89.7044 731.69 272.254
1187 0 199.321 17.0579 3400 92.1638 732.456 274.45
1188 0 204.275 17.731 3622 90.8388 732.221 269.366
1189 0 209.543 15.5195 3252 95.9696 731.312 264.739
1190 0 213.511 14.6971 3138 98.1055 731.496 262.911
1191 0 221.292 16.7109 3698 93.1168 731.583 262.26
1192 0 228.552 16.0751 3674 95.6391 731.863 259.973
1193 0 234.461 14.9321 3501 99.3233 730.829 251.573
1194 0 244.394 18.4866 4518 92.1293 731.43 246.757
1195 0 250.54 15.8857 3980 99.0706 731.001 246.154
1196 0 69.2647 10.5248 729 90.0672 731.111 339.938
1197 0 66.0361 7.51104 496 82.2964 730.831 345.079
1198 0 68.1543 9.91867 676 78.9689 731.087 352.435
1199 0 66.0452 6.45013 426 86.216 731.366 352.038
1200 0 71.0326 8.10895 576 84.0451 731.458 365.8
1201 0 71.0593 7.55707 537 87.203 731.717 358.728
1202 0 74.0766 9.71967 720 83.9611 731.438 359.79
1203 0 76.0867 8.79261 669 85.4903 731.502 361.209
1204 0 80.2636 10.8393 870 82.8 731.487 361.283
1205 0 83.148 9.35681 778 83.9807 731.19 361.429
1206 0 86.0299 9.96165 857 83.9825 730.667 351.226
1207 0 89.1637 11.9892 1069 82.261 731.184 355.24
1208 0 96.1677 11.7711 1132 88.4638 731.594 354.294
1209 0 91.2165 10.7108 977 83.4422 732.007 354.986
1210 0 97.3391 10.6432 1036 84.862 731.727 352.622
1211 0 94.1262 9.71037 914 90.8764 731.565 341.584
1212 0 100.176 9.67296 969 90.0021 731.253 345.285
1213 0 104.303 13.0773 1364 85.1936 731.405 344.245
1214 0 104.142 10.5913 1103 92.9048 731.559 335.395
1215 0 108.227 12.2612 1327 89.0852 731.485 340.864
1216 0 112.253 11.8305 1328 91.7462 731.312 335.761
1217 0 115.262 12.9097 1488 91.3522 731.738 334.786
1218 0 115.152 11.4718 1321 97.2052 730.721 335.816
1219 0 119.16 12.1936 1453 96.7502 730.206 333.887
1220 0 121.258 11.4384 1387 100.132 730.375 332.525
1221 0 123.105 10.9337 1346 102.218 730.187 331.082
1222 0 127.103 13.4458 1709 97.9497 730.489 330.174
1223 0 135.339 13.6398 1846 97.4615 730.315 326.205
1224 0 135.152 13.2961 1797 101.149 730.931 327.735
1225 0 136.087 12.6977 1728 103.62 731.04 322.954
1226 0 140.178 12.955 1816 103.569 730.365 322.795
1227 0 141.182 12.2395 1728 104.663 731.002 323.249
1228 0 144.281 12.0251 1735 106.779 730.818 317.537
1229 0 151.344 13.7039 2074 102.371 730.864 323.262
1230 0 152.196 11.84 1802 109.073 731.515 311.655
1231 0 160.232 12.1137 1941 107.144 731.725 311.754
1232 0 166.357 13.0442 2170 103.814 731.258 310.526
1233 0 172.435 13.9415 2404 101.302 730.815 304.75
1234 0 179.568 13.1538 2362 99.6816 731.812 304.759
1235 0 185.365 13.843 2566 98.4384 732.07 301.95
1236 0 188.302 13.5367 2549 98.2958 731.64 301.305
1237 0 188.267 12.716 2394 103.329 731.924 295.42
1238 0 189.232 9.11049 1724 111.988 731.673 289.591
1239 0 200.191 12.2233 2447 103.437 732.692 296.859
1240 0 209.451 14.9152 3124 97.2711 732.312 286.712
1241 0 213.367 14.7633 3150 98.3187 731.97 284.006
1242 1 110.185 7.9866 880 97.3307 731.455 345.936
1243 0 102.186 9.79582 1001 98.8711 731.542 336.315
1244 0 107.165 11.7855 1263 94.274 731.65 344.77
1245 0 111.161 12.9542 1440 93.434 731.421 341.469
1246 0 115.206 14.3482 1653 90.3327 731.09 344.343
1247 0 117.197 12.2358 1434 97.6541 732.572 338.934
1248 0 122.107 11.2442 1373 99.3853 732.007 337.267
1249 0 122.112 13.4876 1647 95.1469 732.031 331.308
1250 0 128.11 13.0981 1678 97.7008 730.715 332.785
1251 0 128.124 12.2537 1570 100.731 731.331 330.936
1252 0 134.295 12.3683 1661 100.629 731.408 334.047
1253 0 139.275 10.5403 1468 99.3624 731.346 327.6
1254 0 138.29 11.6495 1611 101.9 731.791 330.946
1255 0 144.161 11.6328 1677 103.123 732.07 327.398
1256 0 146.263 12.1493 1777 101.601 732.086 332.222
1257 0 71.0703 8.30164 590 98.2119 731.663 357.966
1258 0 73.1364 8.84649 647 96.6507 731.791 362.017
1259 0 72.1263 9.33085 673 98.422 731.373 360.175
1260 0 76.1485 9.54714 727 97.2668 731.528 358.492
1261 0 77.1846 10.896 841 94.9762 732.264 359.128
1262 0 77.1418 11.1094 857 96.6826 732.422 356.782
1263 0 79.2046 12.2215 968 94.7045 732.692 357.344
1264 0 82.1491 11.1018 912 96.7434 732.346 355.909
1265 0 83.1606 10.2813 855 98.0269 732.596 354.821
1266 0 84.1736 10.7041 901 96.9734 732.181 356.46
1267 0 89.2346 12.4727 1113 92.6936 732.02 355.81
1268 0 92.337 11.7504 1085 94.1088 731.23 355.041
1269 0 92.2243 11.5371 1064 95.2293 732.395 353.857
1270 0 94.2471 11.7563 1108 94.1823 732.082 354.19
1271 0 97.2818 11.4513 1114 95.9309 731.986 351.943
1272 0 100.233 10.296 1032 98.4448 731.768 347.33
1273 0 99.1535 10.1156 1003 99.337 732.444 346.312
1274 0 104.418 11.0326 1152 97.3967 732.606 345.433
1275 0 108.323 11.8904 1288 95.9301 731.885 344.885
1276 0 106.137 10.3828 1102 100.234 732.625 341.611
1277 0 111.174 9.57058 1064 99.765 732.435 342.837
1278 0 117.221 11.7812 1381 97.6271 732.369 324.632
1279 0 119.255 12.0163 1433 97.3957 732.288 324.109
1280 0 124.182 12.0226 1493 97.0603 732.097 323.208
1281 0 126.182 12.6722 1599 98.0131 731.681 318.8
1282 0 128.202 12.4803 1600 97.3544 732.544 321.163
1283 0 131.194 13.9107 1825 96.3688 732.278 316.463
1284 0 134.382 13.6849 1839 99.5661 732.372 313.251
1285 1 80.1113 11.5589 926 93.3261 733.715 343.821
1286 0 83.1592 11.7125 974 93.3686 733.292 343.652
1287 0 82.1691 10.3323 849 92.4311 733.677 345.834
1288 0 86.1136 9.77778 842 92.418 733.506 343.989
1289 0 89.0967 10.1799 907 93.989 733.15 341.073
1290 0 92.1118 12.5391 1155 89.6701 733.149 339.292
1291 0 93.1014 10.3865 967 93.4333 733.013 339.098
1292 0 97.2008 11.6769 1135 92.1956 733.027 336.867
1293 0 97.1816 10.681 1038 95.4489 733.584 332.822
1294 0 104.21 12.8778 1342 89.9337 733.54 336.925
1295 0 105.122 11.7863 1239 93.6554 733.577 333.086
1296 0 108.104 12.5527 1357 93.9153 733.526 330.814
1297 0 106.312 12.2564 1303 96.7084 733.088 324.516
1298 0 114.161 13.0518 1490 95.9423 733.244 325.057
1299 0 116.087 12.1029 1405 97.8135 733.278 323.778
1300 0 119.264 13.6336 1626 100.426 732.721 311.741
1301 0 124.227 14.4896 1800 98.4678 732.822 313.905
1302 0 128.351 13.4942 1732 100.81 733.112 312.329
1303 0 130.239 13.0453 1699 102.016 732.765 308.549
1304 0 133.284 14.1127 1881 98.9325 732.94 306.484
1305 0 138.32 12.9482 1791 101.1 732.87 305.66
1306 0 142.4 13.1671 1875 101.049 733.362 306.014
1307 0 147.353 13.5797 2001 100.636 733.249 305.055
1308 0 151.341 13.3539 2021 102.516 732.66 300.885
1309 1 84.319 10.5433 889 101.21 732.901 335.568
1310 0 90.1099 14.1605 1276 96.1246 733.545 331.605
1311 0 90.0646 12.1357 1093 97.4565 732.825 342.656
1312 0 90.1659 12.6655 1142 95.1532 733.39 345.236
1313 0 93.0934 11.6657 1086 99.3407 732.845 340.426
1314 0 96.1217 13.098 1259 98.1009 732.89 335.497
1315 0 99.1164 13.8524 1373 98.1996 732.104 336.513
1316 0 100.219 12.6423 1267 102.594 733.088 335.302
1317 0 105.128 12.7368 1339 101.439 732.547 336.11
1318 0 107.166 13.6237 1460 99.7788 732.895 335.143
1319 0 110.223 15.2236 1678 98.5 733.903 331.691
1320 0 113.145 13.8848 1571 102.884 733.243 327.86
1321 0 116.259 14.2354 1655 101.908 733.019 329.639
1322 0 120.248 13.5886 1634 103.866 732.073 328.308
1323 0 121.169 13.8814 1682 104.625 731.904 328.669
1324 0 125.331 14.2184 1782 104.221 731.824 323.808
1325 0 129.201 15.054 1945 102.676 731.939 324.007
1326 0 133.219 14.1346 1883 106.845 731.652 318.069
1327 0 139.249 14.5423 2025 105.681 732.004 317.255
1328 0 143.275 13.8754 1988 107.719 732.076 318.756
1329 1 80.1044 13.9693 1119 106.177 731.951 348.55
1330 0 84.2023 13.0163 1096 106.65 731.37 346.745
1331 0 82.066 12.2219 1003 101.943 731.433 350.113
1332 0 85.1279 11.7353 999 104.037 730.668 350.332
1333 0 88.0631 12.4683 1098 102.942 731.241 345.078
1334 0 91.0632 13.1667 1199 102.784 730.674 342.319
1335 0 94.1009 12.6779 1193 105.391 731.366 339.633
1336 0 94.1289 11.5586 1088 108.381 731.438 339.611
1337 0 96.1966 12.8175 1233 108.276 730.728 334.29
1338 0 99.165 12.9179 1281 110.501 730.836 332.14
1339 0 106.19 15.265 1621 111.002 729.999 331.26
1340 0 109.135 14.9448 1631 111.078 730.791 334.549
1341 0 110.305 14.3874 1587 115.27 730.451 328.357
1342 0 112.14 16.2386 1821 111.542 730.201 326.109
1343 0 115.227 15.2047 1752 115.134 729.862 326.156
1344 0 116.154 14.3 1661 118.537 729.41 326.998
1345 0 122.158 15.5536 1900 115.138 729.616 326.098
1346 0 123.256 14.7822 1822 118.273 729.779 326.355
1347 0 131.185 15.1847 1992 115.804 730.076 324.261
1348 0 131.085 14.4715 1897 119.589 729.998 321.811
1349 0 136.195 14.2002 1934 120.285 730.247 320.687
1350 0 148.208 20.7208 3071 100.144 729.908 306.108
1351 0 146.151 19.6646 2874 104.577 730.199 311.467
1352 0 150.331 17.3883 2614 110.097 729.81 310.351
1353 0 153.145 16.9186 2591 111.241 730.429 307.807
1354 0 156.308 16.9281 2646 111.353 730.235 305.898
1355 0 162.222 16.4466 2668 111.705 729.738 305.515
1356 0 166.285 17.446 2901 109.221 729.834 303.978
1357 0 168.172 16.7091 2810 111.719 729.81 304.59
1358 0 174.145 16.0613 2797 113.24 730.385 303.999
1359 0 178.373 16.9364 3021 111.284 730.553 307.711
1360 0 184.316 16.8624 3108 111.439 729.585 306.474
1361 0 189.339 16.4203 3109 112.701 729.078 303.35
1362 0 194.375 16.3035 3169 112.823 729.245 298.37
1363 0 200.436 16.8832 3384 110.859 729.2 299.238
1364 0 204.351 17.6216 3601 109.159 729.082 295.55
1365 0 215.564 18.5235 3993 105.59 729.096 287.692
1366 0 219.44 16.8155 3690 109.304 729.011 283.08
1367 0 228.529 18.7459 4284 103.998 728.895 278.643
1368 0 236.709 16.8393 3986 106.648 728.821 278.668
1369 0 242.376 16.0082 3880 108.623 729.416 275.878
1370 1 55.0884 9.91135 546 94.522 729.897 371.934
1371 0 58.0765 10.0213 582 95.5808 729.113 374.665
1372 0 60.119 11.3275 681 92.6725 729.104 375.762
1373 0 61.0854 9.98602 610 94.8902 729.066 370.426
1374 0 65.1303 10.7016 697 93.0846 729.468 370.795
1375 0 64.1336 9.60495 616 96.7484 728.883 360.891
1376 0 67.0654 10.4227 699 94.9442 729.63 365.943
1377 0 75.2132 15.1436 1139 81.8946 729.059 353.242
1378 0 76.1103 12.8892 981 86.5872 729.004 351.616
1379 0 74.1381 12.8409 952 88.7773 729.201 352.636
1380 0 75.0934 12.2381 919 92.519 728.53 351.911
1381 0 77.1155 10.4259 804 97.0323 728.414 356.252
1382 0 78.0957 11.3323 885 94.6814 728.422 360.825
1383 0 79.1012 10.0757 797 98.2158 728.558 347.811
1384 0 84.1079 11.7944 992 92.877 728.445 359.23
1385 0 87.1286 11.1789 974 94.9712 728.162 359.294
1386 0 85.0762 10.1674 865 98.2023 729.144 352.749
1387 0 95.1667 11.9159 1134 92.7399 728.476 346.952
1388 0 96.0713 12.5428 1205 92.5436 728.523 342.81
1389 0 100.227 13.7488 1378 89.6495 728.036 346.615
1390 0 103.21 13.0899 1351 93.2916 727.512 334.283
1391 0 104.176 13.4292 1399 93.2516 728.312 333.447
1392 0 109.152 13.3576 1458 95.2359 728.047 330.777
1393 0 112.382 13.0982 1472 95.5414 727.478 326.709
1394 0 114.27 12.5317 1432 97.7654 727.922 324.832
1395 0 117.336 11.9997 1408 98.6115 727.983 325.898
1396 0 122.444 13.9574 1709 95.3868 727.596 323.958
1397 1 66.1666 10.9874 727 89.1087 727.626 354.191
1398 0 69.1535 11.7275 811 92.6794 728.567 347.005
1399 0 70.1837 12.5813 883 91.2333 728.187 348.113
1400 0 73.1205 11.146 815 90.0196 728.146 366.325
1401 0 72.0451 10.3269 744 92.1895 728.401 364.104
1402 0 72.2135 10.9121 788 92.0368 728.206 362.132
1403 0 76.0645 11.6217 884 90.7885 728.205 360.016
1404 0 77.108 10.5307 812 91.9187 728.229 362.085
1405 0 81.1926 12.6613 1028 89.1634 728.115 360.019
1406 0 83.0835 12.3972 1030 90.3301 728.556 357.544
1407 0 83.2313 11.5341 960 93.0938 728.358 355.36
1408 0 85.1597 11.6722 994 92.5584 728.133 356.495
1409 0 87.0584 11.5899 1009 93.9465 728.628 353.138
1410 0 88.1761 12.4864 1101 94.0227 728.271 352.238
1411 0 93.0553 12.6376 1176 93.6224 728.647 344.763
1412 0 96.1817 12.57 1209 93.933 728.706 346.572
1413 0 96.043 12.4111 1192 95.8054 728.75 345.092
1414 0 99.1141 13.2574 1314 94.2435 728.544 350.745
1415 0 102.146 13.4121 1370 94.5029 728.101 353.755
1416 0 106.129 13.7757 1462 92.7216 728.481 353.075
1417 0 109.297 12.9739 1418 93.9873 728.846 348.176
1418 0 112.164 13.6408 1530 94.0993 728.493 338.273
1419 0 115.144 13.6612 1573 95.8125 728.708 338.152
1420 0 118.141 13.0522 1542 98.8145 728.246 342.542
1421 0 121.16 12.7104 1540 101.074 728.324 343.387
1422 0 125.147 12.5533 1571 102.052 728.777 340.689
1423 0 131.193 14.269 1872 100.033 727.962 339.143
1424 0 135.157 14.4943 1959 100.844 728.521 335.017
1425 1 78.1148 12.3536 965 92.8031 728.221 366.337
1426 0 76.1716 9.28167 707 99.3225 727.867 362.211
1427 0 82.2212 10.8488 892 95.5034 728.419 362.963
1428 0 82.1963 11.0589 909 100.447 729.084 360.219
1429 0 86.1024 11.5792 997 98.8506 728.78 363.909
1430 0 87.1373 11.6139 1012 100.845 728.62 361.649
1431 0 93.0987 11.6006 1080 98.9639 728.828 355.691
1432 0 96.0916 11.437 1099 98.8835 728.918 354.09
1433 0 99.1668 11.0622 1097 100.823 727.843 350.072
1434 0 103.24 11.9527 1234 97.624 728.929 351.393
1435 0 106.227 11.4284 1214 99.1161 728.54 348.982
1436 0 109.16 10.9198 1192 101.097 728.242 346.924
1437 0 112.184 11.9981 1346 99.0275 728.167 346.98
1438 0 116.309 11.0395 1284 100.741 727.869 343.672
1439 0 122.168 11.9507 1460 99.6938 727.449 341.695
1440 1 65.0585 7.59316 494 89.0324 727.646 375.69
1441 0 67.0939 9.85186 661 89.0787 728.287 365.796
1442 0 69.1566 9.35559 647 89.34 728.458 369.026
1443 0 69.0779 12.5366 866 85.5289 728.201 366.396
1444 0 71.1447 8.60218 612 92.4657 728.167 364.979
1445 0 73.0495 11.0473 807 88.8228 728.064 364.887
1446 0 76.1081 8.97408 683 90.3104 727.635 367.182
1447 0 78.1128 9.23024 721 92.6422 727.46 360.917
1448 0 82.1216 10.0948 829 91.1411 727.031 360.421
1449 0 82.0592 12.296 1009 88.6174 728.176 361.41
1450 0 87.1205 9.61886 838 92.9845 727.387 359.759
1451 0 88.0387 10.9157 961 92.3153 727.736 358.069
1452 0 89.1002 10.5948 944 94.4396 728.218 352.415
1453 0 96.1794 10.8339 1042 92.3349 728.318 355.915
1454 0 98.0959 11.7334 1151 91.9088 728.333 352.453
1455 0 101.095 11.7316 1186 93.118 728.302 349.96
1456 0 104.26 12.584 1312 92.4779 728.431 349.55
1457 0 109.141 13.3039 1452 93.0854 728.594 349.925
1458 0 112.1 11.0348 1237 98.034 728.704 343.984
1459 1 67.0889 10.2849 690 90.129 729.736 370.842
1460 0 69.0692 11.9735 827 88.1717 728.858 370.109
1461 0 71.0939 11.7591 836 88.872 727.855 371.81
1462 0 72.1701 10.503 758 91.7493 728.338 368.065
1463 0 75.0623 12.1233 910 89.2187 728.009 366.209
1464 0 76.0919 10.4085 792 92.3636 727.725 368.346
1465 0 78.0909 13.2026 1031 88.7983 727.87 366.242
1466 0 81.1138 12.0448 977 91.6858 727.573 363.994
1467 0 83.0476 13.5344 1124 88.919 727.91 364.867
1468 0 82.0751 11.1971 919 95.0228 727.651 362.324
1469 0 86.0584 12.6658 1090 92.5798 728.609 361.598
1470 0 88.1298 11.8916 1048 95.6288 728.795 357.016
1471 0 91.0488 11.4334 1041 96.9693 728.459 355.739
1472 0 91.0924 11.2523 1025 98.638 728.662 353.648
1473 0 96.1976 12.8797 1239 96.4843 729.178 347.015
1474 0 100.149 12.731 1275 97.4596 728.838 347.334
1475 0 102.043 13.4944 1377 95.9266 728.864 343.78
1476 0 106.199 12.7214 1351 96.2628 729.166 347.58
1477 0 110.111 11.8608 1306 98.5122 728.515 346.15
1478 0 115.172 12.1384 1398 95.7554 727.644 349.77
1479 0 115.127 12.6643 1458 96.2654 728.674 346.766
1480 0 116.03 12.6088 1463 97.6466 728.239 343.204
1481 0 122.123 13.945 1703 94.7651 728.877 340.328
1482 0 125.211 13.5531 1697 95.6464 728.335 340.045
1483 0 129.149 14.0922 1820 94.5758 728.634 340.3
1484 0 133.341 13.2217 1763 95.8792 728.524 337.628
1485 0 137.247 11.7452 1612 100.246 727.9 334.56
1486 0 141.072 11.8379 1670 99.2072 728.898 331.113
1487 0 146.23 12.2068 1785 97.926 728.544 329.07
1488 0 152.326 12.8015 1950 99.159 728.808 311.551
1489 1 86.249 11.7567 1014 92.5049 728.642 344.802
