time division length width area intensity CMx CMy
0 0 69.1124 11.72 810 119 126.24 457.905
1 0 73.0586 12.2915 898 116.903 126.461 458.177
2 0 76.0877 12.4725 949 116.203 126.296 458.841
3 0 77.2354 12.0152 928 116.732 126.709 459.635
4 0 79.1619 12.8345 1016 114.993 126.139 460.695
5 0 82.0566 11.8333 971 117.043 126.858 459.731
6 0 83.0572 12.0399 1000 117.569 126.556 454.616
7 0 86.2769 11.6485 1005 119.377 126.15 452.067
8 0 90.2406 12.8656 1161 117.921 126.482 451.733
9 0 92.1475 12.9141 1190 118.955 126.833 448.251
10 0 94.296 13.2985 1254 117.877 126.036 449.613
11 0 96.178 12.0922 1163 121.862 126.355 446.464
12 0 102.265 13.3086 1361 119.373 127.734 446.361
13 0 103.221 13.4178 1385 120.186 128.183 450.485
14 0 105.141 13.5152 1421 121.222 128.23 449.113
15 0 111.245 13.8793 1544 120.26 127.771 447.231
16 0 116.214 13.8451 1609 119.741 128.297 444.358
17 0 118.216 13.3823 1582 121.797 128.723 443.451
18 0 122.298 13.647 1669 120.846 128.167 436.783
19 0 127.378 13.88 1768 120.119 128.206 436.692
20 0 133.366 14.344 1913 119.541 128.197 435.901
21 1 77.2134 13.3008 1027 113.681 128.658 464.918
22 0 79.1092 11.9202 943 118.872 128.56 462.823
23 0 83.0762 11.8205 982 110.352 128.749 462.717
24 0 92.1406 17.2128 1586 96.8525 129.128 454.359
25 0 89.0939 13.6036 1212 109.342 128.237 456.537
26 0 92.047 13.1563 1211 110.596 128.078 457.746
27 0 95.3081 12.6432 1205 112.866 128.691 455.239
28 0 96.234 13.4568 1295 113.015 128.435 453.575
29 0 96.234 13.4152 1291 142.346 128.435 453.642
30 0 103.229 14.3661 1483 114.335 128.567 449.183
31 0 105.335 13.3194 1403 118.005 128.361 447.464
32 0 109.286 12.9294 1413 121.251 127.863 448.788
33 0 111.286 13.5417 1507 120.62 128.231 444.557
34 0 116.377 12.9836 1511 122.064 128.02 444.693
35 0 121.358 14.1565 1718 119.867 127.821 439.938
36 0 125.401 14.6968 1843 119.145 127.513 437.342
37 0 129.315 14.337 1854 120.423 127.418 434.254
38 0 132.387 13.944 1846 123.205 127.512 432.512
39 0 138.312 12.9634 1793 126.172 127.72 429.758
40 0 142.316 13.0765 1861 127.5 127.698 425.853
41 0 147.33 13.9618 2057 125.803 127.946 425.373
42 1 81.2492 12.9724 1054 120.035 127.979 460.8
43 0 83.442 12.4158 1036 127.716 128.713 455.52
44 0 88.1966 13.1524 1160 130.997 129.053 454.29
45 0 89.2135 12.4757 1113 133.244 128.617 453.651
46 0 91.1485 12.6387 1152 126.727 128.534 454.978
47 0 94.1196 13.0685 1230 124.763 127.738 453.193
48 0 98.1017 13.3739 1312 124.963 128.534 450.353
49 0 100.07 12.831 1284 128.298 127.807 446.998
50 0 105.154 13.9795 1470 124.407 127.658 445.667
51 0 107.135 14.337 1536 123.673 128.051 444.402
52 0 110.169 13.6155 1500 126.422 127.311 443.323
53 0 113.154 13.4507 1522 127.12 127.849 441.972
54 0 117.181 13.2871 1557 127.049 127.312 440.34
55 0 121.182 13.2528 1606 127.109 127.643 438.642
56 0 128.197 14.0955 1807 123.218 127.184 437.12
57 0 131.171 14.5916 1914 123.464 127.393 433.607
58 0 136.166 15.0771 2053 122.812 127.658 430.371
59 0 140.153 14.634 2051 131.176 127.328 426.352
60 0 142.169 13.7512 1955 133.052 127.593 424.848
61 0 151.185 15.0081 2269 126.292 128.191 423.651
62 0 154.288 14.4859 2235 125.987 128.302 421.635
63 0 157.117 14.6069 2295 126.666 128.095 415.948
64 0 162.344 14.9682 2430 124.934 128.335 406.681
65 1 95.0836 12.0736 1148 129.578 128.878 439.659
66 0 98.1436 12.0436 1182 129.558 128.03 442.849
67 0 104.176 13.9187 1450 126.241 129.183 444.939
68 0 106.073 13.8395 1468 126.859 129.185 445.589
69 0 108.2 14.1312 1529 126.695 128.997 440.281
70 0 110.135 13.3382 1469 124.256 128.851 442.338
71 0 115.11 14.1778 1632 121.237 128.915 440.858
72 0 119.195 14.3546 1711 120.29 129.156 438.978
73 0 125.135 14.5283 1818 119.282 129.061 435.975
74 0 126.173 13.6955 1728 122.357 129.017 435.24
75 0 130.158 12.6923 1652 125.966 128.678 434.218
76 0 135.155 13.2515 1791 124.173 128.797 431.815
77 0 142.131 14.5429 2067 120.317 128.872 428.724
78 1 65.0544 12.3743 805 119.082 128.312 463.62
79 0 69.0999 12.822 886 116.941 128.639 465.208
80 0 71.19 14.061 1001 108.556 128.277 465.91
81 0 73.1117 12.3236 901 113.257 128.485 466.263
82 0 76.1365 14.3558 1093 108.937 128.22 464.747
83 0 77.1122 12.9292 997 114.56 127.688 462.191
84 0 78.1649 13.254 1036 113.563 127.272 460.729
85 0 82.0783 12.951 1063 113.706 127.902 460.9
86 0 85.1785 13.9237 1186 112.785 127.481 459.899
87 0 87.0634 13.4615 1172 115.963 127.469 456.556
88 0 90.082 14.1427 1274 116.276 127.776 457.09
89 0 90.2209 14.2096 1282 117.647 127.694 454.852
90 0 95.0528 13.5083 1284 120.283 127.886 454.366
91 0 95.1035 14.3738 1367 119.554 127.446 452.787
92 0 102.093 14.7317 1504 116.756 127.227 452.211
93 0 99.0953 14.0673 1394 118.638 126.979 450.846
94 0 105.106 13.6053 1430 116.411 127.865 450.488
95 1 59.1857 13.6857 810 113.536 127.884 469.862
96 0 59.3179 12.6269 749 114.475 128.182 469.286
97 0 62.2184 12.0543 750 115.941 128.796 469.812
98 0 65.1777 13.7777 898 111.624 128.626 466.692
99 0 67.1663 13.9207 935 104.775 128.667 467.995
100 0 66.0833 12.9231 854 104.094 128.761 461.954
101 0 69.2754 15.258 1057 100.035 127.718 461.383
102 0 71.1288 14.2558 1014 101.92 128.374 462.876
103 0 72.1682 13.3577 964 104.694 128.428 463.663
104 0 72.2309 13.3461 964 106.988 128.445 462.303
105 0 77.3499 13.5618 1049 105.792 128.153 462.207
106 0 78.293 15.1738 1188 102.916 127.453 462.317
107 0 79.2786 14.9094 1182 106.103 127.812 458.787
108 0 82.2089 15.4606 1271 104.271 127.521 460.892
109 0 82.1392 13.6841 1124 110.204 127.689 461.805
110 0 86.0777 15.3234 1319 106.169 127.284 460.419
111 0 88.073 13.7613 1212 109.553 127.754 459.482
112 0 90.1681 13.8519 1249 110.968 127.596 457.203
113 0 95.2411 14.983 1427 107.966 127.177 455.444
114 0 98.1375 15.0911 1481 108.24 127.359 454.704
115 0 99.085 14.7651 1463 110.493 126.948 454.005
116 0 103.123 14.8172 1528 110.955 126.777 451.802
117 0 106.102 14.9668 1588 111.686 126.695 449.574
118 0 108.175 13.6723 1479 114.929 126.819 449.593
119 0 110.071 12.6192 1389 118.231 127.222 446.577
120 0 117.263 14.847 1741 112.208 126.708 442.083
121 0 121.148 14.4369 1749 115.354 126.794 441.511
122 0 124.213 15.1111 1877 115.137 126.332 439.796
123 1 65.0951 11.7367 764 115.573 126.793 466.933
124 0 67.1513 12.1368 815 113.335 126.232 463.991
125 0 71.0893 12.3507 878 113.568 126.278 464.024
126 0 76.1774 14.0462 1070 110.038 126.535 443.231
127 0 76.239 13.5233 1031 113.649 126.212 435.409
128 0 78.2195 12.7334 996 115.092 126.096 438.041
129 0 79.1453 13.3173 1054 115.331 126.205 437.028
130 0 83.2523 13.6813 1139 112.773 126.577 440.874
131 0 84.235 12.4533 1049 116.093 127.428 442.14
132 0 86.1413 13.3734 1152 113.317 127.418 444.662
133 0 90.291 13.7112 1238 111.689 127.034 448.759
134 0 92.3158 12.8797 1189 114.663 126.628 450.802
135 0 95.3984 13.0296 1243 113.716 126.592 451.659
136 0 100.349 14.0012 1405 111.406 126.696 448.891
137 0 101.17 14.0457 1421 111.619 126.338 447.519
138 0 104.223 14.0756 1467 109.164 127.227 449.112
139 0 105.235 12.8759 1355 111.995 127.163 446.728
140 0 111.195 14.1913 1578 108.659 127.155 447.022
141 0 111.191 12.6629 1408 104.689 127.357 444.19
142 0 114.187 13.3203 1521 103.435 126.33 442.93
143 0 119.286 13.0946 1562 103.284 126.409 445.843
144 0 124.216 14.9497 1857 107.241 126.724 441.328
145 0 128.161 13.7249 1759 106.595 126.102 436.384
146 0 133.279 13.4905 1798 105.428 126.185 436.343
147 0 138.27 14.6598 2027 103.129 126.226 430.501
148 1 79.1712 11.4688 908 100.726 125.939 460.066
149 0 83.1537 12.519 1041 99.5581 126.346 457.934
150 0 86.218 13.0135 1122 96.8476 126.582 457.964
151 0 90.214 12.8583 1160 97.8836 125.574 456.599
152 0 91.2666 12.9511 1182 99.011 126.815 453.287
153 0 94.1268 14.013 1319 97.5064 126.601 453.583
154 0 96.1438 12.3877 1191 100.948 126.595 450.114
155 0 100.267 11.7286 1176 102.201 127.298 451.071
156 0 101.297 12.5078 1267 102.371 126.665 447.079
157 0 105.23 13.5893 1430 100.559 126.187 444.549
158 0 110.306 14.1515 1561 99.8527 125.383 441.058
159 0 111.312 12.8827 1434 104.769 125.936 438.899
160 0 117.409 13.5594 1592 108.244 125.783 441.564
161 0 119.317 13.7114 1636 108.786 125.865 438.322
162 0 121.373 13.4873 1637 109.582 126.291 436.635
163 0 124.341 14.6613 1823 108.832 125.554 431.767
164 0 128.381 13.0861 1680 113.442 125.536 431.352
165 0 131.428 13.7566 1808 112.934 125.442 429.883
166 0 136.63 14.2941 1953 110.483 125.264 430.595
167 0 138.52 14.0341 1944 111.451 125.108 427.001
168 0 144.237 13.9978 2019 109.466 125.395 424.74
169 0 149.375 14.6008 2181 107.792 125.313 424.719
170 0 151.475 12.2331 1853 113.673 125.145 421.077
171 1 88.373 12.4133 1097 99.7457 125.361 456.566
172 0 90.5391 11.1112 1006 102.814 125.192 451.555
173 0 94.3413 12.2322 1154 98.5191 125.891 454.757
174 0 96.2356 11.981 1153 102.35 126.338 453.662
175 0 100.165 12.3596 1238 104.321 126.046 452.889
176 0 103.19 13.2377 1366 104.16 125.673 448.782
177 0 106.256 12.6393 1343 104.549 125.665 447.538
178 0 107.138 12.6939 1360 104.725 125.618 446.471
179 0 111.353 13.5246 1506 101.427 125.902 444.242
180 0 115.382 13.1476 1517 102.543 125.699 438.719
181 0 123.452 13.4951 1666 101.413 125.472 439.71
182 0 122.676 13.3115 1633 102.896 125.525 437.004
183 0 125.371 13.0094 1631 104.346 125.746 432.456
184 0 129.449 12.4992 1618 104.868 125.994 434.559
185 1 191.448 12.1025 2317 106.822 125.591 410.014
186 0 201.654 13.1066 2643 105.855 125.521 399.608
187 0 208.486 15.224 3174 104.089 125.86 393.664
188 0 216.482 12.911 2795 109.215 126.137 394.225
189 0 225.316 13.1637 2966 107.884 125.96 391.508
190 1 88.3398 11.8067 1043 99.3595 126.774 456.569
191 0 92.1305 12.4932 1151 98.2893 126.706 456.709
192 0 94.2165 13.4159 1264 103.66 126.661 453.525
193 0 98.1734 11.6529 1144 102.08 126.919 453.32
194 0 99.161 13.1705 1306 101.978 126.325 449.935
195 0 101.15 12.0416 1218 105.608 126.448 448.594
196 0 104.115 12.8608 1339 103.035 126.32 450.62
197 0 106.209 11.9105 1265 107.571 126.56 444.239
198 0 110.216 12.158 1340 105.706 126.81 447.101
199 0 114.152 13.0353 1488 104.989 126.132 443.519
200 0 118.392 12.4332 1472 105.942 126.439 442.412
201 0 121.199 13.7707 1669 104.238 125.839 441.306
202 0 124.135 14.46 1795 103.796 126.33 438.616
203 0 129.217 13.3265 1722 106.747 127.053 436.729
204 0 133.374 11.9663 1596 110.246 126.205 434.127
205 0 136.262 13.2686 1808 108.808 125.761 431.615
206 0 142.245 12.837 1826 110.521 124.996 430.115
207 0 147.513 13.0701 1928 110.053 125.427 429.777
208 1 218.645 13.6477 2984 110.421 124.57 396.969
209 0 222.561 13.43 2989 112.375 125.476 394.023
210 1 163.351 14.3433 2343 109.586 125.733 420.669
211 0 168.43 15.3357 2583 108.009 125.467 416.717
212 1 90.0923 12.4095 1118 105.928 125.933 456.179
213 0 93.1583 12.7847 1191 106.241 125.679 456.115
214 0 98.1006 13.6696 1341 104.603 125.261 454.012
215 0 100.101 14.4854 1450 104.323 126.63 450.39
216 0 102.164 12.8225 1310 108.082 126.53 451.508
217 0 106.259 14.1352 1502 105.694 126.595 448.981
218 0 109.17 13.5019 1474 107.039 125.751 449.159
219 0 109.164 13.585 1483 151.882 124.753 449.177
220 0 113.11 13.6593 1545 109.752 126.268 442.611
221 0 118.162 14.184 1676 108.816 125.992 441.42
222 0 122.15 13.9336 1702 108.957 126.382 441.874
223 0 125.179 14.3634 1798 108.374 126.181 440.453
224 0 130.313 15.4321 2011 107.937 126.118 437.408
225 0 135.338 15.2802 2068 107.199 126.332 436.332
226 0 140.355 14.3208 2010 109.112 126.221 432.731
227 0 146.431 14.7305 2157 108.656 125.601 430.395
228 0 149.197 13.1973 1969 115.711 125.478 426.361
229 1 163.44 13.4178 2193 114.142 125.234 423.358
230 1 90.2548 12.8082 1156 111.813 126.101 456.789
231 0 92.2614 12.3887 1143 111.821 126.24 452.84
232 0 93.0936 13.5992 1266 105.624 126.161 447.673
233 0 95.1433 11.2042 1066 110.492 125.659 445.338
234 0 98.2017 11.955 1174 109.873 126.356 442.101
235 0 102.158 11.9716 1223 108.27 126.87 446.631
236 0 105.124 13.4889 1418 106.742 126.781 443.903
237 0 110.08 13.4266 1478 107.606 126.353 441.829
238 0 111.179 12.0886 1344 111.129 125.978 439.353
239 0 119.191 13.7762 1642 106.283 125.881 441.479
240 0 119.283 13.1704 1571 109.525 125.749 436.214
241 0 122.242 11.7963 1442 112.323 125.785 435.778
242 0 126.172 13.4974 1703 111.072 125.44 430.925
243 0 133.314 13.967 1862 109.682 125.536 432.689
244 0 136.295 13.1112 1787 113.066 125.894 429.008
245 0 143.221 14.8023 2120 111.081 125.992 433.13
246 0 148.364 14.8486 2203 112.108 125.593 428.416
247 0 153.251 15.0602 2308 110.637 126.027 427.636
248 0 158.273 13.7042 2169 114.043 126.047 425.327
249 0 164.294 15.5027 2547 109.584 126.302 421.134
250 1 91.2111 12.4217 1133 110.319 125.974 458.249
251 0 94.1679 12.8069 1206 110.339 126.081 457.303
252 0 96.2068 13.7724 1325 104.855 125.903 455.82
253 0 100.239 13.5775 1361 105.872 126.08 455.006
254 0 101.18 13.9355 1410 106.487 125.931 453.821
255 0 104.092 13.3632 1391 109.551 125.41 449.054
256 0 108.271 13.2815 1438 109.143 125.553 448.863
257 0 112.107 14.5933 1636 106.509 125.757 447.817
258 0 115.256 15.1056 1741 107.017 125.951 442.664
259 0 118.24 13.608 1609 110.423 125.137 442.033
260 0 121.177 14.1033 1709 113.108 125.936 441.42
261 0 124.228 13.2579 1647 121.91 125.607 430.641
262 0 131.236 14.9273 1959 116.49 125.727 431.086
263 0 137.192 14.9498 2051 115.618 125.372 432.479
264 0 142.212 13.7401 1954 118.46 125.308 427.45
265 0 144.331 14.051 2028 118.294 126.19 425.084
266 1 80.3266 11.5155 925 117.208 126.21 458.423
267 0 82.1424 11.9183 979 116.601 126.911 459.493
268 0 82.1287 12.8092 1052 116.727 126.709 452.241
269 0 87.2218 12.5427 1094 115.722 126.396 453.793
270 0 89.1595 14.2217 1268 111.959 125.879 449.423
271 0 90.0843 12.5771 1133 117.421 125.521 445.605
272 0 95.188 13.321 1268 114.946 125.19 445.369
273 0 99.0966 14.4909 1436 113.717 126.014 442.843
274 0 100.218 13.0815 1311 118.373 125.931 442.005
275 0 106.163 14.798 1571 115.421 125.794 434.712
276 0 109.174 14.4631 1579 116.6 125.156 428.049
277 0 110.142 13.7277 1512 118.968 126.306 424.331
278 0 113.258 14.542 1647 116.379 125.477 420.37
279 0 115.084 13.8682 1596 117.18 125.387 418.362
280 0 118.173 13.2771 1569 117.425 125.426 421.721
281 0 123.268 13.6207 1679 116.961 125.084 418.123
282 0 125.181 14.5869 1826 116.049 125.515 415.411
283 0 130.209 14.3769 1872 117.229 125.865 416.435
284 0 133.359 14.8171 1976 117.147 125.523 414.149
285 0 137.284 14.6339 2009 118.019 125.899 414.13
286 0 141.343 14.4117 2037 118.66 125.508 417.603
287 0 146.381 15.0498 2203 117.995 125.444 415.446
288 0 151.302 14.6066 2210 119.979 125.951 411.858
289 0 156.414 14.8388 2321 118.381 126.2 415.862
290 0 161.463 14.3687 2320 120.269 126.237 416.174
291 0 166.319 14.9472 2486 119.115 125.803 413.907
292 0 171.421 14.4207 2472 120.674 124.915 412.481
293 0 180.355 14.976 2701 117.559 125.227 412.099
294 0 183.45 14.9251 2738 118.908 125.593 407.974
295 0 189.534 14.3879 2727 121.956 125.715 404.107
296 0 195.581 13.5136 2643 124.199 125.058 402.985
297 1 254.251 13.2782 3376 122.456 125.332 381.172
298 0 263.419 12.7895 3369 123.952 125.459 378.185
299 0 272.431 13.5117 3681 121.516 125.124 371.666
300 0 282.518 14.3177 4045 119.435 126.051 363.277
301 1 231.619 14.1871 3286 117.352 125.751 385.112
302 0 240.482 14.0967 3390 116.021 125.65 383.984
303 0 247.322 14.095 3486 115.742 125.522 379.02
304 0 253.323 13.5716 3438 116.794 125.436 375.147
305 0 262.42 14.8769 3904 114.196 125.942 366.028
306 0 271.45 13.8479 3759 116.665 125.803 366.433
307 0 275.517 13.7632 3792 116.809 126.019 371.489
308 1 222.366 14.4896 3222 117.369 126.07 388.681
309 1 69.0787 12.4206 858 105.695 126.245 466.03
310 0 71.1375 13.1014 932 104.326 125.506 465.604
311 0 72.0992 12.5522 905 108.035 125.529 463.183
312 0 77.0525 12.8484 990 107.317 126.66 464.841
313 0 80.1155 13.2559 1062 106.82 126.781 464.1
314 0 81.0413 13.8818 1125 107.047 126.165 462.644
315 0 82.0529 13.4426 1103 113.072 126.844 461.189
316 0 84.1563 13.9265 1172 113.302 126.791 459.442
317 0 87.1273 13.9795 1218 113.617 127.181 457.431
318 0 92.2533 15.4683 1427 108.232 126.97 456.127
319 0 92.1725 15.113 1393 111.86 126.974 456.144
320 0 95.1969 14.5488 1385 113.083 126.142 454.911
321 0 98.1097 14.5144 1424 112.735 126.1 456.366
322 0 99.1347 15.0502 1492 113.418 126.133 452.787
323 0 102.288 15.8181 1618 111.691 126.104 448.284
324 0 108.154 16.9388 1832 107.394 125.75 446.221
325 0 107.268 16.7525 1797 109.633 126.078 429.569
326 0 110.143 17.6589 1945 106.957 125.548 411.612
327 0 111.039 17.0931 1898 106.261 125.238 408.656
328 0 116.211 15.8505 1842 108.473 126.104 406.762
329 0 118.134 16.5913 1960 107.442 126.009 406.32
330 0 120.107 16.4936 1981 108.667 126.129 405.62
331 0 123.096 16.5562 2038 108.396 126.438 404.896
332 0 127.298 16.4338 2092 108.332 126.516 407.375
333 0 129.153 15.3229 1979 112.116 126.261 409.327
334 0 133.286 16.1832 2157 110.227 126.016 411.773
335 0 135.143 14.7695 1996 114.669 126.8 408.817
336 0 141.169 17.3905 2455 107.582 126.44 412.839
337 0 143.202 15.8727 2273 111.797 126.883 416.279
338 0 149.326 16.916 2526 108.886 126.398 418.365
339 0 149.205 15.7904 2356 112.947 126.297 419.533
340 0 156.308 17.4591 2729 108.7 126.482 417.239
341 0 162.246 16.5612 2687 110.707 126.501 418.949
342 0 166.253 16.2403 2700 112.029 126.667 413.928
343 0 171.299 16.5383 2833 111.064 126.514 413.138
344 0 177.485 17.4212 3092 108.389 126.576 408.166
345 1 96.1034 13.0068 1250 119.277 126.962 455.505
346 0 102.23 15.7978 1615 112.726 125.562 450.737
347 0 104.209 14.0583 1465 117.961 126.44 448.768
348 0 106.404 14.4355 1536 116.695 126.13 447.4
349 0 110.13 14.4012 1586 115.093 125.946 446.407
350 0 114.309 14.5746 1666 114.328 126.355 445.011
351 0 114.199 14.5711 1664 113.744 126.376 437.725
352 0 118.274 13.9084 1645 114.956 126.004 437.988
353 0 121.314 15.3322 1860 110.737 124.998 436.159
354 0 124.461 13.7312 1709 113.969 126.032 435.175
355 0 128.425 15.1373 1944 110.52 126.284 433.218
356 0 132.448 14.6473 1940 111.496 126.404 430.853
357 0 136.563 14.8796 2032 110.902 125.836 428.23
358 0 140.277 15.3981 2160 109.403 125.842 428.396
359 0 144.257 14.4881 2090 111.47 126.213 426.122
360 0 148.497 14.6737 2179 111.45 125.655 422.743
361 0 154.308 15.9616 2463 109.056 125.785 419.481
362 0 158.646 15.2541 2420 111.069 126.139 414.612
363 0 165.607 15.5851 2581 109.785 126.556 413.851
364 0 166.401 14.2547 2372 113.672 126.036 410.221
365 0 176.149 14.6694 2584 110.097 126.455 410.024
366 0 184.313 15.4574 2849 106.27 126.821 406.084
367 1 97.2743 12.2129 1188 110.265 126.292 448.879
368 0 101.272 13.9229 1410 106.33 126.065 447.994
369 0 103.189 13.674 1411 107.281 125.643 446.364
370 0 106.181 14.0704 1494 106.61 126.169 446.94
371 0 107.106 13.4072 1436 109.779 126.808 445.84
372 0 113.147 15.2987 1731 104.904 125.62 441.526
373 0 116.181 15.0541 1749 105.682 126.213 440.67
374 0 120.197 14.5844 1753 107.846 126.179 432.2
375 0 123.155 13.4627 1658 109.866 126.15 433.146
376 0 126.185 13.6863 1727 109.675 126.252 426.613
377 0 131.126 14.4975 1901 107.149 125.356 431.023
378 0 137.272 14.9558 2053 106.272 125.852 425.206
379 0 141.085 14.4593 2040 107.682 125.714 425.036
380 0 145.272 14.4419 2098 108.078 125.961 422.855
381 0 151.246 14.7839 2236 107.109 125.593 419.307
382 0 155.22 15.4684 2401 105.765 126.078 416.997
383 0 160.261 15.6307 2505 105.382 126.312 415.653
384 0 164.263 14.702 2415 107.757 126.029 413.752
385 0 168.402 15.0532 2535 107.517 125.514 412.059
386 0 177.316 14.9112 2644 106.896 125.067 406.457
387 0 182.331 15.4719 2821 105.749 125.278 403.977
388 0 186.445 16.0101 2985 104.23 125.225 402.831
389 0 193.356 15.4637 2990 105.836 125.346 402.103
390 0 201.677 15.8025 3187 105.277 125.152 396.761
391 0 205.534 16.6931 3431 103.38 124.817 389.02
392 0 210.488 16.5615 3486 107.289 124.8 386.55
393 0 218.489 17.4792 3819 105.293 125.226 385.493
394 1 163.275 14.8339 2422 112.177 125.153 412.903
395 0 167.279 14.0125 2344 113.401 125.488 410.23
396 0 171.234 14.0977 2414 113.392 125.255 406.677
397 0 180.474 16.4788 2974 107.429 124.946 404.435
398 0 185.47 16.4555 3052 107.575 124.579 403.156
399 0 190.326 15.1057 2875 111.686 124.978 399.074
400 0 196.309 14.9916 2943 112.383 124.7 394.652
401 0 202.329 14.9015 3015 113.305 124.312 394.26
402 0 210.447 15.22 3203 113.149 124.831 392.028
403 0 214.34 13.7445 2946 118.029 124.731 389.585
404 0 224.472 15.6679 3517 113.131 125.251 387.229
405 0 231.383 14.167 3278 116.739 125.02 385.062
406 0 238.265 15.5541 3706 114.615 124.455 379.458
407 0 242.319 14.1343 3425 118.685 124.828 372.88
408 0 252.48 15.9418 4025 115.034 124.608 372.842
409 0 260.427 15.4093 4013 117.23 123.876 366.518
410 0 268.386 15.9434 4279 115.866 124.254 361.738
411 0 275.401 14.419 3971 120.123 124.067 355.231
412 0 294.764 19.5139 5752 105.392 124.38 336.22
413 0 299.407 18.0022 5390 111.187 124.546 345.324
414 0 303.619 16.9588 5149 114.293 124.439 341.085
415 0 314.563 16.5436 5204 116.16 124.051 335.83
416 0 325.307 16.6827 5427 116.565 124.002 329.488
417 0 334.515 17.4043 5822 114.682 124.42 323.842
418 0 347.387 16.7681 5825 116.097 124.176 318.737
419 0 360.439 17.6285 6354 113.965 123.898 312.77
420 0 371.479 18.3025 6799 112.028 124.442 311.9
421 0 383.428 15.8413 6074 119.808 124.281 300.995
422 0 394.791 19.5192 7706 110.418 124.835 296.099
423 0 394.54 18.424 7269 113.712 124.472 295.524
424 0 393.918 17.1381 6751 116.067 124.842 295.264
426 0 393.497 16.4804 6485 118.198 125.042 292.194
427 0 394.579 19.4815 7687 108.937 124.85 293.386
