time division length width area intensity CMx CMy
0 0 54.0496 11.3969 616 108.873 1191.11 471.049
1 0 63.1437 11.4659 724 114.261 1190.79 468.526
2 0 58.1672 11.9483 695 108.364 1190.3 462.728
3 0 58.1672 11.9483 695 137.39 1189.27 462.541
4 0 59.0916 9.57835 566 102.996 1189.84 466.122
5 0 63.0813 12.1906 769 98.9779 1188.47 459.411
6 0 63.1116 11.4084 720 103.393 1189.97 455.911
7 0 67.0468 12.6777 850 101.056 1190.6 456.865
8 0 68.1032 11.6147 791 104.277 1189.98 456.059
9 0 68.1032 11.5413 786 129.302 1190 455.906
10 0 73.0557 11.9224 871 103.893 1190.19 452.021
11 0 76.1297 13.0304 992 104.058 1190.76 446.078
12 0 77.1632 12.3116 950 106.812 1192.33 444.817
13 0 81.1478 12.2369 993 108.491 1192.02 441.155
14 0 82.0944 11.4015 936 110.565 1192.44 442.747
15 0 88.1006 12.463 1098 110.573 1191.68 432.94
16 0 91.3369 12.5688 1148 111.409 1191.4 431.194
17 1 45.0635 10.0969 455 115.877 1191.32 449.987
18 0 50.0954 11.3583 569 116.306 1191.57 446.12
19 0 50.1077 11.8345 593 108.091 1191.4 448.906
20 0 52.0456 12.6428 658 107.281 1191.26 450.152
21 0 54.0542 12.4135 671 107.499 1190.99 453.867
22 0 53.1146 11.9365 634 109.502 1191.17 455.044
23 0 57.203 12.0099 687 106.865 1190.35 458.263
24 0 57.2082 12.1311 694 127.928 1189.36 458.236
25 0 62.268 12.3177 767 104.888 1191.61 461.396
26 0 62.0404 11.2507 698 109.476 1190.9 461.822
27 0 65.1066 12.4104 808 111.827 1190.76 465.801
28 0 67.0956 13.1007 879 111.02 1191.42 462.79
29 0 70.083 13.3841 938 111.225 1190.92 461.217
30 0 70.1404 13.2021 926 113.635 1191.51 462.387
31 0 76.1218 13.8856 1057 110.898 1191.25 460.408
32 0 75.1103 13.2339 994 113.154 1190.83 460.424
33 0 78.1396 13.3223 1041 113.376 1191.31 458.86
34 0 81.3316 13.5495 1102 113.705 1191.1 457.127
35 0 84.3264 14.515 1224 112.411 1191.1 455.375
36 0 88.1467 14.0448 1238 114.96 1190.91 454.606
37 0 90.1389 13.6123 1227 119.717 1190.85 450.172
38 0 94.2252 14.0302 1322 116.214 1190.79 451.331
39 0 96.3472 12.7767 1231 120.812 1191.03 447.937
40 1 57.09 12.0862 690 119.446 1190.91 469.425
41 0 58.1158 12.5611 730 119.342 1191.79 469.789
42 0 61.067 12.3962 757 121.225 1191.43 468.848
43 0 62.1286 13.7779 856 120.673 1191.14 467.176
44 0 65.2098 13.8476 903 121.027 1191.55 463.437
45 0 68.0756 12.8387 874 121.4 1191.47 462.804
46 0 69.0313 13.0665 902 121.144 1191.34 461.269
47 0 74.1078 14.8567 1101 114.659 1191.32 458.829
48 0 76.1099 13.1258 999 118.592 1191.19 460.145
49 0 78.0315 13.6355 1064 118.565 1191.23 456.711
50 0 83.1006 14.7893 1229 115.043 1190.56 456.446
51 0 83.1319 14.4349 1200 116.91 1190.72 455.251
52 0 86.0939 15.3669 1323 114.81 1190.23 454.472
53 0 87.0502 13.475 1173 121.243 1191.22 453.237
54 0 90.2868 14.022 1266 121.897 1191.1 453.151
55 0 91.0416 14.3011 1302 121.367 1190.82 451.709
56 0 94.2031 14.352 1352 122.655 1190.81 448.826
57 0 97.2245 13.8442 1346 125.374 1190.84 446.965
58 0 102.121 14.0226 1432 123.746 1190.97 447.215
59 0 104.215 14.2495 1485 123.038 1190.51 445.224
60 0 107.137 13.7021 1468 120.276 1190.05 444.969
61 1 55.0388 11.5737 637 111.752 1191.68 464.834
62 0 58.0871 11.6033 674 111.476 1191.66 464.085
63 0 60.0658 11.5207 692 111.477 1191.27 462.644
64 0 59.145 10.2291 605 116.489 1192.21 459.706
65 0 64.0955 12.0133 770 110.452 1192.15 460.338
66 0 67.0522 11.9161 799 111.728 1192.66 455.742
67 0 68.0922 10.7648 733 113.75 1192.44 457.3
68 0 71.1496 10.7098 762 114.175 1192.61 456.503
69 0 75.124 11.7539 883 111.494 1191.88 454.725
70 0 76.2204 11.5717 882 112.198 1192.21 454.237
71 0 80.13 12.1552 974 111.306 1192.21 451.364
72 0 83.188 11.9488 994 110.47 1191.28 454.397
73 0 87.2013 12.0755 1053 109.424 1191.56 453.402
74 0 90.2335 12.0244 1085 111.44 1191.92 449.218
75 0 95.1913 12.9844 1236 109.845 1191.85 449.358
76 0 97.2299 12.7121 1236 109.163 1191.59 450.028
77 0 101.331 11.7141 1187 110.873 1191.94 448.859
78 0 104.356 12.9748 1354 106.377 1191.27 445.734
79 0 106.38 11.9477 1271 107.172 1191.88 447.769
80 0 109.321 11.6172 1270 108.863 1190.88 442.328
81 0 112.217 12.7877 1435 112.444 1191.44 442.693
82 0 116.299 12.8032 1489 111.674 1191.1 441.811
83 0 119.229 12.0608 1438 113.557 1191.3 439.41
84 1 66.1959 11.7681 779 105.84 1191.93 465.765
85 0 67.3133 12.0778 813 107.667 1192.38 464.688
86 0 68.2179 10.8183 738 110.136 1191.43 464.625
87 0 71.1278 11.7254 834 106.679 1191.7 464.357
88 0 74.2731 12.3194 915 105.819 1191.73 463.21
89 0 78.1879 11.5235 901 108.006 1191.7 460.664
90 0 81.2516 11.7044 951 109.856 1191.09 459.355
91 0 84.3302 12.0479 1016 108.467 1191.11 456.195
92 0 86.2024 11.647 1004 110.257 1191.77 456.472
93 0 89.1374 12.3293 1099 109.566 1190.85 452.586
94 0 92.2029 12.3749 1141 109.181 1191.17 452.705
95 0 92.2206 11.505 1061 112.271 1191.4 450.555
96 0 97.1881 11.7298 1140 111.559 1189.78 449.164
97 0 100.249 12.1597 1219 111.889 1190.63 446.717
98 0 102.418 10.0568 1030 115.573 1190.52 445.599
99 1 59.2767 11.2186 665 106.376 1191.46 467.713
100 0 62.311 12.2129 761 100.562 1191.81 466.687
101 0 62.1888 12.1565 756 99.8915 1191.95 466.524
102 0 66.1079 12.4796 825 97.72 1191.96 465.501
103 0 68.0778 12.8236 873 96.7297 1192.04 463.33
104 0 68.0709 13.0011 885 98.4746 1191.84 462.597
105 0 71.1051 12.6573 900 98.7889 1191.69 461.472
106 0 70.0712 11.6881 819 101.02 1191.69 461.009
107 0 74.0834 13.2553 982 97.4287 1192.15 458.346
108 0 77.1612 13.0636 1008 97.4067 1192.39 457.676
109 0 80.1347 13.3775 1072 96.7034 1191.5 456.109
110 0 84.1255 13.1946 1110 96.2189 1191.04 455.392
111 0 84.1767 12.4738 1050 99.2581 1191.5 453.641
112 0 86.1534 13.8938 1197 97.1053 1190.94 450.996
113 0 86.1196 12.3085 1060 102.07 1190.63 450.326
114 0 88.1819 12.8484 1133 102.42 1190.77 446.775
115 0 96.4267 13.4817 1300 99.9554 1190.78 447.822
116 0 95.2763 12.9833 1237 102.169 1190.1 444.96
117 0 100.378 14.2462 1430 98.7755 1189.7 444.381
118 0 101.25 12.3654 1252 104.272 1189.95 444.346
119 0 106.195 14.0591 1493 98.7796 1189.52 439.26
120 0 109.281 12.6646 1384 102.348 1189.59 439.973
121 0 111.249 13.627 1516 101.213 1190.27 435.476
122 0 114.552 14.3079 1639 100.588 1190.17 433.069
123 0 117.206 13.327 1562 102.777 1189.99 428.816
124 1 61.138 10.1901 623 105.695 1190.13 457.05
125 0 64.2607 12.1692 782 102.353 1189.13 454.222
126 0 68.1923 11.2916 770 103.716 1190.17 452.4
127 0 72.2181 13.1546 950 99.0674 1189.79 451.531
128 0 74.2363 12.1908 905 101.304 1190.03 451.755
129 0 77.1232 12.5643 969 101.162 1190.06 451.463
130 0 79.1817 12.705 1006 102.771 1189.57 444.555
131 0 80.1775 10.8135 867 108.481 1189.55 442.887
132 0 85.2814 12.6991 1083 102.85 1190.63 445.457
133 0 89.1906 12.3668 1103 104.529 1189.93 443.272
134 0 92.1897 12.9732 1196 104.164 1190.37 443.252
135 0 93.1713 13.0405 1215 105.283 1189.97 443.627
136 0 96.2821 12.7023 1223 107.001 1190.14 437.831
137 0 101.163 11.5359 1167 107.686 1190.55 444.804
138 0 106.28 12.6176 1341 104.115 1190.37 438.179
139 0 106.341 12.2154 1299 107.528 1190.18 437.818
140 0 111.428 12.2501 1365 106.271 1189.96 438.973
141 1 64.0512 11.3503 727 104.66 1191.93 460.003
142 0 59.1158 10.7755 637 104.713 1190.86 452.199
143 0 65.095 10.5999 690 105.554 1190.98 452.351
144 0 67.0714 10.9734 736 104.832 1190.93 453.928
145 0 66.0513 12.2481 809 105.241 1191.05 452.614
146 0 71.1401 11.386 810 106.346 1190.7 453.391
147 0 76.1137 12.3237 938 103.156 1190.19 451.307
148 0 74.0444 11.7227 868 106.339 1189.84 449.915
149 0 76.0545 12.6488 962 105.588 1190.1 446.714
150 0 78.0541 10.544 823 110.495 1191 445.821
151 0 80.0467 12.0804 967 108.361 1190.85 443.338
152 0 86.0916 11.9872 1032 107.513 1189.89 443.093
153 0 89.0766 12.2254 1089 106.837 1190.44 443.434
154 0 95.2032 12.321 1173 107.357 1190.79 441.973
155 0 99.2025 12.2477 1215 106.425 1190.6 443.979
156 1 52.1267 11.1843 583 103.357 1191.48 466.021
157 0 54.0539 10.138 548 106.971 1191.67 463.52
158 0 56.2734 11.4441 644 109.057 1190.95 462.516
159 0 58.2589 12.0325 701 108.158 1190.42 465.405
160 0 63.2136 12.3708 782 106.926 1190.28 465.824
161 0 62.2402 11.3431 706 111.105 1190.05 464.266
162 0 66.1642 12.4539 824 107.479 1190.21 464.198
163 0 65.2246 12.2653 800 109.884 1190.78 463.186
164 0 66.2343 12.184 807 112.287 1189.76 460.05
165 0 70.2123 12.3767 869 110.493 1189.78 463.078
166 0 72.2649 13.2153 955 109.595 1189.52 460.698
167 0 73.224 13.4928 988 110.064 1189.34 457.915
168 0 73.1509 12.3033 900 114.527 1189.51 455.528
169 0 77.1463 12.4957 964 113.493 1189.83 455.401
170 0 79.2833 12.2346 970 113.874 1189.23 455.639
171 0 83.1351 12.9187 1074 111.723 1189.88 455.939
172 0 83.1293 11.9934 997 115.141 1190.29 454.846
173 0 89.2915 13.3495 1192 111.029 1190.22 450.807
174 0 91.0914 12.2185 1113 113.529 1189.93 452.164
175 0 95.1383 12.4661 1186 112.575 1189.38 449.472
176 0 96.2906 13.2308 1274 110.879 1188.73 447.206
177 1 54.035 9.99352 540 111.97 1190.58 468.683
178 0 56.0186 12.2995 689 102.669 1190.61 467.2
179 0 55.051 10.0816 555 108.106 1191.01 463.573
180 0 59.0945 11.1855 661 108.375 1191.46 466.02
181 0 61.0655 11.152 681 109.442 1191.15 465.692
182 0 64.0504 11.3661 728 108.13 1191.33 463.984
183 0 66.126 11.5386 763 106.708 1190.92 465.029
184 0 66.0673 12.457 823 105.371 1191.18 462.326
185 0 70.0419 11.693 819 105.551 1190.93 461.178
186 0 71.0653 11.2854 802 107.608 1190.66 458.456
187 0 75.1022 12.2766 922 104.01 1191.74 459.889
188 0 75.0656 10.9504 822 106.146 1191.64 458.005
189 0 81.0856 11.9997 973 101.955 1190.69 458.035
190 0 80.0512 11.4427 916 104.551 1191.32 453.635
191 0 83.1242 11.573 962 104.107 1190.92 453.541
192 0 84.1202 11.9234 1003 104.402 1190.81 450.663
193 0 89.1604 12.2476 1092 102.297 1190.75 453.677
194 0 92.1134 13.2446 1220 100.681 1191.03 450.894
195 0 92.1934 11.0529 1019 105.697 1190.39 446.069
196 0 98.2441 12.2348 1202 101.108 1189.97 449.231
197 0 99.23 12.466 1237 101.119 1189.26 445.829
198 0 102.355 11.9095 1219 101.923 1190.16 444.711
199 0 106.178 12.1871 1294 103.675 1189.43 442.394
200 1 58.1684 10.9338 636 102.989 1190.07 468.129
201 0 60.1903 12.2445 737 100.668 1190.42 466.973
202 0 61.145 12.6257 772 103.729 1190.01 464.43
203 0 64.3615 12.4919 804 103.206 1189.72 463.738
204 0 65.5007 12.0609 790 105.086 1189.52 463.163
205 0 66.2756 11.7238 777 106.663 1190.32 463.637
206 0 68.242 12.1186 827 106.478 1188.5 462.01
207 0 69.3237 12.5642 871 106.011 1189.31 461.759
208 0 73.2853 12.2808 900 106.527 1189.7 459.442
209 0 76.3714 12.1773 930 106.546 1189.47 458.331
210 0 75.2045 12.6189 949 108.112 1190.11 456.269
211 0 78.4328 13.298 1043 106.857 1189.62 454.844
212 0 81.2741 12.9562 1053 107.654 1190.27 455.904
213 0 84.1769 12.3193 1037 108.791 1190.42 455.387
214 0 86.4448 12.5629 1086 109.175 1190.62 453.224
215 0 90.3508 13.6025 1229 107.839 1191.25 449.886
216 0 91.2788 11.6895 1067 114.913 1190.22 443.558
217 0 95.4518 12.3518 1179 113.175 1190.23 442.585
218 0 99.4695 12.7677 1270 112.172 1189.12 441.874
219 0 102.33 12.5575 1285 112.188 1189.42 440.606
220 1 57.1134 10.0152 572 110.605 1189.21 466.512
221 0 56.2885 10.3218 581 111.935 1190.84 466.009
222 0 61.4154 11.3978 700 109.467 1191.36 459.956
223 0 63.3224 10.8176 685 112.787 1190.8 453.28
224 0 65.2256 10.0574 656 112.869 1189.57 464.386
225 0 67.2211 11.3804 765 110.629 1189.15 461.25
226 0 70.2693 13.0498 917 105.907 1190.28 461.723
227 0 72.2043 12.4369 898 107.381 1189.88 460.04
228 0 77.1633 11.7413 906 106.896 1189.19 459.685
229 0 76.2075 10.8782 829 109.334 1189.48 458.752
230 0 79.2937 12.3339 978 106.157 1189.84 456.469
231 0 80.2193 12.1168 972 106.377 1189.32 457.799
232 0 83.1724 13.5502 1127 104.381 1190.46 455.075
233 0 84.2718 12.3292 1039 106.805 1190.01 452.898
234 0 89.3751 12.5538 1122 104.541 1189.45 453.246
235 0 90.2519 12.9637 1170 104.439 1189.76 450.56
236 0 95.2666 11.8824 1132 104.005 1189.56 453.11
237 0 96.3399 12.1445 1170 106.216 1190.36 446.417
238 0 99.3419 12.2204 1214 104.526 1190.25 446.119
239 0 103.46 13.4255 1389 102.984 1190.24 440.731
240 1 57.0842 11.0013 628 92.086 1189.22 463.581
241 0 58.1385 11.4726 667 91.1154 1188.66 466.114
242 0 60.0776 12.5504 754 90.2069 1188.39 462.29
243 0 63.3947 12.8087 812 88.4902 1188.99 463.257
244 0 65.2335 12.4936 815 88.7656 1189.13 460.746
245 0 65.1591 12.4004 808 90.1064 1189.74 459.632
246 0 67.1395 12.1687 817 90.7234 1189.18 458.695
247 0 69.1271 12.2817 849 90.7691 1189.8 459.011
248 0 71.1064 11.8695 844 91.9597 1189.14 459
249 0 73.2004 13.9344 1020 88.4167 1190.07 457.297
250 0 75.3316 13.487 1016 89.1535 1189.41 457.313
251 0 78.1418 13.3987 1047 88.8099 1189.86 454.273
252 0 83.2961 13.5901 1132 87.0327 1188.94 453.383
253 0 83.2153 13.7475 1144 86.799 1188.44 453.094
254 0 84.0852 12.5587 1056 89.9905 1189.28 452.675
255 0 86.2978 13.5577 1170 89.1675 1189.08 453.974
256 0 91.3272 13.3038 1215 88.6889 1189.81 451.402
257 0 94.1718 11.5852 1091 91.6022 1189.22 453.563
258 0 94.1682 12.4246 1170 92.6624 1189.83 449.28
259 0 98.2437 12.2145 1200 93.9542 1189.91 450.154
260 0 101.208 12.3606 1251 97.0703 1189.06 449.46
261 0 106.221 14.7052 1562 92.1255 1188.95 446.37
262 0 107.242 13.2597 1422 95.6048 1189.21 443.214
263 0 108.315 12.279 1330 97.285 1190.53 441.691
264 0 117.207 17.0042 1993 87.139 1189.96 442.866
265 0 115.271 12.9781 1496 93.5287 1189.57 439.357
266 0 120.173 14.063 1690 91.4822 1189.84 435.765
267 0 122.113 13.7168 1675 91.1898 1188.97 439.643
268 0 127.215 12.1841 1550 95.811 1189.58 434.78
269 0 131.227 13.2976 1745 94.0269 1189.9 431.556
270 0 132.187 11.7788 1557 97.456 1189.15 427.942
271 0 140.296 13.8564 1944 93.4928 1189.58 426.512
272 0 145.135 13.043 1893 95.5135 1189.14 422.893
273 0 150.247 13.2182 1986 96.646 1188.78 419.697
274 1 88.2543 11.2742 995 98.603 1188.95 448.465
275 0 91.1442 12.2114 1113 97.1006 1188.2 445.415
276 0 94.1178 11.9956 1129 97.5394 1188.69 444.33
277 0 96.2053 11.9952 1154 99.5901 1189.19 419.068
278 0 99.1554 14.5227 1440 94.4215 1189.1 419.384
279 0 103.418 12.4253 1285 92.4374 1188.81 425.577
280 0 103.133 13.0705 1348 93.0734 1188.64 425.616
281 0 109.173 12.8145 1399 93.9886 1189.65 424.365
282 0 110.22 12.847 1416 96.7062 1188.98 407.887
283 0 114.127 12.8804 1470 96.5592 1188.34 409.961
284 0 117.386 12.9828 1524 96.9127 1189.02 409.434
285 0 120.238 12.101 1455 99.5553 1187.89 407.515
286 0 125.19 13.4995 1690 97.155 1189.14 408.879
287 0 127.179 13.1783 1676 98.8592 1189.08 405.407
288 0 132.215 12.8049 1693 99.7053 1188.72 404.933
289 0 136.148 13.5808 1849 98.8621 1189.07 407.266
290 1 77.1572 12.9994 1003 94.5214 1190.42 445.637
291 0 77.1179 12.643 975 97.2349 1191.14 448.697
292 0 80.13 11.993 961 96.8064 1190.73 440.512
293 0 82.1674 12.9613 1065 95.4254 1190.41 441.531
294 0 85.183 12.0447 1026 97.2261 1189.76 444.304
295 0 90.2084 13.8125 1246 93.7544 1191.27 445.557
296 0 90.3645 13.6337 1232 95.9123 1190.3 441.229
297 0 94.3066 13.2228 1247 96.348 1190.6 442.922
298 0 96.1984 13.5033 1299 96.5004 1190.61 446.962
299 0 100.335 12.9267 1297 97.5405 1191.12 446.338
300 0 101.178 13.0562 1321 100.659 1190.16 440.264
301 0 104.259 13.9076 1450 99.98 1190.34 441.559
302 0 108.283 13.5847 1471 102.573 1189.95 440.322
303 0 109.178 13.565 1481 104.085 1189.99 437.854
304 0 114.147 15.2173 1737 99.7686 1190.33 437.294
305 0 115.136 13.4363 1547 103.479 1190.92 437.699
306 0 121.218 14.6842 1780 99.4809 1190.71 438.028
307 0 121.123 13.0858 1585 103.518 1190.38 433.864
308 0 121.123 13.0198 1577 156.824 1190.37 433.718
309 0 130.385 13.1764 1718 104.304 1189.9 430.515
310 1 74.208 11.333 841 100.697 1191.05 458.145
311 0 77.1034 11.2317 866 96.7771 1190.99 458.71
312 0 78.102 12.9446 1011 92.4154 1191.05 456.012
313 0 81.1706 12.64 1026 92.1248 1190.83 456.569
314 0 83.1591 11.7365 976 94.709 1190.42 455.616
315 0 86.2198 11.8766 1024 94.8721 1191.06 454.501
316 0 89.1506 13.0566 1164 93.86 1189.93 451.972
317 0 90.1366 12.7695 1151 95.6438 1190.92 451.672
318 0 94.3604 12.3039 1161 97.6589 1190.44 450.662
319 0 97.1794 11.8852 1155 101.455 1191.51 448.628
320 0 100.279 13.3527 1339 104.348 1191.71 445.38
321 0 104.221 14.4117 1502 101.054 1190.45 443.089
322 0 108.14 13.4547 1455 104.51 1189.63 441.803
323 1 60.1244 10.1124 608 104.704 1189.6 466.413
324 0 62.147 11.5693 719 102.115 1189.79 464.064
325 0 64.165 11.4548 735 102.498 1189.46 462.053
326 0 67.064 12.3315 827 93.9589 1192.04 463.369
327 0 67.1433 11.5425 775 97.6529 1191.58 463.754
328 0 71.1282 13.0609 929 94.5371 1191.66 461.572
329 0 72.1637 11.6125 838 96.679 1191.76 459.666
330 0 75.1137 12.0617 906 95.9779 1191.93 460.561
331 0 77.1955 12.993 1003 93.9751 1192.17 459.15
332 0 79.2015 13.3205 1055 93.7251 1191.37 456.572
333 0 81.1956 12.0204 976 96.8555 1191.38 456.778
334 0 86.1576 14.8681 1281 91.6425 1191.55 452.084
335 0 88.0872 13.9067 1225 94.3584 1191.48 446.716
336 0 89.1067 13.6017 1212 97.1279 1191.41 449.229
337 0 90.25 14.0055 1264 96.8639 1191.64 450.03
338 0 94.1133 14.9501 1407 94.7683 1191.43 448.786
339 0 95.1834 12.7648 1215 99.7778 1191.46 445.525
340 0 98.3752 13.3265 1311 98.6178 1190.65 444.156
341 0 102.175 14.0152 1432 97.2339 1190.51 443.202
342 0 104.264 12.5259 1306 101.528 1189.76 441.845
343 0 103.224 12.7393 1315 102.26 1191.32 439.872
344 1 58.0762 9.79748 569 101.773 1191.61 463.627
345 0 58.0178 11.5482 670 93.9149 1191.51 458.278
346 0 58.0549 10.714 622 87.6318 1190.5 461.622
347 0 62.1807 11.7561 731 96.026 1191.37 464.964
348 0 66.0721 11.7599 777 94.8404 1191.07 464.994
349 0 68.091 11.3231 771 95.5772 1190.66 460.204
350 0 68.0894 11.3233 771 125.433 1189.66 460.204
351 0 75.0377 12.6869 952 93.3256 1190.7 460.504
352 0 76.1513 12.8035 975 93.9097 1190.72 457.713
353 0 79.1186 12.753 1009 94.8087 1191.67 459.366
354 0 81.1018 12.6754 1028 97.4018 1191.29 455.819
355 0 86.2463 15.4325 1331 91.7874 1190.84 454.86
356 0 89.2276 14.5919 1302 94.3525 1191.66 452.983
357 0 93.4459 14.7465 1378 94.8628 1190.73 445.876
358 0 95.1354 14.0747 1339 98.5205 1190.89 448.498
359 0 97.2631 13.4069 1304 99.4854 1190.66 444.166
360 0 98.1442 13.7756 1352 99.4467 1190.11 440.146
361 0 104.365 14.2959 1492 97.4819 1190.28 437.806
362 0 105.149 14.4652 1521 97.8698 1189.78 430.696
363 0 106.186 14.0884 1496 100.334 1189.96 422.676
364 0 111.179 14.9038 1657 97.4611 1189.8 428.778
365 0 112.119 13.8692 1555 99.744 1189.8 430.621
366 0 116.191 14.7774 1717 97.0868 1189.66 435.751
367 0 116.094 13.9542 1620 97.7037 1189.95 430.369
368 0 120.349 12.1563 1463 100.928 1188.4 431.128
369 0 128.261 13.4648 1727 97.9942 1189.55 429.858
370 1 66.2081 10.9956 728 96.2994 1189.31 457.272
371 0 70.0409 12.6212 884 93.5554 1189.83 458.705
372 0 71.074 11.7483 835 96.5748 1189.97 453.162
373 0 73.0595 11.169 816 98.4657 1190.47 450.013
374 0 77.1843 10.8183 835 97.6371 1189.77 453.996
375 0 78.1203 11.8919 929 97.1421 1189.15 454.272
376 0 81.0928 12.2206 991 97.9082 1189.06 449.187
377 0 87.2112 13.7138 1196 100.549 1189.55 454.242
378 0 90.1532 13.5103 1218 101.75 1190.08 451.45
379 0 93.1544 13.4401 1252 102.498 1189.83 452.081
380 0 98.1684 13.6704 1342 101.119 1189.41 452.058
381 0 100.235 12.5206 1255 103.104 1188.96 451.286
382 0 104.168 14.4959 1510 98.6563 1189.39 446.687
383 0 104.31 12.1081 1263 103.553 1190.01 446.177
384 0 111.194 13.5619 1508 98.2818 1189.88 445.909
385 1 56.0691 11.5215 646 96.8947 1190.62 471.91
386 0 58.1314 11.646 677 95.2718 1190.65 472.648
387 0 60.1326 12.3727 744 93.4758 1189.64 469.086
388 0 62.1424 12.7127 790 93.4519 1189.75 467.799
389 0 64.1134 13.8973 891 91.7419 1189.67 467.572
390 0 63.0761 12.477 787 95.8882 1189.26 466.624
391 0 68.1016 12.9806 884 93.1143 1190.12 464.827
392 0 72.1331 13.6969 988 92.0455 1190.23 462.302
393 0 74.2186 13.6084 1010 91.5248 1190.45 459.791
394 0 75.1963 12.9129 971 93.622 1190.02 459.933
395 0 77.189 13.1495 1015 93.1576 1189.4 457.761
396 0 79.1841 12.4899 989 95.5682 1189.73 456.164
397 0 80.0601 12.9028 1033 95.9942 1189.48 456.166
398 0 85.1567 12.753 1086 97.7514 1189.51 456.336
399 0 87.1237 13.1078 1142 98.6252 1189.33 454.787
400 0 88.0686 11.7068 1031 102.271 1189.88 453.257
401 0 89.1169 11.2212 1000 104.398 1189.56 450.015
402 0 92.0532 11.7975 1086 103.38 1189.12 449.888
403 0 99.0844 12.6761 1256 101.494 1189.41 450.29
404 0 97.1609 12.1345 1179 105.561 1189.25 445.478
405 0 102.176 13.5453 1384 103.28 1189.8 446.296
406 0 106.117 14.2201 1509 102.315 1189.11 443.697
407 0 109.206 13.7538 1502 76.0985 1189 447.994
408 0 113.148 12.4262 1406 105.019 1190.33 442.028
409 0 118.111 14.1138 1667 103.457 1188.91 438.036
410 0 118.111 14.1053 1666 145.063 1186.9 437.905
411 0 125.222 13.7915 1727 104.472 1189.18 437.019
412 0 131.215 14.6477 1922 105.899 1189 428.97
413 0 135.216 14.2365 1925 107.387 1189.17 422.401
414 0 139.216 12.6782 1765 109.846 1189.34 421.2
415 1 73.1173 12.6646 926 102.797 1190.06 455.147
416 0 78.1922 12.9808 1015 102.491 1189.98 453.408
417 0 79.147 12.8242 1015 104.673 1188.29 430.118
418 0 82.109 13.7987 1133 102.794 1188.87 431.452
419 0 86.2108 13.3394 1150 104.569 1188.43 420.383
420 0 88.17 13.5874 1198 104.331 1188.68 421.194
421 0 91.1874 13.1049 1195 105.444 1188.85 424.362
422 0 95.115 13.4048 1275 104.575 1189.2 428.993
423 0 99.1423 13.3848 1327 104.247 1188.62 431.92
424 0 101.202 13.8139 1398 104.794 1187.91 432.463
425 0 103.216 12.9438 1336 105.917 1187.83 440.633
426 0 105.206 13.9155 1464 104.942 1187.42 441.274
427 0 109.229 13.3298 1456 106.299 1187.74 439.6
428 0 114.133 14.816 1691 101.928 1188.45 439.264
429 0 117.183 13.8843 1627 105.072 1188.07 435.779
430 0 119.397 13.4844 1610 105.098 1188.56 435.08
431 0 126.261 16.1254 2036 98.7834 1188.09 431.81
432 0 127.281 14.2283 1811 103.686 1188.62 428.631
433 0 132.324 13.8448 1832 103.899 1188.87 427.565
434 0 137.315 14.3174 1966 101.893 1187.71 428.747
435 0 140.248 13.6972 1921 104.231 1188.2 423.599
436 0 145.355 14.2135 2066 105.113 1188.43 422.76
437 0 151.288 13.3586 2021 105.481 1189.08 422.965
438 0 156.33 15.1666 2371 103.078 1188.62 415.51
439 0 162.436 14.5781 2368 102.641 1188.11 414.636
440 1 98.3838 13.3965 1318 98.415 1188.81 449.681
441 0 100.256 13.8745 1391 98.66 1188.42 446.092
442 0 103.317 13.7635 1422 99.0183 1188.71 443.945
443 0 105.226 12.5919 1325 101.058 1188.82 443.379
444 0 110.202 14.301 1576 96.8972 1189.01 440.95
445 0 114.231 14.6633 1675 95.6161 1188.72 437.998
446 0 117.245 14.7981 1735 95.0726 1188.27 436.882
447 0 120.411 13.7695 1658 97.6339 1189.02 435.732
448 0 125.261 13.6436 1709 97.9304 1188.98 432.352
449 0 128.275 14.391 1846 96.8315 1188.38 429.894
450 0 133.322 15.4363 2058 94.3771 1188.98 428.296
451 0 139.323 13.7737 1919 97.161 1188.74 429.468
452 0 144.243 13.6922 1975 97.5818 1188.61 426.001
453 0 149.291 12.6263 1885 100.595 1189.06 421.942
454 1 81.1544 8.98288 729 95.8573 1189.79 455.041
455 0 87.3316 11.4392 999 94.0661 1189.16 452.65
456 0 91.3475 12.228 1117 90.6186 1188.93 451.715
457 0 92.2331 10.9722 1012 93.6976 1188.79 448.047
458 0 97.39 12.6604 1233 90.6845 1188.51 445.68
459 0 100.207 12.5639 1259 91.4369 1188.49 444.568
460 0 101.267 12.462 1262 92.4675 1188.74 438.312
461 0 107.323 12.8211 1376 91.5065 1188.7 439.943
462 0 108.348 10.9185 1183 94.9662 1189.06 439.24
463 0 112.254 12.0174 1349 93.3832 1189.15 437.613
464 0 116.263 11.8782 1381 94.2317 1189.21 435.772
465 0 120.233 12.2346 1471 93.4147 1188.38 436.706
466 0 124.211 12.7847 1588 93.6694 1188.7 430.142
467 0 128.428 12.2404 1572 94.4294 1188.38 434.254
468 0 132.167 10.6153 1403 98.8974 1188.6 427.999
469 0 137.454 12.1931 1676 96.4397 1189.57 426.043
470 1 76.242 9.71905 741 98.6167 1188.46 456.646
471 0 77.0802 11.3259 873 95.0825 1189.78 447.548
472 0 79.09 11.0254 872 98.1892 1188.35 449.913
473 0 86.0731 12.1408 1045 91.2431 1189.45 455.519
474 0 86.0974 10.1048 870 95.3414 1188.41 453.118
475 0 89.3385 10.6561 952 94.5326 1189.17 452.896
476 0 92.2624 10.546 973 94.7944 1188.54 452.444
477 0 98.2304 11.473 1127 93.1597 1190.31 451.045
478 0 97.1102 11.8113 1147 95.4333 1189.76 443.187
479 0 101.19 12.0466 1219 94.7391 1189.35 446.807
480 0 105.418 12.3034 1297 95.4487 1189.55 441.559
481 0 108.261 11.2321 1216 97.4852 1189.65 442.299
482 0 109.209 12.7279 1390 96.6993 1189.76 436.615
483 0 114.182 11.289 1289 100.089 1188.59 434.122
484 1 63.1498 8.37691 529 100.739 1188.07 462.645
485 0 65.1148 11.6871 761 94.4376 1188.13 459.84
486 0 66.0622 11.0502 730 96.0137 1189.6 461.766
487 0 70.1406 11.6338 816 93.7157 1189.04 461.469
488 0 74.1681 12.0807 896 91.0346 1189.15 460.764
489 0 72.2357 11.7809 851 94.6099 1188.2 460.78
490 0 77.1347 12.7569 984 92.751 1187.55 459.763
491 0 78.1521 12.1302 948 95.0454 1187.68 458.501
492 0 79.2357 11.2702 893 98.3236 1188.38 458.775
493 0 80.2426 12.0385 966 97.3758 1187.91 458.077
494 0 85.2321 11.9673 1020 98.5461 1187.66 454.099
495 0 87.2395 13.0675 1140 96.5316 1188.2 454.464
496 0 86.179 11.3021 974 101.842 1188.63 451.634
497 0 91.2151 13.2873 1212 97.3127 1188.8 451.069
498 0 94.2476 14.515 1368 95.0556 1188.38 449.338
499 0 97.3234 11.9704 1165 100.257 1188.4 449.881
500 0 100.175 12.8575 1288 98.9915 1188.49 446.628
501 0 102.229 13.2252 1352 99.5192 1187.75 444.448
502 0 105.24 12.2482 1289 101.621 1188.66 445.303
503 0 110.385 12.1937 1346 102.578 1188.66 443.573
504 0 109.1 12.6856 1384 104.212 1188.64 437.37
505 0 115.235 12.5743 1449 104.858 1188.09 432.901
506 1 62.1821 11.2251 698 102.024 1188.09 461.019
507 0 66.1932 11.4211 756 103.075 1188.04 459.238
508 0 66.1245 12.8394 849 96.8905 1187.52 465.502
509 0 68.0847 12.6313 860 98.9546 1188.18 465.071
510 0 70.3539 11.6411 819 100.536 1187.97 465.551
511 0 72.2546 13.1756 952 99.8802 1188.32 461.485
512 0 75.0827 13.0922 983 100.353 1188.2 460.103
513 0 75.1219 12.3 924 103.681 1188.84 459.029
514 0 78.0975 12.7533 996 102.633 1187.45 458.153
515 0 81.1733 14.044 1140 100.558 1188.62 453.997
516 0 83.1499 13.2652 1103 101.83 1188.32 455.005
517 0 88.292 13.1948 1165 101.24 1187.67 452.556
518 0 89.172 14.3767 1282 99.9095 1187.9 448.5
519 0 91.0948 13.1621 1199 102.038 1188.24 447.184
520 0 94.13 13.9275 1311 100.265 1188.33 444.851
521 0 95.216 13.4746 1283 101.715 1188.49 441.805
522 0 99.1723 13.3202 1321 101.812 1188.08 444.588
523 0 102.222 13.9696 1428 101.478 1188.48 439.895
524 0 100.142 12.3525 1237 107.165 1188.38 440.312
525 0 104.133 11.7734 1226 108.187 1188.6 436.948
526 0 111.304 13.6563 1520 104.593 1188.43 431.395
527 0 113.3 12.5773 1425 105.933 1188.67 436.204
528 0 113.356 12.5886 1427 105.452 1188.07 433.509
529 0 110.308 11.3591 1253 109.135 1188.23 434.575
530 0 113.139 11.6671 1320 108.028 1188.52 435.055
531 0 115.214 9.34781 1077 107.731 1189.09 443.376
532 1 75.2685 11.0538 832 106.519 1188.79 451.916
533 0 79.272 13.0311 1033 101.656 1188.97 448.768
534 0 80.1819 12.9082 1035 102.191 1189.19 444.806
535 0 82.1942 12.6286 1038 102.523 1188.17 443.636
536 0 84.222 13.1438 1107 102.081 1188.22 443.487
537 0 87.3093 12.0148 1049 100.704 1188.72 445.072
538 0 88.2357 12.1493 1072 103.217 1188.57 443.623
539 0 89.2561 12.9067 1152 102.49 1188.02 443.829
540 0 94.3315 12.4561 1175 103.49 1188.82 442.562
541 0 94.276 12.3573 1165 103.853 1188.92 443.243
542 0 97.1917 11.7397 1141 107.119 1188.75 439.695
543 0 104.362 13.5873 1418 101.843 1187.71 436.98
544 0 105.211 11.8048 1242 106.481 1188.4 438.953
545 0 107.307 11.8072 1267 109.063 1187.14 436.511
546 0 111.341 12.7356 1418 107.633 1188.52 435.565
547 0 115.176 12.4852 1438 108.876 1188.3 432.481
548 0 116.08 12.0864 1403 109.646 1188.45 429.318
549 0 124.51 13.268 1652 106.631 1187.87 428.49
550 0 130.314 12.8843 1679 107.848 1188.23 423.314
551 0 134.186 11.7673 1579 107.491 1188.57 422.488
552 0 138.279 11.3033 1563 108.515 1187.49 420.653
553 0 146.411 13.0182 1906 105.088 1187.92 417.207
554 1 82.2161 10.5697 869 99.7031 1188.16 452.589
555 0 88.2974 11.9709 1057 99.3794 1189.28 452.515
556 0 90.1359 11.8155 1065 98.9192 1188.7 457.173
557 0 89.1059 12.1316 1081 100.092 1188.28 452.004
558 0 89.0635 11.4188 1017 94.8368 1188.52 453.55
559 0 90.103 12.519 1128 96.7358 1190.1 450.662
560 0 92.0954 12.1613 1120 99.4643 1189.6 450.158
561 0 92.1319 13.0465 1202 98.5682 1189.33 452.041
562 0 92.0794 11.2077 1032 102.673 1188.1 452.165
563 0 93.1612 11.3674 1059 104.122 1188.53 452.777
564 0 95.2519 11.3384 1080 107 1187.95 448.103
565 0 97.0984 11.926 1158 104.123 1188.65 451.516
566 0 98.1011 11.3149 1110 105.801 1188.56 446.493
567 0 97.0832 11.1554 1083 106.019 1187.59 443.988
568 0 105.273 11.7029 1232 102.33 1188 446.915
569 0 111.167 12.9984 1445 101.643 1188.87 447.152
570 0 110.358 11.5171 1271 101.297 1188.28 434.688
571 0 113.321 11.2512 1275 101.718 1188.66 431.998
572 0 118.315 11.0721 1310 101.723 1188.69 427.319
573 0 122.394 11.2587 1378 101.665 1188.36 430.718
574 1 66.1802 10.7585 712 93.5449 1187.08 467.459
575 0 68.2262 12.5465 856 90.6974 1188.09 465.741
576 0 71.1131 12.0794 859 91.8626 1187.55 464.757
577 0 74.0973 13.1449 974 90.1776 1187.4 463.739
578 0 74.3399 12.1066 900 93.3122 1188.15 463.672
579 0 76.2638 13.7942 1052 92.8184 1188.59 457.182
580 0 78.0548 11.825 923 100.082 1186.92 459.061
581 0 79.0991 12.3895 980 101.194 1186.63 456.898
582 0 81.0699 12.6557 1026 102.186 1186.36 455.756
583 0 81.0712 12.4335 1008 103.617 1187.02 455.879
584 0 85.0781 13.4817 1147 102.806 1187.16 455.492
585 0 84.0784 11.9293 1003 109.149 1187.05 453.155
586 0 87.1139 12.9141 1125 107.497 1187.17 451.75
587 0 90.2908 12.9249 1167 108.482 1187.34 453.56
588 0 89.1037 12.3788 1103 111.893 1187.56 452.309
589 0 95.2262 12.8956 1228 109.844 1187.17 452.353
590 0 96.2044 12.8165 1233 112.081 1187.15 448.831
591 0 98.218 13.6533 1341 110.456 1188.04 450.494
592 0 101.226 12.8327 1299 112.54 1187.94 444.442
593 1 60.0588 10.9393 657 112.167 1187.82 467.195
594 0 61.0797 11.133 680 111.987 1187.54 464.881
595 0 60.1101 10.3144 620 112.048 1188.02 454.224
596 0 61.0484 12.1215 740 107.253 1187.36 459.861
597 0 59.0381 10.4001 614 113.881 1187.26 457.01
598 0 62.0679 11.9224 740 111.049 1187.73 455.943
599 0 65.0554 11.959 778 110.956 1188.39 453.38
600 0 64.0738 11.4087 731 114.123 1188.07 452.293
601 0 68.1177 11.7591 801 112.006 1189.11 452.83
602 0 70.0859 12.713 891 112.191 1188.03 449.822
603 0 74.0854 13.255 982 109.039 1187.87 451.683
604 0 76.1536 14.1293 1076 107.669 1187.75 447.031
605 0 75.1559 10.9506 823 116.868 1187.22 444.365
606 0 83.1735 12.3597 1028 111.609 1187.29 447.485
607 0 85.2286 13.1881 1124 111.221 1186.98 445.028
608 0 87.3268 13.2147 1154 114.559 1187.87 453.6
609 0 93.3144 13.342 1245 114.571 1187.92 440.272
610 0 96.4514 13.1154 1265 113.885 1188.05 449.951
611 0 97.3034 14.2338 1385 112.879 1187.36 442.303
612 0 99.1779 13.2187 1311 117 1186.93 436.034
613 0 102.136 13.8933 1419 114.588 1187.37 427.33
614 0 106.063 15.076 1599 111.497 1186.86 429.572
615 0 108.195 12.8934 1395 117.918 1187.51 422.897
616 1 59.0913 11.1015 656 116.736 1187.39 446.526
617 0 63.1373 12.0373 760 104.45 1188.08 454.193
618 0 63.3929 10.7898 684 98.8421 1187.41 458.87
619 0 63.1694 9.18166 580 103.659 1187.34 456.616
620 0 67.2646 10.8527 730 99.3082 1188.13 462.733
621 0 69.1682 10.3082 713 98.913 1188.12 463.398
622 0 75.1429 11.9506 898 94.4209 1188.2 464.96
623 0 77.2332 11.7825 910 95.7571 1187.94 461.009
624 0 78.2185 11.2761 882 98.6451 1188.43 458.806
625 0 81.4466 12.2166 995 96.7035 1188.02 458.361
626 0 82.2538 11.9751 985 99.2832 1187.57 456.598
627 0 85.2197 11.7344 1000 99.249 1188.36 456.976
628 0 90.3229 11.6471 1052 100.689 1187.38 448.703
629 0 91.1821 13.5992 1240 97.8798 1187.51 451.069
630 0 95.1775 12.8917 1227 99.0236 1188.53 453.18
631 0 95.2749 9.95015 948 105.232 1187.98 455.822
632 0 99.1574 12.4045 1230 103.33 1187.94 448.767
633 0 104.121 13.1577 1370 102.784 1188.03 446.999
634 0 108.151 13.888 1502 100.324 1187.28 446.499
635 0 110.326 12.3814 1366 105.824 1187.77 445.459
636 0 117.447 13.9126 1634 102.916 1188.27 442.498
637 0 119.507 13.2461 1583 105.817 1188.13 440.25
638 1 71.2382 11.8195 842 99.7815 1187.89 467.551
639 0 72.1426 13.1406 948 98.4873 1188.06 465.267
640 0 75.0878 11.693 878 101.121 1187.7 465.013
641 0 77.1847 11.6474 899 100.475 1188.46 462.676
642 0 80.2471 11.6515 935 101.119 1188.1 461.424
643 0 85.1721 12.6685 1079 99.2261 1188.27 459.933
644 0 85.1909 11.8675 1011 100.878 1188.33 459.942
645 0 88.1366 11.9927 1057 101.863 1188.55 455.821
646 0 89.2021 10.5715 943 106.76 1188.64 451.251
647 0 94.3652 12.4304 1173 101.795 1189.65 455.665
648 0 99.2295 13.1211 1302 102.489 1189.07 449.794
649 0 100.215 12.1738 1220 105.741 1189.15 448.793
650 0 105.241 13.3503 1405 103.413 1189.3 448.545
651 0 108.252 13.2191 1431 103.771 1189.02 447.996
652 0 109.348 12.3002 1345 108.6 1188.86 440.776
653 0 113.421 12.6255 1432 107.707 1189.19 440.652
654 0 118.434 13.1128 1553 106.487 1189.04 441.781
655 0 119.379 12.5651 1500 109.278 1187.79 439.574
656 0 122.611 12.5682 1541 111.705 1187.69 435.198
657 0 130.344 12.7048 1656 110.401 1188.56 435.241
658 1 70.3152 10.5525 742 104.075 1188.93 466.581
659 0 73.1964 12.3367 903 103.073 1187.83 459.458
660 0 76.2566 12.6022 961 102.146 1188.3 461.079
661 0 77.053 12.1215 934 105.147 1189.32 460.801
662 0 81.0989 11.8374 960 105.254 1189.18 460.473
663 0 83.2629 13.2952 1107 102.722 1188.24 459.623
664 0 85.0985 13.2082 1124 103.15 1188.63 460.835
665 0 88.1287 12.0732 1064 105.854 1188.6 457.764
666 0 91.1208 11.5232 1050 108.041 1188.89 453.893
667 0 94.139 12.5878 1185 105.527 1188.61 454.591
668 0 94.1016 12.1358 1142 108.243 1189.23 449.078
669 0 98.0755 12.8269 1258 106.758 1188.45 451.252
670 0 100.178 12.0586 1208 109.263 1188.71 447.631
671 0 106.236 13.6207 1447 106.597 1188.93 444.989
672 0 109.197 13.3612 1459 107.304 1188.32 442.499
673 0 113.193 12.7305 1441 108.446 1188.27 442.071
674 0 117.216 13.1125 1537 107.594 1188.1 437.889
675 1 65.0797 10.0646 655 101.298 1189.06 467.605
676 0 69.0845 10.6102 733 98.603 1188.9 465.583
677 0 71.1009 10.9563 779 98.5314 1188.73 463.593
678 0 74.1395 12.5439 930 96.9183 1188.76 461.419
679 0 77.1082 12.1518 937 98.3543 1188.38 459.345
680 0 80.0576 10.6298 851 99.7732 1189.13 458.732
681 0 83.4879 12.5407 1047 95.5024 1189.66 458.436
682 0 86.113 10.7069 922 98.3297 1189.78 457.704
683 0 91.1204 13.784 1256 93.3002 1190 451.193
684 0 97.2802 14.8643 1446 89.2054 1188.73 446.991
685 0 100.276 15.6169 1566 87.8831 1189.86 447.383
686 0 100.137 13.4516 1347 93.1522 1189.54 445.553
687 0 101.35 11.0409 1119 98.7167 1188.82 446.967
688 0 105.241 12.1341 1277 97.6554 1189.49 443.525
689 0 107.49 11.3313 1218 98.4195 1189.13 445.272
690 0 110.305 11.16 1231 100.168 1189.67 443.268
691 0 115.182 14.1515 1630 95.365 1189.62 436.396
692 1 65.3742 11.3806 744 92.4005 1189.01 461.704
693 0 67.4452 12.8845 869 98.7883 1189.06 458.8
694 0 69.1124 11.7779 814 102.058 1189.38 461.472
695 0 70.315 12.4298 874 102.105 1188.62 458.556
696 0 73.1669 12.9977 951 102.199 1188.13 456.214
697 0 74.1634 11.9736 888 105.233 1188.53 456.257
698 0 78.1821 12.7267 995 103.485 1188.84 455.16
699 0 74.0973 12.0652 894 108.204 1189.53 452.795
700 0 79.2956 12.5101 992 106.933 1189.43 453.886
701 0 80.0683 12.5768 1007 108.375 1189.42 451.122
702 0 82.1664 13.5213 1111 106.96 1189.82 448.923
703 0 81.1979 11.6382 945 114.183 1189.26 444.111
704 0 88.1864 15.2518 1345 104.732 1188.8 443.503
705 0 88.2445 12.5447 1107 113.45 1189.8 441.095
706 0 91.1013 13.8856 1265 110.505 1189.42 439.538
707 0 92.1325 13.3503 1230 113.063 1189.65 438.344
708 0 98.2543 14.6355 1438 109.325 1189.46 436.186
709 0 102.072 13.3435 1362 112.112 1188.99 434.442
710 0 104.171 13.4874 1405 113.536 1189.3 429.75
711 0 111.171 12.6741 1409 114.318 1189.54 431.172
712 1 59.0491 10.1102 597 114.824 1189.64 457.291
713 0 57.1103 11.5391 659 111.958 1189.73 457.718
714 0 65.067 10.7274 698 113.563 1190.13 462.39
715 0 67.1789 11.328 761 112.92 1190.23 459.106
716 0 68.2764 11.5999 792 111.984 1189.52 457.763
717 0 65.0986 10.2153 665 117.132 1189.23 452.474
718 0 67.3382 11.3903 767 113.245 1189.6 446.502
719 0 72.0727 11.7381 846 110.908 1189.99 448.461
720 0 76.0526 10.8872 828 112.784 1190.05 447.338
721 0 78.1337 11.2499 879 111.9 1189.54 446.364
722 0 77.1366 11.9139 919 112.331 1189.22 444.11
723 0 83.369 10.4955 875 115.213 1189.72 440.587
724 0 91.1231 12.313 1122 108.291 1188.36 442.444
725 0 91.1585 12.3302 1124 142.275 1186.35 442.511
726 0 89.1832 10.5962 945 116.295 1189.01 436.462
727 0 97.4991 12.2052 1190 109.482 1189.48 440.064
728 0 101.339 11.6835 1184 111.662 1188.73 434.829
729 0 105.275 12.947 1363 107.919 1188.78 434.661
730 0 113.14 11.3399 1283 110.286 1189.1 435.153
731 0 113.258 12.4317 1408 108.626 1188.26 434.298
732 0 122.32 12.5327 1533 107.659 1188.51 432.655
733 1 69.2164 9.40528 651 99.0338 1189.04 456.332
734 0 73.1133 10.9419 800 101.902 1188.93 458.474
735 0 75.0761 9.11075 684 101.618 1189.35 459.738
736 0 78.1795 9.61889 752 100.759 1189.44 458.138
737 0 82.1216 10.8011 887 98.823 1189.56 459.97
738 0 85.1591 10.087 859 100.604 1189.23 458.107
739 0 87.0876 11.4827 1000 99.214 1189.67 455.22
740 0 92.1962 11.8552 1093 97.9259 1189.11 454.851
741 0 94.1214 11.3364 1067 100.429 1189.22 448.587
742 0 97.1997 12.0782 1174 99.3901 1189.27 450.235
743 0 100.177 12.7374 1276 98.2751 1188.71 451.678
744 0 104.113 12.8611 1339 101.018 1188.4 449.148
745 0 106.119 11.2986 1199 111.171 1188.86 448.401
746 0 109.244 12.2844 1342 110.911 1189.13 443.924
747 0 112.151 11.4667 1286 113.884 1189.1 441.403
748 0 115.115 11.5015 1324 115.023 1188.87 439.579
749 0 121.121 12.4504 1508 113.023 1188.42 437.426
750 0 125.289 12.3714 1550 113.219 1188.88 436.797
751 0 129.289 12.6383 1634 110.769 1188.43 433.174
752 1 74.1243 10.8197 802 99.48 1189.11 461.809
753 0 76.1127 10.1166 770 100.309 1187.99 461.694
754 0 77.1178 11.3074 872 96.6571 1188.5 463.112
755 0 79.1825 10.6968 847 97.8713 1188.82 457.397
756 0 82.1745 11.0983 912 97.6031 1189.2 459.349
757 0 86.1492 12.1533 1047 98.9589 1187.39 459.573
758 0 86.0594 10.7716 927 104.242 1187.64 457.471
759 0 89.0807 11.7983 1051 103.941 1187.17 455.284
760 0 91.1205 10.5026 957 107.123 1187.23 455.411
761 0 95.129 11.4581 1090 105.858 1188.23 454.94
762 0 98.0664 12.5731 1233 104.519 1187.95 451.707
763 0 99.161 11.1435 1105 106.059 1187.98 454.756
764 0 103.108 12.1717 1255 107.539 1188.07 449.542
765 0 106.215 12.5595 1334 108.787 1188.29 446.63
766 0 107.22 11.2759 1209 112.011 1188.36 445.044
767 0 114.153 12.457 1422 109.539 1187.65 444.699
768 0 115.285 10.9381 1261 115.773 1186.82 438.297
769 0 120.114 12.0469 1447 112.282 1187.53 442.936
770 0 126.169 12.1029 1527 114.518 1188.03 439.673
771 0 129.197 12.5389 1620 112.793 1188.32 436.831
772 1 75.2096 10.7034 805 107.017 1189.22 465.055
773 0 78.1292 13.0425 1019 105.309 1188.56 460.726
774 0 79.1502 11.952 946 108.655 1188.17 460.654
775 0 78.1664 11.8209 924 100.069 1188.39 462.043
776 0 81.1851 11.2336 912 101.038 1188.1 460.884
777 0 83.1511 11.3528 944 101.198 1188.65 458.566
778 0 88.1605 12.8062 1129 96.6395 1188.91 457.438
779 0 89.1873 11.1114 991 101.284 1188.82 455.014
780 0 92.1799 11.0762 1021 100.772 1188.57 456.593
781 0 95.316 11.7609 1121 102.763 1188.27 452.556
782 0 100.141 12.023 1204 96.3762 1187.45 452.595
783 0 102.142 11.9637 1222 97.9673 1186.63 450.204
784 0 103.09 10.7576 1109 101.437 1187.26 448.794
785 1 204.752 17.3234 3547 214.728 1185.82 398.725
786 0 212.453 12.751 2709 113.915 1187.14 386.445
787 1 228.594 12.3888 2832 112.486 1186.47 382.139
788 0 221.596 11.3675 2519 117.535 1187.65 381.266
789 1 118.349 11.8548 1403 97.9494 1186.61 435.309
790 0 122.237 11.1341 1361 98.2366 1186.81 437.245
791 0 131.274 13.3233 1749 94.8965 1185.95 434.316
792 0 132.198 11.7173 1549 98.6204 1185.71 428.147
793 0 139.292 13.425 1870 96.8321 1186.56 429.063
794 0 140.216 11.7961 1654 104.652 1187.01 410.186
795 0 148.243 11.7307 1739 108.761 1186.53 412.967
796 0 154.295 11.64 1796 110.67 1186.77 418.78
797 1 86.1429 10.7844 929 99.8332 1185.88 452.501
798 0 88.1041 10.9302 963 100.155 1187.65 455.683
799 1 170.313 13.2227 2252 112.107 1187.52 414.467
800 1 94.2094 12.5465 1182 98.1117 1188.08 451.52
801 0 98.2179 12.7064 1248 97.4375 1187.73 452.255
802 0 100.183 11.5089 1153 101.179 1188.06 446.695
803 0 102.183 11.6164 1187 102.263 1187.67 443.003
804 0 106.133 12.9649 1376 99.1708 1187.01 449.155
805 0 106.371 10.7924 1148 105.067 1187.73 441.728
806 0 114.216 12.4238 1419 100.945 1188.19 442.786
807 0 116.265 12.2995 1430 105.411 1187.68 439.412
808 0 119.202 13.2044 1574 102.423 1186.8 437.821
809 0 124.13 13.0669 1622 100.984 1187.68 441.02
810 0 128.257 12.7323 1633 103.478 1186.16 430.587
811 0 131.243 11.6349 1527 104.588 1186.79 430.712
812 0 138.108 12.9609 1790 100.513 1185.81 431.506
813 0 143.146 12.5187 1792 102.328 1185.84 432.874
814 1 80.1305 11.656 934 93.7869 1185.96 459.747
815 0 80.0726 11.7393 940 94.1692 1186.57 459.124
816 0 82.0829 10.8671 892 95.7208 1186.04 457.525
817 0 86.1464 12.8618 1108 93.2202 1186.23 457.025
818 0 89.1485 11.4304 1019 96.103 1186.47 452.293
819 0 86.0763 10.0492 865 104.923 1186.24 444.62
820 0 87.1631 10.2452 893 105.142 1186.35 445.563
821 0 96.1208 11.4023 1096 101.766 1185.84 445.586
822 0 96.114 11.3407 1090 103.99 1186.29 443.746
823 0 98.0898 11.5914 1137 102.568 1186.21 444.008
824 0 103.342 12.0861 1249 102.183 1186.73 442.914
825 0 108.135 11.6891 1264 104.009 1186.68 440.737
826 0 111.102 11.3769 1264 104.888 1186.63 439.849
827 0 111.217 9.87258 1098 109.208 1187 435.459
828 0 118.147 11.2064 1324 107.841 1186.82 438.092
829 0 119.27 12.1238 1446 109.023 1187.57 424.648
830 0 124.308 11.4313 1421 109.134 1187.8 428.416
831 0 129.342 11.6668 1509 108.693 1187.74 426.161
832 0 136.314 11.1801 1524 110.627 1187.59 422.53
833 0 141.294 11.4513 1618 109.626 1187.86 422.086
834 1 82.1343 10.0932 829 99.5247 1187.12 451.678
835 0 80.2695 8.80783 707 98.8006 1186.31 445.85
836 0 83.2388 7.89296 657 102.072 1187.3 448.618
837 0 88.2123 9.08037 801 103.393 1187.06 445.29
838 0 86.1237 9.18447 791 102.824 1187.46 435.81
839 0 93.1762 8.60735 802 103.274 1187.34 438.015
840 0 99.2525 9.79321 972 101.326 1187.38 437.245
841 0 103.209 11.1909 1155 99.7273 1187.65 435.614
842 0 105.184 11.6082 1221 100.623 1187.59 431.53
843 0 110.184 11.9708 1319 99.4359 1188.1 435.889
844 0 112.124 11.9688 1342 100.839 1187.54 437.706
845 0 117.058 12.1051 1417 105.229 1188.15 437.941
846 0 121.296 12.3418 1497 105.098 1187.83 432.294
847 0 125.278 12.2607 1536 106.048 1188.08 431.632
848 0 129.189 12.4314 1606 108 1187.94 428.605
849 0 132.246 11.4408 1513 109.316 1187.5 430.346
850 0 139.258 11.7982 1643 108.719 1188.08 429.273
851 0 141.225 12.3207 1740 110.408 1187.71 422.31
852 0 146.198 12.3599 1807 109.851 1187.55 422.421
853 0 151.231 11.0163 1666 113.185 1188.06 415.817
854 0 157.185 12.024 1890 113.035 1187.29 415.738
855 0 163.269 12.9908 2121 112.901 1187.02 412.372
856 0 166.319 11.039 1836 116.708 1186.84 402.77
857 0 173.549 12.1176 2103 112.739 1186.74 402.967
858 1 100.212 10.1784 1020 104.864 1186.62 437.026
859 0 107.109 11.801 1264 100.641 1187.42 442.691
860 0 112.099 11.6147 1302 101.975 1188.1 440.462
861 0 114.213 11.82 1350 102.843 1187.44 440.425
862 0 118.108 11.5911 1369 104.191 1186.74 436.421
863 0 123.1 11.8277 1456 103.543 1187.18 437.49
864 0 123.126 11.5573 1423 102.377 1187.31 439.287
865 0 130.134 12.3949 1613 103.82 1186.68 434.658
866 0 132.212 11.0126 1456 106.74 1187.36 433.383
867 0 137.233 12.6646 1738 104.076 1187.39 428.738
868 0 141.185 11.4318 1614 107.198 1187.55 423.033
869 0 149.284 13.8327 2065 101.85 1187.5 421.887
870 1 86.0992 9.90717 853 95.3083 1187.66 457.645
871 0 88.0482 9.69923 854 95.7986 1187.52 455.397
872 0 90.0648 10.2038 919 96.3112 1186.48 455.588
873 0 92.1724 10.5997 977 97.3838 1187.04 449.692
874 0 97.1538 11.7443 1141 95.3961 1187.49 449.709
875 0 101.214 12.0635 1221 95.5397 1186.95 448.316
876 0 102.376 10.8424 1110 98.782 1186.93 441.515
877 0 106.38 10.5565 1123 98.8014 1187.41 442.329
878 0 111.316 11.0227 1227 97.4548 1186.37 443.045
879 0 115.195 10.4519 1204 98.5748 1186.66 442.076
880 0 118.186 10.0519 1188 99.3392 1187 440.636
881 0 121.258 10.7787 1307 98.4384 1187.5 437.837
882 0 126.235 10.8448 1369 98.7911 1187.67 435.512
883 0 129.275 11.3247 1464 97.4802 1187.22 431.544
884 0 133.296 10.638 1418 99.1601 1187.8 429.859
885 0 135.311 10.5017 1421 100.475 1187.81 424.374
886 0 139.326 12.0509 1679 97.4401 1188.11 426.01
887 0 145.297 12.6225 1834 96.9973 1187.57 420.58
888 0 148.256 11.8713 1760 98.6949 1187.58 422.827
889 0 153.199 10.9335 1675 101.541 1186.96 415.384
890 0 160.273 11.574 1855 99.9973 1187.31 417.682
891 0 164.245 11.909 1956 100.939 1187.72 410.627
892 0 169.204 11.5009 1946 102.639 1187.16 407.335
893 0 174.376 12.3583 2155 101.128 1187.24 407.737
894 0 181.26 12.9703 2351 101.086 1187.9 401.556
895 0 186.37 12.9742 2418 102.445 1187.62 396.21
896 0 192.287 12.3513 2375 104.308 1188.67 396.005
897 0 198.352 12.9719 2573 104.007 1188.02 393.745
898 0 202.334 12.8648 2603 104.934 1187.66 391.375
899 0 209.324 11.2123 2347 109.588 1188.31 381.212
900 0 217.233 12.1114 2631 107.817 1187.8 379.656
901 0 225.344 12.2923 2770 108.039 1187.24 378.639
902 0 233.319 14.4566 3373 107.253 1187.43 375.393
903 1 57.3127 11.446 656 92.1326 1188.87 470.912
904 0 58.171 10.5035 611 94.8609 1189 469.404
905 0 59.4655 11.267 670 93.7478 1189.33 469.428
906 0 62.2153 11.3798 708 94.7698 1189 467.922
907 0 61.2746 10.1021 619 98.9208 1189.39 464.102
908 0 63.3364 10.01 634 98.1404 1188.42 463.129
909 0 66.1024 9.92399 656 95.7988 1186.75 465.393
910 0 72.0719 9.68478 698 98.0215 1186.31 462.087
911 1 114.222 9.98057 1140 97.2509 1187.39 444.941
912 0 117.277 9.30279 1091 98.9835 1188.07 441.884
913 0 120.396 8.92053 1074 99.6322 1188.11 441.702
914 0 125.421 11.8083 1481 96.5645 1187.59 431.78
915 0 129.329 10.8792 1407 96.7775 1187.65 436.833
916 0 135.223 9.68034 1309 99.1398 1188.44 428.522
917 0 139.281 11.5665 1611 96.2911 1187.71 428.139
918 0 144.377 11.6362 1680 95.8446 1188.42 424.314
919 0 152.314 9.4016 1432 99.4036 1187.93 423.582
920 0 158.49 11.395 1806 94.495 1188.94 415.106
921 0 160.662 9.42976 1515 99.6653 1187.66 423.622
922 0 169.298 10.8566 1838 98.58 1187.1 415.732
923 0 107.268 13.4337 1441 87.4129 1187.51 439.52
924 0 109.139 13.7256 1498 87.6275 1187.25 437.182
925 0 108.23 9.89556 1071 97.761 1187.07 444.393
926 0 113.163 11.5585 1308 96.8356 1187.49 441.972
927 1 67.0793 10.0031 671 95.8376 1187.25 462.481
928 0 69.298 12.1937 845 99.2746 1188.36 452.606
929 0 69.18 10.2631 710 104.225 1188.64 457.586
930 0 74.1283 11.2912 837 98.2796 1187.96 460.076
931 0 80.2029 11.7701 944 99.6674 1187.3 457.412
932 0 81.4307 11.519 938 101.195 1188.16 454.173
933 0 82.216 11.713 963 102.533 1188.51 455.144
934 0 83.2777 12.6204 1051 100.589 1187.89 456.604
935 0 86.2682 11.9279 1029 103.411 1188.11 453.639
936 0 91.3442 12.8963 1178 101.329 1188.17 452.682
937 0 92.3746 12.0488 1113 104.48 1188.05 450.617
938 0 95.2596 13.0066 1239 103.519 1187.86 448.655
939 0 96.4893 12.4366 1200 106.459 1187.65 445.294
940 0 100.597 11.7797 1185 108.089 1188.16 445.348
941 0 104.334 13.3801 1396 104.607 1188.39 445.567
942 0 107.242 12.4485 1335 106.473 1187.89 445.938
943 0 109.295 11.9584 1307 108.532 1188.83 443.751
944 0 111.235 11.6151 1292 110.919 1188.45 439.091
945 0 114.368 13.4041 1533 107.072 1188.29 436.722
946 0 117.309 12.3776 1452 109.468 1188.35 437.869
947 0 124.197 13.9134 1728 105.417 1188.18 435.144
948 0 127.121 12.8145 1629 106.929 1188.83 435.495
949 1 74.2966 11.1714 830 107.048 1187.78 457.383
950 0 76.2085 12.1378 925 101.252 1187.07 457.131
951 0 74.1173 11.1985 830 101.075 1186.73 450.111
952 0 80.1664 12.0998 970 88.6742 1188.59 452.563
953 0 81.0785 9.12695 740 95.0514 1188.53 450.65
954 0 85.1248 11.6887 995 90.6975 1188.63 452.977
955 0 85.1198 10.2679 874 94.4382 1188.37 446.33
956 0 89.1561 10.7676 960 93.951 1188.12 447.443
957 0 91.1392 11.4879 1047 94.1175 1188.64 447.059
958 0 96.267 12.8601 1238 92.0687 1188.67 447.432
959 0 98.2836 13.1863 1296 93.3302 1187.75 441.419
960 0 101.16 11.7537 1189 96.4828 1187.36 438.738
961 0 105.16 11.7155 1232 96.1818 1187.67 444.593
962 0 105.194 13.3563 1405 95.7046 1187.69 442.046
963 0 107.277 11.2792 1210 100.435 1188.06 437.169
964 0 109.345 13.1145 1434 99.7015 1187.82 432.239
965 0 108.187 12.4137 1343 103.22 1187.97 429.64
966 0 115.202 10.946 1261 106.398 1187.43 430.663
967 0 122.24 12.729 1556 108.515 1187.19 433.424
968 0 128.211 13.7819 1767 106.296 1187.67 429.551
969 1 70.2029 11.2104 787 104.731 1187.52 452.459
970 0 74.2958 12.2483 910 102.457 1187.01 450.312
971 0 75.2327 10.3014 775 108.578 1186.96 448.861
972 0 80.2099 11.7068 939 105.429 1187.49 447.776
973 0 83.226 10.8259 901 108.269 1187.77 445.568
974 0 85.1669 13.7377 1170 103.046 1187.57 443.809
975 0 88.0659 12.4906 1100 107.927 1187.76 442.649
976 0 89.3912 11.9139 1065 110.749 1186.98 439.789
977 0 93.2137 12.5089 1166 109.507 1187.54 438.898
978 0 98.2707 13.2593 1303 108.328 1187.46 437.21
979 0 104.302 13.7485 1434 106.941 1187.98 435.964
980 0 106.324 12.8945 1371 112.017 1187.6 435.866
981 0 111.433 14.6276 1630 107.839 1187.62 435.105
982 0 116.384 13.8249 1609 110.503 1187.91 432.68
983 0 120.404 13.6457 1643 111.587 1187.78 432.722
984 0 121.479 14.0436 1706 111.995 1187.66 432.655
985 0 127.273 13.1214 1670 112.007 1187.41 431.619
986 0 134.312 14.5705 1957 108.877 1187.37 429.621
987 0 134.292 12.7335 1710 115.236 1187.77 426.287
988 0 141.235 12.4544 1759 112.269 1187.64 427.617
989 0 146.328 12.8889 1886 112.575 1188 422.502
990 1 85.2046 10.6567 908 101.1 1187.69 451.022
991 0 87.2766 12.6265 1102 99.657 1187.81 448.809
992 0 91.1889 10.3192 941 100.188 1187.22 451.741
993 0 95.0978 10.8625 1033 100.857 1187.67 451.262
994 0 99.2692 12.2596 1217 100.405 1188.31 449.112
995 0 101.205 10.8986 1103 105.296 1187.89 443.405
996 0 103.256 10.1689 1050 107.764 1188.16 443.339
997 0 106.229 11.7388 1247 106.443 1188.67 440.163
998 0 110.164 10.6931 1178 107.716 1189.13 440.88
999 0 112.305 10.7653 1209 109.32 1188.73 432.84
1000 0 117.166 11.6843 1369 106.969 1188.8 432.636
1001 0 120.364 12.0551 1451 107.052 1189.24 432.748
1002 0 124.366 12.8331 1596 105.695 1188.76 430.023
1003 0 130.31 12.2017 1590 106.204 1189.12 427.906
1004 0 134.288 10.7828 1448 109.549 1188.42 426.535
1005 0 138.325 11.9935 1659 109.023 1188.23 421.739
1006 0 142.194 12.2438 1741 108.455 1188.08 422.415
1007 0 146.329 12.4787 1826 108.471 1188.49 421.417
1008 0 152.24 13.2488 2017 109.16 1188.06 416.881
1009 0 156.437 11.8386 1852 112.6 1187.72 409.37
1010 1 90.2287 10.6507 961 101.597 1187.27 447.051
1011 0 90.1298 8.92046 804 107.501 1189.75 444.771
1012 0 90.1157 8.94406 806 136.62 1192.74 444.933
1013 0 96.146 9.06954 872 108.878 1188.88 446.575
1014 0 101.17 12.3258 1247 104.204 1189.32 443.286
1015 0 103.191 10.9409 1129 108.118 1189.26 440.304
1016 0 109.257 11.7979 1289 105.012 1189.33 442.572
1017 0 114.188 11.5073 1314 105.631 1189.28 436.887
1018 0 116.215 11.8402 1376 106.377 1189.17 437.038
1019 0 121.169 11.356 1376 107.758 1189.11 434.858
1020 0 127.26 12.337 1570 105.672 1188.45 435.649
1021 0 127.231 11.0429 1405 110.22 1188.36 431.78
1022 1 75.1173 10.3571 778 102.456 1189.52 457.089
1023 0 78.0775 11.3093 883 102.248 1189.39 456.658
1024 0 83.2119 11.7051 974 104.695 1189.47 456.507
1025 0 82.13 11.567 950 104.149 1189.21 453.823
1026 0 86.1378 12.0853 1041 101.515 1189.61 454.287
1027 0 86.1378 11.5513 995 134.923 1188.59 453.596
1028 0 92.1891 11.9754 1104 103.338 1188.8 450.09
1029 0 92.1794 11.9441 1101 134.203 1189.8 450.066
1030 0 95.2616 11.1483 1062 107.054 1188.33 448.146
1031 0 99.2651 12.6631 1257 104.75 1189.39 445.146
1032 0 104.28 13.1665 1373 104.432 1188.33 443.906
1033 0 104.319 11.6662 1217 111.997 1188.79 439.643
1034 0 110.256 13.5775 1497 115.417 1189.07 437.306
1035 0 110.411 12.9697 1432 117.943 1188.9 435.673
1036 0 114.372 13.6047 1556 117.1 1189.4 430.084
1037 0 117.131 11.6195 1361 106.854 1188.7 436.262
1038 0 122.056 12.7155 1552 106.482 1189.09 432.396
1039 0 124.222 12.1637 1511 108.179 1189.1 433.798
1040 0 130.298 12.6402 1647 108.155 1188.05 430.557
1041 0 132.208 13.2972 1758 107.473 1188.52 427.313
1042 0 139.212 12.6785 1765 111.887 1188.44 422.843
1043 0 145.304 12.8764 1871 111.672 1188.71 420.473
1044 0 151.393 13.8844 2102 109.458 1188.74 418.632
1045 0 153.408 13.3175 2043 111.489 1188.2 415.941
1046 0 158.375 13.4554 2131 112.097 1189.34 411.81
1047 0 161.398 14.1204 2279 111.869 1189.3 407.071
1048 0 168.325 13.0937 2204 113.7 1189.63 407.079
1049 0 173.239 13.5535 2348 112.691 1188.51 406.688
1050 0 177.191 13.5617 2403 112.786 1188.37 405.581
1051 0 183.211 13.64 2499 112.514 1187.84 403.222
1052 0 186.334 12.8748 2399 115.617 1187.63 396.521
1053 0 196.247 13.4728 2644 114.666 1187.73 397.749
1054 1 144.178 11.146 1607 113.561 1188.05 425.106
1055 0 146.199 11.1902 1636 114.251 1188.02 414.154
1056 0 155.261 13.0619 2028 108.663 1187.99 416.931
1057 0 159.219 11.4245 1819 112.921 1188.58 410.673
1058 0 167.305 14.2853 2390 106.352 1188.94 410.172
1059 0 172.167 13.3533 2299 107.939 1188.81 408.976
1060 0 177.206 11.7603 2084 111.373 1189.03 406.578
1061 0 183.235 14.2713 2615 107.465 1189.01 399.82
1062 0 189.209 12.1717 2303 113.555 1188.47 396.133
1063 0 196.22 14.0913 2765 109.187 1188.58 395.544
1064 0 199.155 12.6083 2511 114.291 1188.01 391.264
1065 0 208.412 13.3102 2774 112.97 1187.98 387.531
1066 0 214.348 13.5014 2894 113.129 1188.86 388.933
1067 0 222.451 13.3288 2965 114.529 1188.5 380.915
1068 0 222.451 13.2613 2950 159.189 1188.5 380.866
1069 0 222.419 13.2498 2947 158.761 1188.5 380.843
1070 0 219.341 7.50887 1647 124.22 1189.12 389.636
1071 1 186.228 11.6416 2168 115.733 1188.91 399.94
1072 0 193.267 13.1632 2544 111.941 1188.75 393.254
1073 0 201.235 13.5762 2732 111.654 1188.23 388.462
1074 0 208.309 13.3024 2771 113.333 1188.57 383.867
1075 0 216.36 15.049 3256 109.892 1188.46 383.804
1076 0 222.35 14.0769 3130 113.99 1188.8 376.788
1077 0 231.344 14.2645 3300 113.55 1187.97 373.323
1078 0 238.269 13.9674 3328 113.99 1188.97 374.593
1079 0 247.294 13.9469 3449 113.576 1188.37 366.2
1080 0 252.311 14.2562 3597 113.808 1188.57 363.802
1081 1 274.516 22.2574 6110 96.3668 1189.15 336.548
1082 0 282.534 20.7833 5872 100.741 1188.94 336.729
1083 1 75.1081 9.4131 707 104.984 1188.79 454.013
1084 0 78.1194 11.8152 923 91.6934 1187.93 452.445
1085 0 79.0619 10.5866 837 95.8375 1190.1 456.886
1086 0 79.0836 11.9241 943 94.9321 1190.53 451.037
1087 0 84.1936 12.9463 1090 92.7816 1189.81 451.794
1088 0 85.1239 11.9355 1016 95.5167 1189.2 447.176
1089 0 90.1036 12.2193 1101 94.6748 1190.65 451.45
1090 0 92.1536 11.9257 1099 98.1328 1190.33 445.654
1091 0 97.1192 12.0985 1175 104.577 1190.89 442.301
1092 0 100.129 12.1543 1217 104.6 1190.67 443.159
1093 0 103.193 12.4039 1280 103.288 1190.79 443.715
1094 0 105.133 11.3095 1189 106.456 1190.13 442.621
1095 0 109.328 13.5921 1486 101.742 1190.44 437.599
1096 0 114.24 12.8326 1466 101.527 1190.3 438.385
1097 0 118.384 11.3107 1339 105.108 1189.52 435.728
1098 0 120.123 11.7879 1416 106.393 1190.14 433.679
1099 1 70.1734 11.8421 831 101.018 1190.15 456.381
1100 0 74.2215 11.0211 818 103.301 1189.83 454.13
1101 0 74.143 11.7071 868 102.901 1189.42 452.327
1102 0 80.2875 15.5815 1251 92.9472 1189.84 451.266
1103 0 77.2166 12.4844 964 102.15 1190.56 452.917
1104 0 80.3038 11.5437 927 104.47 1191.1 452.17
1105 0 82.2019 11.9097 979 104.434 1190.35 450.01
1106 0 86.1192 12.8078 1103 102.264 1191.11 450.243
1107 0 88.2652 12.6324 1115 103.405 1190.93 449.501
1108 0 88.0454 12.7775 1125 100.188 1189.6 450.79
1109 0 89.118 12.2871 1095 101.54 1189.61 448.829
1110 0 93.0585 13.0456 1214 99.6236 1188.76 449.757
1111 0 100.057 15.3313 1534 98.6141 1189.12 440.735
1112 0 99.3057 11.7214 1164 103.374 1189.64 444.642
1113 0 103.101 11.5324 1189 104.414 1189.12 444.764
1114 0 104.127 11.6588 1214 102.63 1188.22 436.671
1115 1 62.0873 10.7751 669 100.236 1188.62 459.091
1116 0 61.059 9.48263 579 100.035 1189.44 465.207
1117 0 66.1166 12.2511 810 95.163 1189.45 463.353
1118 0 66.0847 11.576 765 97.8889 1189.36 460.322
1119 0 68.1257 13.0934 892 96.2825 1189.2 458.859
1120 0 69.1451 11.5554 799 99.4581 1190.4 459.464
1121 0 71.2042 10.3646 738 101.477 1189.91 456.238
1122 0 73.1215 11.9801 876 97.2842 1190.38 458.016
1123 0 78.1385 12.2475 957 95.6228 1190.41 454.26
1124 0 79.1869 11.6812 925 96.1308 1190.04 453.958
1125 0 81.2007 12.7955 1039 95.5448 1190.1 450.742
1126 0 87.207 12.8545 1121 94.3461 1190.05 450.284
1127 0 90.0492 12.8152 1154 99.0607 1189.43 448.425
1128 0 91.1568 12.2317 1115 99.6108 1189.04 448.378
1129 0 94.2479 12.5202 1180 99.6797 1188.9 447.198
1130 0 97.2802 12.3766 1204 98.3646 1189 447.414
1131 0 103.353 13.4684 1392 101.139 1189.66 444.565
1132 0 103.405 12.3011 1272 104.677 1188.8 440.832
1133 0 108.274 13.7152 1485 99.2923 1189.43 439.517
1134 0 110.173 12.1082 1334 99.1469 1189.54 440.592
1135 0 114.139 11.2319 1282 101.445 1189.66 433.779
1136 0 113.092 11.1502 1261 101.526 1189.2 432.389
1137 0 119.264 11.2523 1342 101.165 1189.14 430.585
1138 0 126.223 11.963 1510 97.1603 1190.03 431.27
1139 0 132.425 13.5549 1795 94.629 1188.86 429.144
1140 0 133.193 12.2829 1636 96.7476 1188.76 422.312
1141 1 74.1568 7.67293 569 94.9666 1189.24 445.176
1142 0 76.104 8.44896 643 95.0793 1188.05 443.56
1143 0 83.2586 10.1491 845 90.3254 1189.43 448.265
1144 0 86.2506 11.1883 965 90.3036 1189.54 447.027
1145 0 88.0526 12.2086 1075 90.413 1189.1 443.207
1146 0 89.1345 9.42396 840 95.0869 1188.3 442.768
1147 0 91.1111 11.8098 1076 92.6366 1189.49 442.103
1148 0 97.1472 11.426 1110 93.5027 1188.68 441.464
1149 0 98.2534 11.2261 1103 94.3563 1188.12 441.088
1150 0 104.134 12.6376 1316 92.5585 1187.77 439.159
1151 0 107.096 13.754 1473 90.9925 1188.3 438.719
1152 0 111.129 12.58 1398 94.2818 1188.87 437.038
1153 0 113.146 11.7106 1325 96.2143 1188.63 434.666
1154 0 116.152 11.8121 1372 96.355 1188.75 432.996
1155 0 121.192 12.4514 1509 95.6574 1189.64 433.989
1156 0 123.132 12.0196 1480 96.0973 1189.01 431.965
1157 0 129.158 12.7828 1651 95.1811 1189.66 427.165
1158 1 74.0641 10.2479 759 93.2964 1189.52 456.257
1159 0 74.0641 10.1939 755 140.678 1189.53 456.238
1160 0 76.1241 12.6373 962 91.0094 1189.44 446.327
1161 0 79.1992 11.6037 919 93.5462 1189.65 445.777
1162 0 82.1404 12.1012 994 93.1298 1188.98 444.964
1163 0 85.2526 12.4923 1065 92.8582 1188.85 444.431
1164 0 87.257 11.1395 972 95.1317 1188.79 445.453
1165 0 91.2753 14.7028 1342 88.2303 1189.38 444.262
1166 0 94.1747 12.1052 1140 92.2939 1189.36 445.601
1167 0 98.2712 12.5876 1237 91.9038 1189.37 442.063
1168 0 99.2474 11.6275 1154 95.526 1189.39 438.007
1169 0 102.239 13.7814 1409 91.3194 1189.49 438.138
1170 0 105.421 12.1134 1277 95.1143 1189.35 434.807
1171 0 111.222 12.7133 1414 96.8232 1189.61 439.583
1172 0 111.343 12.5917 1402 98.1712 1189.84 435.784
1173 0 114.344 12.611 1442 98.5763 1189.16 435.761
1174 0 120.382 12.3025 1481 96.289 1189.91 438.117
1175 0 120.327 12.9397 1557 95.5999 1188.65 433.317
1176 0 123.315 13.1696 1624 94.3935 1189.01 433.352
1177 0 127.318 13.1718 1677 94.2826 1188.87 433.038
1178 0 130.375 11.1295 1451 96.9332 1188.6 435.334
1179 0 132.181 11.4918 1519 98.8433 1188.96 424.092
1180 0 138.475 13.2081 1829 95.889 1188.75 425.904
1181 0 140.28 10.8639 1524 99.9258 1187.97 423.936
1182 0 147.534 12.6683 1869 96.4976 1188.84 416.435
1183 0 151.203 13.1281 1985 95.667 1188.72 413.661
1184 0 155.371 13.6126 2115 94.6128 1189.61 412.872
1185 0 161.432 13.5227 2183 94.8823 1189.29 412.121
1186 0 164.332 13.3145 2188 96.0306 1189.38 409.79
1187 0 171.54 12.5918 2160 97.4134 1189.75 407.162
1188 0 176.435 13.376 2360 95.1962 1190.23 406.33
1189 0 180.49 13.0035 2347 96.764 1189.7 397.274
1190 0 185.521 12.6671 2350 97.2264 1189.57 398.969
1191 0 192.428 14.5353 2797 94.0079 1188.6 395.685
1192 0 200.316 15.0413 3013 92.2098 1188.97 392.14
1193 0 206.522 14.3132 2956 93.4479 1188.66 392.35
1194 0 213.618 13.0841 2795 94.8601 1188.49 389.83
1195 0 220.379 14.2119 3132 92.7551 1188.94 388.688
1196 1 50.2993 9.80134 493 78.3205 1190.32 469.462
1197 0 53.1672 10.5704 562 75.9786 1191.18 470.701
1198 0 54.0722 10.0976 546 76.37 1190.57 470.701
1199 0 54.084 10.4837 567 77.3933 1189.36 470.12
1200 0 56.1057 11.2288 630 74.5651 1189.79 465.113
1201 0 58.1925 12.1837 709 75.4796 1188.99 469.031
1202 0 62.0789 13.3701 830 73.8687 1189.53 469.043
1203 0 61.3382 11.51 706 76.0439 1190.45 465.698
1204 0 62.1363 11.6035 721 77.7656 1190.76 461.779
1205 0 67.1783 12.4892 839 76.5816 1189.68 465.012
1206 0 65.0729 10.081 656 80.8232 1189.69 465.893
1207 0 66.1597 10.1421 671 82.3383 1190.16 462.11
1208 0 71.1538 10.8216 770 81.0325 1189.19 463.239
1209 0 73.1652 10.4968 768 83.2669 1189.44 456.522
1210 0 75.0345 12.4743 936 81.4583 1190.18 458.006
1211 0 77.3224 13.0363 1008 81.6617 1189.8 458.897
1212 0 80.165 12.2373 981 82.8685 1189.73 457.366
1213 0 81.2102 11.5257 936 85.625 1189.48 456.309
1214 0 84.1821 13.1382 1106 84.1456 1189.7 453.839
1215 0 87.1568 11.9784 1044 86.4923 1189.98 451.923
1216 0 91.1011 12.5575 1144 85.8068 1189.14 448.442
1217 0 92.0953 12.2699 1130 87.5345 1189.53 443.93
1218 0 92.1566 10.71 987 91.7467 1189.72 443.662
1219 0 97.3111 10.0194 975 91.4472 1189.08 444.992
1220 0 100.117 10.8173 1083 91.8421 1189.66 443.223
1221 0 106.24 12.6694 1346 90.13 1189.7 439.291
1222 1 59.3336 11.9494 709 84.275 1189.81 467.67
1223 0 58.3066 11.834 690 86.5232 1189.74 464.487
1224 0 61.0503 13.366 816 82.1887 1190.01 465.522
1225 0 62.1919 12.7669 794 83.7695 1190.46 465.829
1226 0 63.088 11.8723 749 85.5394 1190.47 466.442
1227 0 64.1182 11.51 738 87.3645 1190.19 466.156
1228 0 67.0885 12.3717 830 87.3012 1189.72 462.492
1229 0 67.0815 11.4935 771 88.9196 1189.94 462.955
1230 0 72.1672 10.9191 788 89.5838 1189.47 462.668
1231 0 73.2141 12.2927 900 89.3256 1190.06 458.27
1232 0 75.3045 12.1374 914 90.7812 1190.47 457.258
1233 0 78.2722 13.3764 1047 90.4002 1189.81 455.634
1234 0 80.1972 14.0404 1126 90.7931 1189.96 455.002
1235 0 82.1248 12.7367 1046 93.6252 1189.97 454.429
1236 0 82.2426 11.5269 948 97.4177 1190.87 450.526
1237 0 85.388 11.7464 1003 98.2492 1190.36 454.016
1238 0 85.2043 11.4783 978 100.519 1191.2 451.027
1239 0 91.1481 13.6042 1240 97.8089 1191.02 449.559
1240 0 93.3453 13.3054 1242 98.3035 1191.49 448.7
1241 0 96.5266 14.5763 1407 97.1102 1191.15 446.014
1242 0 99.2212 13.9285 1382 98.885 1190.36 445.654
1243 0 100.253 13.2265 1326 102.149 1190.96 444.413
1244 0 104.211 13.3766 1394 100.925 1190.45 445.705
1245 0 104.211 13.3958 1396 154.189 1189.44 445.782
1246 0 111.267 13.49 1501 102.454 1190.18 441.48
1247 0 111.228 13.6476 1518 103.309 1190.15 442.411
1248 0 114.481 13.6355 1561 103.597 1190.57 438.509
1249 0 118.276 13.6207 1611 103.21 1190.29 438.948
1250 0 121.183 14.2759 1730 101.862 1190.52 437.188
1251 0 126.305 14.2354 1798 103.208 1190.14 432.41
1252 0 129.254 14.4831 1872 103.979 1190.55 429.441
1253 0 134.131 15.8128 2121 102.109 1190.26 428.117
1254 0 139.186 13.7298 1911 107.099 1189.71 426.306
1255 0 144.517 15.8251 2287 103.844 1189.7 424.475
1256 1 62.062 11.6174 721 99.2982 1190.98 467.773
1257 0 65.1774 12.3816 807 92.0421 1190.55 462.814
1258 0 68.1261 12.3594 842 92.6496 1189.8 461.54
1259 0 69.1026 12.8215 886 93.6456 1190.33 464.389
1260 0 70.0993 13.6663 958 93.7171 1188.89 461.524
1261 0 72.1345 12.1163 874 96.0503 1189.12 462.475
1262 0 75.2725 13.7766 1037 93.7117 1189.72 459.953
1263 0 79.2828 12.6761 1005 95.7343 1190.87 457.114
1264 0 79.2337 12.8859 1021 97.3898 1190.18 457.211
1265 0 81.0431 12.9684 1051 97.5014 1190.42 456.97
1266 0 83.1569 13.4685 1120 96.7688 1190.31 456.302
1267 0 86.2 13.6079 1173 98.1637 1189.51 454.848
1268 0 89.1402 13.0356 1162 104.454 1189.72 454.719
1269 0 91.0892 13.3715 1218 104.598 1189.68 451.376
1270 0 94.1878 10.787 1016 109.619 1190.02 445.882
1271 0 97.0833 12.8858 1251 100.906 1190.45 448.303
1272 0 99.0691 12.9001 1278 103.78 1190.38 447.728
1273 0 105.112 13.6996 1440 100.216 1190.16 448.451
1274 0 107.109 13.7617 1474 101.607 1190.68 445.075
1275 0 111.131 13.6776 1520 101.745 1191.02 443.762
1276 0 114.077 14.5691 1662 101.605 1190.95 440.756
1277 0 117.24 13.9713 1638 102.717 1190.6 440.813
1278 0 118.125 13.1386 1552 105.188 1191.45 437.746
1279 0 123.172 13.5096 1664 104.109 1190.69 437.5
1280 0 126.113 12.806 1615 106.533 1190.56 433.181
1281 1 70.0798 13.8984 974 98.3942 1190.67 462.166
1282 0 70.1155 12.5507 880 105.347 1189.9 461.162
1283 0 73.055 12.6343 923 106.365 1190.48 459.29
1284 0 76.1703 12.9972 990 105.686 1189.62 457.492
1285 0 76.084 12.4336 946 108.082 1190.42 457.252
1286 0 79.1221 13.0179 1030 106.923 1191.1 456.062
1287 0 82.2406 14.3238 1178 104.486 1190.77 456.706
1288 0 84.0543 13.3128 1119 107.277 1190.84 454.206
1289 0 86.1131 13.5403 1166 106.699 1190.73 452.991
1290 0 87.0686 11.7379 1022 111.234 1190.63 450.522
1291 0 92.0698 13.9677 1286 105.1 1190.47 451.096
1292 0 94.0659 13.4055 1261 105.017 1190.78 450.439
1293 0 97.134 14.5778 1416 103.488 1191.02 447.58
1294 0 101.343 13.252 1343 105.681 1191.06 446.174
1295 0 103.234 13.881 1433 104.147 1191.1 445.751
1296 0 105.151 12.2585 1289 107.115 1191.1 445.667
1297 0 109.306 15.1044 1651 102.213 1191.67 439.894
1298 0 111.146 12.947 1439 105.976 1191.75 442.092
1299 0 112.144 12.8585 1442 107.255 1191.26 437.655
1300 0 118.205 13.5782 1605 104.772 1190.98 437.11
1301 0 119.128 13.0448 1554 106.315 1190.15 436.045
1302 0 122.235 13.6622 1670 105.78 1190.89 432.184
1303 0 127.128 15.2366 1937 102.119 1190.7 432.525
1304 0 128.237 15.1048 1937 102.005 1191.06 432.516
1305 0 132.213 14.7035 1944 102.554 1191.01 429.934
1306 0 136.111 14.2311 1937 104.522 1191.68 425.327
1307 0 139.225 14.5448 2025 104.614 1191.05 420.561
1308 0 144.255 14.4813 2089 104.472 1191.26 421.686
1309 0 149.18 14.6736 2189 103.86 1192.27 417.595
1310 0 153.396 13.8465 2124 105.887 1192.13 415.611
1311 0 157.287 14.0698 2213 104.513 1190.92 414.437
1312 0 163.214 13.7733 2248 104.329 1191.28 412.36
1313 0 168.223 14.1598 2382 102.858 1191.41 411.88
1314 1 92.2995 9.7942 904 100.382 1192.44 445.155
1315 0 94.1291 11.2186 1056 94.5843 1191.35 442.261
1316 0 94.0816 10.002 941 99.2072 1191.46 434.22
1317 0 101.11 11.7496 1188 94.5337 1191.17 446.576
1318 0 105.183 11.9601 1258 94.4006 1190.88 444.686
1319 0 107.141 12.6936 1360 92.9757 1190.85 442.871
1320 0 111.117 12.3653 1374 93.9127 1190.67 439.52
1321 0 115.288 12.9849 1497 91.5284 1189.98 442.147
1322 0 115.273 11.4337 1318 95.8892 1190.04 434.772
1323 0 120.249 11.1519 1341 97.9635 1189.45 432.17
1324 0 124.173 12.9094 1603 94.9414 1190.09 431.153
1325 0 128.073 12.2509 1569 96.1848 1189.69 432.25
1326 0 134.169 12.052 1617 96.6722 1190.73 428.635
1327 0 136.233 12.1997 1662 97.0174 1189.69 424.728
1328 0 138.296 12.3576 1709 96.6928 1190.04 425.912
1329 0 144.258 12.1241 1749 96.773 1189.79 424.66
1330 0 148.313 13.1209 1946 96.7708 1189.98 419.177
1331 0 151.17 11.0868 1676 100.659 1190.47 419.621
1332 0 157.323 12.7699 2009 97.8108 1190.45 417.905
1333 0 157.209 10.8454 1705 104.189 1189.76 410.417
1334 0 163.334 11.9387 1950 101.828 1189.14 412.213
1335 0 168.35 12.4383 2094 101.697 1189.05 409
1336 0 175.33 13.5915 2383 99.2258 1189.74 406.416
1337 0 179.623 14.2465 2559 98.4662 1188.82 406.151
1338 0 181.283 11.7992 2139 105.617 1189.41 396.569
1339 0 187.264 12.4476 2331 103.632 1189.08 396.553
1340 0 193.397 13.0767 2529 102.896 1189.95 394.783
1341 0 199.323 13.6562 2722 102.468 1189.59 394.078
1342 0 204.365 14.0974 2881 101.701 1189.04 391.162
1343 0 210.256 14.1447 2974 103.028 1188.87 385.857
1344 0 216.433 15.1733 3284 101.011 1188.97 384.529
1345 0 220.524 13.6176 3003 103.797 1188.7 388.086
1346 0 229.376 14.3476 3291 102.818 1188.3 378.108
1347 0 235.446 13.7017 3226 104.127 1188.49 377.458
1348 0 243.592 13.8223 3367 104.159 1188.98 370.67
1349 0 249.502 12.553 3132 106.55 1188.75 369.012
1350 0 255.403 13.4141 3426 105.779 1188.88 360.675
1351 0 264.312 13.5484 3581 105.042 1188.61 364.059
1352 0 273.436 13.4657 3682 105.679 1187.65 355.463
1353 0 281.529 13.7037 3858 105.278 1189.2 355.67
1354 0 400.535 16.8375 6744 104.478 1188.4 282.114
1356 0 312.515 17.1032 5345 97.3544 1188.8 333.156
1357 1 253.344 12.8758 3262 105.32 1188.32 369.906
1358 0 258.415 12.7005 3282 105.685 1188.07 367.707
1359 0 267.219 13.9436 3726 103.763 1188.28 359.281
1360 0 273.311 15.1549 4142 102.245 1188.37 351.037
1361 0 280.325 13.4522 3771 105.04 1188.34 352.681
1362 0 290.393 14.3289 4161 102.95 1188.31 351.64
1363 0 298.557 14.2954 4268 103.995 1187.75 340.969
1364 0 306.437 14.9329 4576 103.436 1187.58 337.798
1365 0 323.388 22.6323 7319 88.211 1188.17 320.099
1366 0 327.543 16.7459 5485 99.6558 1188.07 324.649
1367 0 331.447 13.7729 4565 107.835 1187.9 326.224
1368 0 340.474 15.64 5325 104.283 1188.49 313.714
1369 0 353.354 15.7604 5569 103.138 1186.92 314.628
1370 0 363.561 17.2873 6285 102.132 1188.5 307.949
1371 0 375.784 19.6948 7401 97.4076 1187.41 302.357
1372 1 322.669 13.0505 4211 112.127 1188.06 335.061
1373 0 327.481 13.9825 4579 110.126 1187.64 316.357
1374 0 338.583 14.3864 4871 109.822 1188.68 319.894
1375 0 346.631 16.8912 5855 104.022 1188.12 306.043
1376 1 17.0352 3.52212 60 69.9167 1189.53 488.717
1377 0 13.0105 6.30258 82 70.3537 1188.91 483.793
1378 0 21.0247 5.08925 107 69.6355 1189.75 484.701
1379 0 24.0088 3.33211 80 73.825 1188.8 479.762
1380 0 20.0141 6.14568 123 75.8943 1189.58 484.431
1381 0 397.644 19.6633 7819 98.615 1187.22 281.186
1383 0 389.054 24.4696 9520 88.8857 1186.79 272.656
1384 0 87.2512 11.2319 980 91.6214 1187.02 449.671
1385 0 89.5838 11.6539 1044 87.977 1187.94 448.515
1386 0 93.1942 10.3762 967 92.7653 1187.71 453.06
1387 0 96.2116 11.1317 1071 91.5229 1187.86 452.34
1388 0 98.2269 11.7483 1154 91.4792 1187.08 449.983
1389 0 106.294 16.0123 1702 81.2509 1187.64 440.241
1390 0 105.244 13.7395 1446 87.4654 1188.02 442.947
1391 0 105.227 12.1452 1278 91.3263 1187.48 448.166
1392 0 113.309 15.7623 1786 83.9569 1187.47 440.49
1393 0 111.223 10.0429 1117 95.1191 1187.89 438.981
1395 0 125.338 12.3985 1554 81.4376 1187.89 429.288
1396 0 125.138 17.0531 2134 75.0628 1188.56 434.993
1397 0 125.239 15.2189 1906 86.0341 1187.53 436.41
1398 0 129.424 17.292 2238 83.5536 1187.26 426.848
1399 0 133.441 16.6141 2217 85.0018 1186.8 427.853
1400 0 137.394 16.7839 2306 83.7177 1187.06 427.468
1401 0 141.228 14.9545 2112 80.5417 1187.05 421.07
1402 0 144.539 16.3969 2370 78.2249 1187.45 419.065
1403 0 148.195 18.4891 2740 75.2372 1187.61 425.388
1404 0 150.362 14.8575 2234 82.9311 1187.35 421.696
1405 0 154.281 15.5042 2392 82.6798 1187.37 422.856
1406 0 155.316 14.6089 2269 84.346 1187.39 420.065
1407 0 160.29 17.3997 2789 80.4607 1187.34 416.26
1408 0 161.248 14.9583 2412 85.7798 1187.39 414.367
1409 0 166.437 15.3392 2553 85.521 1186.42 413.11
1410 0 170.549 15.239 2599 86.9315 1187.12 414.464
1411 0 175.375 16.1369 2830 86.1629 1187.86 408.71
1412 0 178.332 14.3664 2562 90.1905 1187.02 404.788
1413 0 184.481 15.6439 2886 90.0558 1187.34 401.682
1414 0 191.273 17.1274 3276 86.9158 1187.23 399.581
1415 0 195.463 16.5914 3243 87.1391 1187.53 393.067
1416 0 200.269 16.338 3272 86.0523 1187.68 390.335
1417 0 206.29 15.1486 3125 88.5277 1187.39 383.794
1418 0 211.329 16.7654 3543 87.5857 1187.89 385.117
1419 0 215.289 15.5373 3345 92.5193 1187.21 381.332
1420 0 222.408 14.995 3335 95.4441 1187.87 376.323
1421 0 228.257 15.9732 3646 95.695 1187.72 374.265
1422 0 236.32 18.403 4349 90.9152 1187.81 373.645
1423 0 242.33 16.1804 3921 95.8801 1187.57 362.888
1424 0 248.302 15.4369 3833 97.5539 1187.81 361.507
1425 0 254.43 15.8197 4025 95.9448 1186.95 362.921
1426 0 263.716 15.3043 4036 95.9041 1187.54 351.889
1427 0 268.736 14.5533 3911 98.2383 1186.29 350.099
1428 0 279.484 17.747 4960 91.6339 1187.41 341.556
1429 0 287.641 13.6837 3936 99.6728 1186.14 340.754
1430 0 297.629 16.3526 4867 94.4849 1186.81 338.941
1431 0 305.484 15.6637 4785 96.9164 1186.35 337.033
1432 0 314.614 16.0101 5037 97.7127 1186.74 328.315
1433 0 324.573 15.1306 4911 100.279 1187.09 322.379
1434 0 336.461 15.3391 5161 99.0215 1186.57 309.663
1435 1 45.1873 8.18814 370 73.6 1188.6 479.489
1436 0 49.2134 9.83472 484 70.5475 1188.77 477.649
1437 0 47.0465 6.84429 322 75.5807 1186.72 479.882
1438 0 47.1014 9.40525 443 72.5463 1186.95 479.521
1439 0 45.0383 10.5244 474 71.7722 1186.43 479.397
1440 0 49.0462 10.8877 534 71.5112 1186.63 478.584
1441 0 52.0598 8.33656 434 73.7972 1186.02 480.067
1442 0 55.0388 9.62957 530 73.9264 1186.95 477.898
1443 0 55.0896 8.53155 470 78.0362 1186.22 473.974
1444 0 54.2208 7.32191 397 81.1259 1186.78 478.368
1445 0 56.3074 8.0984 456 80.682 1186.68 474.945
1446 0 54.3126 7.78825 423 80.5556 1186.52 474.676
1447 0 58.2573 7.03775 410 81.6634 1188.4 477.115
1448 0 50.2826 9.64548 485 79.6763 1186.93 475.15
1449 0 131.428 11.2076 1473 93.5988 1186.41 429.612
1450 0 136.415 11.7289 1600 92.6856 1186.61 428.159
1451 0 139.382 9.7932 1365 96.6168 1186.14 431.222
