time division length width area intensity CMx CMy
0 0 49.0423 11.0721 543 115.893 962.195 427.258
1 0 52.0742 11.138 580 114.797 962.21 428.971
2 0 54.0842 11.704 633 113.724 961.471 428.673
3 0 54.0842 11.6855 632 130.223 960.475 428.712
4 0 54.0392 11.6952 632 117.517 961.843 425.033
5 0 58.1256 11.2515 654 116.518 960.656 427.228
6 0 60.0811 11.6509 700 116.894 962.039 424.689
7 0 62.1096 10.3849 645 118.746 962.876 425.295
8 0 65.0849 11.631 757 116.861 962.161 422.069
9 0 65.0761 11.5403 751 139.289 960.192 421.939
10 0 66.2231 12.0351 797 116.386 962.701 422.799
11 0 71.1034 12.6998 903 114.874 963.733 418.969
12 0 73.1124 12.6381 924 114.747 965.145 419.338
13 0 75.2171 11.7659 885 117.131 964.774 417.789
14 0 76.216 13.8685 1057 113.653 965.249 413.653
15 0 79.1203 11.9944 949 117.698 964.592 416.647
16 0 84.1655 13.224 1113 114.262 964.301 414.703
17 0 84.1162 13.2198 1112 116.35 964.084 410.328
18 0 88.0875 14.6445 1290 115.267 964.02 412.396
19 0 90.1766 12.0209 1084 122.327 963.896 410.244
20 0 95.1077 13.4689 1281 118.302 963.919 408.39
21 1 52.0571 11.0072 573 115.75 963.557 429.815
22 0 54.0889 12.35 668 113.663 963.662 429.981
23 0 55.0621 12.2226 673 114.685 962.707 429.979
24 0 55.0621 12.1681 670 139.157 961.715 430.166
25 0 59.1422 13.1886 780 115.414 963.673 427.105
26 0 60.1425 13.3017 800 116.292 963.216 423.73
27 0 61.1099 12.4366 760 118.696 963.105 424.038
28 0 64.0883 12.9197 828 116.612 963.669 423.563
29 0 65.1094 12.5481 817 119.14 963.406 421.479
30 0 69.061 13.1623 909 118.277 963.735 421.462
31 0 72.0639 14.612 1053 113.558 963.56 420.49
32 0 74.0288 13.7649 1019 114.357 963.169 418.939
33 0 75.039 12.82 962 116.911 963.734 416.555
34 0 77.0337 12.8905 993 117.849 963.451 415.492
35 0 83.0381 13.8491 1150 113.211 963.616 414.33
36 0 85.15 13.6582 1163 114.377 963.547 411.972
37 0 88.1084 14.0395 1237 113.599 964.071 410.547
38 0 89.1213 12.7355 1135 116.426 963.865 411.409
39 0 92.1199 14.0035 1290 114.728 963.977 406.786
40 0 93.1733 13.7378 1280 114.38 963.741 406.632
41 0 97.1387 12.2917 1194 111.467 964.651 408.293
42 0 99.3071 12.8188 1273 109.553 964.383 405.226
43 0 101.299 12.3002 1246 112.089 964.161 402.889
44 0 107.236 14.6312 1569 108.33 964.655 400.645
45 1 59.0956 12.7421 753 111.142 964.028 423.967
46 0 61.0991 12.046 736 111.44 963.87 423.265
47 0 63.1514 13.2539 837 107.165 963.863 419.974
48 0 66.1796 11.9825 793 108.58 963.908 422.682
49 0 68.103 13.0538 889 107.94 963.979 419.496
50 0 70.1348 12.2193 857 110.847 963.627 417.564
51 0 72.2032 13.282 959 107.887 963.913 416.223
52 0 75.1417 13.1219 986 107.682 963.336 416.467
53 0 77.2153 13.0544 1008 108.383 964.432 413.986
54 0 79.0858 14.0101 1108 107.028 963.974 414.616
55 0 80.1485 12.3645 991 111.15 963.789 410.101
56 0 84.073 13.072 1099 108.622 963.696 411.692
57 0 86.1489 12.8963 1111 109.559 963.682 411.336
58 0 90.1334 12.4815 1125 109.871 963.556 406.024
60 0 93.1321 13.7332 1279 107.535 963.019 407.29
61 0 98.1141 14.4729 1420 110.17 962.787 403.899
62 0 102.248 14.8267 1516 108.206 963.408 406.14
63 0 105.147 13.9423 1466 110.074 963.81 404.22
64 0 107.085 12.4293 1331 111.73 963.236 403.887
65 0 113.086 13.954 1578 106.707 964.244 398.305
66 1 64.0962 13.7918 884 103.322 964.346 423.997
67 0 65.041 13.2993 865 105.555 964.416 422.52
68 0 67.1757 12.1026 813 107.325 965.014 422.938
69 0 70.1472 13.9991 982 103.851 964.345 419.968
70 0 73.0911 13.7363 1004 104.395 964.86 420.106
71 0 75.1236 14.1633 1064 103.11 964.876 419.196
72 0 78.1498 14.7281 1151 102.289 963.875 418.405
73 0 80.2482 14.6047 1172 102.837 964.14 415.81
74 0 85.1162 15.6962 1336 99.9596 964.496 414.698
75 0 86.1645 12.9288 1114 108.158 964.012 415.101
76 0 91.0785 14.8883 1356 104.719 963.977 412.209
77 0 91.1426 14.7132 1341 107.13 964.23 412.183
78 0 96.196 15.0422 1447 105.617 963.616 411.06
79 0 99.2159 16.3784 1625 102.785 964.282 408.122
80 0 102.224 15.4954 1584 105.473 963.47 404.967
81 0 105.256 14.289 1504 108.349 963.749 405.83
82 0 108.26 14.3635 1555 109.821 963.689 403.949
83 0 113.252 15.5494 1761 106.779 963.881 402.977
84 0 117.232 15.3712 1802 107.755 963.784 399.308
85 1 66.1666 12.4383 823 110.598 964.226 426.236
86 0 66.0668 12.7598 843 100.441 963.464 423.084
87 0 69.0823 12.8832 890 98.9742 963.919 422.888
88 0 70.0553 11.6765 818 101.945 963.709 422.028
89 0 72.0582 12.6564 912 101.612 963.719 420.934
90 0 76.1323 12.6884 966 102.307 963.523 419.967
91 0 77.0946 12.2317 943 103.566 963.394 419.024
92 0 80.1545 13.1496 1054 102.903 964.002 417.601
93 0 84.0786 13.2138 1111 103.187 963.217 416.783
94 0 85.1897 12.5602 1070 108.414 963.358 410.524
95 0 89.1006 12.4803 1112 108.728 963.647 413.36
96 0 93.134 13.1531 1225 106.472 962.221 413.823
97 0 93.2624 11.5266 1075 113.076 963.085 409.978
98 0 97.1066 12.9754 1260 110.108 963.03 407.798
99 0 101.091 12.3058 1244 105.622 963.439 405.275
100 1 51.0475 10.5784 540 93.0148 963.761 433.296
101 0 55.0879 12.0898 666 87.6396 963.641 431.509
102 0 55.139 12.2962 678 88.7979 963.202 429.389
103 0 57.0961 10.4736 598 91.5719 963.528 430.381
104 0 58.0302 12.2005 708 91.233 963.271 428.367
105 0 61.0525 11.269 688 92.484 963.221 428.288
106 0 63.0555 11.926 752 92.0266 963.061 426.225
107 0 67.2471 12.863 865 91.2994 963.625 425.047
108 0 68.0748 12.075 822 93.9173 963.838 425.265
109 0 71.2629 12.924 921 93.5396 963.108 421.319
110 0 75.1268 12.8716 967 93.4819 962.754 422.913
111 0 77.2993 13.1049 1013 95.382 963.112 419.94
112 0 79.1194 13.5239 1070 96.6626 962.607 419.087
113 0 80.1261 11.6941 937 100.512 962.525 418.692
114 0 85.1525 12.507 1065 100.454 962.786 417.146
115 0 87.138 13.6221 1187 101.831 963.398 414.457
116 0 91.1832 12.7107 1159 103.484 962.802 415.963
117 0 92.1461 11.8399 1091 108.135 962.281 412.49
118 1 47.1012 11.8468 558 102.654 962.817 436.873
119 0 48.0558 11.882 571 104.436 962.891 432.611
120 0 52.1347 11.6046 605 105.549 962.114 433.869
121 0 53.0441 11.7072 621 104.758 962.672 434.097
122 0 55.0708 11.349 625 105.923 962.651 433.12
123 0 58.1219 12.0437 700 104.156 962.636 431.26
124 0 61.2811 12.8098 785 101.58 962.461 429.106
125 0 63.0814 13.0308 822 101.409 961.63 428.574
126 0 66.1284 11.9616 791 102.636 962.799 428.445
127 0 68.1534 12.9854 885 101.314 962.47 425.081
128 0 71.2787 13.1596 938 99.6151 962.731 425.838
129 0 73.0887 13.1211 959 100.661 962.645 423.545
130 0 75.1454 12.4825 938 103.06 962.368 421.074
131 0 78.1907 12.9299 1011 100.552 962.356 422.496
132 0 81.1531 12.384 1005 101.592 963.287 420.249
133 0 83.1723 12.2998 1023 101.834 962.613 419.486
134 0 87.392 12.7472 1114 97.5584 963.184 416.429
135 0 89.0874 11.6964 1042 102.099 962.723 416.479
136 1 49.0746 12.7765 627 99.0351 963.309 433.278
137 0 51.2472 11.9226 611 99.3486 963.164 430.013
138 0 52.1609 12.2889 641 99.8986 963.075 430.289
139 0 54.0878 14.1437 765 93.7765 962.66 428.188
140 0 56.036 14.1516 793 94.8562 962.542 429.996
141 0 59.0915 12.9629 766 104.443 963.238 430.924
142 0 58.1855 12.4945 727 105.779 962.168 430.784
143 0 61.1045 13.4524 822 103.933 962.181 428.798
144 0 61.1983 11.4709 702 108.832 961.934 427.957
145 0 61.1668 13.079 800 103.344 962.196 426.982
146 0 67.1296 12.8855 865 98.9283 962.075 426.793
147 0 68.0499 13.0199 886 98.3996 961.585 424.491
148 0 72.2358 13.4144 969 96.4912 961.335 422.948
149 0 72.0692 12.8488 926 97.554 961.694 425.432
150 0 74.0948 13.3478 989 97.641 962.476 421.285
151 0 78.1429 13.872 1084 95.8026 962.458 421.933
152 0 80.126 12.8048 1026 98.5214 961.652 420.95
153 0 83.1184 12.3318 1025 98.9356 962.166 421.227
154 0 87.1381 13.7368 1197 97.0635 962.517 418.551
155 0 87.0874 12.298 1071 100.796 962.578 419.828
156 1 47.0907 13.8031 650 99.8215 962.689 435.618
157 0 49.079 13.733 674 99.9466 963.267 434.866
158 0 51.1062 14.3622 734 98.6308 963.379 434.752
159 0 52.1344 14.079 734 99.7207 962.489 433.772
160 0 54.2184 14.2387 772 99.6632 962.295 433.481
161 0 56.0355 14.4551 810 99.7025 962.088 431.963
162 0 57.0654 14.0015 799 100.736 962.278 432.188
163 0 57.0307 13.9925 798 102.62 962.917 431.179
164 0 61.1345 14.3291 876 101.409 962.006 431.139
165 0 63.355 14.3004 906 101.884 961.79 429.93
166 0 65.2177 13.2479 864 104.348 961.741 429.272
167 0 66.1599 14.2382 942 104.004 961.537 428.566
168 0 68.1574 15.919 1085 100.644 961.929 429.347
169 0 70.1973 14.2171 998 104.761 962.15 427.725
170 0 74.3452 15.3339 1140 102.424 961.418 424.73
171 0 77.1111 15.6916 1210 101.767 962.161 425.621
172 0 80.0913 15.4948 1241 102.691 962.501 420.948
173 0 82.1466 16.0567 1319 101.795 962.7 420.28
174 0 84.0441 14.1949 1193 106.655 962.366 421.646
175 0 87.1325 16.6184 1448 101.337 961.914 418.738
176 1 44.0732 12.3885 546 116.916 961.396 439.636
177 0 44.0257 14.1508 623 113.215 962.112 439.99
178 0 46.0296 14.0127 645 114.14 962.158 437.848
179 0 47.0696 14.5317 684 114.124 962.706 437.545
180 0 48.0257 14.9087 716 113.62 963.088 436.585
181 0 49.1145 14.7818 726 115.515 962.895 436.401
182 0 53.1222 14.5702 774 114.12 963.021 437.032
183 0 54.1051 15.6547 847 111.323 962.844 435.646
184 0 58.1051 16.3841 952 107.947 963.186 435.986
185 0 57.0498 14.6539 836 114.19 962.785 433.53
186 0 60.0755 15.6969 943 112.549 962.609 431.739
187 0 62.0808 15.5604 966 111.751 963.762 430.464
188 0 65.0912 16.8533 1097 108.229 963.662 429.262
189 0 67.097 14.412 967 113.77 962.589 429.348
190 0 67.2035 14.3743 966 116.461 963.197 427.207
191 0 70.1646 14.7795 1037 115.031 962.775 424.932
192 0 71.0956 15.8941 1130 114.63 962.72 423.75
193 0 72.0764 14.8315 1069 118.147 962.551 422.214
194 0 76.2457 14.4139 1099 117.757 962.94 423.784
195 0 76.0973 14.4026 1096 118.794 962.105 421.124
196 0 81.1596 15.143 1229 115.991 962.229 419.158
197 0 83.1691 15.1979 1264 116.459 961.605 417.257
198 0 87.1497 16.0069 1395 114.052 962.555 417.594
199 0 90.1337 15.6212 1408 115.901 961.676 414.09
200 0 93.0532 15.8297 1473 115.068 961.633 413.202
201 0 96.0731 14.9157 1433 118.174 961.937 411.978
202 0 100.068 15.7692 1578 116.465 961.913 408.492
203 0 103.103 15.2372 1571 118.19 961.717 408.631
204 0 110.151 16.7497 1845 114.969 961.33 405.878
205 1 55.1152 11.7209 646 120.009 962.218 430.342
206 0 55.0758 13.0184 717 120.972 960.665 427.602
207 0 59.1207 12.5506 742 121.571 961.43 427.34
208 0 61.1377 12.6599 774 121.093 961.641 425.668
209 0 63.1116 13.1038 827 119.969 961.549 425.77
210 0 65.16 13.7201 894 119.522 962.179 423.518
211 0 67.1384 12.8987 866 122.707 961.642 422.038
212 0 70.1148 14.3051 1003 117.938 962.184 422.956
213 0 71.1297 13.0888 931 123.487 962.39 419.504
214 0 72.2031 14.3207 1034 120.756 962.812 418.998
215 0 74.1251 14.7588 1094 120.198 963.441 419.231
216 0 77.1031 14.0202 1081 123.446 963.068 417.636
217 0 78.1726 13.7004 1071 125.519 963.113 413.451
218 0 84.1584 14.1162 1188 121.996 962 414.543
219 0 81.0948 13.0835 1061 128.254 962.455 410.489
220 0 88.179 13.4839 1189 124.804 962.635 410.177
221 0 91.1568 13.7455 1253 123.785 962.735 407.788
222 0 93.1439 12.8189 1194 127.168 963.282 403.966
223 0 96.0417 13.6711 1313 125.056 963.037 401.106
224 0 102.2 13.6888 1399 122.911 961.496 402.84
225 0 108.074 13.9904 1512 121.079 961.3 400.137
226 1 57.1127 9.78766 559 112.968 962.733 425.454
227 0 60.0821 11.0349 663 110.882 962.359 424.202
228 0 61.0857 10.0187 612 112.763 961.846 420.951
229 0 59.1151 11.0124 651 112.822 962.154 418.47
230 0 65.0617 12.4497 810 107.995 962.46 418.246
231 0 66.1178 9.6192 636 114.849 962.209 417.879
232 0 71.1014 11.0406 785 111.057 963.247 417.355
233 0 71.1014 11.7438 835 110.486 962.844 415.263
234 0 74.131 10.9401 811 113.244 962.324 411.534
235 0 78.1034 11.408 891 111.996 962.46 411.448
236 0 80.0341 12.0074 961 110.836 961.966 412.232
237 0 78.089 11.9607 934 113.452 962.724 408.165
238 0 83.0723 10.8941 905 114.502 962.887 407.82
239 0 87.0688 12.4269 1082 111.542 962.892 404.782
240 0 89.0758 11.6418 1037 113.255 962.167 401.4
241 0 90.1702 11.0901 1000 115.023 961.793 400.898
242 0 98.0951 11.7845 1156 110.683 961.149 402.156
243 0 98.1414 12.0235 1180 112.343 961.761 396.064
244 0 105.153 12.3725 1301 110.55 962.115 394.476
245 0 107.139 11.5271 1235 113.252 962.594 391.189
246 1 55.1915 8.04472 444 104.191 961.597 420.122
247 0 59.0195 10.0475 593 100.514 962.285 418.911
248 0 60.1465 8.94483 538 101.985 962.485 419.452
249 0 65.1795 9.66561 630 98.5365 963.432 418.57
250 0 62.2524 7.71055 480 104.492 962.848 413.877
251 0 61.1739 6.11372 374 107.404 963.398 408.762
252 0 72.2221 7.67078 554 98.3177 962.343 415.836
253 0 73.0837 10.5085 768 96.8359 961.495 411.254
254 0 76.1498 9.79648 746 99.9987 962.101 405.228
255 0 82.2459 10.8334 891 98.4164 961.732 408.506
256 0 80.099 10.8116 866 98.7991 961.423 407.363
257 0 83.3407 9.33517 778 103.515 960.341 399.368
258 0 92.1083 10.2705 946 100.572 961.113 402.474
259 0 94.3937 10.6787 1008 99.7946 961.942 404.689
260 1 46.0161 8.51876 392 94.3801 960.14 423.166
261 0 50.0545 8.11116 406 95.8695 959.729 421.904
262 0 51.166 8.46264 433 96.3326 962.804 421.845
263 0 51.0661 8.28339 423 97.5225 964.17 421.442
264 0 56.117 8.64266 485 96.1959 963.326 422.565
265 0 58.1794 7.49406 436 98.7316 963.193 423.362
266 0 56.0404 8.15483 457 99.8052 963.729 419.512
267 0 62.174 9.2965 578 96.8668 962.562 422.403
268 0 66.1107 12.0253 795 91.7924 963.404 416.19
269 0 71.2126 10.8408 772 95.307 963.557 416.224
270 0 69.145 9.70424 671 100.93 963.39 416.113
271 1 137.552 10.2434 1409 108.065 962.67 386.559
272 1 74.1716 10.5971 786 101.135 962.86 417.565
273 0 75.1576 10.2718 772 103.38 962.553 416.368
274 0 81.1443 11.7445 953 100.709 962.587 413.904
275 0 83.1774 12.3711 1029 100.662 962.255 415.971
276 0 84.0808 11.9766 1007 102.782 962.934 412.023
277 0 88.0965 11.896 1048 104.398 963.429 411.914
278 0 91.1443 10.9058 994 107.414 963.343 411.04
279 0 94.2021 13.28 1251 102.743 962.759 407.098
280 1 49.133 8.64999 425 98.2141 962.447 433.722
281 0 51.0811 8.2418 421 97.8955 963.382 430.689
282 0 51.1241 10.3474 529 98.8922 962.945 429.93
283 0 55.0977 10.4904 578 98.5346 961.806 430.914
284 0 57.038 10.8349 618 99.8139 962.625 429.751
285 0 58.0983 11.1191 646 101.087 961.354 430.265
286 0 59.0785 10.8161 639 102.408 962.651 427.491
287 0 61.0555 10.6952 653 102.596 962.565 429.002
288 0 61.1191 11.224 686 103.278 962.326 425.442
289 0 61.1455 10.3851 635 105.923 962.965 425.128
290 0 65.1526 11.1277 725 103.126 962.426 425.996
291 0 67.1595 10.8696 730 104.095 963.26 423.497
292 0 68.1553 11.2977 770 103.869 962.916 421.383
293 0 71.1503 10.78 767 102.313 962.701 424.705
294 0 72.1186 12.0219 867 102.138 961.337 423.641
295 0 75.0895 11.9058 894 103.37 962.782 421.469
296 0 76.2074 11.4162 870 104.223 962.054 417.721
297 0 81.1878 11.5904 941 101.724 963.072 418.305
298 0 82.1703 10.9894 903 105.083 962.738 415.138
299 1 42.1551 9.41761 397 92.8262 963.07 435.914
300 0 43.0848 10.4909 452 92.323 962.845 435.022
301 0 43.0713 9.44945 407 92.4717 962.889 435.108
302 0 45.0099 10.8421 488 90.4201 962.562 434.383
303 0 46.0419 11.0769 510 90.0333 962.435 434.974
304 0 47.1091 10.6986 504 92.6091 962.806 433.591
305 0 47.0601 9.79599 461 95.2299 963.174 432.388
306 0 48.0705 10.2558 493 95.5619 962.978 432.191
307 0 52.0749 11.9443 622 97.7154 963.04 433.212
308 0 52.1075 10.9197 569 99.3849 961.949 431.726
309 0 53.0143 10.3368 548 102.004 962.494 431.071
310 0 55.0649 10.5875 583 103.605 963.192 429.444
311 0 53.0461 9.53888 506 108.607 963.348 429.781
312 0 59.0366 11.3997 673 103.288 963.18 429.163
313 0 59.0298 10.842 640 104.089 962.992 429.788
314 0 62.0366 11.2514 698 103.182 962.562 428.926
315 0 60.0687 9.90533 595 108.676 963.321 426.812
316 0 63.1277 10.1699 642 107.522 962.101 426.995
317 0 64.0957 11.4828 736 105.731 962.849 425.155
318 0 69.1654 12.2315 846 103.901 962.5 425.658
319 0 69.1506 11.9449 826 106.09 963.272 424.975
320 0 70.2218 11.5776 813 108.208 963.609 420.942
321 0 74.1587 13.1205 973 104.293 962.467 419.639
322 0 75.1893 12.5949 947 105.711 961.947 419.177
323 0 76.1877 11.7998 899 107.923 963.052 420.529
324 0 79.169 12.9344 1024 106.668 962.976 417.63
325 0 83.1473 11.9787 996 109.903 963.052 417.398
326 0 86.0763 12.7213 1095 109.044 963.803 415.962
327 0 89.142 12.8671 1147 111.042 963.122 415.194
328 0 90.137 12.8804 1161 111.386 963.439 412.718
329 0 91.246 12.143 1108 112.264 963.685 412.256
330 0 95.1516 13.4207 1277 109.637 963.773 412.583
331 0 98.2305 14.5983 1434 105.953 964.103 409.529
332 1 53.0763 11.832 628 98.9697 963.382 434.245
333 0 56.0849 11.6787 655 109.551 962.714 432.785
334 0 58.0939 13.2544 770 103.817 963.101 430.512
335 0 58.2507 14.2831 832 102.696 963.23 428.496
336 0 61.186 12.5846 770 105.879 963.217 428.839
337 0 62.2652 11.6919 728 107.86 963.613 427.967
338 0 63.2514 12.2843 777 107.234 963.348 427.472
339 0 66.187 13.5374 896 104.272 963.402 424.507
340 0 65.1159 11.5486 752 108.789 962.664 425.258
341 0 70.1535 12.5582 881 106.159 962.702 423.62
342 0 72.2432 12.6379 913 105.692 962.137 423.279
343 0 74.1753 12.9558 961 106.362 963.541 421.795
344 0 77.1587 11.9235 920 108.099 963.058 420.785
345 0 81.1141 14.1159 1145 103.315 963.165 419.393
346 0 82.228 12.3194 1013 107.804 962.437 417.692
347 0 83.1608 13.504 1123 108.331 963.263 415.297
348 0 89.2489 12.4707 1113 108.284 963.025 414.303
349 0 91.329 14.2671 1303 105.643 962.641 412.117
350 0 91.3089 14.2483 1301 136.096 962.656 412.035
351 0 94.1921 11.0094 1037 106.144 962.748 409.752
352 1 48.0403 10.4079 500 99.854 963.012 433.822
353 0 51.0989 12.6813 648 100.289 964.069 433.65
354 0 51.0646 11.6715 596 106.768 963.601 433.374
355 0 53.048 12.0834 641 105.863 963.011 433.705
356 0 54.0522 11.3409 613 109.737 964.015 431.396
357 0 55.0378 11.5375 635 109.194 963.433 429.216
358 0 60.025 13.1279 788 104.534 964.039 427.174
359 0 61.036 12.0912 738 105.822 963.645 428.504
360 0 64.0578 11.6145 744 105.681 963.051 427.821
361 0 67.0546 12.7657 856 104.266 963.141 426.328
362 0 68.0473 11.9182 811 107.967 962.874 423.887
363 0 70.1215 12.4641 874 107.232 962.865 423.661
364 0 73.0623 13.9744 1021 105.422 962.826 420.969
365 0 77.07 13.1958 1017 105.736 962.707 421.504
366 0 79.0631 12.1296 959 103.278 962.339 420.174
367 0 80.0974 11.873 951 103.749 962.618 419.675
368 0 85.0643 13.8954 1182 100.696 961.051 416.431
369 0 87.1675 12.1031 1055 104.607 963.018 415.749
370 1 43.1376 9.2263 398 107.623 963.249 435.91
371 0 44.0612 9.71376 428 108.138 963.299 435.909
372 0 49.0272 12.0749 592 100.037 962.177 435.772
373 0 51.0843 11.3929 582 97.5584 962.122 431.716
374 0 52.0972 10.0005 521 101.081 961.745 432.14
375 0 55.0925 9.80169 540 101.554 961.841 431.289
376 0 55.1013 10.8164 596 100.94 961.774 428.888
377 0 57.2072 11.2398 643 100.078 961.563 428.345
378 0 59.1539 11.58 685 99.0496 962.272 428.704
379 0 61.1697 10.4137 637 102.108 962.055 426.049
380 0 63.2433 10.1829 644 100.871 961.773 428.011
381 0 63.4055 10.1568 644 102.214 961.616 425.896
382 0 66.1869 9.76023 646 101.279 962.115 423.986
383 0 67.0456 10.2169 685 101.876 962.86 422.943
384 0 73.145 11.1969 819 99.1709 962.221 420.713
385 0 75.2345 11.9493 899 98.7742 962.37 419.337
386 0 79.0774 10.8881 861 100.841 962.47 416.516
387 1 38.1074 10.0243 382 98.3063 961.113 438.031
388 0 41.1443 10.1594 418 98.6077 961.189 439.849
389 0 42.2046 10.8756 459 97.4619 961.187 439.318
390 0 43.2311 11.1262 481 97.1476 961.154 438.455
391 0 43.0583 10.0097 431 90.3504 962.557 436.459
392 0 44.0244 10.2898 453 90.3488 962.726 436.976
393 0 45.1005 10.1551 458 90.8319 962.491 435.483
394 0 47.0331 9.29132 437 92.2609 962.231 434.023
395 0 49.04 10.4404 512 90.3652 961.623 435.324
396 0 46.0612 8.40187 387 95.3721 962.07 432.904
397 0 51.0194 10.6234 542 91.6181 961.817 432.29
398 0 53.0135 10.3936 551 94.637 962.016 433.958
399 0 54.0396 11.251 608 93.7763 961.77 433.377
400 0 55.0667 9.82444 541 97.7116 962.464 431.893
401 0 57.0644 12.0566 688 94.1875 961.885 429.807
402 0 57.0353 12.1328 692 95.5694 961.89 428.883
403 0 57.0077 11.4546 653 98.2512 961.862 430.47
404 0 60.0474 11.1912 672 100.214 961.734 428.356
405 0 61.0677 10.1854 622 102.551 962.121 431.574
406 0 62.0829 10.8403 673 105.016 961.453 426.53
407 0 63.1104 13.4209 847 71.4109 961.902 430.632
408 0 69.1115 12.3858 856 99.4194 962.91 425.97
409 0 68.0413 11.5224 784 102.605 961.497 427.255
410 0 71.1174 10.9959 782 103.716 962.316 428.09
411 0 73.0751 11.3034 826 106.163 961.846 424.034
412 0 76.1196 12.2045 929 104.482 961.69 422.872
413 0 78.1387 12.6314 987 104.094 961.94 423.364
414 0 81.0699 10.6821 866 107.281 962.258 423.127
415 0 81.0608 11.2631 913 107.913 962.4 419.911
416 0 87.1056 12.7431 1110 105.269 962.333 417.65
417 0 89.0828 11.2592 1003 108.567 961.139 416.655
418 0 91.0518 12.3007 1120 106.001 961.586 414.079
419 0 96.1606 11.0856 1066 106.862 961.054 411.994
420 1 52.2285 10.9136 570 104.318 961.29 433.961
421 0 55.1154 11.2128 618 105.751 961.555 434.409
422 0 58.0271 12.0461 699 106.152 962.805 432.83
423 0 61.0676 12.5435 766 104.587 962.244 431.497
424 0 63.0761 11.3197 714 107.546 961.788 431.23
425 0 62.0695 11.3099 702 108.637 961.503 429.875
426 0 65.0392 12.0543 784 107.939 961.251 427.879
427 0 66.1092 11.723 775 108.981 961.44 428.391
428 0 68.0319 11.5387 785 109.623 962.299 427.404
429 0 72.1773 13.7162 990 104.13 961.641 426.457
430 0 74.0721 12.7983 948 107.293 962.217 426.435
431 0 75.0884 12.4387 934 109.247 961.774 424.504
432 0 78.1671 13.4967 1055 108.028 962.271 422.19
433 0 79.144 13.5828 1075 109.249 962.312 421.269
434 0 81.0745 12.6427 1025 111.916 961.054 420.414
435 0 85.1359 13.59 1157 109.529 961.468 419.635
436 0 88.1228 13.3223 1174 111.655 961.68 418.049
437 0 89.2623 13.085 1168 113.343 962.281 415.82
438 0 91.2956 13.7466 1255 112.598 961.897 414.724
439 0 97.1334 14.4029 1399 110.879 961.337 413.626
440 0 98.1997 13.778 1353 113.707 961.744 409.773
441 0 101.164 13.8389 1400 114.276 961.406 410.126
442 1 54.1815 11.7199 635 113.028 962.091 434.946
443 0 55.0989 11.7788 649 114.325 962.27 432.761
444 0 58.0595 12.5216 727 110.713 962.42 432.362
445 0 58.0372 12.8883 748 112.184 962.218 430.275
446 0 61.0403 12.0576 736 113.997 961.697 430.198
447 0 63.046 13.054 823 112.216 962.525 430.084
448 0 64.0297 13.4625 862 112.22 962.523 427.962
449 0 66.079 13.3931 885 111.783 961.924 429.256
450 0 70.0786 13.2851 931 112.911 962.441 426.708
451 0 71.043 12.978 922 113.742 962.06 425.477
452 0 72.1355 11.7834 850 115.981 961.968 424.461
453 0 75.0969 12.3973 931 113.919 962.342 423.845
454 0 78.1039 13.9046 1086 109.759 962.801 421.319
455 0 82.0767 13.2315 1086 110.519 961.855 420.658
456 0 83.0705 13.639 1133 105.54 962.098 419.892
457 0 85.111 12.6658 1078 108.514 961.808 419.135
458 0 89.1404 12.7776 1139 107.723 961.471 417.453
459 1 46.0555 10.4439 481 110.696 961.324 437.59
460 0 48.0564 11.0703 532 107.509 961.581 438.536
461 0 48.084 11.0848 533 109.612 961.818 436.522
462 0 52.0573 12.1597 633 105.227 961.722 435.542
463 0 52.0714 12.0604 628 106.331 961.76 435.253
464 0 55.0352 12.4466 685 106.137 961.88 433.825
465 0 55.0794 11.8193 651 109.278 961.104 432.922
466 0 59.0582 12.8179 757 106.567 961.185 431.659
467 0 59.0666 10.9368 646 112.661 961.048 428.885
468 0 61.0765 12.0177 734 111.478 961.29 428.999
469 0 63.1006 11.9492 754 111.521 962.32 425.218
470 0 67.1018 13.2187 887 108.033 961.29 424.963
471 0 68.1703 12.1754 830 110.807 962.642 425.352
472 0 72.1142 12.4247 896 109.057 962.025 424.311
473 0 75.077 12.4406 934 110.13 962.858 421.145
474 0 80.1728 12.9346 1037 108.997 961.898 419.712
475 0 82.153 13.0488 1072 110.221 962.697 419.317
476 0 85.0893 13.3389 1135 110.526 961.939 415.705
477 0 87.2453 12.058 1052 115.319 963.639 417.079
478 0 92.1039 13.3545 1230 114.49 963.085 414.507
479 1 47.1817 12.2293 577 109.626 963.161 436.704
480 0 48.0676 11.1926 538 111.374 963.385 436.405
481 0 49.041 10.5218 516 111.771 963.76 437.401
482 0 51.0983 12.0552 616 110.125 963.701 431.849
483 0 54.0582 12.6345 683 108.195 962.589 434.023
484 0 53.0249 12.2395 649 110.476 962.314 432.202
485 0 56.065 11.7721 660 110.191 962.426 433.724
486 0 58.0615 13.0551 758 108.219 961.599 429.871
487 0 63.1056 13.9132 878 104.432 962.789 431.062
488 0 64.1134 13.0706 838 105.458 962.94 430.144
489 0 66.1364 14.3491 949 101.79 962.054 430.758
490 0 69.178 13.3424 923 104.696 961.256 427.767
491 0 67.0715 12.5538 842 109.1 961.416 426.705
492 0 71.1127 12.5857 895 108.26 962.143 427.979
493 0 72.058 12.8785 928 108.422 961.475 424.936
494 0 76.1402 14.0924 1073 105.553 961.026 423.831
495 0 79.0596 14.7484 1166 103.528 961.542 422.171
496 0 81.0596 13.5086 1095 107.289 961.863 421.298
497 0 84.1468 13.7022 1153 106.796 962.212 419.758
498 0 87.1151 14.257 1242 104.608 961.921 418.318
499 0 88.163 12.7378 1123 108.752 961.665 419.051
500 0 93.2016 13.5835 1266 108.298 961.992 416.173
501 1 49.0476 10.5 515 102.501 961.351 439.588
502 0 52.0766 12.8657 670 101.264 962.081 435.176
503 0 52.2106 13.005 679 100.333 962.227 434.654
504 0 53.0497 12.7993 679 101.42 962.082 432.608
505 0 53.1077 12.2958 653 102.908 961.45 434.449
506 0 55.0953 13.3042 733 99.689 962.041 433.486
507 0 57.1073 12.6954 725 101.113 961.825 431.655
508 0 58.0692 12.6573 735 101.144 961.263 430.839
509 0 60.0561 12.2219 734 102.571 961.674 430.242
510 0 63.1243 14.0041 884 98.6787 961.465 430.629
511 0 64.0758 13.0939 839 101.889 961.679 427.234
512 0 66.1541 12.9244 855 101.844 961.713 427.023
513 0 70.2632 13.3356 937 101.359 962.19 425.439
514 0 73.3169 12.4392 912 102.58 960.982 426.753
515 0 75.1534 12.9069 970 102.658 961.975 423.989
516 0 77.0842 13.1804 1016 97.2982 961.504 424.738
517 0 79.1098 12.2741 971 101.152 960.873 421.006
518 0 82.1462 12.916 1061 99.607 961.247 419.947
519 0 87.1608 13.8021 1203 96.8595 961.707 418.2
520 0 88.1251 13.2539 1168 98.1396 961.451 418.194
521 0 92.3348 12.1948 1126 101.084 961.63 415.8
522 0 97.164 15.1805 1475 97.9153 961.197 415.254
523 0 99.0846 13.5238 1340 101.782 961.584 412.564
524 0 103.284 14.3488 1482 100.367 961.542 408.714
525 1 54.0446 10.8244 585 104.268 962.226 433.197
526 0 57.0891 12.2966 702 102.097 961.986 434.648
527 0 59.1157 12.484 738 100.576 962.332 433.012
528 0 61.1742 12.7505 780 101.065 961.744 429.614
529 0 63.1171 13.5621 856 99.5584 961.909 429.502
530 0 66.1458 12.926 855 100.172 961.774 429.214
531 0 67.1253 12.0521 809 102.068 961.964 430.372
532 0 71.0854 13.8144 982 99.9674 961.493 427.131
533 0 71.0867 12.0135 854 105.391 961.927 424.926
534 0 75.0358 13.287 997 102.06 962.251 424.149
535 0 77.1366 12.8603 992 102.436 961.265 423.22
536 0 79.0805 12.7086 1005 103.643 961.246 422.746
537 0 82.1076 12.8734 1057 104.209 961.677 421.19
538 0 85.2437 12.8924 1099 104.597 961.376 420.591
539 0 85.0563 11.6158 988 102.56 960.674 417.738
540 0 90.0729 12.0569 1086 101.119 961.43 418.482
541 0 88.1185 10.7809 950 106.214 961.394 414.561
542 0 97.2008 12.0575 1172 103.059 961.307 413.282
543 1 51.0444 11.3039 577 98.9827 960.267 436.094
544 0 53.148 10.2732 546 102.623 960.91 433.698
545 0 55.0776 11.1479 614 104.927 959.529 432.031
546 0 57.0333 12.0281 686 104.117 960.84 431.459
547 0 61.0652 11.8726 725 103.87 960.593 431.811
548 0 60.0586 11.6053 697 105.547 960.773 430.66
549 0 64.1176 12.7266 816 103.462 960.176 429.148
550 0 67.0643 11.9438 801 105.076 960.564 430.06
551 0 68.0847 11.8235 805 108.078 960.892 427.092
552 0 70.0707 14.0858 987 101.965 959.944 428.956
553 0 72.121 12.2433 883 108.698 960.326 423.771
554 0 75.1586 12.9326 972 107.844 960.276 423.805
555 0 79.0966 13.414 1061 104.066 961.203 419.171
556 0 80.0485 13.0046 1041 105.787 961.412 420.637
557 0 82.1484 12.8304 1054 111.158 961.14 418.555
558 0 85.1238 13.639 1161 100.352 961.5 421.36
559 0 84.0729 13.1671 1107 107.02 962.889 418.319
560 0 86.1164 12.4018 1068 110.834 962.422 417.272
561 0 87.1151 11.8234 1030 111.189 961.871 418.284
562 1 43.0828 11.1413 480 107.15 960.646 439.49
563 0 42.0233 9.28056 390 105.2 961.344 442.549
564 0 45.0344 11.1692 503 103.141 960.885 440.435
565 0 45.1002 8.64742 390 106.387 961.487 441.338
566 0 47.0525 10.5839 498 102.351 961.313 438.859
567 0 47.1104 10.5497 497 101.475 960.511 439.867
568 0 50.0295 11.4333 572 98.4213 960.82 438.715
569 0 50.0335 10.1732 509 101.159 961.807 438.236
570 0 52.1159 10.208 532 100.429 960.799 437.434
571 0 51.0493 10.5192 537 102.391 961.143 435.138
572 0 57.1214 12.9549 740 96.3446 961.388 433.486
573 0 55.079 10.603 584 102.265 960.952 433.57
574 0 58.0825 11.7936 685 99.8409 959.949 432.552
575 0 60.0963 11.6813 702 99.4658 960.805 432.793
576 0 63.0636 12.3526 779 99.2837 960.341 431.332
577 0 63.1006 11.3628 717 102.396 960.282 429.762
578 0 66.1258 11.8411 783 102.378 961.006 427.803
579 0 68.0475 10.9923 748 105.898 960.952 428.591
580 0 70.0561 11.9761 839 104.943 960.403 428.509
581 0 69.0907 11.5211 796 109.697 960.29 426.834
582 0 73.1106 11.7904 862 110.368 959.784 426.041
583 0 72.0749 11.3632 819 113.01 960.586 424.987
584 0 76.1275 12.663 964 111.177 960.614 423.952
585 0 76.1125 11.6275 885 117.59 960.567 420.963
586 0 79.0822 12.291 972 116.196 960.619 421.286
587 0 79.1001 10.67 844 122.355 960.756 420.526
588 0 82.1096 12.3128 1011 119.743 960.856 420.548
589 1 42.1489 11.2933 476 110.368 960.605 441.481
590 0 44.0912 10.3649 457 114.698 960.438 439.328
591 0 47.0823 13.6569 643 112.37 962.095 438.583
592 0 47.1377 12.5377 591 117.888 961.804 438.13
593 0 48.2197 11.8831 573 122.635 962.04 436.431
594 0 49.083 13.3651 656 119.677 961.642 435.691
595 0 50.045 11.5496 578 124.758 961.846 435.967
596 0 53.0434 12.4238 659 120.956 961.086 434.247
597 0 53.0872 11.7354 623 124.388 961.09 436.347
598 0 55.014 13.0694 719 122.427 961.428 435.716
599 0 55.0774 12.4915 688 126.202 962.02 432.571
600 0 60.0676 14.0508 844 120.364 961.762 432.999
601 0 59.1379 12.8006 757 127.25 962.46 432.263
602 0 61.0396 14.2858 872 123 961.684 432.384
603 0 62.0882 13.1909 819 126.988 961.269 430.497
604 0 64.0802 13.4831 864 127.559 961.069 429.229
605 0 67.1334 13.9424 936 126.462 960.548 427.18
606 0 71.211 14.0709 1002 130.413 960.082 426.811
607 0 72.2588 14.3097 1034 130.495 959.902 423.898
608 0 75.1486 13.7594 1034 132.037 960.821 422.331
609 0 77.2068 14.0273 1083 130.215 961.054 424.304
610 0 80.1437 14.4116 1155 128.311 961.009 421.831
611 0 82.1888 14.564 1197 126.812 960.318 420.475
612 0 85.207 13.5317 1153 127.606 959.831 419.966
613 0 87.1181 12.9594 1129 128.371 960.554 418.283
614 1 45.1225 10.948 494 124.943 959.621 439.032
615 0 47.1166 11.3336 534 123.013 960.197 438.492
616 0 48.1502 12.1702 586 123.265 960.227 438.399
617 0 50.0733 12.5416 628 123.861 960.662 437.194
618 0 52.1462 12.465 650 122.332 959.826 437.438
619 0 50.0956 12.8554 644 114.281 960.02 434.612
620 0 50.1114 11.0554 554 118.572 960.43 436.958
621 0 54.1335 12.2106 661 115.88 960.162 435.121
622 0 56.1801 12.0327 676 114.271 960.259 435.546
623 0 59.1278 12.2278 723 113.393 960.187 433.29
624 0 60.3154 11.4067 688 116.847 960.699 430.843
625 0 62.25 12.0321 749 113.876 960.34 431.693
626 0 66.0925 11.0451 730 115.856 960.019 430.888
627 0 68.0818 12.7494 868 112.662 960.753 427.401
628 0 71.1528 12.1148 862 113.375 959.835 427.358
629 0 70.142 11.4625 804 116.308 959.995 425.014
630 0 73.1511 11.7838 862 116.542 960.865 424.729
631 0 75.1109 11.929 896 116.74 960.336 423.243
632 0 78.157 12.7692 998 108.919 960.378 423.959
633 0 82.1532 11.4907 944 118.646 960.478 420.969
634 0 84.0777 11.9175 1002 116.827 959.775 419.379
635 0 85.1178 11.02 938 120.35 960.304 415.572
636 1 44.119 9.20239 406 104.643 960.943 441.796
637 0 46.0444 9.16506 422 106.671 960.839 438.803
638 0 50.1054 10.7374 538 102.292 960.169 436.461
639 0 51.0568 11.3403 579 101.554 960.546 435.843
640 0 52.2055 10.6119 554 103.408 959.727 435.69
641 0 54.2544 11.2249 609 113.81 960.363 435.581
642 0 57.264 10.3381 592 116.331 959.877 434.557
643 0 60.1146 11.8607 713 113.728 960.164 432.56
644 0 61.1874 11.9959 734 115.238 960.208 431.263
645 0 64.1693 12.1554 780 115.591 960.612 429.332
646 0 67.1956 12.352 830 113.375 960.734 429.364
647 0 67.1512 9.97748 670 116.304 961.278 425.761
648 0 71.118 11.9238 848 112.669 960.868 425.471
649 0 72.0782 12.1396 875 112.68 960.96 426.55
650 0 74.2178 11.3046 839 116.658 961.368 425.702
651 0 79.0927 12.7825 1011 111.12 960.954 422.641
652 0 80.1665 10.9148 875 117.59 960.935 420.291
653 0 83.1107 10.9372 909 116.881 961.457 419.525
654 1 44.0165 9.88265 435 107.572 961.809 439.68
655 0 47.1147 10.4426 492 106.669 960.76 439.799
656 0 48.108 12.5343 603 111.874 960.643 437.415
657 0 48.0979 10.936 526 114.973 961.77 438.124
658 0 51.1413 13.3943 685 109.061 960.542 438.124
659 0 50.0726 12.7615 639 113.2 960.562 436.21
660 0 52.2429 13.2458 692 111.822 960.876 435.551
661 0 56.0855 11.9995 673 113.163 961.204 435.615
662 0 57.0693 13.4748 769 110.585 961.256 434.198
663 0 58.1277 12.0941 703 115.084 960.134 433.499
664 0 60.2058 13.4372 809 112.15 960.543 432.532
665 0 62.1176 13.233 822 113.517 960.613 429.377
666 0 62.1342 13.1168 815 114.182 960.985 430.856
667 0 66.1992 13.4443 890 113.587 960.731 429.149
668 0 69.0797 14.1865 980 110.671 961.436 428.072
669 0 70.1073 14.1069 989 112.343 960.715 427.329
670 0 72.1114 13.5346 976 114.33 961.153 426.504
671 0 73.0785 13.5881 993 115.605 961.289 423.065
672 0 76.1094 13.9011 1058 113.693 960.868 423.516
673 0 79.2422 13.7301 1088 116.105 960.982 423.345
674 0 81.4147 12.8478 1046 118.815 960.821 421.403
675 0 83.2056 12.5592 1045 120.067 961.399 414.877
676 0 87.154 12.7131 1108 118.767 961.183 417.05
677 0 88.1458 13.6819 1206 116.303 960.884 417.088
678 0 90.0893 13.0759 1178 117.998 961.064 417.07
679 1 49.2071 12.295 605 113.486 960.332 435.775
680 0 50.0664 11.6246 582 114.648 961.174 436.029
681 0 53.0527 11.9315 633 112.052 961.804 435.027
682 0 52.0383 12.0104 625 113.806 961.64 431.878
683 0 57.0597 12.2153 697 111.056 961.871 432.857
684 0 57.036 12.6411 721 103.492 960.522 433.573
685 0 58.0223 12.0126 697 104.603 961.736 432.717
686 0 61.0701 11.5114 703 105.778 961.514 430.292
687 0 61.0702 11.8225 722 106.609 960.776 427.492
688 0 64.0674 10.7699 690 108.443 961.496 428.014
689 0 69.0832 12.3764 855 105.729 961.153 427.453
690 0 71.0399 11.571 822 109.019 961.69 425.931
691 0 73.0425 11.3906 832 110.328 961.907 425.832
692 0 74.0909 11.4994 852 111.919 962.157 422.42
693 0 76.1228 11.4683 873 111.708 961.369 424.074
694 0 80.087 12.3241 987 110.873 961.556 420.342
695 1 41.0644 10.0574 413 111.203 961.17 439.843
696 0 46.0363 11.8385 545 107.055 960.589 439.497
697 0 45.0385 11.5013 518 104.193 961.035 437.712
698 0 46.0539 12.5505 578 101.721 961.337 438.912
699 0 49.0412 12.9075 633 102.223 962.106 437.043
700 0 49.0908 12.4463 611 104.807 962.041 436.237
701 0 52.0738 12.5015 651 104.862 962.111 435.72
702 0 54.0334 12.7884 691 103.276 962.43 434.638
703 0 56.0601 12.3617 693 104.902 962.087 433.075
704 0 54.0233 12.5872 680 107.451 961.541 431.535
705 0 59.0572 12.5133 739 105.935 962.632 432.261
706 0 61.0775 12.7052 776 106.948 962.157 430.963
707 0 64.038 11.6806 748 109.078 962.4 430.008
708 0 64.061 12.9408 829 108.041 962.248 428.544
709 0 68.1125 12.5087 852 108.67 961.884 428.257
710 0 70.0302 13.28 930 108.6 962.29 427.616
711 0 73.0462 14.0596 1027 106.398 962.427 426.83
712 0 75.062 13.9751 1049 107.797 962.32 424.225
713 0 74.0728 12.4877 925 113.973 962.657 423.906
714 0 79.0521 13.801 1091 110.302 962.97 422.687
715 0 82.0519 13.4549 1104 112.87 962.963 421.165
716 0 84.2175 13.9282 1173 114.98 962.252 420.1
717 0 89.109 14.1737 1263 119.442 962.037 419.253
718 0 91.1511 13.3295 1215 122.248 962.444 416.913
719 1 46.1224 11.5345 532 120.068 963.066 438.246
720 0 47.0421 13.0947 616 115.857 963.151 437.898
721 0 49.0984 13.6257 669 115.987 962.649 436.94
722 0 52.0264 12.5513 653 116.685 962.089 436.881
723 0 52.0709 12.9247 673 117.478 962.691 435.386
724 0 53.0689 12.7382 676 118.247 961.179 435.087
725 0 53.064 12.7959 679 150.501 960.171 435.103
726 0 59.1322 12.2437 724 117.305 961.899 433.778
727 0 61.1193 14.4308 882 111.054 962.376 431.938
728 0 62.0871 13.7066 851 113.663 961.558 430.643
729 0 63.0525 13.7822 869 113.498 961.639 429.565
730 0 65.054 13.2505 862 114.237 961.585 428.426
731 0 69.0639 13.9291 962 111.435 960.83 428.755
732 0 71.0743 13.0849 930 113.577 961.024 426.578
733 0 73.0301 12.2963 898 113.471 961.028 426.754
734 0 74.0528 12.9907 962 111.258 961.658 427.537
735 0 77.0664 12.6255 973 113.545 961.094 423.95
736 0 81.0975 12.3802 1004 112.946 961.73 425.091
737 0 83.1117 12.8622 1069 113.061 961.866 420.694
738 0 86.0429 12.8541 1106 112.229 961.542 420.132
739 0 90.0999 12.7525 1149 112.869 962.087 418.112
740 1 46.0301 12.8611 592 113.762 961.666 435.62
741 0 48.1444 12.4625 600 113.41 961.76 436.807
742 0 51.0632 12.3376 630 113.467 961.489 437.787
743 0 52.0679 13.2519 690 111.662 960.977 437.158
744 0 52.0257 12.8783 670 113.83 960.998 435.825
745 0 54.057 13.1528 711 112.276 961.039 435.19
746 0 59.0135 12.9801 766 106.651 961.161 434.868
747 0 61.0543 13.1195 801 107.674 961.22 433.002
748 0 61.1008 13.5023 825 108.405 960.945 432.685
749 0 64.0856 15.0268 963 105.414 960.668 430.722
750 0 66.0894 13.739 908 109.402 961.482 431.006
751 0 67.0369 12.7989 858 112.442 961.142 429.789
752 0 66.1504 12.5321 829 115.543 960.934 428.805
753 0 72.1389 13.876 1001 109.719 961.041 427.116
754 0 74.0712 14.1891 1051 109.338 960.742 426.979
755 0 77.1156 14.0049 1080 110.053 961.258 425.231
756 0 78.1021 13.047 1019 113.652 961.542 425.249
757 0 81.1289 13.7436 1115 112.827 960.578 423.685
758 0 82.1519 12.9638 1065 115.601 960.744 422.256
759 0 88.1234 13.2995 1172 114.128 960.373 420.128
760 0 93.1624 13.3101 1240 113.703 960.333 418.19
761 0 96.1439 13.303 1279 114.397 961.055 417.855
762 0 101.128 14.1207 1428 112.639 960.925 413.149
763 1 53.0561 12.1192 643 112.019 960.809 437.193
764 0 54.1634 12.1854 660 112.756 961.068 434.312
765 0 57.0288 12.52 714 111.458 961.08 433.99
766 0 60.0593 13.52 812 104.686 960.45 432.025
767 0 63.2248 12.416 785 107.118 959.902 431.888
768 0 63.2632 12.4243 786 108.156 959.288 430.593
769 0 65.0849 13.2903 865 108.489 960.301 427.777
770 0 68.1078 12.9207 880 110.34 960.732 428.372
771 0 72.1323 13.4336 969 108.834 960.624 427.841
772 0 72.0778 12.8056 923 112.45 960.728 425.808
773 0 75.1642 13.0647 982 110.268 960.168 427.017
774 0 77.184 13.1763 1017 112.845 959.678 422.465
775 0 79.3753 13.6944 1087 110.262 960.401 425.378
776 0 83.1074 13.7172 1140 111.514 960.14 421.703
777 0 84.237 12.821 1080 115.031 960.632 418.324
778 0 87.1083 13.466 1173 112.309 960.833 419.25
779 0 92.2216 12.6977 1171 114.117 960.832 415.62
780 0 96.1153 12.5682 1208 113.797 960.555 414.677
781 0 98.138 12.6047 1237 115.053 960.526 411.683
782 0 105.116 13.1283 1380 112.29 960.29 409.711
783 0 110.133 13.7925 1519 115.568 959.481 406.024
784 0 114.243 13.55 1548 116.55 960.249 402.935
785 1 135.381 15.2606 2066 231.703 960.182 406.742
786 1 59.2538 12.438 737 110.902 959.931 430.954
787 0 60.2732 12.2608 739 113.679 959.47 428.758
788 0 60.094 12.4804 750 114.613 960.303 428.925
789 0 65.3564 12.9291 845 112.992 959.904 429.488
790 0 68.258 13.5222 923 110.99 960.238 428.791
791 0 67.2051 13.2579 891 113.769 960.185 425.595
792 0 71.3031 13.4356 958 113.563 960.094 424.293
793 0 73.262 12.9672 950 115.749 960.888 424.589
794 0 75.1936 12.9665 975 116.926 960.522 414.509
795 0 78.0948 12.7665 997 117.686 959.768 413.05
796 0 81.2292 12.6555 1028 116.661 960.202 414.662
797 0 82.2011 12.6032 1036 119.002 959.034 413.471
798 0 87.3009 13.5852 1186 115.323 960.155 414.117
799 0 90.172 12.7534 1150 117.94 960.176 412.095
800 0 93.1883 12.8557 1198 118.811 960.105 411.937
801 1 54.1255 12.2678 664 110.229 960.057 435.111
802 0 55.0471 9.68261 533 106.084 960.542 434.415
803 0 57.1232 12.902 737 109.735 960.258 432.697
804 0 58.0814 12.4136 721 109.259 959.657 433.933
805 0 58.133 12.0241 699 111.441 960.082 432.189
806 0 60.1224 11.7427 706 110.153 960.659 433.067
807 0 63.1627 12.3174 778 110.625 960.497 429.084
808 0 65.1661 14.1024 919 106.643 959.592 428.523
809 0 69.1887 12.8489 889 108.972 960.468 427.474
810 0 70.118 12.7642 895 109.117 959.31 428.555
811 0 73.1004 13.6525 998 108.613 959.979 423.468
812 0 74.106 11.6995 867 113.789 958.95 423.927
813 0 77.1222 13.537 1044 110.499 958.535 421.774
814 0 78.0362 12.5967 983 113.116 959.165 421.282
815 0 82.0643 12.4049 1018 113.3 959.748 419.624
816 0 88.128 13.9683 1231 107.711 958.937 420.093
817 0 88.1713 12.85 1133 112.321 958.891 415.529
818 0 92.0938 12.889 1187 112.084 959.302 412.985
819 0 94.1215 12.1758 1146 115.286 959.044 412.324
820 0 100.07 13.1808 1319 112.193 959.206 410.049
821 1 53.0778 11.0404 586 104.022 959.167 434.254
822 0 56.0346 11.3144 634 104.885 959.35 432.412
823 0 57.0869 11.0884 633 108.404 959.12 431.979
824 0 58.106 11.2037 651 108.771 959.7 430.851
825 0 61.0382 11.2716 688 107.749 959.417 430.337
826 0 64.2683 12.0121 772 105.295 959.3 428.684
827 0 66.0754 11.3809 752 106.289 959.638 427.911
828 0 68.0637 12.0328 819 105.619 959.742 425.701
829 0 71.2517 11.3541 809 107.068 960.099 422.671
830 0 72.0556 10.6168 765 109.327 960.199 421.639
831 0 77.0906 12.6993 979 103.967 960.078 421.8
832 0 81.1318 10.7479 872 106.052 960.025 419.619
833 0 82.1219 11.2029 920 105.414 960.263 415.848
834 0 87.0742 12.1046 1054 103.376 959.009 414.359
835 0 89.101 9.74176 868 106.719 958.846 413.575
836 0 95.1866 11.3251 1078 106.051 960.135 411.258
837 0 99.1695 11.1325 1104 109.762 959.396 413.435
838 0 101.077 11.694 1182 109.797 960.008 407.141
839 0 108.18 13.5515 1466 104.379 959.887 407.44
840 0 111.281 11.1699 1243 110.091 960.446 405.57
841 1 59.179 12.5551 743 105.073 961.336 429.409
842 0 57.0399 10.9572 625 100.75 959.958 430.894
843 0 58.0541 9.56006 555 103.764 960.546 428.641
844 0 59.2759 10.3583 614 103.503 959.798 428.204
845 0 63.108 11.5199 727 99.685 960.823 427.615
846 0 63.1566 10.9252 690 99.3681 960.256 427.146
847 0 65.2023 11.1653 728 100.034 960.459 421.872
848 0 68.1779 11.7487 801 102.762 960.471 422.875
849 0 72.1488 12.1554 877 101.071 959.964 423.802
850 0 73.1015 12.0107 878 102.565 960.583 421.313
851 0 77.17 12.0772 932 102.688 960.436 420.81
852 0 80.14 12.8775 1032 101.951 960.06 418.879
853 0 84.1746 12.5572 1057 102.862 960.533 417.638
854 0 82.1398 9.88559 812 109.917 959.931 415.121
855 0 88.0615 12.2642 1080 103.519 959.768 417.006
856 0 92.0493 13.3841 1232 102.42 959.953 413.827
857 0 94.1605 11.9052 1121 106.554 959.959 408.757
858 0 99.09 12.3625 1225 105.715 959.54 409.38
859 0 103.081 11.554 1191 106.791 960.076 410.199
860 1 55.0286 10.5945 583 98.0292 960.228 433.65
861 0 54.0748 9.94919 538 99.1338 960.446 434.091
862 0 55.1098 10.6515 587 99.77 960.043 432.051
863 0 59.064 11.987 708 96.9619 960.258 430.9
864 0 62.0477 10.5886 657 98.6332 960.498 430.07
865 0 65.0614 12.2192 795 95.795 959.698 427.669
866 0 65.0664 11.3269 737 98.9756 960.191 427.441
867 0 68.1818 11.4547 781 98.6799 960.175 426.568
868 0 73.0465 12.6769 926 96.4579 960.417 425.803
869 0 75.0484 12.5919 945 103.62 960.418 423.968
870 0 77.0648 12.6128 972 105.635 960.756 422.227
871 0 77.1454 12.3533 953 108.016 960.222 420.518
872 0 83.1797 12.6954 1056 106.771 959.831 418.694
873 0 85.1253 12.3817 1054 108.517 959.954 418.22
874 0 89.2096 12.8574 1147 107.315 960.343 418.855
875 1 45.0866 10.5353 475 100.842 960.221 438.444
876 0 44.0479 9.71669 428 100.042 960.18 437.622
877 0 47.1164 11.3124 533 105.497 960.766 438.606
878 0 47.1329 9.67478 456 111.226 959.919 435.737
879 0 49.1143 9.56952 470 112.023 960.208 433.992
880 0 52.104 10.2104 532 111.214 960.387 433.34
881 0 51.06 10.2233 522 111.866 961.021 432.563
882 0 56.0829 12.1962 684 105.74 961.139 432.725
883 0 57.0731 11.1436 636 111.662 961.019 430.873
884 0 59.1315 11.0601 654 111.528 961.609 430.974
885 0 60.0898 10.9836 660 113.333 961.558 429.439
886 0 63.0906 11.856 748 110.96 961.737 428.833
887 0 66.0531 11.9752 791 110.805 961.153 425.492
888 0 67.0261 10.4735 702 115.662 961.387 425.927
889 0 71.1375 12.0049 854 110.766 960.546 422.744
890 0 72.0963 10.375 748 114.43 960.687 420.558
891 0 76.1192 11.3375 863 112.039 960.996 419.577
892 0 80.0472 11.868 950 110.034 960.463 420.121
893 1 40.03 10.742 430 105.53 960.598 439.956
894 0 43.0781 10.8176 466 110.693 960.934 439.71
895 0 45.041 11.7449 529 109.422 960.754 438.151
896 0 45.0392 11.3457 511 111.256 961.429 437.395
897 0 47.0437 11.9251 561 108.62 961.043 434.834
898 0 48.0274 12.8468 617 106.883 960.754 435.618
899 0 49.0559 12.0271 590 109.003 961.317 436.029
900 0 51.0261 12.2682 626 108.145 960.526 435.62
901 0 51.0444 12.0875 617 109.387 960.081 433.964
902 0 54.0685 12.5026 676 107.391 960.391 433.987
903 0 55.0427 12.9536 713 99.6508 960.532 432.536
904 0 55.0622 11.0602 609 104.182 960.586 432.496
905 0 60.0753 13.4165 806 99.536 961.06 429.021
906 0 63.081 12.9357 816 100.532 960.746 428.257
907 0 64.0465 12.6783 812 102.893 961.494 427.349
908 0 67.0397 12.3211 826 103.638 960.374 426.409
909 0 68.0502 11.9324 812 104.491 960.711 426.434
910 0 71.0766 12.7187 904 103.452 960.358 425.946
911 0 73.0817 12.7528 932 105.336 960.342 423.807
912 0 76.1634 12.2368 932 107.69 961.03 420.984
913 1 40.0184 11.0199 441 105.596 961.027 438.821
914 0 42.0561 13.6247 573 100.754 960.642 438.291
915 0 41.0242 11.5542 474 109.797 960.728 438.274
916 0 43.0127 11.6942 503 110.515 961.757 438.01
917 0 44.0759 11.3214 499 112.936 960.87 438.539
918 0 45.0477 11.7875 531 112.908 961.597 437.102
919 0 48.0676 12.4824 600 112.762 961.043 434.938
920 0 49.0414 12.8871 632 112.022 961.915 434.522
921 0 51.0739 13.7644 703 109.808 961.357 434.313
922 0 49.0747 12.8172 629 115.121 960.938 433.105
923 0 55.0388 13.5904 748 111.627 961.19 434.312
924 0 55.0968 14.4836 798 111.95 960.692 430.039
925 0 58.0776 13.2581 770 112.705 960.542 429.953
926 0 60.034 13.1426 789 113.793 961.036 427.771
927 0 63.0627 13.3518 842 112.157 960.77 428.163
928 0 63.0703 13.2709 837 112.897 961.037 428.3
929 0 67.1066 14.2758 958 110.796 961.2 426.529
930 0 68.1402 15.0425 1025 110.163 961.019 425.447
931 0 70.0384 14.4492 1012 113.499 959.732 417.963
932 0 72.044 13.1864 950 116.154 960.722 416.393
933 0 74.0588 13.7323 1017 115.589 960.445 415.627
934 0 76.0308 14.1522 1076 112.538 959.754 416.775
935 0 78.0894 13.1772 1029 116.307 960.216 420.43
936 0 81.0495 14.4356 1170 114.242 960.271 417.34
937 0 83.1101 13.44 1117 116.991 960.086 416.628
938 0 85.0971 13.5257 1151 118.002 960.134 415.5
939 0 87.0859 13.4235 1169 119.282 959.963 412.859
940 0 90.0901 12.8649 1159 121.681 960.513 409.75
941 0 95.1865 14.4979 1380 116.833 960.766 408.299
942 0 99.1874 14.649 1453 115.845 960.076 408.617
943 0 103.068 14.4564 1490 116.538 960.987 404.132
944 1 53.0889 11.2641 598 119.652 960.691 429.853
945 0 55.1101 12.7018 700 117.391 960.221 429.391
946 0 59.052 13.0224 769 117.205 960.165 424.055
947 0 61.1111 13.5982 831 114.27 960.272 427.022
948 0 63.3209 13.9448 883 114.015 961.28 425.787
949 0 64.2023 12.1647 781 119.636 960.291 425.017
950 0 68.1211 13.8283 942 113.914 959.86 425.57
951 0 68.1192 12.669 863 116.212 959.877 423.962
952 0 72.1416 13.0022 938 115.511 961.124 421.485
953 0 75.0285 13.8747 1041 114.09 961.243 416.469
954 0 75.1149 12.7139 955 118.666 961.2 417.434
955 0 79.1934 12.0591 955 118.899 961.043 419.713
956 0 84.0805 13.1541 1106 116.201 960.879 416.551
957 0 86.2208 12.8739 1110 117.462 961.334 412.878
958 0 87.0486 12.717 1107 118.883 961.685 407.844
959 0 93.1731 13.0724 1218 117.187 960.694 410.31
960 0 98.2084 13.3186 1308 115.751 960.262 409.781
961 0 101.128 13.8932 1405 114.74 960.452 407.275
962 0 105.163 12.666 1332 116.737 960.369 402.762
963 1 59.2337 12.0877 716 110.545 960.887 427.937
964 0 61.0916 12.3258 753 110.892 960.667 429.068
965 0 61.1541 12.5257 766 111.799 960.905 427.563
966 0 63.0997 12.2505 773 113.461 960.323 425.391
967 0 67.1493 11.8542 796 114.202 960.035 423.261
968 0 68.1266 12.2126 832 114.359 960.555 423.034
969 0 74.2109 12.6531 939 111.797 960.684 422.376
970 0 73.1998 11.8989 871 114.158 960.077 418.979
971 0 79.0621 12.37 978 111.578 959.878 418.182
972 0 79.1282 12.3597 978 105.848 960.28 414.332
973 0 84.0682 13.037 1096 104.315 960.369 413.796
974 0 86.0892 11.4881 989 107.262 960.06 415.753
975 0 90.1274 12.1828 1098 106.899 960.779 412.96
976 0 92.1358 11.4939 1059 109.207 959.89 411.958
977 0 99.1742 12.4932 1239 107.223 960.463 409.717
978 1 49.0654 11.0872 544 103.801 960.448 431.456
979 0 52.0909 12.7086 662 99.0725 960.705 430.42
980 0 53.0981 10.1887 541 103.133 960.545 432.277
981 0 54.1151 11.531 624 101.976 960.439 428.981
982 0 56.1139 11.5123 646 102.613 960.669 429.034
983 0 61.0528 12.6284 771 106.804 960.593 425.829
984 0 58.04 11.3542 659 108.014 960.554 425.026
985 0 63.0996 11.5373 728 104.505 960.038 421.793
986 0 66.0211 12.5869 831 102.905 960.087 421.516
987 0 68.0856 13.0277 887 106.678 960.478 421.154
988 0 72.0662 13.2795 957 105.701 960.399 420.074
989 0 75.0995 14.2344 1069 102.845 960.927 420.475
990 0 78.0542 14.3746 1122 102.898 960.553 419.508
991 0 81.1415 15.171 1231 100.774 960.663 418.009
992 0 82.0737 13.829 1135 105.59 960.18 415.41
993 0 86.113 14.2836 1230 105.071 960.605 415.727
994 0 87.0403 13.0974 1140 108.724 960.694 413.488
995 0 90.1073 14.2941 1288 106.096 960.463 413.874
996 0 94.1204 14.0352 1321 106.061 960.774 411.178
997 0 95.1889 14.0353 1336 107.465 960.79 409.425
998 0 100.152 12.5909 1261 110.723 961.177 407.381
999 0 103.175 13.6564 1409 108.704 960.92 400.199
1000 0 109.201 14.9999 1638 104.579 961.037 398.044
1001 0 112.279 14.1612 1590 107.685 961.52 396.647
1002 0 115.186 14.3855 1657 107.576 960.993 391.943
1003 0 121.256 14.2426 1727 106.83 961.344 391.277
1004 0 124.125 13.8329 1717 108.526 960.687 392.797
1005 0 127.145 13.229 1682 110.817 960.674 391.614
1006 0 135.152 14.258 1927 107.791 960.476 382.091
1007 0 140.067 14.236 1994 107.569 960.835 384.493
1008 0 145.15 14.1646 2056 107.581 960.766 382.507
1009 1 74.1192 10.0109 742 104.612 960.823 417.272
1010 0 78.2963 12.4527 975 100.911 961.02 415.218
1011 0 79.1524 12.8613 1018 103.135 962.016 413.69
1012 0 82.1041 13.8483 1137 101.145 961.43 414.31
1013 0 86.1795 12.532 1080 103.513 961.125 412.884
1014 0 88.2553 13.4836 1190 102.266 961.55 409.249
1015 0 91.1129 12.2485 1116 103.834 961.639 410.944
1016 0 94.1344 11.0374 1039 106.324 961.43 407.84
1017 0 99.1253 13.266 1315 100.43 961.198 406.439
1018 0 101.197 13.1624 1332 100.932 961.181 403.817
1019 0 105.137 14.0769 1480 98.602 961.178 402.262
1020 0 111.197 13.3547 1485 98.662 960.799 403.237
1021 0 113.231 12.3377 1397 99.7538 960.781 401.166
1022 0 119.122 12.7516 1519 100.488 961.807 396.836
1023 0 122.434 12.3414 1511 99.0788 961.151 396.602
1024 1 71.1725 12.1676 866 97.6801 961.551 418.045
1025 0 73.3547 11.383 835 99.4228 961.461 419.668
1026 0 76.296 12.0845 922 97.1692 961.895 417.324
1027 0 76.296 12.1107 924 135.123 961.886 417.518
1028 0 82.2099 11.4706 943 98.9703 961.155 413.221
1029 0 85.2254 10.9005 929 99.6835 960.37 412.797
1030 0 85.1931 11.1159 947 101.577 960.454 405.845
1031 0 90.247 10.8591 980 100.357 961.9 409.083
1032 0 87.1485 10.5452 919 95.7084 960.299 405.535
1033 0 94.1322 10.7296 1010 95.0119 960.894 404.516
1034 0 92.2607 9.55987 882 95.5828 961.714 396.306
1035 1 53.1364 10.6895 568 84.5933 961.611 426.298
1036 0 59.128 12.0755 714 90.7339 962.563 424.029
1037 0 61.1198 10.553 645 90.8853 962.681 424.442
1038 0 63.1268 11.6908 738 89.9472 962.86 423.149
1039 0 65.0812 10.5407 686 91.4913 962.331 420.007
1040 0 68.1327 11.6537 794 89.3073 961.394 420.661
1041 0 70.066 11.5034 806 90.0062 961.775 419.516
1042 0 73.1907 12.9798 950 88.8926 961.901 418.898
1043 0 75.0853 12.9852 975 90.0862 961.9 417.514
1044 0 79.2891 12.4229 985 90.9878 961.942 416.91
1045 0 81.1651 12.6163 1024 92.3213 961.529 413.35
1046 0 83.228 11.7388 977 94.2252 962.733 414.061
1047 0 89.1923 12.6356 1127 91.811 962.747 415.492
1048 0 92.315 14.0389 1296 90.7569 963.078 410.335
1049 0 94.1632 12.935 1218 94.7496 962.033 408.303
1050 0 98.179 13.0781 1284 95.5646 961.882 406.188
1051 0 101.091 12.652 1279 96.6966 961.432 408.786
1052 0 106.232 12.3785 1315 98.2335 961.18 403.392
1053 1 58.176 12.7372 741 92.274 961.563 423.638
1054 0 60.0945 12.6967 763 94.9672 961.793 422.773
1055 0 62.0516 11.7805 731 97.0356 960.997 426.148
1056 0 62.1356 11.9416 742 97.1968 960.003 427.493
1057 0 64.1292 14.1277 906 93.2373 960.939 424.389
1058 0 64.0641 11.5978 743 99.2369 961.213 425.196
1059 0 68.0541 12.5195 852 96.0376 961.061 426.966
1060 0 70.1044 12.4243 871 97.8002 961.289 422.641
1061 0 71.1451 13.1 932 97.4818 961.525 421.546
1062 0 73.0628 13.7964 1008 97.373 961.131 420.886
1063 0 75.1193 13.4719 1012 98.7302 961.175 418.509
1064 0 79.1734 13.5525 1073 98.2516 960.653 419.587
1065 0 82.1415 13.6107 1118 98.5939 960.526 417.925
1066 0 85.1654 13.4914 1149 99.3055 961.368 418.003
1067 0 88.2195 13.3871 1181 100.233 961.181 415.869
1068 0 88.2195 13.3531 1178 160.048 961.173 415.85
1069 0 87.2182 13.4605 1174 159.693 961.172 415.953
1070 0 95.1281 13.3609 1271 98.0976 961.873 412.319
1071 0 99.1236 13.3268 1321 98.9205 961.551 412.207
1072 0 100.078 12.0306 1204 104.816 961.613 410.207
1073 1 53.119 9.97759 530 109.015 961.134 428.736
1074 0 57.0944 11.4547 654 105.625 961.498 427.446
1075 0 58.0709 12.6225 733 103.85 961.518 426.963
1076 0 61.0318 12.4853 762 103.895 961.888 428.929
1077 0 62.0352 12.3801 768 106.965 961.023 423.284
1078 0 64.0962 13.1521 843 105.432 962.063 425.728
1079 0 67.0991 13.3832 898 104.93 961.469 421.759
1080 0 69.0609 12.5976 870 107.098 961.745 420.733
1081 0 73.1258 12.2392 895 108.465 962.135 421.226
1082 0 74.0626 12.989 962 107.485 961.826 419.075
1083 0 77.1799 13.5139 1043 106.183 961.569 417.788
1084 0 80.1337 14.4633 1159 104.773 961.466 416.576
1085 0 83.1586 12.5062 1040 109.518 962.517 416.185
1086 0 85.3623 12.9448 1105 108.939 962.25 414.968
1087 0 89.1878 13.4211 1197 107.703 961.58 411.961
1088 0 94.1248 14.4276 1358 105.406 961.376 409.772
1089 0 96.1244 14.0443 1350 106.708 962.581 408.391
1090 0 97.067 13.3207 1293 108.551 962.708 405.374
1091 0 101.137 12.8143 1296 109.247 962.792 399.22
1092 1 55.0285 13.1932 726 102.412 963.09 422.438
1093 0 55.1437 12.1501 670 103.263 962.816 423.712
1094 0 58.1597 12.4829 726 97.1584 961.916 427.642
1095 0 56.193 11.0512 621 98.8889 962.372 426.655
1096 0 59.0369 10.3325 610 99.8951 962.182 424.569
1097 0 60.1264 11.6089 698 97.9499 961.595 422.639
1098 0 64.1613 12.0789 775 97.7329 962.342 419.363
1099 0 67.1222 11.2779 757 99.1836 961.927 420.659
1100 0 69.0295 12.2991 849 99.7727 961.846 420.216
1101 0 72.2104 13.156 950 98.3874 961.501 418.093
1102 0 75.0898 12.505 939 105.344 962.028 416.366
1103 0 78.1375 13.0027 1016 102.5 962.862 414.95
1104 0 78.1345 11.8514 926 105.598 963.316 414.009
1105 0 82.0583 12.5277 1028 105.669 962.626 411.172
1106 0 85.1484 13.8112 1176 104.697 963.382 408.022
1107 0 90.1643 12.7212 1147 105.384 963.304 410.033
1108 0 91.1385 12.5194 1141 106.796 962.592 407.449
1109 0 94.1111 12.1665 1145 107.331 962.478 405.966
1110 0 98.3379 12.1316 1193 106.632 961.718 405.628
1111 0 101.105 13.0953 1324 106.249 961.986 405.066
1112 0 105.287 12.8315 1351 105.881 962.026 400.945
1113 0 107.285 11.8842 1275 108.151 961.96 400.08
1114 1 60.1288 11.6251 699 99.525 961.78 424.202
1115 0 62.1026 11.9802 744 98.5 962.214 423.007
1116 0 64.1786 12.9015 828 103.691 961.738 421.639
1117 0 68.2191 11.9761 817 103.78 961.521 422.397
1118 0 70.0923 12.0698 846 95.5366 961.491 421.111
1119 0 72.1856 12.4124 896 96.9185 961.218 418.798
1120 0 76.181 13.0873 997 95.9188 962.023 417.509
1121 0 77.2953 11.7601 909 99.7074 961.652 416.438
1122 0 81.3475 13.6697 1112 95.4424 961.905 415.754
1123 0 83.2306 11.4741 955 100.13 962.221 415.71
1124 0 85.268 12.1851 1039 100.177 961.974 412.464
1125 0 90.1652 11.4678 1034 101.718 962.174 410.486
1126 0 93.1802 12.7388 1187 99.722 961.858 407.607
1127 0 97.2211 13.207 1284 99.3699 961.645 406.343
1128 0 100.242 11.5122 1154 102.67 961.362 403.237
1129 0 104.188 12.5255 1305 101.135 961.214 403.774
1130 1 52.1197 11.4352 596 96.6225 961.45 427.01
1131 0 52.1433 12.3698 645 95.3674 962.019 429.912
1132 0 55.0763 11.4932 633 96.1485 961.103 429.101
1133 0 58.1468 12.3825 720 94.2333 961.538 428.317
1134 0 61.2142 13.0035 796 94.7852 961.878 425.75
1135 0 63.1293 11.326 715 97.5147 962.138 426.066
1136 0 65.0841 13.3673 870 93.1942 962.07 423.022
1137 0 68.0652 12.1648 828 95.0821 962.036 422.075
1138 0 71.0753 13.3942 952 92.8319 962.784 420.375
1139 0 71.0872 12.337 877 95.8632 961.522 418.685
1140 0 76.1318 12.9118 983 93.7304 961.395 417.907
1141 0 77.0975 11.8551 914 96.5066 962.257 420.248
1142 0 79.0831 13.1887 1043 95.9032 961.076 417.924
1143 0 82.0716 13.6954 1124 95.1352 962.297 415.014
1144 0 84.1022 13.6025 1144 95.6337 962.283 414.61
1145 0 83.2031 12.2592 1020 100.071 961.852 411.555
1146 0 89.2564 12.9403 1155 97.9827 961.103 410.926
1147 0 92.0879 13.2808 1223 97.946 962.363 410.112
1148 0 94.2408 12.5105 1179 100.143 961.685 406.445
1149 0 99.1459 12.4665 1236 99.4393 961.282 406.309
1150 0 103.193 13.4409 1387 96.9798 961.221 407.092
1151 0 106.157 13.075 1388 98.7428 961.808 402.952
1152 0 111.285 13.8383 1540 96.8864 962.019 402.395
1153 0 113.127 12.2517 1386 101.1 961.72 397.716
1154 0 117.173 12.2042 1430 101.086 962.022 397.447
1155 0 123.285 13.4242 1655 99.7329 962.828 395.598
1156 0 127.321 13.2736 1690 97.7763 962.288 392.971
1157 0 131.441 11.45 1505 100.158 963.019 392.955
1158 0 137.29 12.4991 1716 98.4685 962.851 388.552
1159 0 140.219 14.7198 2064 98.0833 963.506 391.126
1160 1 75.1653 13.2907 999 99.8128 962.492 420.498
1161 0 79.2336 14.9936 1188 97.9916 962.715 417.286
1162 0 80.2168 13.3014 1067 102.067 962.108 415.722
1163 0 79.1874 12.3757 980 99.4878 962.15 416.373
1164 0 82.2695 12.9817 1068 97.8286 962.387 414.998
1165 0 89.1843 13.5786 1211 95.5285 962.874 412.773
1166 0 90.3473 12.9168 1167 98.9152 962.3 410.261
1167 0 96.2833 13.5538 1305 97.8306 962.284 408.955
1168 0 97.2916 12.6835 1234 97.8006 962.223 407.149
1169 0 102.185 13.0841 1337 97.7412 962.191 405.915
1170 1 56.2162 11.9183 670 93.1627 962.184 429.757
1171 0 58.4196 12.8553 751 92.5952 962.417 427.395
1172 0 58.2381 12.0196 700 95.4457 963.16 427.213
1173 0 59.0682 10.6826 631 93.271 962.043 423.854
1174 0 62.4677 11.4459 715 91.2559 962.469 425.729
1175 0 67.0778 12.6868 851 90.6404 961.893 421.401
1176 0 67.0929 12.2666 823 91.5796 962.131 422.196
1177 0 70.0697 12.616 884 92.5554 962.081 420.225
1178 0 71.4007 11.4285 816 95.9412 961.749 419.385
1179 0 73.2105 13.0036 952 94.7101 962.373 418.472
1180 0 77.2831 12.2278 945 96.5926 961.828 418.114
1181 0 80.1708 12.5482 1006 96.5328 961.273 416.926
1182 0 81.1831 12.6504 1027 98.2843 962.098 413.786
1183 0 84.131 12.2071 1027 98.85 961.727 414.97
1184 0 87.3169 12.426 1085 98.8848 962.242 412.726
1185 0 90.1901 13.1833 1189 98.2565 961.859 411.336
1186 0 95.2146 13.6744 1302 97.4908 962.155 409.854
1187 0 99.4249 14.5939 1451 95.7105 962.513 410.272
1188 0 100.287 13.242 1328 100.053 962.961 406.149
1189 0 101.337 12.7988 1297 101.773 962.452 404.08
1190 0 107.336 13.5183 1451 100.416 962.421 403.819
1191 0 108.225 13.1485 1423 103.045 961.701 401.801
1192 1 58.2607 10.556 615 100.993 962.78 426.584
1193 0 59.1988 10.8617 643 99.3655 962.389 426.796
1194 0 62.0845 12.5635 780 94.6551 961.641 425.881
1195 0 64.095 13.0431 836 94.4569 962.11 425.067
1196 0 65.0749 12.2628 798 95.7719 962.678 424.865
1197 0 68.1726 12.4684 850 97.1835 962.981 420.076
1198 0 70.0734 11.6735 818 98.7861 962.665 417.39
1199 0 70.1837 12.3818 869 98.6306 961.337 418.671
1200 0 73.1081 12.037 880 99.5534 961.717 417.567
1201 0 75.2472 12.7048 956 98.0471 960.601 416.365
1202 0 77.2445 13.4896 1042 96.5106 961.222 417.662
1203 0 81.276 12.4514 1012 98.5751 962.117 417.485
1204 0 83.1971 11.2744 938 100.159 962.614 418.159
1205 0 86.1708 12.6029 1086 98.0847 961.567 414.153
1206 0 89.3464 11.6961 1045 101.07 961.478 410.887
1207 0 92.3042 12.1013 1117 100.423 961.913 412.336
1208 0 94.2844 12.5896 1187 99.9427 961.195 409.35
1209 0 98.3477 11.8051 1161 100.719 961.542 410.171
1210 1 49.2408 11.2508 554 96.4531 962.363 433.332
1211 0 50.2068 10.2576 515 98.5728 962.087 433.291
1212 0 54.0788 12.3338 667 96.9625 961.879 430.238
1213 0 55.09 12.3434 680 100.109 962.046 427.625
1214 0 56.1022 13.2437 743 97.8654 961.55 429.848
1215 0 58.0334 13.0787 759 99.2793 962.137 427.934
1216 0 58.0535 12.0234 698 100.635 961.434 429.136
1217 0 59.1323 12.1254 717 96.2259 962.006 427.247
1218 0 61.2705 11.2289 688 97.8503 962.036 427.699
1219 0 65.0855 11.9535 778 96.9859 961.614 423.931
1220 0 65.1558 11.1272 725 99.0455 962.157 424.55
1221 0 66.1984 10.9821 727 99.6327 962.373 423.044
1222 0 70.2732 12.6506 889 96.4781 962.267 421.382
1223 0 69.1868 11.7653 814 98.6843 962.259 421.303
1224 0 73.2974 11.924 874 98.2357 962.017 420.308
1225 0 76.0894 13.5761 1033 95.1326 962.62 418.216
1226 0 78.1287 11.5835 905 98.6983 962.607 417.038
1227 0 82.1946 12.1906 1002 97.1956 962.275 416.21
1228 0 84.2563 11.4888 968 97.6539 961.899 415.234
1229 0 88.1005 11.975 1055 96.4929 962.039 415.14
1230 0 89.2613 11.4271 1020 97.0333 962.036 415.787
1231 1 48.0871 10.6473 512 95.8281 962.477 432.906
1232 0 49.0965 12.2819 603 93.3798 962.682 431.459
1233 0 52.0453 10.8944 567 97.1023 962.324 430.944
1234 0 50.0797 11.8012 591 96.3926 962.795 427.7
1235 0 52.0177 12.6495 658 94.6277 962.787 428.24
1236 0 52.0598 12.0438 627 96.697 963.348 426.628
1237 0 55.055 12.5874 693 95.2208 962.856 427.984
1238 0 57.0461 11.8851 678 96.4351 963.779 427.937
1239 0 59.2172 13.6785 810 94.9951 963.659 425.164
1240 0 59.0705 11.664 689 100.63 964.177 425.163
1241 0 62.0766 11.6791 725 100.81 963.79 423.232
1242 0 63.1777 12.8843 814 98.4742 962.85 420.963
1243 0 67.1047 14.157 950 96.6747 963.67 421.253
1244 0 67.0465 12.991 871 100.042 963.313 421.072
1245 0 67.0465 12.991 871 135.696 963.313 421.072
1246 0 76.088 14.1941 1080 97.2907 962.974 417.592
1247 0 74.0762 13.4186 994 100.492 962.925 418.475
1248 0 77.0812 13.2069 1018 100.02 963.386 417.606
1249 0 82.1578 13.9975 1150 97.0426 963.149 413.709
1250 0 82.1735 13.8974 1142 97.732 963.44 414.807
1251 0 85.0888 13.5271 1151 99.2076 963.035 412.126
1252 0 89.1286 13.6769 1219 98.5308 963.452 413.024
1253 0 93.1412 14.215 1324 97.9962 963.143 409.289
1254 0 93.1071 12.7273 1185 101.884 962.63 407.623
1255 1 49.0915 12.7924 628 101.906 962.653 429.656
1256 0 52.0903 13.0926 682 100.55 962.881 430.855
1257 0 54.069 13.2978 719 100.413 962.478 429.102
1258 0 54.0803 12.2041 660 103.223 961.715 428.283
1259 0 55.103 11.9776 660 102.439 962.792 429.397
1260 0 56.0731 11.2888 633 105.81 961.4 428.504
1261 0 59.0904 12.2863 726 103.982 961.667 427.543
1262 0 59.1022 11.5732 684 107.659 962.3 426.197
1263 0 61.0807 13.0483 797 103.829 963.458 426.895
1264 0 64.0777 12.9686 831 105.673 962.807 424.182
1265 0 64.1131 12.8835 826 107.613 963.111 423.995
1266 0 64.1489 12.8607 825 108.99 962.979 422.773
1267 0 70.0226 12.9101 904 107.608 961.959 421.646
1268 0 73.0627 13.2078 965 107.269 962.046 421.08
1269 0 78.0806 12.7048 992 107.686 962.093 419.379
1270 0 79.0836 12.8092 1013 108.233 962.556 418.153
1271 0 80.1693 12.3489 990 110.282 963.162 417.364
1272 0 83.06 12.3646 1027 110.458 962.94 414.593
1273 0 86.0701 13.1172 1129 109.105 962.794 411.19
1274 1 49.0919 8.96278 440 107.023 963.089 432.427
1275 0 50.1002 11.0179 552 104.216 963.607 433.138
1276 0 51.027 10.9158 557 105.605 964.402 432.404
1277 0 53.0447 11.9333 633 104.916 964.539 429.752
1278 0 56.0784 12.1794 683 103.489 964.905 429.026
1279 0 56.0939 12.6573 710 103.424 964.12 428.772
1280 0 54.0689 9.17349 496 112.76 964.31 427.05
1281 0 56.0386 10.1894 571 110.699 964.403 425.455
1282 0 61.0385 11.6484 711 105.203 963.682 425.88
1283 0 61.1316 11.6143 710 105.446 964.121 426.163
1284 0 65.0323 12.4092 807 94.513 962.798 422.841
1285 0 66.0741 10.6698 705 98.4723 963.767 421.26
1286 0 67.0756 11.0621 742 98.4865 964.342 422.526
1287 0 69.0818 10.987 759 109.402 963.6 418.289
1288 0 73.0806 11.1931 818 109.138 964.462 419.067
1289 0 76.1294 11.5987 883 108.135 964.108 418.093
1290 0 79.087 10.8235 856 109.771 964.072 415.457
1291 0 79.115 10.6175 840 110.669 963.842 415.408
1292 0 83.1161 9.82962 817 111.13 963.766 416.144
1293 1 47.1932 10.1286 478 101.812 963.695 431.6
1294 0 48.09 12.0399 579 99.171 963.902 431.851
1295 0 49.1117 10.3641 509 103.629 963.872 428.902
1296 0 52.0665 9.8912 515 101.988 963.775 428.647
1297 0 53.0726 10.8908 578 101.227 964.393 429.552
1298 0 54.1484 10.1757 551 103.352 964.523 426.913
1299 0 57.1831 12.4512 712 98.2191 963.882 425.251
1300 0 56.0823 9.14728 513 105.977 963.717 425.411
1301 0 58.1315 10.201 593 103.626 962.772 423.84
1302 0 64.2358 12.6098 810 96.0741 963.707 425.462
1303 0 63.0816 10.9541 691 101.724 963.43 423.242
1304 0 66.0939 10.3943 687 101.808 963.731 421.654
1305 0 67.0848 13.237 888 96.6115 963.868 421.902
1306 0 69.0518 13.0192 899 97.2681 964.47 420.726
1307 0 69.2088 11.4147 790 100.096 963.813 421.03
1308 0 74.1492 14.4978 1075 93.7526 964.093 419.037
1309 0 74.1451 10.5469 782 102.257 965.022 417.592
1310 0 78.1848 12.6111 986 98.5892 964.967 415.021
1311 0 79.0414 11.7154 926 99.5194 963.916 417.38
1312 0 85.1396 12.6616 1078 97.167 964.116 415.329
1313 0 84.1346 10.8398 912 102.09 963.817 414.844
1314 0 90.1932 13.1606 1187 96.5569 964.471 414.025
1315 0 91.1217 12.6644 1154 98.9749 963.72 410.419
1316 1 51.0218 9.89774 505 95.4238 963.618 430.572
1317 0 51.0252 10.4066 531 95.1469 963.213 430.335
1318 0 55.1385 11.4439 631 93.1173 963.829 427.933
1319 0 57.0745 12.0544 688 90.9157 963.302 428.432
1320 0 59.1524 11.1407 659 89.1047 963.376 428.476
1321 0 57.0396 9.64242 550 92.9855 962.627 428.229
1322 0 60.1055 12.295 739 89.3045 962.842 426.904
1323 0 62.0348 12.364 767 89.4159 961.948 426.767
1324 0 63.0522 12.2914 775 89.32 962.508 426.108
1325 0 64.0487 13.2555 849 87.6702 962.151 427.283
1326 0 66.1034 11.6484 770 90.5532 963.227 426.595
1327 0 70.0682 11.5031 806 90.7556 962.269 422.483
1328 0 71.135 11.2181 798 92.2644 962.628 420.059
1329 0 72.0819 11.1124 801 91.8489 962.337 422.762
1330 0 76.0661 12.3051 936 89.3355 962.5 421.205
1331 0 76.2165 10.5489 804 93.5025 963.032 421.026
1332 0 79.0903 11.5943 917 91.6194 962.959 418.087
1333 0 82.236 11.0171 906 92.5684 962.437 418.251
1334 1 160.273 12.2728 1967 102.263 961.589 380.496
1335 1 87.1151 12.3056 1072 92.2631 961.767 415.324
1336 0 91.2674 11.669 1065 93.8423 962.579 413.891
1337 1 50.0581 10.6276 532 93.282 961.611 431.654
1338 0 50.2032 9.84001 494 94.7672 962.435 431.812
1339 0 51.0492 10.245 523 94.2543 962.017 432.371
1340 0 53.0594 11.685 620 92.6258 962.927 431.774
1341 0 55.1127 12.5017 689 91.2148 962.543 430.123
1342 0 57.1281 12.9358 739 90.3518 961.888 429.1
1343 0 57.2657 11.8745 680 92.1515 961.987 429.341
1344 0 56.1013 10.5523 592 95.853 961.951 429.245
1345 0 60.0988 13.2282 795 91.0717 961.77 427.064
1346 0 60.0932 12.0646 725 93.8262 961.446 428.059
1347 0 64.0991 12.3091 789 93.1673 961.618 428.114
1348 0 64.1096 12.4006 795 94.2755 962.19 425.556
1349 0 65.3036 11.5308 753 96.0066 961.875 424.896
1350 0 69.0904 12.2304 845 94.3905 961.991 423.63
1351 0 70.1755 12.1695 854 94.8888 961.597 423.701
1352 0 72.0986 12.3303 889 94.7964 960.702 422.105
1353 0 75.1206 12.8327 964 94.0498 962.232 419.636
1354 0 78.1824 13.6987 1071 91.8712 961.355 421.055
1355 0 76.1589 11.4629 873 95.5979 962.239 421.668
1356 0 82.1102 11.9108 978 94.2239 961.798 422.396
1357 0 83.0796 11.3987 947 95.6695 961.3 420.346
1358 1 42.0633 10.6031 446 92.0314 960.996 436.848
1359 0 43.0334 9.80635 422 94.6469 961.396 437.261
1360 0 45.0447 11.4553 516 92.4709 961.738 435.349
1361 0 46.2031 12.3368 570 90.6123 961.29 435.307
1362 0 48.1334 11.4473 551 91.9837 961.401 435.02
1363 0 48.132 12.1333 584 92.0822 960.973 434.955
1364 0 48.0577 10.8828 523 95.3423 960.706 434.732
1365 0 51.1075 10.9182 558 95.1022 961.792 435.22
1366 0 52.0446 12.2011 635 93.8472 961.809 432.635
1367 0 52.0609 12.9272 673 93.7459 961.716 432.877
1368 0 54.1031 12.125 656 93.9817 962.259 434.915
1369 0 54.0583 10.8401 586 98.355 960.763 433.181
1370 0 56.1492 12.3065 691 96.1302 962.457 432.729
1371 0 57.1182 12.1677 695 97.4029 961.188 429.527
1372 0 57.0971 12.1722 695 98.3511 961.855 429.322
1373 0 62.07 13.8231 858 94.5874 961.199 429.038
1374 0 63.0503 13.2275 834 96.4053 962.18 428.381
1375 0 64.0608 13.9243 892 96.6031 961.506 425.687
1376 0 66.044 12.7945 845 98.3479 961.505 427.202
1377 0 69.0962 13.2279 914 98.0864 960.847 424.015
1378 0 73.1023 13.7889 1008 95.6875 961.298 419.643
1379 0 72.1236 13.2828 958 98.7338 960.438 414.781
1380 0 78.0699 12.9627 1012 98.4486 961.196 414.451
1381 0 78.1539 14.2283 1112 96.2923 960.516 419.032
1382 0 81.1729 13.3788 1086 97.2624 960.105 421.104
1383 0 85.1915 13.722 1169 95.3062 959.691 422.582
1384 0 85.1118 13.0769 1113 97.6828 959.909 421.049
1385 0 87.1433 12.9901 1132 98.9479 960.622 417.447
1386 0 87.0986 13.4445 1171 97.3988 960.044 414.459
1387 1 46.0209 10.9733 505 99.6515 960.253 436.109
1388 0 48.0766 11.8561 570 95.8807 959.367 438.137
1389 0 50.0293 12.8924 645 95.8961 960.012 433.262
1390 0 51.0423 11.5786 591 96.2538 960.467 432.088
1391 0 53.087 11.3775 604 98.0728 959.548 430.578
1392 0 54.0589 12.1534 657 98.1248 959.942 428.33
1393 0 56.1147 14.0605 789 94.0304 960.207 429.708
1394 0 57.0568 11.7953 673 99.0327 959.682 427.894
1395 0 59.0306 11.9768 707 99.8571 960.255 428.386
1396 0 60.088 12.8145 770 99.4286 960.578 428.162
1397 0 63.1183 14.0055 884 96.4604 959.834 428.951
1398 0 65.1471 13.9223 907 99.4421 960.071 428.451
1399 0 67.0612 13.689 918 101.512 959.547 429.489
1400 0 69.0718 13.942 963 100.984 959.907 427.372
1401 0 71.0518 13.089 930 102.123 959.892 426.461
1402 0 72.0946 13.5516 977 102.581 959.921 423.018
1403 0 73.2576 14.1965 1040 102.55 960.338 423.073
1404 0 78.0453 13.6075 1062 102.247 960.331 422.602
1405 0 82.0537 14.9658 1228 98.6661 960.542 417.886
1406 0 81.0795 13.6163 1104 102.697 960.532 418.912
1407 0 83.0756 13.4095 1114 102.87 960.386 418.458
1408 0 87.1072 13.558 1181 101.891 960.452 418.501
1409 0 89.0871 13.5373 1206 102.159 959.605 417.104
1410 0 91.0666 14.1654 1290 102.119 960.237 415.862
1411 0 94.0708 12.6394 1189 105.315 960.744 413.39
1412 0 98.0794 12.5612 1232 105.303 959.984 411.45
1413 0 98.1304 12.5547 1232 106.827 960.647 409.815
1414 1 55.091 12.1072 667 101.844 960.549 434.925
1415 0 58.1224 13.4544 782 100.844 960.624 432.402
1416 0 57.0843 12.8056 731 99.3543 960.956 431.072
1417 0 61.029 12.8464 784 97.6492 960.709 432.677
1418 0 64.0443 13.6468 874 96.2037 961.175 431.265
1419 0 63.0627 13.4152 846 100.001 960.483 428.996
1420 0 66.0946 13.2991 879 104.166 961.126 426.918
1421 0 67.0575 11.9151 799 109.035 961.03 426.569
1422 0 73.0603 13.9474 1019 104.003 961.025 426.097
1423 0 73.0558 14.2904 1044 104.841 960.918 426.303
1424 0 74.0416 12.6145 934 110.076 961.098 423.729
1425 0 79.0758 14.1636 1120 106.612 960.407 423.001
1426 0 80.1255 14.0405 1125 108.507 960.813 421.932
1427 0 82.0941 13.8621 1138 109.464 959.7 422.9
1428 0 85.2375 14.3951 1227 108.566 960.598 419.928
1429 0 90.0896 14.3191 1290 108.819 959.659 417.78
1430 0 94.15 15.1885 1430 107.432 960.123 414.25
1431 0 95.0639 14.4429 1373 110.122 959.742 414.778
1432 0 97.081 14.1016 1369 111.562 960.169 412.28
1433 0 100.105 13.1162 1313 114.525 960.649 413.812
1434 0 101.136 13.8724 1403 114.601 959.911 409.134
1435 1 58.047 11.7319 681 111.994 959.915 432.451
1436 0 58.0246 12.96 752 111.472 960.215 433.045
1437 0 60.0278 13.7436 825 110.733 959.621 430.259
1438 0 62.1216 14.1658 880 109.906 959.63 429.68
1439 0 65.0672 14.4773 942 108.245 959.19 428.618
1440 0 67.1216 14.0789 945 110.179 959.462 425.814
1441 0 70.1129 13.4925 946 109.669 958.645 425.524
1442 0 73.0656 13.1115 958 109.718 959.883 424.888
1443 0 74.1056 13.7911 1022 109.123 959.275 421.914
1444 0 77.0831 13.8163 1065 108.203 959 422.451
1445 0 78.0391 14.2108 1109 107.305 959.037 419.856
1446 0 83.126 14.051 1168 108.016 958.736 418.816
1447 0 85.0916 13.8322 1177 108 959.969 419.788
1448 0 89.0809 14.6272 1303 105.222 959.108 417.503
1449 0 92.0764 14.7052 1354 105.446 959.248 411.634
1450 0 95.1508 14.6715 1396 108.748 959.226 413.003
1451 0 98.2082 14.7238 1446 108.506 958.803 413.258
1452 0 101.093 14.6005 1476 109.017 959.368 411.622
1453 0 105.215 14.7508 1552 108.287 959.279 406.624
1454 0 108.163 14.6076 1580 108.936 959.72 407.003
1455 0 113.213 14.751 1670 108.113 959.776 403.838
1456 0 117.261 14.3697 1685 103.907 959.394 401.523
1457 1 64.0358 11.5717 741 100.897 959.166 429.061
1458 0 64.1245 11.3373 727 104.805 959.871 427.378
1459 0 68.0316 12.3178 838 102.372 960.177 426.852
1460 0 70.0517 11.6343 815 103.396 959.956 426.428
1461 0 73.1792 13.2141 967 101.267 960.074 423.818
1462 0 74.1152 12.7099 942 102.072 959.65 424.503
1463 0 78.0656 12.5279 978 103.025 958.934 422.051
1464 0 82.1049 13.3122 1093 101.246 959.536 421.197
1465 0 84.0655 13.4776 1133 102.331 959.41 417.742
1466 0 86.033 13.8203 1189 103.754 960.526 416.443
1467 0 92.1616 14.7675 1361 105.837 959.793 415.409
1468 0 93.0607 12.8411 1195 109.224 959.756 416.126
1469 0 97.1177 13.6947 1330 108.86 959.183 412.685
1470 0 102.199 14.5501 1487 106.457 959.697 407.79
1471 0 104.099 14.7552 1536 106.848 959.228 406.658
1472 0 107.111 14.1349 1514 108.355 959.792 407.063
1473 1 53.0625 11.967 635 103.102 959.654 433.898
1474 0 55.0966 12.1423 669 100.996 960.372 436.03
1475 0 58.0618 13.6406 792 99.846 960.438 432.149
1476 0 59.0238 13.4353 793 100.512 959.209 432.806
1477 0 63.0797 12.8409 810 100.907 960.19 433.121
1478 0 64.0475 12.9435 829 101.756 959.677 430.784
1479 0 68.0858 12.3961 844 103.335 960.182 430.201
1480 0 70.0997 12.3253 864 104.273 959.642 427.55
1481 0 73.1146 13.2942 972 102.148 960.126 425.729
1482 0 75.0629 13.149 987 104.704 960.489 424.275
1483 0 77.084 12.7653 984 105.326 959.681 423.812
1484 0 79.1528 14.6678 1161 103.519 959.964 421.23
1485 0 81.1162 13.8813 1126 105.358 960.428 420.62
1486 0 84.1541 15.3647 1293 101.854 960.139 421.957
1487 0 87.167 13.9502 1216 106.289 960.634 418.65
1488 0 90.1174 13.9041 1253 105.565 960.054 418.665
1489 0 92.0396 13.3421 1228 107.868 959.575 417.684
