time division length width area intensity CMx CMy
0 0 37.1173 10.8305 402 133.751 1105.04 472.323
1 0 38.016 10.8375 412 134.119 1105.31 472.306
2 0 38.0635 10.3249 393 134.715 1106.2 472.562
3 0 37.0742 10.5734 392 122.992 1107.2 472.518
4 0 37.0675 10.5483 391 122.529 1108.2 472.56
5 0 41.0384 10.015 411 136.528 1106.54 472.453
6 0 43.0673 10.9596 472 134.081 1106.18 470.949
7 0 45.0432 10.7896 486 133.519 1105.92 469.377
8 0 46.0517 11.3568 523 131.937 1106.06 469.776
9 0 46.061 12.1144 558 131.004 1105.98 469.833
10 0 47.0867 11.6169 547 133.47 1105.57 469.728
11 0 49.0733 12.084 593 132.297 1105.74 469.497
12 0 51.0283 11.5426 589 132.701 1105.36 468.74
13 0 51.0283 11.523 588 124.998 1104.37 468.743
14 0 53.0929 12.6382 671 131.601 1105.24 469.724
15 0 56.079 11.9296 669 133.786 1104.83 468.215
16 0 55.0391 13.1724 725 133.003 1105.09 467.425
17 0 58.0776 11.3124 657 134.804 1105.02 469.131
18 0 58.0707 11.2105 651 129.326 1105.01 469.267
19 0 61.092 12.7022 776 135.183 1103.71 465.353
20 0 63.0143 11.3784 717 138.446 1103.86 466.954
21 0 65.0355 12.1626 791 137.415 1103.79 466.589
22 0 68.0663 12.0471 820 138.168 1104.38 465.437
23 0 68.0663 12.1205 825 136.97 1105.39 465.384
24 0 68.0619 12.1948 830 136.288 1106.41 465.296
25 0 68.0619 12.1948 830 135.982 1107.41 465.296
26 0 70.1009 10.6846 749 140.712 1103.46 468.214
27 1 40.0358 12.4888 500 139.072 1103.95 479.302
28 0 42.0298 13.1098 551 138.621 1103.71 477.715
29 0 43.063 14.1188 608 137.069 1104.39 476.939
30 0 43.0505 13.7513 592 139.755 1103.51 477.512
31 0 45.0286 14.0133 631 138.087 1103.25 476.856
32 0 47.0514 12.8158 603 141.376 1102.87 476.348
33 0 47.0514 12.8158 603 151.438 1102.85 476.373
34 0 51.0794 13.7629 703 136.852 1103.25 476.986
35 0 49.03 13.0124 638 143.901 1103.68 475.122
36 0 52.068 14.1738 738 138.095 1103.63 475.046
37 0 54.0356 13.8057 746 140.316 1102.8 474.107
38 0 54.0453 13.9328 753 144.17 1101.79 474.146
39 0 53.0658 13.6623 725 145.201 1100.82 474.709
40 0 58.0703 13.6214 791 142.153 1102.88 470.138
41 0 59.0554 13.3603 789 142.617 1102.58 471.075
42 0 61.0398 13.4502 821 142.832 1102.17 469.206
43 0 61.0398 13.4666 822 155.774 1102.17 469.331
44 0 67.0455 15.0346 1008 135.334 1102.07 467.97
45 0 67.0366 14.947 1002 147.27 1102.06 468.022
46 0 72.0961 14.342 1034 137.961 1102.01 465.955
47 0 74.055 14.5432 1077 137.877 1101.6 463.462
48 0 76.0841 14.024 1067 137.411 1101.96 460.822
49 0 80.0797 15.2098 1218 132.177 1101.86 462.506
50 0 83.1849 15.3153 1274 132.21 1101.35 460.772
51 0 86.1023 14.0182 1207 141.262 1101.64 458.682
52 0 89.1107 14.2183 1267 140.457 1102.07 457.803
53 0 93.0895 14.6096 1360 139.007 1101.41 457.19
54 0 95.1644 14.9005 1418 138.891 1101.57 454.019
55 1 48.0346 12.4285 597 142.417 1101.98 477.161
56 0 48.0346 12.491 600 152.7 1102.95 477.253
57 0 48.0463 12.488 600 152.215 1103.95 477.253
58 0 56.0704 14.1964 796 130.524 1102.19 475.746
59 0 57.0414 14.9365 852 130.028 1102.53 473.595
60 0 60.0635 14.5013 871 129.995 1101.7 472.684
61 0 60.0635 14.5679 875 141.181 1100.71 472.694
62 0 64.0548 13.5509 868 134.204 1101.35 472.759
63 0 64.0579 13.4254 860 157.623 1102.33 472.534
64 0 70.0561 15.145 1061 129.522 1101.55 469.351
65 0 69.0653 14.0157 968 135.088 1101.59 468.532
66 0 75.1865 14.5372 1093 132.169 1101.14 467.331
67 0 75.1865 14.4973 1090 158.416 1101.12 467.293
68 0 79.1044 14.9928 1186 138.118 1101 463.589
69 0 82.0601 14.5625 1195 139.21 1100.52 461.91
70 0 85.1565 15.266 1300 136.82 1100.71 459.778
71 0 88.1355 15.4535 1362 136.523 1100.73 458.97
72 0 91.2259 15.5219 1416 134.953 1100.73 459.335
73 0 94.0866 14.8268 1395 136.73 1101.49 456.608
74 0 98.0945 15.1487 1486 134.764 1101.05 453.2
75 0 101.059 15.3573 1552 133.401 1100.59 452.818
76 0 101.059 15.3375 1550 157.319 1100.61 452.959
77 0 101.059 15.387 1555 156.615 1100.61 452.938
78 1 111.075 14.2157 1579 133.738 1100.99 448.155
79 0 116.069 15.1118 1754 130.729 1100.68 445.922
80 1 58.059 10.8683 631 125.089 1101.27 469.586
81 0 62.0485 11.8617 736 120.474 1101.11 469.764
82 0 65.0685 13.9853 910 119.638 1101.7 472.752
83 0 67.0673 14.3438 962 119.653 1101.32 468.81
84 0 70.0526 13.3186 933 121.416 1101.86 467.508
85 0 73.1034 13.9528 1020 118.485 1102 468.2
86 0 75.06 14.3752 1079 118.508 1101.2 466.285
87 0 78.0825 13.4729 1052 120.44 1101.58 465.668
88 0 81.1613 13.0604 1060 119.791 1101.06 464.819
89 0 83.1347 14.8193 1232 116.78 1100.92 461.257
90 0 85.112 14.7688 1257 116.593 1100.78 461.786
91 0 89.124 14.2835 1273 117.497 1100.99 460.09
92 0 89.124 14.3059 1275 147.72 1101.98 459.947
93 0 95.0572 13.6023 1293 125.252 1100.6 457.655
94 0 99.079 14.554 1442 123.111 1101.54 454.651
95 0 102.13 14.1192 1442 124.188 1101.19 452.979
96 1 54.0218 11.9026 643 120.207 1101.5 477.684
97 0 55.0553 11.6065 639 121.066 1101.14 475.797
98 0 58.0497 11.8002 685 118.781 1100.52 475.534
99 0 58.0439 13.507 784 113.753 1101.5 474.245
100 0 61.0248 12.8308 783 117.462 1100.88 471.275
101 0 63.0885 11.4125 720 120.39 1100.52 471.108
102 0 68.088 14.0847 959 113.292 1100.84 468.944
103 0 70.0393 13.421 940 114.306 1100.48 468.851
104 0 73.0221 14.256 1041 112.145 1100.2 467.631
105 0 74.0451 12.9381 958 115.836 1099.95 466.911
106 0 76.0986 12.9569 986 115.759 1099.66 464.596
107 0 78.0883 13.0749 1021 115.716 1100.39 462.102
108 0 82.159 13.6808 1124 113.227 1101.04 462.156
109 0 84.1547 13.3445 1123 114.254 1100.84 460.185
110 0 84.1547 13.3682 1125 143.812 1099.86 459.96
111 0 84.1465 13.3458 1123 143.417 1098.87 459.955
112 0 91.114 13.4447 1225 113.518 1100.13 455.502
113 0 95.0566 13.9075 1322 112.846 1099.89 454.904
114 0 95.0552 13.9498 1326 137.162 1100.88 454.762
115 0 101.058 12.0921 1222 117.176 1099.65 453.444
116 0 101.059 12.0622 1219 151.546 1098.66 453.559
117 1 55.0298 12.3388 679 111.13 1100.16 475.546
118 0 56.0573 10.9174 612 110.26 1099.46 475.123
119 0 56.0697 12.1634 682 110.663 1099.89 474.252
120 0 59.0517 11.7863 696 110.455 1099.93 473.83
121 0 60.0588 11.8717 713 110.501 1099.85 474.579
122 0 64.2511 11.8286 760 111.308 1100.01 471.157
123 0 64.089 11.1408 714 114.228 1100.84 471.228
124 0 69.07 13.0737 903 110.69 1100.72 468.432
125 0 69.0295 12.2991 849 113.15 1101.03 468.165
126 0 72.0559 12.7817 921 114.417 1099.95 465.979
127 0 74.082 12.1487 900 115.704 1100.3 466.528
128 0 76.0662 12.1473 924 117.911 1100.58 464.171
129 0 79.1724 12.1128 959 118.813 1100.73 462.636
130 0 82.197 12.6039 1036 117.958 1100.98 462.434
131 0 85.1233 12.4643 1061 118.597 1100.48 459.707
132 0 88.1688 13.3834 1180 116.064 1100.25 458.885
133 0 91.1793 11.5596 1054 119.864 1100.92 459.05
134 0 93.1195 12.7256 1185 117.865 1100.57 455.746
135 1 51.1063 12.1903 623 107.069 1100.85 478.88
136 0 49.2583 11.2874 556 111.574 1100.98 478.293
137 0 52.1117 10.7845 562 113.456 1101.64 477.546
138 0 52.1117 10.8613 566 135.58 1102.64 477.633
139 0 52.1117 10.8229 564 135.167 1103.64 477.716
140 0 56.0503 11.0258 618 113.27 1101.39 476.442
141 0 56.0503 11.0436 619 134.651 1099.41 476.456
142 0 61.1622 10.7583 658 114.381 1100.32 473.824
143 0 64.1202 10.9482 702 113.877 1100.36 472.282
144 0 66.0899 11.6659 771 112.747 1100.71 470.233
145 0 67.0863 11.9995 805 114.045 1101.08 467.663
146 0 70.0803 12.7711 895 112.906 1100.95 466.889
147 0 70.0409 12.3642 866 115.824 1098.56 466.303
148 0 75.1665 11.4812 863 114.686 1098.94 467.228
149 0 78.0958 11.6395 909 114.888 1098.61 466.16
150 0 82.1977 11.4967 945 113.117 1099.34 465.343
151 0 84.2101 12.4807 1051 111.643 1099.05 462.231
152 0 88.0692 12.8649 1133 112.013 1099.08 460.328
153 0 90.1446 12.0917 1090 113.284 1098.96 460.101
154 1 49.0565 11.7416 576 111.814 1098.01 478.51
155 0 50.0191 13.2349 662 109.044 1098.18 478.586
156 0 51.0243 12.7586 651 108.882 1097.82 476.527
157 0 52.0761 11.0799 577 114.295 1098.62 477.014
158 0 55.0621 11.8775 654 112.78 1098.36 474.709
159 0 57.0485 12.9539 739 109.861 1097.83 475.765
160 0 56.028 12.6008 706 113.241 1098.18 472.618
161 0 61.0472 12.1873 744 111.707 1098.64 472.527
162 0 62.0968 13.0119 808 110.8 1098.48 471.325
163 0 64.0515 12.2401 784 113.5 1098.13 470.899
164 0 66.1645 11.819 782 115.334 1098.55 470.205
165 0 67.0503 13.7956 925 111.383 1098.43 470.149
166 0 70.1509 12.744 894 115.362 1098.59 467.485
167 0 73.1291 13.401 980 113.184 1098.62 468.518
168 0 75.1241 13.5243 1016 114.569 1098.64 465.884
169 0 77.2214 13.6102 1051 115.736 1098.27 465.069
170 0 80.0757 14.1241 1131 115.849 1098.05 462.998
171 0 82.2366 12.7802 1051 120.857 1097.93 461.607
172 0 87.1447 14.2063 1238 115.752 1098.36 461.483
173 0 87.1447 14.0571 1225 146.188 1099.37 461.634
174 0 92.123 13.0261 1200 114.251 1098.72 459.95
175 0 95.0722 12.6115 1199 115.881 1098.81 457.964
176 1 50.1117 13.8091 692 112.62 1098.38 478.215
177 0 49.0692 12.3295 605 119.612 1098.34 478.056
178 0 51.0556 12.8292 655 118.365 1098.65 478.13
179 0 53.0553 13.2503 703 117.114 1099.14 476.767
180 0 53.0149 13.0529 692 118.199 1098.64 476.561
181 0 57.1002 13.3274 761 116.669 1098.77 474.979
182 0 56.0408 13.2939 745 118.552 1098.57 473.958
183 0 58.033 11.5624 671 122.356 1098.55 474.44
184 0 58.0267 11.4947 667 152.367 1098.54 474.48
185 0 58.0267 11.4602 665 151.979 1098.52 474.511
186 0 67.0864 14.1161 947 113.548 1098.7 470.514
187 0 68.1146 14.3288 976 114.699 1098.92 469.573
188 0 68.1034 13.0831 891 117.966 1099.54 469.071
189 0 73.0702 14.3287 1047 112.972 1098.99 468.301
190 0 75.1217 13.5646 1019 114.179 1098.88 466.815
191 0 77.0711 13.001 1002 115.366 1099.21 465.763
192 1 41.0455 11.1096 456 116.52 1098 483.487
193 0 42.0781 12.358 520 116.292 1098.22 482.29
194 0 42.0781 12.2867 517 151.031 1098.18 482.277
195 0 44.0762 11.4347 504 111.375 1101 480.893
196 0 43.0771 11.7232 505 135.877 1102.01 480.776
197 0 44.1097 10.9046 481 116.094 1099.41 480.468
198 0 45.0684 11.2274 506 115.5 1099.19 481.168
199 0 47.1006 11.4224 538 113.34 1099.43 480.771
200 0 47.1006 11.3587 535 132.097 1099.43 480.736
201 0 51.0189 10.9567 559 114.594 1098.57 478.959
202 0 51.1031 11.0757 566 117.235 1098.2 476.297
203 0 52.0579 11.6793 608 115.804 1099.2 476.808
204 0 56.1169 12.9373 726 111.683 1098.85 475.172
205 0 56.0434 10.5097 589 117.486 1099.35 476.044
206 0 57.0836 10.9489 625 116.44 1099.76 474.944
207 0 60.0552 11.5727 695 114.268 1099.65 474.16
208 0 62.0986 10.5155 653 114.095 1099.85 472.832
209 0 63.1389 10.5482 666 114.171 1100.51 471.053
210 0 66.1277 12.4002 820 109.404 1100.29 468.17
211 0 70.1419 10.6071 744 112.128 1100.08 467.218
212 0 72.1255 11.7296 846 110.648 1099.53 466.093
213 1 38.0675 9.90346 377 112.851 1099.54 484.016
214 0 40.0421 11.1882 448 110.52 1099.94 482.681
215 0 40.0273 12.0418 482 108.676 1099.54 481.99
216 0 43.0102 11.5089 495 111.352 1101.88 480.943
217 0 45.1089 13.0351 588 114.524 1099.66 478.927
218 0 46.217 12.8524 594 115.253 1099.82 478.566
219 0 48.0852 13.6009 654 114.078 1098.98 477.8
220 0 49.0451 12.1113 594 118.816 1100.58 478
221 0 51.0348 12.8344 655 115.673 1100.86 476.751
222 0 53.0294 11.8613 629 118.639 1101.27 476.548
223 0 53.0305 13.8034 732 137.18 1101.33 474.75
224 0 54.0295 12.5487 678 118.947 1101.47 475.375
225 0 54.0537 11.2666 609 117.877 1100.94 475.376
226 0 56.0756 12.3762 694 114.439 1101.09 475.311
227 0 58.0417 13.5075 784 113.163 1100.88 472.561
228 0 58.0431 13.4383 780 127.474 1099.86 472.582
229 0 62.0718 13.1138 814 114.943 1100.14 469.993
230 0 62.0745 13.1133 814 136.514 1101.14 469.935
231 0 66.115 12.3421 816 116.286 1100.1 471.19
232 0 68.0571 13.3858 911 115.659 1099.5 467.695
233 0 71.1201 13.3155 947 115.767 1100.04 468.171
234 0 74.2452 13.6305 1012 116.521 1100.25 465.625
235 0 77.279 12.8237 991 119.241 1100.14 465.723
236 0 78.2339 12.2326 957 121.847 1100.33 465.26
237 0 81.2934 13.5312 1100 120.705 1100.58 461.954
238 0 86.2051 13.5839 1171 125.181 1100.27 460.187
239 0 89.3552 15.0859 1348 122.261 1100.28 456.522
240 0 92.2823 14.4448 1333 125.207 1099.97 455.723
241 0 92.261 14.5132 1339 156.482 1099.95 455.707
242 1 52.1758 11.9404 623 120.066 1100.97 474.836
243 0 54.2345 12.7963 694 120.888 1100.59 475.84
244 0 54.2345 12.7778 693 146.27 1100.58 475.766
245 0 58.1397 12.7796 743 121.475 1100.99 474.575
246 0 58.1015 12.9085 750 121.047 1101.44 472.877
247 0 62.1768 12.1589 756 120.025 1101.99 473.46
248 0 63.1016 12.9791 819 117.672 1102.15 473.714
249 0 66.1809 12.3752 819 118.827 1101.96 470.503
250 0 67.0915 11.9538 802 122.443 1101.97 470.015
251 0 69.0951 12.4321 859 118.563 1102.21 469.286
252 0 71.0785 12.5917 895 117.898 1102.13 467.866
253 0 75.1093 13.5136 1015 115.567 1100.97 467.489
254 0 78.1991 14.0794 1101 113.867 1100.95 465.404
255 0 76.1894 13.2433 1009 144.024 1101.04 464.19
256 1 41.3761 10.9725 454 116.317 1100.39 482.634
257 0 40.1384 11.6098 466 116.406 1100.72 481.185
258 0 41.1164 11.1391 458 110.138 1101.06 483.129
259 0 42.0891 10.6916 450 111.696 1101.18 482.973
260 0 44.03 10.4928 462 110.965 1101.65 482.716
261 0 44.03 10.6064 467 136.647 1101.65 482.634
262 0 47.0289 11.1208 523 110.855 1101.22 481.671
263 0 45.0991 10.8871 491 113.827 1100.82 481.448
264 0 48.0605 11.652 560 111.443 1101.34 479.768
265 0 50.0699 11.7036 586 109.875 1100.99 481.266
266 0 52.0751 11.541 601 110.552 1101.42 479.113
267 0 51.026 11.014 562 114.249 1101.78 477.546
268 0 54.0969 11.4239 618 112.812 1101.42 476.953
269 0 55.1073 12.1218 668 110.946 1101.45 477.674
270 0 58.1038 12.5981 732 109.546 1100.78 476.066
271 0 60.1151 11.9105 716 112.003 1101.01 475.094
272 0 61.0977 10.9169 667 114.405 1101.06 473.591
273 0 63.0882 11.6187 733 113.408 1100.94 473.458
274 0 66.0805 12.0005 793 112.609 1100.78 472.426
275 0 67.0763 13.015 873 143.946 1099.71 470.911
276 0 66.1061 11.8446 783 147.502 1098.78 472.424
277 0 71.1292 11.219 798 116.113 1101.02 469.929
278 0 74.0491 12.7348 943 113.141 1100.73 466.983
279 0 77.0647 11.7434 905 114.766 1101.49 467.982
280 0 80.0681 12.6517 1013 112.927 1101.48 465.247
281 0 83.0684 11.0873 921 117.202 1100.93 462.098
282 0 84.0726 10.8359 911 117.889 1101.13 463.29
283 0 89.1431 12.7323 1135 112.967 1101.3 459.944
284 1 44.0263 11.4931 506 112.868 1101.47 481.66
285 0 44.0263 11.6067 511 142.877 1101.42 481.775
286 0 48.0927 12.5799 605 108.083 1102.08 481.876
287 0 48.0578 12.3809 595 110.674 1102.25 480.499
288 0 48.1322 11.3853 548 111.161 1102.42 482.057
289 0 51.101 11.9176 609 110.491 1102.18 479.816
290 0 51.1054 11.8187 604 111.823 1102.23 478.409
291 0 53.0675 12.8704 683 108.346 1101.82 478.375
292 0 53.116 11.9173 633 110.894 1101.54 478.422
293 0 55.0972 13.2675 731 108.174 1101.19 475.85
294 0 56.0503 12.7921 717 109.199 1100.95 476.789
295 0 58.0491 12.2138 709 109.841 1100.32 475.245
296 0 60.0999 11.2979 679 112.297 1100.59 473.811
297 0 62.1223 12.5881 782 109.494 1100.67 473.912
298 0 61.075 11.052 675 113.828 1100.82 471.988
299 0 65.1314 12.2521 798 111.697 1100.46 469.173
300 0 68.1774 12.3355 841 111.156 1100.3 470.109
301 0 69.1927 11.3018 782 114.26 1100 468.386
302 0 69.1667 11.3349 784 138.545 1098.98 468.423
303 0 75.057 12.1108 909 114.576 1100.67 465.348
304 0 76.0606 12.0825 919 115.243 1101.21 466.198
305 0 81.1332 12.9417 1050 111.562 1101.29 466.219
306 0 82.2068 11.7022 962 115.354 1100.47 464.341
307 1 42.0934 11.7833 496 113.742 1101.54 482.065
308 0 45.0577 12.8946 581 109.881 1101.24 481.303
309 0 41.0349 10.9175 448 110.453 1100 483.879
310 0 44.0696 11.4592 505 108.909 1100.29 483.077
311 0 44.0531 11.9401 526 109.173 1100.51 481.527
312 0 46.1035 10.6716 492 111.64 1100.87 480.661
313 0 50.0514 12.7269 637 105.812 1101.31 478.947
314 0 50.1041 12.2944 616 107.523 1100.57 479.058
315 0 51.1052 11.5057 588 109.838 1099.98 480.06
316 0 53.1056 13.7838 732 105.47 1100.88 476.906
317 0 54.1137 12.677 686 107.534 1100.35 476.714
318 0 58.0842 11.8277 687 108.793 1100.55 475.865
319 0 59.0306 12.0107 709 109.623 1100.98 473.348
320 0 59.1575 11.985 709 109.745 1101 473.109
321 0 64.078 12.2975 788 108.882 1101.08 472.688
322 0 66.199 12.0848 800 109.665 1100.86 470.675
323 0 69.1308 12.527 866 107.745 1101.09 470.478
324 0 72.1293 11.2576 812 110.026 1100.75 469.482
325 1 36.0114 10.4967 378 110.788 1101.26 485.844
326 0 37.0343 11.4759 425 106.558 1101.66 484.821
327 0 38.0357 12.1465 462 105.273 1100.92 484.34
328 0 38.0084 13.6022 517 103.431 1100.56 483.52
329 0 41.0344 13.184 541 103.734 1100.63 483.527
330 0 43.0204 12.3895 533 105.122 1100.96 482.713
331 0 42.0415 11.4411 481 109.239 1101.07 482.407
332 0 44.0455 12.0103 529 107.86 1099.96 481.406
333 0 46.0145 12.4526 573 106.679 1099.81 480.504
334 0 47.0421 12.2443 576 107.384 1100.78 479.441
335 0 48.0945 12.4339 598 107.062 1100.45 481.425
336 0 50.1822 12.8133 643 106.549 1100.91 479.012
337 0 51.1345 12.4182 635 107.696 1100.65 479.271
338 0 51.093 12.6828 648 108.724 1100.57 477.935
339 0 54.037 13.0096 703 107.691 1101.38 477.046
340 0 58.1262 13.6771 795 105.384 1101.26 476.799
341 0 58.0847 13.1532 764 108.891 1101.07 475.603
342 0 60.0701 12.4854 750 109.567 1101.09 475.273
343 0 62.0611 14.244 884 107.778 1100.37 472.834
344 0 63.0479 13.4977 851 109.726 1100.94 473.277
345 0 67.0882 14.712 987 106.835 1100.65 472.451
346 0 69.1694 14.0091 969 109.556 1100.59 470.54
347 0 70.0976 13.5811 952 111.786 1101.08 469.437
348 0 74.1733 13.9134 1032 112.659 1100.78 469.104
349 0 75.205 13.8289 1040 116.913 1100.47 468.19
350 0 78.2123 13.067 1022 118.805 1100.84 467.673
351 1 43.0561 13.1689 567 111.065 1100.86 484.183
352 0 44.0138 12.3143 542 113.69 1101.46 483.319
353 0 43.0351 11.5952 499 116.094 1101.16 483.557
354 0 45.0571 12.4287 560 117.068 1101.28 482.232
355 0 46.0427 12.0975 557 117.639 1101.14 483.58
356 0 47.0382 12.7343 599 118.608 1101 482.579
357 0 47.0565 12.7719 601 120.877 1101.36 480.037
358 0 50.0339 13.6707 684 116.762 1101.07 479.955
359 0 52.0729 12.905 672 118.86 1101.81 479.295
360 0 53.1143 12.8591 683 120.211 1102.02 479.149
361 0 54.0266 13.734 742 119.009 1102.4 477.833
362 0 56.0559 12.8087 718 121.046 1101.66 477.111
363 0 58.0692 14.4138 837 117.37 1101.51 475.509
364 0 61.0324 13.1242 801 119.787 1101.5 475.392
365 0 62.0678 13.5819 843 120.501 1101.31 474.018
366 0 62.0384 12.2505 760 123.603 1101.59 474.199
367 0 67.0895 14.1602 950 118.445 1101.11 472.654
368 0 67.06 13.5998 912 122.355 1101.24 469.354
369 0 69.0378 12.9494 894 124.015 1100.91 470.294
370 0 71.1033 12.7561 907 124.535 1101.37 469.739
371 0 76.0575 14.5153 1104 120.123 1101.23 467.464
372 0 77.0488 13.9262 1073 122.836 1101.33 466.074
373 1 40.0266 11.6423 466 124.026 1101.61 483.687
374 0 40.0176 11.2701 451 123.499 1101.42 485.499
375 0 42.0218 12.8743 541 118.035 1101.62 482.865
376 0 43.0441 12.4988 538 117.569 1101.59 484.147
377 0 44.0598 12.9596 571 116.767 1101.72 482.911
378 0 46.033 12.73 586 116.758 1102.12 481.065
379 0 48.0328 12.4915 600 118.415 1101.58 480.573
380 0 49.0655 12.6769 622 117.256 1101.25 481.543
381 0 51.0638 12.22 624 118.957 1101.13 479.675
382 0 53.0349 13.3309 707 115.854 1100.69 479.194
383 0 55.0203 12.9043 710 116.023 1100.73 478.613
384 0 56.0568 13.415 752 116.229 1100.56 476.414
385 0 55.0206 11.9955 660 121.921 1101.3 477.258
386 0 60.0561 12.2052 733 120.408 1101.36 475.02
387 0 62.1767 13.735 854 116.128 1101.14 475.511
388 0 64.0494 11.6004 743 120.913 1101.12 475.49
389 0 66.1186 13.0069 860 118.908 1100.6 472.258
390 0 67.0206 10.8922 730 122.692 1100.37 474.112
391 0 69.0427 11.4712 792 123.52 1101.09 470.12
392 0 74.1543 12.9999 964 118.592 1100.61 470.649
393 0 76.1369 12.7402 970 120.632 1100.73 469.1
394 0 79.1107 13.1714 1042 120.216 1101.27 467.163
395 0 82.1408 12.856 1056 119.938 1101.01 466.52
396 0 82.1408 12.7221 1045 143.678 1101.01 466.589
397 0 88.1335 12.3676 1090 123.085 1101.1 462.54
398 1 44.0301 11.5149 507 118.888 1101.48 483.391
399 0 47.0382 11.5013 541 116.874 1102.31 483.667
400 0 48.0218 13.3689 642 110.724 1101.85 482.151
401 0 51.0604 12.6321 645 113.006 1102.21 482.47
402 0 52.0192 11.688 608 116.067 1102.21 480.998
403 0 50.1062 11.0166 552 118.174 1101.61 482.136
404 0 53.067 11.8906 631 115.745 1101.34 479.276
405 0 53.0398 9.63428 511 120.881 1101.53 479.863
406 0 57.0272 12.4677 711 113.892 1101.57 476.212
407 0 59.0882 11.9652 707 114.229 1100.24 477.259
408 0 62.0689 11.4389 710 115.497 1100.76 475.924
409 0 62.0348 11.6386 722 116.457 1100.8 474.483
410 0 67.0845 11.2545 755 115.458 1101.39 474.623
411 0 70.0391 12.75 893 113.508 1100.92 471.562
412 0 70.1334 11.6207 815 117.31 1101 471.358
413 0 75.0953 12.7438 957 114.765 1101.52 470.048
414 0 77.3214 12.3899 958 117.006 1101.33 467.222
415 1 39.0506 9.96143 389 119.751 1102.16 486.144
416 0 43.1326 11.2676 486 115.152 1102.3 485.126
417 0 42.0364 11.2997 475 117.204 1102.61 484.792
418 0 44.0782 12.319 543 114.786 1102.38 485.055
419 0 46.0494 12.8775 593 114.346 1101.64 481.791
420 0 46.0494 13.3769 616 132.591 1100.59 482.398
421 0 48.0492 11.509 553 120.7 1101.1 481.029
422 0 50.0493 12.3279 617 117.971 1100.99 481.193
423 0 53.0682 11.9092 632 119.098 1101.2 480.843
424 0 53.0508 11.7435 623 121.361 1101.11 479.053
425 0 55.0445 12.0811 665 120.785 1100.23 479.504
426 0 56.0394 11.0458 619 125.003 1100.75 478.158
427 0 58.0405 12.4568 723 122.289 1100.26 476.346
428 0 59.0455 12.3633 730 123.53 1100.68 476.726
429 0 62.0493 13.4893 837 120.821 1101.22 475.033
430 0 64.05 12.4122 795 125.221 1100.51 473.844
431 0 67.0616 13.0179 873 122.462 1101.3 473.147
432 0 69.0427 13.3106 919 122.013 1100.84 472.624
433 0 70.0645 12.1888 854 125.907 1100.84 472.362
434 0 73.0764 12.7675 933 124.947 1101.64 470.872
435 0 77.0297 13.008 1002 124.104 1101.57 468.883
436 0 80.043 12.5682 1006 124.179 1101.38 468.67
437 0 80.0617 11.3662 910 129.127 1101.29 466.953
438 0 84.0825 12.2737 1032 126.87 1101.64 465.293
439 0 88.0889 13.0209 1147 125.039 1100.57 462.738
440 0 90.076 11.89 1071 128.719 1101.51 462.241
441 0 94.0527 12.4611 1172 127.809 1100.74 460.311
442 1 49.0188 12.0974 593 126.116 1099.58 482.17
443 0 49.0423 11.7246 575 131.421 1099.55 480.071
444 0 54.0333 12.918 698 125.042 1099.82 481.275
445 0 52.0376 12.2411 637 128.491 1100.93 478.929
446 0 56.0218 12.4594 698 124.831 1100.94 480.4
447 0 56.0101 11.855 664 128.187 1100.39 480.075
448 0 59.0151 13.2339 781 125.123 1101.11 477.862
449 0 59.0287 11.7739 695 129.367 1101.26 478.518
450 0 62.1493 11.5528 718 129.234 1101.46 478.568
451 0 65.0306 12.5633 817 128.34 1101.29 475.927
452 0 65.0864 11.2927 735 134.181 1101.06 474.203
453 0 68.0527 12.9018 878 130.49 1101.77 472.876
454 0 70.0677 13.2586 929 130.403 1101.47 471.423
455 0 71.0974 12.1664 865 133.956 1101.39 470.294
456 0 76.1134 13.112 998 129.483 1101.49 469.068
457 0 77.0932 12.4914 963 132.995 1101.17 467.071
458 0 81.1413 13.4334 1090 130.139 1100.59 465.921
459 0 84.111 12.8877 1084 132.309 1100.25 463.965
460 0 86.0848 12.2902 1058 133.84 1100.09 464.799
461 0 88.2825 12.7432 1125 135.024 1100.64 461.439
462 1 48.0918 11.4364 550 132.96 1100.43 482.629
463 0 50.0923 12.1775 610 130.472 1100.04 480.92
464 0 48.018 11.454 550 126.556 1101.25 481.4
465 0 50.026 11.0343 552 126.976 1101.62 480.759
466 0 51.1151 12.3056 629 124.304 1100.74 479.955
467 0 54.0505 11.2117 606 125.261 1100.53 479.051
468 0 54.0505 11.2673 609 138.429 1101.53 479.126
469 0 56.1082 10.854 609 125.98 1100.7 478.202
470 0 58.0258 11.5121 668 125.22 1100.76 476.225
471 0 62.0688 12.2123 758 121.342 1100.68 474.995
472 0 63.0672 10.5919 668 125.195 1099.89 474.337
473 0 66.0517 11.1276 735 123.238 1100.78 473.981
474 0 70.1339 12.7756 896 114.747 1101.06 470.754
475 0 69.0807 10.4371 721 124.187 1101.56 472.75
476 0 72.1688 10.9327 789 122.252 1101.28 470.408
477 0 77.1256 11.9934 925 118.813 1100.77 470.244
478 0 79.1349 11.3983 902 120.885 1101.12 468.97
479 0 81.1252 11.2172 910 121.737 1100.64 468.489
480 1 41.0491 10.8407 445 122.566 1100.18 486.375
481 0 45.0894 12.7968 577 118.941 1099.87 483.95
482 0 45.0852 12.7093 573 120.265 1099.6 483.192
483 0 42.0371 10.3718 436 123.011 1101 484.399
484 0 44.0119 11.3378 499 119.846 1101.08 484.04
485 0 45.0358 12.7232 573 115.932 1100.52 483.379
486 0 45.0336 11.4581 516 119.672 1100.43 482.539
487 0 47.096 12.0817 569 116.733 1101.32 483.561
488 0 50.0592 12.5052 626 115.663 1100.7 481.323
489 0 50.0121 12.337 617 116.394 1100.91 481.323
490 0 50.0424 11.8899 595 118.766 1101.35 480.627
491 0 51.0719 12.7467 651 116.568 1100.87 478.47
492 0 53.1638 11.3611 604 119.983 1100.54 478.04
493 0 55.1266 12.4078 684 116.803 1100.58 476.69
494 0 58.1659 12.5847 732 113.835 1100.75 478.499
495 0 60.2296 12.1369 731 115.198 1100.96 477.027
496 0 61.1162 12.3699 756 115.963 1100.24 474.898
497 0 62.0622 11.9235 740 118.561 1100.64 473.031
498 0 65.0858 11.9381 777 117.995 1100.96 473.577
499 0 69.2377 13.9808 968 112.487 1101.1 470.532
500 0 70.1025 13.6514 957 116.767 1100.82 470.064
501 0 73.3108 13.0813 959 121.577 1100.42 468.732
502 0 75.2707 13.0064 979 124.266 1100.54 468.083
503 0 78.2757 13.593 1064 123.108 1100.76 467.664
504 0 80.1886 13.3311 1069 124.556 1100.94 466.129
505 0 80.2582 11.2636 904 132.146 1100.69 465.03
506 1 40.0454 10.6879 428 130.829 1101.07 484.15
507 0 44.0469 11.1018 489 127.628 1101.26 484.571
508 0 41.006 11.3398 465 127.041 1101.51 484.849
509 0 41.006 11.3886 467 137.33 1101.49 484.897
510 0 46.0132 11.5836 533 127.674 1100.75 482.287
511 0 47.0598 11.666 549 127.49 1100.92 482.579
512 0 47.0399 12.3512 581 128.239 1100.52 480.232
513 0 51.0437 11.4412 584 127.798 1100.84 482.897
514 0 52.0375 12.5294 652 128.538 1101.55 480.256
515 0 54.0728 13.7962 746 125.501 1101.27 479.5
516 0 57.1165 13.2011 754 126.634 1100.53 478.83
517 0 58.0555 12.178 707 130.632 1100.99 477.644
518 0 58.0323 11.5453 670 133.515 1101.12 477.221
519 0 63.0914 12.4106 783 130.153 1101.04 476.098
520 0 65.0445 12.8527 836 129.415 1101.2 474.421
521 0 66.1466 12.1548 804 131.988 1100.49 473.443
522 0 70.0892 12.4556 873 129.968 1100.56 472.981
523 0 71.0567 12.4689 886 132.439 1101.24 468.886
524 0 74.0382 11.8993 881 132.54 1100.23 469.74
525 0 77.0754 13.5841 1047 127.266 1100.17 469.107
526 1 41.0449 11.6701 479 131.758 1100.14 485.134
527 0 45.1015 11.5296 520 130.508 1099.77 484.431
528 0 46.0173 13.4949 621 124.705 1100.28 483.488
529 0 43.0027 11.9295 513 130.458 1101.19 483.692
530 0 45.0174 11.5511 520 130.79 1101.55 483.488
531 0 45.0643 11.0731 499 131.571 1101.21 483.407
532 0 49.0277 12.034 590 128.034 1101.31 482.659
533 0 49.0192 11.3221 555 132.578 1101.54 481.285
534 0 49.0324 11.1967 549 133.007 1101.49 480.537
535 0 52.0302 11.8969 619 130.863 1101.62 479.244
536 0 54.0446 12.6932 686 127.171 1102.01 480.267
537 0 55.0443 13.0985 721 128.172 1101.14 477.786
538 0 58.0466 11.8698 689 129.759 1101.38 478.554
539 0 58.0227 12.0987 702 131.748 1101.13 478.014
540 0 61.052 13.0217 795 130.384 1101.22 474.381
541 0 62.0332 12.5417 778 131.644 1101.04 474.201
542 0 65.0388 13.3305 867 129.391 1101.15 473.815
543 0 66.024 11.9956 792 133.4 1101.33 472.924
544 0 70.0093 13.4554 942 129.808 1101.06 471.673
545 0 70.0474 13.2339 927 132.491 1101.65 470.942
546 0 74.0651 12.3405 914 133.185 1101.25 470.835
547 0 77.0712 13.6108 1049 130.314 1101.24 469.298
548 0 79.0924 12.7699 1010 134.102 1101.34 467.502
549 1 40.0199 11.969 479 135.052 1101.76 485.096
550 0 40.0582 11.0589 443 137.528 1101.44 486.027
551 0 41.0229 12.0421 494 133.623 1100.97 486.024
552 0 42.0088 11.688 491 134.391 1101.94 486.226
553 0 44.0133 12.4054 546 132.962 1101.53 485.832
554 0 44.0298 12.4007 546 136.31 1100.99 483.242
555 0 47.0449 13.2639 624 132.112 1101 483.833
556 0 46.0259 12.7102 585 138.027 1101.61 483.15
557 0 48.0193 12.6616 608 139.081 1101.69 481.247
558 0 50.0111 12.1573 608 139.447 1102.04 482.214
559 0 51.0319 12.9135 659 139.093 1101.67 479.744
560 0 53.0277 12.3898 657 141.623 1102.76 480.703
561 0 56.0425 12.8652 721 139.612 1102.25 480.111
562 0 56.0425 12.8474 720 151.349 1101.25 480.046
563 0 59.0578 14.054 830 137.6 1101.82 477.993
564 0 60.0957 13.8945 835 140.32 1101.54 476.872
565 0 62.0739 14.4344 896 138.547 1100.99 476.799
566 0 64.0509 14.0045 897 140.92 1101.39 473.602
567 0 66.0305 12.8577 849 143.942 1101.32 475.769
568 0 66.0906 14.3288 947 141.795 1101.01 472.929
569 0 69.0241 13.9661 964 143.829 1101.08 470.581
570 0 70.0394 13.7351 962 145.572 1101.29 471.056
571 0 73.0766 14.7106 1075 142.903 1101.08 469.229
572 0 77.0437 14.4463 1113 142.421 1101.29 468.339
573 0 77.0826 13.985 1078 147.058 1101.38 466.894
574 0 81.189 14.4231 1171 144.841 1101.71 464.758
575 0 82.1229 15.0872 1239 144.186 1102.11 464.378
576 0 84.1519 15.3057 1288 144.423 1101.93 462.835
577 0 87.0845 14.5146 1264 146.568 1101.44 461.45
578 0 89.063 15.0792 1343 145.402 1101.75 460.266
579 0 93.0504 15.4003 1433 143.838 1101.9 459.816
580 0 94.0619 13.5443 1274 150.199 1101.39 457.09
581 0 100.079 14.4786 1449 144.649 1101.34 457.814
582 0 103.103 13.8599 1429 147.513 1101.45 454.244
583 0 106.098 13.8834 1473 149.13 1101.6 452.822
584 0 112.074 14.6331 1640 145.504 1101.95 451.55
585 1 59.0645 12.8504 759 148.439 1101.66 474.966
586 0 60.1342 14.0852 847 136.817 1101.68 475.891
587 0 59.0378 12.619 745 143.541 1101.7 474.852
588 0 64.0862 12.7017 814 140.457 1101.46 474.613
589 0 67.0478 13.468 903 139.09 1101.91 472.361
590 0 68.0753 12.7359 867 142.869 1101.77 470.884
591 0 72.0977 13.8562 999 139.184 1101.69 471.812
592 0 73.0508 13.5659 991 141.174 1101.92 471.609
593 0 77.0628 13.9107 1072 139.377 1101.91 469.829
594 0 81.0648 13.5447 1098 140.832 1101.62 467.3
595 0 83.237 13.4676 1121 141.783 1101.51 466.949
596 0 86.0837 13.8238 1190 141.332 1101.6 463.095
597 0 88.0521 13.3217 1173 144.961 1101.55 461.54
598 0 91.0638 13.6827 1246 143.423 1102.02 461.332
599 0 96.1103 13.2556 1274 143.995 1101.73 459.261
600 0 100.089 13.6979 1371 141.706 1102.16 458.826
601 1 53.0243 11.5607 613 145.135 1102.6 479.964
602 0 54.0285 11.8641 641 139.499 1102.08 479.334
603 0 55.0296 11.0668 609 140.65 1101.75 478.897
604 0 57.0248 11.9071 679 143.62 1101.32 476.834
605 0 62.1275 12.4904 776 143.043 1101.49 475.464
606 0 62.0993 11.7393 729 147.143 1100.41 474.951
607 0 64.0486 11.7255 751 146.312 1100.37 473.35
608 0 69.1032 13.1253 907 140.495 1100.19 472.411
609 0 69.0831 11.9856 828 145.813 1101.14 470.959
610 0 71.0872 11.2679 801 147.488 1101.01 470.559
611 0 75.1137 13.2865 998 142.671 1101.54 467.733
612 0 77.1126 12.8643 992 143.145 1101.43 468.523
613 0 79.1204 12.6263 999 143.217 1101.34 467.294
614 0 80.1256 13.9406 1117 146.51 1100.26 465.065
615 0 84.1524 11.2534 947 147.183 1101.83 463.182
616 1 158.206 7.8695 1245 153.252 1102.18 446.353
617 1 90.176 11.5219 1039 147.139 1101.87 459.241
618 1 50.0367 10.6522 533 137.537 1103.04 480.919
619 0 52.0446 12.1242 631 126.618 1102.69 481.295
620 0 52.0722 12.1178 631 128.219 1103.08 479.304
621 0 51.0532 10.2442 523 133.627 1102.71 479.82
622 0 53.0809 11.3035 600 132.157 1101.88 479.67
623 0 56.0535 10.8468 608 132.605 1102.14 477.291
624 0 58.1367 11.3354 659 130.005 1101.81 477.994
625 0 60.0617 11.2717 677 131.032 1101.63 477.103
626 0 61.1395 11.1712 683 131.026 1101.49 477.327
627 0 62.2005 11.3825 708 131.996 1101.95 473.795
628 0 65.2547 11.5854 756 131.041 1101.42 473.131
629 0 68.209 11.8753 810 130.727 1101.02 471.133
630 0 70.1591 11.6877 820 131.462 1101.51 470.362
631 0 72.1723 11.5695 835 131.653 1100.99 470.908
632 0 76.1057 11.668 888 131.115 1101.58 468.383
633 0 78.1449 13.4366 1050 126.198 1101.52 466.442
634 0 80.1021 11.5852 928 130.929 1101.27 465.851
635 0 84.224 11.7069 986 130.859 1101.44 465.914
636 0 88.1229 12.2216 1077 136.242 1101.19 461.282
637 1 47.0341 10.907 513 127.647 1102.8 484.32
638 0 48.018 11.225 539 126.724 1101.7 483.317
639 0 50.064 10.3468 518 131.293 1102.94 482.369
640 0 52.098 12.131 632 124.429 1103.01 481.544
641 0 52.0833 11.5008 599 126.92 1102.3 481.516
642 0 55.0688 13.4741 742 120.306 1101.27 479.473
643 0 57.1036 11.8556 677 123.982 1101.59 479.724
644 0 56.0875 11.6782 655 124.823 1102.11 479.637
645 0 58.1338 11.9036 692 125.948 1101.18 475.208
646 0 62.1112 12.4132 771 121.805 1101.1 477.927
647 0 63.1466 12.4631 787 122.332 1101.2 475.479
648 0 65.1519 12.2023 795 122.438 1101.7 475.601
649 0 68.1106 12.6999 865 122.249 1101.02 473.882
650 0 70.1515 12.5015 877 129.941 1101.33 473.596
651 0 72.1814 12.2054 881 131.773 1101.66 471.637
652 0 75.2661 12.0639 908 131.536 1101.1 470.758
653 0 78.208 12.032 941 131.656 1101.87 469.292
654 1 39.0537 12.2652 479 124.518 1102.53 486.537
655 0 42.024 12.8736 541 121.59 1102.48 485.841
656 0 42.0566 12.7923 538 123.279 1101.76 486.552
657 0 44.0596 12.6874 559 123.993 1100.94 484.14
658 0 47.0654 12.4083 584 123.087 1100.87 485.318
659 0 46.0772 13.2386 610 122.989 1100.88 482.926
660 0 47.0575 11.4966 541 128.24 1100.79 483.595
661 0 51.1432 12.7094 650 133.163 1100.75 481.655
662 0 51.2129 12.2625 628 135.403 1100.14 482.089
663 0 53.1378 12.0442 640 134.769 1100.25 480.803
664 0 53.2203 11.1424 593 137.423 1101.06 479.381
665 0 53.2203 11.1612 594 148.542 1102.05 479.365
666 0 58.1782 12.2383 712 130.267 1100.74 477.931
667 0 60.2147 11.542 695 130.819 1100.77 477.659
668 0 62.1562 12.8547 799 127.872 1100.9 476.14
669 0 64.1443 12.0821 775 129.831 1101.03 475.324
670 0 65.182 13.0711 852 127.829 1100.9 474.317
671 0 69.286 12.5278 868 127.118 1100.85 475.198
672 0 69.2746 12.7464 883 128.613 1100.58 471.758
673 0 69.2746 12.7319 882 148.085 1100.56 471.756
674 0 74.2108 12.5992 935 129.226 1100.18 469.872
675 0 77.1539 14.1017 1088 123.902 1100.9 470.3
676 0 79.2831 12.4491 987 127.648 1100.89 468.541
677 0 81.2229 12.2749 997 129.758 1100.98 465.236
678 0 84.2228 11.5171 970 130.801 1101.12 463.984
679 0 88.1402 11.3229 998 128.528 1101.28 464.652
680 0 90.2064 11.6289 1049 127.77 1100.82 462.778
681 1 43.0486 9.75641 420 122.805 1100.77 486.588
682 0 47.1509 11.7071 552 120.125 1100.8 484.139
683 0 48.131 12.2582 590 117.119 1101.49 483.798
684 0 48.0919 11.9979 577 118.458 1101.23 482.905
685 0 51.1926 12.2088 625 116.8 1100.73 482.042
686 0 52.1847 12.1875 636 115.566 1100.35 482.66
687 0 53.1413 12.5138 665 115.308 1100.85 480.543
688 0 54.1366 11.5449 625 117.474 1100.59 481.701
689 0 57.1094 13.0977 748 114.655 1100.57 478.648
690 0 58.0541 12.3333 716 116.721 1100.82 479.207
691 0 61.1857 12.1597 744 116.765 1100.39 477.582
692 0 63.149 12.3834 782 116.318 1100.09 476.417
693 0 65.136 12.0824 787 116.361 1100.77 476.591
694 0 68.1019 11.4681 781 121.095 1100.54 472.698
695 0 71.2178 12.2301 871 121.166 1100.7 473.346
696 0 74.2221 13.1901 979 120.279 1099.87 471.339
697 1 37.095 11.8884 441 119.952 1100.38 488.712
698 0 39.0821 10.8234 423 121.934 1100.54 488.21
699 0 40.13 12.5093 502 119.622 1100.03 485.394
700 0 40.0585 12.0324 482 120.4 1100.57 487.129
701 0 43.06 12.889 555 118.355 1101.11 485.508
702 0 44.0753 12.7736 563 118.911 1100.61 484.575
703 0 44.017 11.5864 510 122.231 1100.26 484.422
704 0 47.101 13.1844 621 118.768 1099.81 483.393
705 0 47.0876 12.7847 602 119.131 1100.49 482.706
706 0 51.2048 12.6355 647 118.677 1099.39 482.308
707 0 52.1721 13.2063 689 117.591 1100.19 481.107
708 0 52.1791 13.262 692 129.649 1101.19 481.137
709 0 57.1574 12.6143 721 121.348 1100.11 478.13
710 0 57.1693 13.8011 789 119.435 1099.82 475.982
711 0 60.0858 12.8982 775 117.819 1100.34 476.314
712 0 60.0547 12.2555 736 120.656 1099.68 473.69
713 0 63.2535 13.1376 831 118.519 1099.43 472.335
714 0 65.2958 12.742 832 119.029 1100.73 472.689
715 0 67.4753 12.775 862 119.454 1100.18 471.135
716 0 70.3547 12.3801 871 119.796 1100.07 470.84
717 0 72.2973 13.2647 959 118.003 1100.81 470.347
718 0 76.268 13.5706 1035 117.403 1100.51 468.167
719 0 78.2835 13.5022 1057 118.318 1100.28 467.442
720 0 82.179 13.5436 1113 116.869 1100.23 467.5
721 0 85.5878 14.9671 1281 114.055 1100.55 466.28
722 0 88.3454 14.5225 1283 115.178 1100.56 464.209
723 0 90.2135 13.8006 1245 116.767 1101.14 464.2
724 1 42.1441 13.525 570 122.498 1100.55 483.309
725 0 44.0489 13.0083 573 117.333 1099.99 481.839
726 0 44.0234 13.2657 584 118.62 1099.51 482.074
727 0 45.062 13.5369 610 119.392 1100.1 481.626
728 0 49.0935 14.8696 730 119.462 1100.18 481.022
729 0 50.0746 16.4555 824 112.745 1100.45 480.183
730 0 51.0658 14.6869 750 116.489 1100.65 480.761
731 0 53.1804 14.385 765 119.742 1100.54 479.993
732 0 55.1396 14.1096 778 120.009 1100.61 480.378
733 0 56.2879 15.1365 852 121.724 1100.74 477.262
734 0 58.1048 15.1278 879 121.187 1100.64 477.107
735 0 60.0955 14.4437 868 123.149 1100.29 477.402
736 0 63.1259 15.0176 948 121.507 1099.75 476.1
737 0 64.0892 16.0245 1027 119.639 1100.1 474.028
738 0 66.1842 15.2151 1007 121.654 1100.03 473.951
739 0 69.2083 15.3161 1060 121.509 1099.78 472.924
740 0 69.1992 14.1331 978 126.421 1099.31 472.076
741 0 72.2293 15.3539 1109 123.358 1099.77 470.094
742 0 74.1382 15.8758 1177 122.605 1099.74 468.619
743 0 76.3465 15.469 1181 123.224 1099.64 468.213
744 0 77.3502 14.6089 1130 126.593 1100.12 466.886
745 0 79.1523 15.0596 1192 126.11 1100.28 466.857
746 0 82.186 14.6862 1207 127.134 1099.8 463.254
747 0 88.133 14.7731 1302 126.031 1099.7 462.117
748 0 91.1374 13.3205 1214 127.949 1099.89 460.83
749 0 94.1793 14.3237 1349 124.729 1099.65 457.936
750 0 99.1088 15.1954 1506 121.453 1100.14 454.631
751 1 49.0286 13.4819 661 115.623 1100.35 480.268
752 0 53.0277 13.6721 725 114.577 1100.07 479.641
753 0 53.0572 14.1168 749 114.657 1100.38 478.931
754 0 55.1205 13.8424 763 116.347 1100.71 478.029
755 0 59.0775 13.2876 785 117.441 1100.33 478.513
756 0 61.0324 14.2219 868 116.974 1101.39 476.053
757 0 62.0873 13.0622 811 120.106 1100.69 475.804
758 0 64.0623 13.2059 846 120.125 1100.52 474.152
759 0 65.0972 13.5797 884 120.029 1100.58 472.2
760 0 70.2214 14.2122 998 117.494 1099.69 471.669
761 0 71.1894 13.3306 949 120.639 1100.26 469.92
762 0 74.1007 13.5086 1001 119.675 1100.42 471.534
763 0 76.1992 12.966 988 121.694 1100.44 467.583
764 0 78.2016 12.6468 989 123.216 1100.41 465.691
765 0 82.4617 13.0727 1078 121.935 1100.42 463.819
766 0 84.2671 11.784 993 125.337 1100.43 462.883
767 0 88.4027 12.2281 1081 124.528 1100.19 461.574
768 0 92.1823 12.9851 1197 125.137 1100.38 458.666
769 1 49.0558 11.9456 586 116.725 1100.76 482.015
770 0 50.2673 11.7571 591 117.787 1101.11 480.34
771 0 51.0207 10.9759 560 123.188 1100.59 479.055
772 0 53.0705 11.513 611 123.39 1100.99 478.432
773 0 55.1371 13.1128 723 119.546 1101.26 478.292
774 0 55.1353 11.6441 642 124.41 1100.93 476.858
775 0 58.0795 11.381 661 124.694 1099.95 477.233
776 0 61.0853 13.0473 797 120.911 1099.71 474.408
777 0 63.0685 12.4626 786 122.916 1100.37 472.752
778 0 64.1439 11.9263 765 124.329 1099.61 472.275
779 0 68.1296 12.9606 883 122.984 1099.55 469.684
780 0 71.1943 12.4027 883 123.677 1099.34 468.983
781 0 72.3494 12.8681 931 124.43 1099.26 467.798
782 0 74.2316 12.5014 928 125.607 1099.17 465.898
783 0 77.2595 13.1893 1019 125.094 1099.26 464.633
784 0 80.2663 13.6919 1099 123.819 1099.27 463.316
785 0 84.2352 14.507 1222 122.049 1099.73 461.576
786 0 83.1461 12.8328 1067 127.393 1099.7 460.983
787 0 85.1783 12.9728 1105 128.686 1099.03 458.708
788 0 89.4067 11.9678 1070 131.03 1099.16 457.902
789 0 93.2179 13.5704 1265 126.906 1099.59 455.079
790 0 97.3609 13.3524 1300 125.773 1099.61 454.447
791 0 101.333 12.2665 1243 128.15 1099.59 454.673
792 1 53.1084 11.7307 623 120.669 1099.07 477.43
793 0 54.0458 11.9713 647 120.453 1099.77 477.478
794 0 55.0464 12.4622 686 120.515 1099.84 476.819
795 0 58.0657 12.1931 708 122.347 1100.53 475.492
796 0 59.0478 12.7693 754 120.154 1100.03 475.362
797 0 61.0951 12.145 742 121.577 1100.09 474.089
798 0 65.0455 11.5919 754 123.122 1100.04 471.145
799 0 68.0332 11.5973 789 122.662 1100.24 470.212
800 0 69.0792 13.4194 927 118.353 1100.09 468.507
801 0 73.1262 13.21 966 118.464 1100.08 469.086
802 0 73.1262 13.1964 965 136.829 1100.07 468.896
803 0 78.1109 12.6103 985 122.281 1100.47 463.358
804 0 82.1583 12.7924 1051 120.668 1101 462.609
805 0 83.1343 12.2452 1018 123.31 1100.68 463.395
806 0 85.2265 12.3553 1053 125.206 1100.03 459.559
807 0 89.1597 11.2607 1004 128.318 1099.95 457.803
808 1 46.1429 10.5758 488 118.393 1099.86 481.59
809 0 47.1293 10.991 518 117.369 1100.4 480.068
810 0 50.1273 11.5506 579 115.081 1100.23 478.233
811 0 51.0522 11.1259 568 117.423 1101.41 478.974
812 0 52.1222 12.6817 661 113.548 1101.31 478.499
813 0 54.0746 11.3917 616 117.726 1100.14 476.961
814 0 54.0866 11.9993 649 112.569 1100.7 477.451
815 0 55.1604 11.4031 629 116.054 1100.42 476.079
816 0 56.1192 11.0835 622 118.159 1100.87 475.844
817 0 60.0519 12.0229 722 115.429 1100.43 476.978
818 0 60.1252 11.7588 707 119.358 1099.53 472.982
819 0 63.0919 12.2995 776 119.088 1100.03 471.418
820 0 64.0665 12.3621 792 120.923 1100.18 472.193
821 0 65.1024 11.6125 756 123.622 1100.13 471.948
822 0 68.0328 12.347 840 122.511 1100.43 471.311
823 0 72.1355 12.8231 925 120.282 1100.54 470.994
824 0 72.1317 12.1306 875 125.503 1100.35 468.96
825 0 77.1849 13.1373 1014 122.985 1100.82 468.08
826 0 77.1745 12.9706 1001 125.629 1100.15 466.359
827 0 80.0408 13.7555 1101 124.595 1100.07 466.159
828 0 82.1621 13.3395 1096 126.444 1100.62 464.343
829 0 84.2018 13.4558 1133 126.223 1100.8 464.254
830 0 87.1624 13.1708 1148 128.952 1100.2 460.853
831 0 92.1634 14.5394 1340 123.51 1100.02 460.037
832 0 92.2269 13.315 1228 128.129 1099.97 458.884
833 0 97.2563 13.5724 1320 129.792 1100.71 456.363
834 0 99.2286 13.8065 1370 129.885 1099.94 454.678
835 0 100.222 13.1508 1318 132.64 1100.23 454.316
836 0 106.246 15.2853 1624 123.57 1100.44 453.701
837 0 109.257 14.0769 1538 127.005 1100.34 449.002
838 0 112.303 13.5526 1522 128.549 1100.34 449.122
839 0 114.311 14.5743 1666 125.845 1100.48 443.496
840 0 116.202 13.2011 1534 128.894 1100.67 444.257
841 0 119.264 13.4659 1606 128.551 1100.21 440.946
842 0 123.185 13.7355 1692 127.628 1100.27 438.322
843 0 127.235 13.2826 1690 129.527 1100.17 436.079
844 0 131.383 14.0201 1842 128.174 1099.9 430.37
845 0 134.238 12.0681 1620 134.53 1099.61 428.977
846 0 142.269 14.1352 2011 128.767 1099.13 427.176
847 0 147.179 12.9231 1902 131.405 1099.47 426.493
848 0 151.2 12.9695 1961 131.482 1098.97 423.039
849 0 157.214 12.3081 1935 131.897 1099.3 422.001
850 1 87.0715 11.9901 1044 123.845 1100.82 461.472
851 0 90.3135 12.2019 1102 127.237 1099.67 460.774
852 0 92.3317 12.1735 1124 127.943 1099.72 459.527
853 0 96.2449 11.8656 1142 126.846 1099.37 461.419
854 0 99.2731 11.6547 1157 127.494 1099.47 458.509
855 0 101.232 11.5971 1174 123.88 1099.1 455.487
856 0 104.189 11.7478 1224 121.906 1099.35 451.407
857 1 52.0467 9.99103 520 117.662 1099.31 478.01
858 0 55.0901 11.5629 637 113.526 1099.14 477.658
859 0 56.0698 11.2895 633 115.087 1100.47 478.118
860 0 56.0415 10.5101 589 117.846 1100.15 477.705
861 0 59.1027 10.4733 619 118.128 1100.3 475.648
862 0 63.0757 10.971 692 116.477 1100.36 475.136
863 0 64.1647 12.203 783 112.999 1100.29 473.338
864 0 66.1386 10.0698 666 117.601 1100.33 474.649
865 0 66.1924 10.1975 675 117.769 1100.19 473.976
866 0 69.0601 10.9036 753 117.085 1099.8 468.436
867 0 71.2164 8.76203 624 121.785 1100.35 470.88
868 0 74.1287 9.07881 673 120.37 1100 468.175
869 0 77.1734 9.60176 741 119.829 1100.28 464.707
870 0 82.1986 11.0707 910 113.862 1099.7 464.531
871 1 42.0597 10.6991 450 112.304 1101.01 483.833
872 0 44.0217 10.404 458 113.266 1101.1 483.939
873 0 45.0809 10.4479 471 116.242 1100.87 482.378
874 0 46.0787 11.1331 513 114.573 1101.65 482.008
875 0 46.1061 11.3868 525 108.564 1101.44 481.912
876 0 47.0538 10.5624 497 110.509 1100.95 482.249
877 0 50.1277 11.2114 562 108.646 1101.09 479.76
878 0 51.2041 10.878 557 108.46 1101.41 479.142
879 0 51.1104 10.9958 562 109.945 1100.47 478.706
880 0 53.0228 11.6365 617 110.258 1100.84 477.485
881 0 53.0605 9.64936 512 114.457 1100.51 477.643
882 0 57.1294 11.0451 631 110.544 1099.68 479.082
883 0 57.1294 10.9751 627 124.528 1098.7 479.038
884 0 59.133 9.92678 587 112.963 1100.13 476.399
885 0 61.1726 11.2796 690 110.149 1100.09 475.396
886 0 63.1264 10.2176 645 112.395 1099.58 473.811
887 0 66.1285 12.2942 813 107.46 1099.37 472.445
888 0 67.2302 11.8251 795 108.831 1099.75 470.234
889 0 67.1094 9.93899 667 113.54 1099.55 469.936
890 0 69.1126 9.59304 663 113.851 1100.03 471.949
891 0 73.1318 11.951 874 109.027 1100.73 468.375
892 0 75.1514 10.8182 813 110.942 1101.26 468.754
893 0 77.1511 10.9007 841 111.743 1100.94 468.105
894 0 80.1174 12.1946 977 110.215 1100.47 463.028
895 0 83.2826 10.7345 894 113.702 1100.49 462.446
896 0 88.1262 11.8013 1040 111.379 1100.52 461.051
897 0 89.1322 11.3539 1012 112.971 1100.71 461.694
898 0 91.2163 11.2918 1030 114.764 1100.69 457.424
899 0 95.2107 11.6794 1112 113.851 1100.46 454.144
900 0 95.1671 10.76 1024 117.485 1100.38 452.947
901 0 103.185 12.5891 1299 113.089 1099.89 451.669
902 0 107.163 12.1497 1302 114.019 1100.09 450.611
903 1 56.0396 9.74312 546 113.678 1100.6 478.434
904 0 57.0701 10.6185 606 113.848 1100.05 476.622
905 0 59.0417 11.6528 688 113.715 1101.02 475.733
906 0 62.0387 12.6856 787 108.722 1100.77 473.443
907 0 63.0337 12.1998 769 111.544 1100.55 473.646
908 0 65.0986 11.9357 777 112.193 1100.47 472.378
909 0 70.0862 12.4561 873 109.088 1100.14 470.631
910 0 73.109 13.7329 1004 106.448 1101.01 469.678
911 0 74.0837 12.7558 945 109.562 1100.67 468.431
912 0 76.1001 11.9054 906 111.546 1100.91 465.281
913 0 78.1346 11.5826 905 111.32 1100.46 465.881
914 0 82.1639 11.7692 967 111.242 1100.98 464.801
915 0 84.1434 10.2325 861 114.124 1101.5 467.978
916 0 88.124 11.9491 1053 111.036 1100.62 463.278
917 0 89.1291 10.2997 918 114.207 1100.24 461.161
918 1 47.0401 9.46001 445 111.757 1100.35 481.618
919 0 50.1146 11.7132 587 103.627 1099.92 480.864
920 0 51.0375 11.3054 577 104.86 1099.45 478.868
921 0 53.038 11.3881 604 104.026 1099.95 477.982
922 0 56.0688 11.4145 640 102.917 1100.57 478.361
923 0 54.0485 12.1002 654 103.398 1100.41 479.768
924 0 57.0304 10.4856 598 106.079 1099.71 478.875
925 0 56.0549 9.4015 527 109.311 1100.27 476.962
926 0 60.018 11.1633 670 103.952 1099.05 477.352
927 0 59.0787 9.71585 574 108.406 1099.49 474.078
928 0 62.0647 10.6985 664 106.071 1099.36 472.86
929 0 65.0282 11.5796 753 103.368 1099.97 471.908
930 0 65.0304 11.5792 753 116.806 1100.97 471.989
931 0 69.054 12.3382 852 102.569 1100.28 470.34
932 0 72.0535 11.0473 796 104.935 1100.13 469.965
933 0 74.0428 10.8046 800 106.949 1100.42 467.661
934 0 77.0736 11.3009 871 105.868 1100.53 467.04
935 0 79.0532 11.2456 889 107.007 1101.48 463.39
936 0 82.0551 12.1747 999 105.752 1101.5 462.555
937 0 85.1094 11.5498 983 106.415 1101.55 464.646
938 1 44.0556 11.3493 500 106.74 1101.4 483.134
939 0 44.0577 11.2807 497 121.68 1101.4 483.193
940 0 47.0286 12.907 607 106.399 1101.93 479.292
941 0 47.0385 11.8626 558 108.122 1101.78 480.317
942 0 48.0209 12.1405 583 109.201 1101.02 478.866
943 0 50.0745 11.5428 578 108.68 1101.42 478.007
944 0 50.0831 12.7788 640 107.638 1101.69 477.972
945 0 54.0473 13.5622 733 106.143 1100.57 478.308
946 0 51.0395 10.8739 555 115.258 1099.92 479.344
947 0 53.0863 10.53 559 116.893 1100.27 477.499
948 0 56.0508 12.6136 707 112.297 1099.78 477.221
949 0 56.0138 12.7469 714 112.881 1099.17 476.514
950 0 59.037 12.1957 720 114.079 1100.16 476.146
951 0 62.1061 13.3803 831 110.274 1099.38 475.729
952 0 62.0444 12.2654 761 114.93 1099.55 473.373
953 0 63.0302 13.8664 874 111.471 1099.15 472.976
954 0 64.1081 12.3853 794 115.703 1099.58 473.099
955 0 69.0639 13.4658 930 111.601 1099.29 474.19
956 0 72.0445 14.38 1036 110.304 1099.56 470.387
957 0 74.0842 12.8907 955 113.454 1099.41 470.624
958 0 76.0947 14.1534 1077 111.057 1099.84 467.625
959 0 79.0689 13.229 1046 113.012 1099.83 467.741
960 0 81.0853 13.6523 1107 111.501 1099.42 467.336
961 0 85.1073 14.6638 1248 109.563 1100.01 464.4
962 0 87.1479 13.2304 1153 112.866 1100.75 463.153
963 0 90.0641 14.5563 1311 109.387 1100.28 460.391
964 0 91.1296 12.1585 1108 115.523 1100.46 459.651
965 1 48.0372 12.6568 608 113.365 1099.62 479.887
966 0 48.0686 11.9621 575 113.409 1099.5 480.574
967 0 50.0916 12.8764 645 108.974 1100.2 479.46
968 0 53.0424 13.6495 724 106.703 1099.98 479.04
969 0 54.1303 13.8554 750 106.465 1099.72 477.617
970 0 55.0677 13.2564 730 108.255 1099.32 476.956
971 0 59.0632 13.5448 800 107.584 1098.91 476.076
972 0 60.0936 13.662 821 107.35 1099.19 476.04
973 0 62.109 14.539 903 106.189 1099.08 473.352
974 0 65.0551 14.1572 921 107.098 1099.73 472.131
975 0 65.0567 14.1108 918 109.012 1099.55 471.163
976 0 69.0586 13.5537 936 109.565 1099.89 470.223
977 0 70.1784 13.6509 958 110.185 1100.18 469.898
978 0 73.1665 14.2552 1043 108.985 1100.45 468.739
979 0 76.0467 14.4648 1100 108.925 1100.3 467.372
980 0 78.1452 14.3323 1120 110.218 1100.09 466.295
981 0 81.1476 14.3442 1164 110.018 1100.27 465.523
982 0 83.1363 14.2778 1187 111.186 1100.61 461.879
983 1 44.0605 12.2786 541 112.107 1101.08 480.211
984 0 46.0515 11.2917 520 112.388 1101.5 480.088
985 0 45.0412 11.1676 503 111.628 1099.02 477.368
986 0 48.0808 11.0855 533 102.235 1099.65 477.381
987 0 51.0262 12.5426 640 99.6828 1099.85 476.392
988 0 53.0635 11.7218 622 101.823 1100.23 475.254
989 0 53.1437 11.8923 632 103.554 1100.87 476.449
990 0 51.029 12.1108 618 112.21 1101.38 479.071
991 0 57.1008 13.4849 770 107.688 1100.69 476.855
992 0 57.0402 13.5168 771 108.744 1101.26 477.215
993 0 59.0542 14.1226 834 106.863 1101.33 476.042
994 0 60.0432 13.1405 789 110.439 1100.75 474.621
995 0 61.047 12.4986 763 112.054 1101.02 474.702
996 0 63.0327 11.5178 726 113.28 1101.51 474.471
997 0 66.105 13.7357 908 109.349 1101.29 472.32
998 0 66.0245 11.7987 779 114.531 1100.61 470.484
999 0 71.0621 12.8339 912 112.066 1100.68 469.899
1000 0 74.0848 13.0121 964 111.622 1101.23 469.612
1001 0 75.0791 13.5058 1014 110.635 1100.9 467.884
1002 0 76.0344 13.5728 1032 111.903 1101.1 466.085
1003 0 79.1293 13.7496 1088 111.345 1101.04 463.05
1004 0 82.0954 12.4489 1022 114.139 1100.55 463.906
1005 0 85.142 14.3995 1226 109.808 1100.52 460.199
1006 0 88.0527 13.5146 1190 111.81 1100.43 459.861
1007 0 89.083 13.8298 1232 111.732 1099.59 455.92
1008 0 93.0514 13.5302 1259 111.973 1099.83 456.406
1009 0 98.1804 14.3511 1409 110.247 1100.03 455.274
1010 0 97.0831 13.5451 1315 113.909 1099.16 451.76
1011 0 104.075 14.9028 1551 110.234 1099.56 451.408
1012 0 104.186 13.7734 1435 112.372 1099.54 449.096
1013 1 53.061 10.7989 573 112.204 1098.99 473.991
1014 0 57.1369 12.3038 703 109.768 1099.38 472.802
1015 0 57.028 12.5903 718 108.191 1099.64 472.674
1016 0 61.0966 11.9319 729 109.414 1099.38 470.01
1017 0 62.0731 10.9387 679 112.966 1099.72 469.457
1018 0 64.1256 11.6334 746 104.618 1100.52 466.725
1019 0 67.1069 10.7292 720 105.758 1100.52 466.446
1020 0 69.0292 11.314 781 107.128 1100.98 466.685
1021 0 73.1188 11.4334 836 106.311 1100.64 465.384
1022 0 76.1217 13.2025 1005 103.524 1100.95 462.393
1023 0 78.0804 11.834 924 106.415 1100.91 462.982
1024 0 81.1723 12.997 1055 105.082 1100.84 460.691
1025 0 83.0849 11.1934 930 108.981 1100.84 461.477
1026 0 86.113 11.6359 1002 109.222 1100.37 459.356
1027 1 43.0061 11.324 487 105.103 1101.24 480.61
1028 0 43.0817 10.7702 464 112.14 1100.56 477.517
1029 0 47.0373 10.8212 509 104.196 1100.98 478.583
1030 0 48.0524 13.0482 627 100.612 1100.7 476.809
1031 0 48.0188 12.0369 578 111.49 1100.79 479.019
1032 0 51.0267 12.3661 631 109.932 1101.13 480.59
1033 0 53.0147 11.3365 601 111.759 1101.27 477.837
1034 0 54.0481 13.0254 704 108.033 1101.33 477.114
1035 0 56.0636 11.4691 643 112.036 1101.11 475.544
1036 0 60.0374 13.1585 790 106.697 1101.51 475.676
1037 0 61.0283 12.9776 792 108.917 1101.71 475.896
1038 0 61.0289 11.6174 709 111.848 1101.67 475.882
1039 0 65.0308 12.1173 788 110.104 1101.44 474.131
1040 0 67.1062 13.9033 933 106.555 1101.44 472.073
1041 0 69.0761 11.7696 813 110.865 1101.61 472.557
1042 0 72.0902 13.3167 960 108.782 1101.84 467.538
1043 0 75.0704 13.6539 1025 107.701 1101.93 467.336
1044 0 78.1246 12.9793 1014 109.657 1101.6 466.786
1045 0 80.1307 12.1177 971 112.267 1101.71 464.705
1046 0 82.1453 11.9301 980 112.583 1101.06 464.441
1047 0 87.1137 11.5596 1007 112.95 1101.19 463.14
1048 1 48.038 12.2611 589 109.287 1101.39 482.538
1049 0 48.0541 10.9876 528 113.398 1101.41 480.939
1050 0 50.0318 13.3315 667 106.513 1101.12 480.063
1051 0 52.0817 11.9812 624 109.397 1100.79 480.135
1052 0 52.0817 12.0196 626 138.634 1099.79 480.136
1053 0 56.0388 13.9011 779 105.804 1101.12 477.293
1054 0 56.0909 12.1053 679 111.513 1101.35 477.459
1055 0 58.0741 11.7608 683 111.833 1101.19 475.439
1056 0 62.1041 13.6062 845 106.315 1101.09 475.292
1057 0 63.0287 13.8508 873 107.514 1101 472.992
1058 0 65.1378 13.5098 880 107.914 1100.92 471.66
1059 0 67.0904 13.37 897 109.259 1100.87 471.903
1060 0 70.1132 13.1359 921 110.53 1101.12 470.646
1061 0 74.1508 12.7848 948 111.152 1100.5 469.45
1062 0 75.1215 13.4715 1012 110.125 1100.53 468.353
1063 0 76.0807 13.328 1014 112.295 1100.67 467.382
1064 0 80.0791 13.7364 1100 111.365 1100.85 465.212
1065 0 82.1039 13.2637 1089 112.838 1100.74 463.908
1066 0 85.1307 13.6378 1161 112.327 1100.65 460.816
1067 0 86.104 12.1133 1043 117.899 1100.99 464.008
1068 1 44.0327 11.5369 508 116.451 1101.73 482.63
1069 0 45.0932 11.4651 517 115.103 1101.29 482.619
1070 0 46.0131 11.9966 552 111.505 1101.31 483.118
1071 0 48.004 12.624 606 111.581 1101.08 480.226
1072 0 50.0559 12.6858 635 111.69 1100.67 480.685
1073 0 52.0411 13.3548 695 109.534 1100.49 478.833
1074 0 51.1124 12.4627 637 112.914 1100.2 480.094
1075 0 52.0317 11.762 612 115.539 1100.44 478.402
1076 0 55.0235 12.7945 704 111.712 1100.77 478
1077 0 58.033 13.6302 791 108.129 1100.28 476.416
1078 0 59.0369 14.3978 850 105.953 1100.58 476.754
1079 0 62.0581 14.0836 874 107.113 1100.57 474.079
1080 0 63.0945 12.2356 772 110.924 1101.03 474.277
1081 0 66.1095 12.4339 822 109.393 1100.92 474.039
1082 0 65.0661 12.9714 844 109.18 1101.25 472.39
1083 0 69.0757 13.0871 904 108.593 1100.75 470.925
1084 0 70.1476 13.5001 947 108.423 1100.01 468.874
1085 0 72.1156 12.9792 936 108.248 1101.01 470.624
1086 0 76.2339 13.3405 1017 107.608 1100.64 466.144
1087 0 77.0938 12.2708 946 110.525 1100.87 466.171
1088 0 82.2176 12.9413 1064 108.761 1100.28 465.186
1089 0 84.112 13.268 1116 108.446 1101.16 464.275
1090 0 87.1933 13.3841 1167 108.96 1101.27 461.495
1091 0 90.1042 12.7963 1153 110.452 1100.88 462.724
1092 0 92.0809 13.8248 1273 109.162 1100.64 460.033
1093 0 92.082 13.8138 1272 133.329 1100.64 460.083
1094 0 97.2123 11.9121 1158 115.697 1100.11 455.361
1095 1 52.0535 11.93 621 113.217 1099.36 479.143
1096 0 52.041 10.8952 567 117.951 1100.03 477.25
1097 0 54.0907 12.2017 660 113.979 1099.77 477.809
1098 0 56.1206 13.4532 755 114.293 1099.77 475.389
1099 0 58.2118 12.1797 709 117.621 1099.9 475.399
1100 0 60.1472 11.7878 709 118.537 1100.13 476.704
1101 0 62.1086 13.734 853 114.685 1100.2 474.454
1102 0 64.124 13.1776 845 114.591 1099.88 473.647
1103 0 67.1005 11.7138 786 118.061 1099.42 473.251
1104 0 67.1813 11.9081 800 118.964 1099.17 471.575
1105 0 71.1279 12.9485 921 116.086 1099.23 470.427
1106 0 72.1115 11.6486 840 120.905 1099.36 468.35
1107 0 74.148 12.03 892 121.32 1099.96 466.93
1108 0 76.119 11.2981 860 122.178 1099.39 467.459
1109 0 81.1751 12.3314 1001 118.904 1099.46 466.966
1110 0 82.1185 12.2749 1008 119.097 1098.84 465.703
1111 0 86.1642 13.1609 1134 117.735 1098.78 463.591
1112 1 42.0775 11.4075 480 119.533 1097.98 483.823
1113 0 45.0764 11.6913 527 113.934 1098.88 483.998
1114 0 47.0353 12.1823 573 113.403 1098.48 483.377
1115 0 47.1387 12.6223 595 112.239 1098.65 481.987
1116 0 48.0315 12.8041 615 112.616 1098.49 480.641
1117 0 50.0822 12.8788 645 111.285 1099.11 482.753
1118 0 52.101 13.7425 716 110.538 1099.3 478.33
1119 0 55.0561 14.0221 772 109.233 1099.58 478.333
1120 0 57.1691 12.7866 731 112.997 1099.37 477.64
1121 0 58.057 13.2112 767 112.575 1099.71 477.87
1122 0 59.0685 12.2739 725 116.977 1099.49 475.097
1123 0 62.0776 13.8214 858 112.932 1099.38 474.93
1124 0 63.1654 13.9159 879 114.758 1099.05 474.974
1125 0 67.0427 13.827 927 114.396 1099.48 474.55
1126 0 67.1126 12.9186 867 119.773 1099.54 471.424
1127 0 69.0514 13.3958 925 118.378 1098.9 473.129
1128 0 73.1256 13.5794 993 117.499 1098.88 471.746
1129 0 75.0679 13.3612 1003 120.072 1099.03 467.356
1130 0 77.107 13.1506 1014 121.278 1098.98 468.544
1131 0 82.1384 13.7938 1133 118.936 1098.95 467.007
1132 0 83.1397 13.339 1109 122.889 1098.82 464.693
1133 1 44.0764 12.2968 542 128.02 1098.3 484.493
1134 0 46.0592 11.6155 535 123.879 1098.26 482.073
1135 0 46.0965 12.5823 580 129.157 1098.01 482.164
1136 0 50.0555 13.1654 659 125.876 1098.38 480.731
1137 0 51.0805 13.2732 678 126.001 1099.19 480.832
1138 0 51.0307 11.738 599 131.055 1098.65 480.319
1139 0 53.0403 12.4999 663 129.744 1097.96 477.998
1140 0 56.0284 12.7435 714 127.88 1098.6 478.139
1141 0 57.0292 12.4848 712 129.489 1098.62 477.407
1142 0 57.0191 12.4695 711 145.873 1098.63 477.519
1143 0 61.0501 13.9721 853 126.036 1098.4 475.223
1144 0 63.0982 12.6945 801 121.061 1099.23 473.779
1145 0 64.0979 13.2298 848 119.758 1098.97 473.798
1146 0 67.1639 12.2238 821 122.174 1098.81 473.603
1147 0 68.0855 12.3962 844 121.177 1099.44 471.666
1148 0 73.0719 12.7682 933 118.565 1099.11 470.333
1149 0 76.1108 14.2161 1082 115.184 1098.78 468.365
1150 0 76.0334 12.5471 954 120.617 1098.72 468.768
1151 1 42.0079 11.355 477 119.824 1099.26 486.99
1152 0 42.0464 11.416 480 123.158 1099.61 484.181
1153 0 44.0333 12.7177 560 119.938 1098.79 484.389
1154 0 44.0991 12.3358 544 122.529 1098.76 484.54
1155 0 47.1057 13.2893 626 115.623 1097.88 483.963
1156 0 49.1086 11.9327 586 119.323 1098.52 483.468
1157 0 47.1003 11.8258 557 122.029 1098.14 482.298
1158 0 50.0895 13.0167 652 116.055 1098.64 481.997
1159 0 52.0566 12.179 634 118.797 1098.58 481.095
1160 0 52.059 13.4079 698 118.136 1098.73 478.986
1161 0 55.0876 14.2319 784 115.297 1098.69 479.506
1162 0 56.1135 14.0786 790 118.058 1098.55 478.37
1163 0 58.123 12.7488 741 121.377 1098.73 478.066
1164 0 61.0374 12.7299 777 120.453 1098.74 477.356
1165 0 61.0515 13.0382 796 121.323 1099.08 475.499
1166 0 64.1619 13.0919 840 121.311 1098.72 474.354
1167 0 65.0973 13.3032 866 121.456 1099.26 472.971
1168 0 67.2398 12.448 837 123.317 1099.3 473.818
1169 0 71.1601 13.1956 939 121.62 1098.36 470.553
1170 0 70.1411 12.3608 867 126.235 1098.67 470.843
1171 0 75.0868 13.1048 984 122.762 1099.52 469.567
1172 0 76.1097 12.7185 968 124.806 1099.63 468.619
1173 0 77.0868 12.7389 982 127.279 1099.1 467.845
1174 0 83.029 13.7542 1142 123.375 1098.96 466.702
1175 0 85.098 13.3141 1133 125.52 1099.32 464.94
1176 0 85.1129 13.065 1112 128.516 1099.08 464.434
1177 0 89.1615 13.7616 1227 127.79 1099.33 461.684
1178 0 92.0616 13.9472 1284 127.214 1099.12 459.475
1179 0 96.1263 14.3249 1377 125.597 1099.21 459.671
1180 0 97.0574 12.6626 1229 130.39 1099.1 458.945
1181 0 103.103 13.9084 1434 128.216 1099.87 454.116
1182 1 50.0297 11.9529 598 130.258 1098.62 480.89
1183 0 52.0351 12.8759 670 129.763 1098.43 479.354
1184 0 54.0487 13.9134 752 125.347 1098.41 477.649
1185 0 55.212 13.1312 725 128.993 1098.95 479.29
1186 0 57.0418 13.9372 795 127.132 1098.88 477.576
1187 0 57.0827 13.0863 747 131.772 1098.81 477.355
1188 0 60.0515 12.9722 779 132.57 1097.99 474.608
1189 0 62.0698 13.3559 829 130.745 1098.91 473.963
1190 0 66.0451 14.7929 977 125.757 1098.63 472.997
1191 0 67.1037 13.2631 890 131.279 1098.32 473.516
1192 0 68.1481 14.0576 958 131.643 1098.42 469.651
1193 0 71.0761 13.7318 976 132.257 1098.57 471.661
1194 0 72.1083 13.3688 964 135.538 1098.55 467.2
1195 0 77.0529 15.5478 1198 128.612 1098.86 465.11
1196 0 79.0887 13.9969 1107 135.444 1098.11 465.207
1197 0 81.2526 13.9319 1132 136.248 1099.18 465.37
1198 0 85.0935 16.0059 1362 129.471 1099.06 462.492
1199 0 88.1997 14.0023 1235 135.445 1099.22 461.259
1200 0 91.1571 16.0273 1461 129.277 1099.03 459.214
1201 0 93.1448 13.1945 1229 136.451 1098.92 457.907
1202 0 97.1784 13.573 1319 134.353 1099.24 455.547
1203 1 49.1243 11.2164 551 130.583 1098.85 478.232
1204 0 52.0918 12.9579 675 130.862 1099.34 478.557
1205 0 53.1024 13.4646 715 129.804 1098.52 477.961
1206 0 55.0264 12.1033 666 132.347 1098.09 479.123
1207 0 56.0982 13.8685 778 128.338 1099.13 477.767
1208 0 57.085 10.8084 617 126.789 1098.83 476.695
1209 0 59.1653 11.5946 686 124.956 1098.93 475.541
1210 0 60.1685 12.7309 766 123.108 1098.49 474.899
1211 0 62.0774 12.3072 764 123.724 1098.76 475.128
1212 0 62.0772 12.3073 764 132.479 1098.78 475.107
1213 0 66.1361 11.7939 780 126.226 1098.71 471.635
1214 0 70.1247 12.0072 842 124.316 1098.64 470.061
1215 0 72.0893 11.9435 861 126.516 1098.25 469.066
1216 0 76.1143 12.4024 944 123.573 1098.42 467.407
1217 0 77.2011 11.3211 874 126.666 1098.69 467.731
1218 1 41.0676 10.5436 433 124.808 1099.32 485.794
1219 0 42.0397 12.2503 515 120.703 1098.67 484.334
1220 0 42.0914 11.4038 480 123.127 1099.12 483.158
1221 0 47.141 11.4762 541 120.932 1099.43 483.237
1222 0 48.0265 11.6394 559 119.637 1100.84 483.174
1223 0 49.0462 12.1926 598 118.838 1100.08 481.53
1224 0 51.0354 12.0897 617 117.801 1099.48 481.684
1225 0 53.0137 12.261 650 117.702 1099.81 479.875
1226 0 53.0486 11.9702 635 118.644 1099.44 480.543
1227 0 52.0405 12.0867 629 119.865 1099.26 480.475
1228 0 57.0272 12.3801 706 118.102 1099.4 478.132
1229 0 59.0377 11.1962 661 120.201 1099.94 478.52
1230 0 59.0432 11.8388 699 118.309 1098.93 478.079
1231 0 60.051 10.7908 648 121.66 1100.02 475.054
1232 0 64.0457 12.8502 823 115.552 1100.01 472.936
1233 0 67.0874 11.9247 800 118.045 1099.66 473.34
1234 0 68.1082 11.9075 811 118.699 1100.26 470.636
1235 0 71.0573 12.1029 860 119.184 1100.03 469.327
1236 0 73.1288 12.2387 895 118.361 1099.69 468.763
1237 0 76.1045 12.1675 926 117.947 1099.09 468.637
1238 0 79.0755 12.4438 984 117.408 1099.5 466.622
1239 0 80.0581 11.779 943 120.369 1099.57 464.937
1240 0 82.0688 12.1483 997 119.88 1099.25 464.675
1241 0 87.0803 12.0578 1050 119.206 1099.16 463.082
1242 0 87.1171 12.3282 1074 119.282 1099.45 463.709
1243 0 92.1509 13.2826 1224 117.376 1099.7 460.893
1244 0 92.1878 11.9864 1105 122.404 1099.34 457.743
1245 0 96.1175 12.2662 1179 120.707 1099.97 458.26
1246 0 98.178 12.6607 1243 120.931 1100.41 454.771
1247 0 103.077 11.8164 1218 122.57 1099.96 456.276
1248 0 106.228 12.9627 1377 120.11 1099.88 453.357
1249 0 110.143 13.1556 1449 120.086 1099.21 450.562
1250 0 114.143 12.4843 1425 121.597 1098.93 450.044
1251 0 115.151 11.5587 1331 125.649 1098.17 446.133
1252 0 115.151 11.524 1327 150.034 1097.17 446.182
1253 0 126.4 12.7136 1607 122.654 1098.91 444.874
1254 0 131.316 14.309 1879 118.283 1099.15 439.679
1255 0 133.13 11.4625 1526 124.311 1099.15 440.227
1256 0 137.325 11.8624 1629 127.397 1098.23 433.831
1257 0 143.411 12.3491 1771 126.163 1098.6 431.573
1258 0 149.41 14.0285 2096 120.642 1098.77 433.245
1259 0 154.408 13.6456 2107 122.226 1098.41 428.393
1260 0 159.327 13.7704 2194 122.491 1098.4 424.783
1261 0 162.3 12.1811 1977 127.52 1097.76 421.937
1262 0 171.338 12.7817 2190 125.645 1097.78 419.395
1263 0 174.375 13.8552 2416 124.233 1098.16 414.654
1264 0 181.272 14.1445 2564 123.564 1098.48 412.005
1265 0 188.401 13.7526 2591 124.661 1098.11 411.477
1266 0 194.322 13.6938 2661 125.135 1098.64 410.15
1267 0 199.363 12.7606 2544 127.888 1098.6 409.551
1268 1 154.337 11.2157 1731 127.976 1098.48 433.051
1269 0 160.28 13.1395 2106 124.873 1097.6 424.463
1270 0 162.214 11.8978 1930 130.346 1097.95 420.245
1271 0 171.251 12.362 2117 128.042 1097.56 422.814
1272 0 177.356 12.675 2248 127.369 1098.22 418.787
1273 0 185.31 12.7678 2366 125.666 1098.08 417.485
1274 0 193.447 13.2129 2556 123.881 1098.23 411.161
1275 0 199.264 12.5612 2503 124.693 1098.17 412.099
1276 1 74.206 12.1149 899 122.558 1097.97 465.732
1277 0 79.1587 14.313 1133 119.846 1097.78 465.071
1278 0 81.133 14.6303 1187 119.172 1097.63 465.726
1279 0 84.1274 13.9194 1171 121.528 1097.77 462.931
1280 0 86.1525 13.2556 1142 122.363 1097.28 462.89
1281 0 90.1523 13.2886 1198 122.112 1097.34 460.096
1282 0 93.1428 13.3236 1241 122.062 1097.9 458.804
1283 0 95.1233 13.2355 1259 120.803 1098.79 460.066
1284 0 99.1922 12.5211 1242 116.996 1098.21 456.469
1285 0 101.157 11.8627 1200 118.604 1098.65 454.957
1286 0 106.159 13.508 1434 115.049 1098.71 452.779
1287 0 108.188 12.4506 1347 118.328 1098.53 451.671
1288 0 111.189 12.3483 1373 118.48 1098.79 451.51
1289 0 116.168 12.4991 1452 119.191 1098.19 447.242
1290 0 120.08 12.6832 1523 117.336 1098.82 445.141
1291 0 125.404 12.3281 1546 118.089 1098.77 443.843
1292 0 128.158 11.9072 1526 120.123 1098.63 440.935
1293 1 65.2023 8.74203 570 118.94 1098.36 472.512
1294 0 70.3018 12.1903 857 113.796 1098.36 468.363
1295 0 73.2384 12.3979 908 118.174 1098.55 467.274
1296 0 75.2668 13.0071 979 115.688 1098.02 465.939
1297 0 78.1416 14.3713 1123 107.831 1097.51 465.558
1298 0 80.2291 13.449 1079 108.933 1097.45 464.771
1299 0 82.1128 11.9713 983 111.769 1098.12 462.899
1300 0 85.2807 12.1833 1039 111.135 1097.93 462.291
1301 0 87.1886 11.9511 1042 112.144 1098.29 459.199
1302 0 91.1811 12.2174 1114 109.65 1098.41 460.716
1303 0 94.1267 12.0688 1136 111.7 1097.58 457.962
1304 0 98.238 12.2152 1200 111.558 1098.33 457.424
1305 0 102.246 11.6875 1195 113.431 1097.76 454.397
1306 1 52.0991 9.94259 518 115.624 1097.9 478.485
1307 0 54.0851 11.371 615 115.616 1097.63 477.085
1308 0 57.1109 11.0137 629 116.1 1097.4 477.219
1309 0 60.1751 12.5966 758 113.393 1097.03 475.31
1310 0 59.1686 11.7292 694 117.337 1097.33 474.823
1311 0 60.2517 11.6843 704 117.52 1097.76 475.111
1312 0 63.1602 12.4287 785 115.539 1097.41 473.596
1313 0 68.1525 13.0443 889 111.925 1097.34 472.42
1314 0 68.4103 10.8609 743 116.989 1097.12 469.898
1315 0 72.1649 11.349 819 115.753 1097.17 469.197
1316 0 74.1539 12.0965 897 113.933 1097.51 467.232
1317 0 76.266 11.5517 881 115.73 1097.28 465.806
1318 0 78.2004 12.7877 1000 113.624 1097.18 463.168
1319 0 83.2385 12.7825 1064 111.997 1097.4 462.807
1320 0 82.2037 10.9606 901 116.241 1097.42 463.25
1321 0 82.2037 10.9241 898 151.688 1097.42 463.307
1322 0 91.172 11.1767 1019 109.388 1098.36 460.612
1323 0 94.2132 12.1851 1148 108.009 1098.97 458.884
1324 1 50.0076 10.6784 534 105.29 1098.81 479.682
1325 0 47.062 10.1568 478 108.797 1098.09 478.967
1326 0 53.2435 12.1705 648 102.835 1097.21 477.125
1327 0 53.0895 11.4147 606 104.785 1097.34 478.064
1328 0 55.0579 12.3506 680 102.687 1098.13 476.987
1329 0 55.1395 11.9696 660 104.188 1098.59 474.847
1330 0 59.1613 12.4913 739 102.099 1098.27 474.792
1331 0 60.1469 12.3365 742 102.501 1098 473.562
1332 0 61.3343 12.8639 789 102.914 1098.28 473.894
1333 0 64.1906 12.1669 781 103.274 1098.08 472.209
1334 0 66.1596 12.5908 833 101.88 1098 471.288
1335 0 69.1328 13.0763 904 101.117 1097.23 470.721
1336 0 69.1328 13.1052 906 124.748 1097.23 470.685
1337 0 72.2544 12.4837 902 103.237 1098.25 469.404
1338 0 72.2102 12.0759 872 105.686 1098.1 466.609
1339 0 77.0885 12.9462 998 102.943 1097.64 467.465
1340 0 79.2141 12.9017 1022 103.92 1098.55 465.48
1341 0 81.1006 11.7015 949 107.463 1098.67 463.243
1342 0 84.2021 11.2586 948 108.918 1098.13 463.869
1343 0 88.1393 10.6876 942 110.423 1098.44 460.354
1344 0 91.2623 11.3628 1037 108.642 1098.52 459.047
1345 0 94.3232 12.2239 1153 107.944 1098.74 454.919
1346 0 99.328 11.4973 1142 108.672 1098.89 454.9
1347 0 99.328 11.4067 1133 126.004 1098.87 455.021
1348 1 52.1825 10.904 569 104.62 1098.83 476.807
1349 0 53.1947 11.8621 631 103.257 1099.44 477.401
1350 0 54.0487 12.5257 677 102.056 1100.01 477.112
1351 0 55.0443 10.0828 555 107.584 1099.63 475.335
1352 0 60.0716 13.0012 781 100.717 1099.48 474.378
1353 0 62.0499 13.2313 821 100.476 1098.88 472.825
1354 0 64.0676 12.6897 813 101.044 1098.94 472.598
1355 0 65.0572 12.4967 813 102.788 1098.03 471.508
1356 0 68.0766 12.7944 871 101.785 1098.32 468.522
1357 0 73.1396 12.3189 901 101.87 1098.6 468.584
1358 0 72.0397 11.4798 827 105.401 1098.03 465.326
1359 0 77.1348 12.4198 958 102.261 1098 466.971
1360 0 80.0435 12.0185 962 103.285 1097.94 464.943
1361 0 84.0644 13.5372 1138 98.9341 1098.23 464.756
1362 1 45.0416 10.901 491 102.081 1098.74 482.42
1363 0 45.0221 12.194 549 100.082 1097.17 481.208
1364 0 45.0221 12.194 549 139.734 1096.17 481.208
1365 0 50.1022 12.4945 626 99.885 1100.07 479.34
1366 0 51.0415 13.4988 689 98.5443 1100.51 478.453
1367 0 51.0415 13.5772 693 131.939 1100.52 478.362
1368 0 53.0761 12.3219 654 102.905 1100.53 478.546
1369 0 56.0729 12.8583 721 101.727 1100.26 477.542
1370 0 59.0673 13.1545 777 101.287 1100.6 477.293
1371 0 59.1189 11.959 707 104.72 1100.3 476.96
1372 0 58.1633 9.95472 579 110.694 1099.78 476.87
1373 0 61.05 11.8264 722 107.564 1100.04 474.278
1374 0 64.0634 12.2691 786 106.543 1099.78 472.02
1375 0 65.1212 12.1619 792 108.145 1099.23 470.157
1376 0 69.2326 11.8441 820 107.53 1099.39 471.578
1377 0 72.1649 11.5292 832 108.709 1100.51 471.681
1378 0 73.1559 11.0176 806 111.037 1098.7 469.254
1379 0 76.1656 10.7266 817 112.46 1099.13 465.673
1380 1 38.0099 10.813 411 107.557 1099.24 485.706
1381 0 39.0591 10.3433 404 107.829 1098.99 484.78
1382 0 41.0807 12.6093 518 102.178 1098.74 484.432
1383 0 43.0148 11.5542 497 102.811 1097.88 484.336
1384 0 43.0466 10.779 464 105.909 1099.88 483.627
1385 0 45.0482 12.2757 553 102.354 1099.7 483.127
1386 0 45.0921 12.8847 581 103.031 1099.65 482.48
1387 0 47.0374 12.033 566 104.845 1099.12 482.216
1388 0 49.0353 12.7459 625 102.267 1100.16 482.27
1389 0 50.085 13.0179 652 102.457 1100.53 479.597
1390 0 52.0332 13.0686 680 102.415 1100.5 480.403
1391 0 54.0196 12.4769 674 104.104 1099.91 479.38
1392 0 56.0307 13.3141 746 101.192 1099.76 478.292
1393 0 58.0841 12.9123 750 102.744 1099.63 475.464
1394 0 60.0893 12.2152 734 104.396 1099.43 477.315
1395 0 59.0765 13.4402 794 102.5 1098.92 475.942
1396 0 60.0984 12.0802 726 106.165 1099.41 473.809
1397 0 63.1202 12.4524 786 104.758 1099.51 473.822
1398 0 67.1328 13.7489 923 100.527 1099.59 472.412
1399 0 68.1464 12.9867 885 103.147 1099.21 470.053
1400 0 70.1516 13.143 922 102.887 1099.66 471.214
1401 0 71.1612 12.3804 881 104.754 1099.01 469.843
1402 0 71.2207 12.5666 895 106.631 1099.3 468.485
1403 0 76.1734 12.3534 941 106.879 1099.31 468.044
1404 0 77.2018 12.4349 960 107.878 1098.91 466.795
1405 0 78.134 11.0835 866 110.197 1098.97 464.032
1406 0 81.2076 13.1515 1068 105.619 1098.87 461.51
1407 0 83.1783 11.806 982 107.909 1098.75 459.451
1408 0 86.1976 10.9516 944 108.102 1098.91 462.727
1409 0 89.1593 11.0364 984 108.225 1098.44 458.752
1410 1 48.0386 10.096 485 104.971 1098.22 481.153
1411 0 51.0582 11.3988 582 104.878 1099.23 478.856
1412 0 52.1051 11.6687 608 108.01 1100.23 476.319
1413 0 53.133 13.1368 698 96.4026 1099.35 475.711
1414 0 53.1473 12.3619 657 101.172 1099.35 475.901
1415 0 55.1206 11.9556 659 101.929 1099.72 474.243
1416 0 58.0966 12.2727 713 101.088 1099.79 472.829
1417 0 60.1128 12.044 724 101.099 1099.26 471.99
1418 0 63.0994 12.5041 789 99.6895 1099.09 470.886
1419 0 64.1282 12.3035 789 100.36 1098.33 468.619
1420 0 66.1177 12.2811 812 100.994 1098.3 470.564
1421 0 69.0777 12.2905 849 102.053 1098.35 468.627
1422 0 70.2023 12.6064 885 103.485 1098.15 465.112
1423 0 72.0981 11.8034 851 107.113 1098.28 465.827
1424 0 74.2419 12.8768 956 105.481 1097.72 464.404
1425 0 77.1503 11.7692 908 106.653 1098.63 463.909
1426 0 79.1646 10.914 864 109.095 1098.35 462.542
1427 0 81.3206 11.7436 955 107.858 1099 463.02
1428 1 40.0793 11.0531 443 106.045 1099.28 481.562
1429 0 43.1042 11.9942 517 103.371 1097.84 478.727
1430 0 44.0748 10.8225 477 107.285 1098.29 477.122
1431 0 45.0495 11.1211 501 106.752 1099.7 478.429
1432 0 45.0764 12.1793 549 104.015 1098.96 477.832
1433 0 47.0404 12.011 565 104.662 1099.6 477.025
1434 0 47.0404 12.0322 566 117.205 1099.58 477
1435 0 51.109 12.6983 649 103.738 1099.5 473.79
1436 0 53.0887 12.4509 661 103.72 1099.61 473.593
1437 0 52.0846 12.2301 637 106.452 1099.52 471.931
1438 0 55.0875 12.9612 714 103.486 1099.42 473.102
1439 0 54.0805 13.1655 712 113.389 1099.43 472.899
1440 0 57.0781 12.2639 700 105.206 1099.76 470.694
1441 0 59.177 11.6768 691 106.755 1098.93 470.294
1442 0 61.0876 12.7031 776 104.16 1098.66 468.8
1443 0 66.2251 12.5179 829 103.565 1099.36 466.913
1444 0 67.1063 14.7229 988 99.1296 1098.88 466.1
1445 0 70.1394 13.3306 935 102.057 1099.2 466.292
1446 0 72.0803 13.8318 997 101.703 1099.07 464.318
1447 0 75.1544 13.612 1023 102.782 1099.37 464.382
1448 0 78.1645 13.817 1080 102.713 1099.51 463.411
1449 0 77.1118 12.7348 982 106.966 1099.57 462.203
1450 0 81.087 13.8 1119 104.463 1099.74 460.388
1451 0 85.0913 13.4561 1145 105.422 1099.55 461.567
1452 0 88.1366 13.1614 1160 106.298 1099.03 459.594
1453 0 89.18 13.0635 1165 108.65 1099.46 457.715
1454 0 93.1769 13.3402 1243 107.865 1099.84 457.623
1455 0 97.2177 13.3823 1301 107.401 1100.18 457.458
1456 1 51.1204 12.363 632 109.074 1100.81 478.403
1457 0 53.0769 13.2261 702 105.942 1100.6 477.645
1458 0 53.1201 13.2906 706 106.593 1100.18 475.595
1459 0 55.1282 13.006 717 106.957 1099.85 475.386
1460 0 58.0594 14.399 836 104.164 1099.49 475.567
1461 0 58.0804 12.4483 723 110.863 1100.15 474.237
1462 0 62.1039 13.6384 847 106.62 1100.57 473.373
1463 0 64.1475 12.5804 807 109.7 1100.07 473.668
1464 0 66.0359 13.0384 861 109.755 1099.53 471.671
1465 0 68.1945 14.2973 975 107.071 1098.98 470.48
1466 0 68.0832 13.0282 887 111.219 1099.28 469.076
1467 0 71.1369 13.4529 957 110.694 1099.88 468.4
1468 0 75.054 15.1225 1135 106.858 1100.05 466.865
1469 0 75.139 13.6547 1026 111.825 1099.75 465.721
1470 0 77.0812 13.0901 1009 113.969 1099.78 463.325
1471 0 79.0581 13.5596 1072 113.909 1099.66 462.285
1472 0 83.1127 15.0278 1249 111.014 1100.37 460.366
1473 0 85.1086 13.6061 1158 115.173 1099.96 461.049
1474 0 88.252 14.5379 1283 112.953 1099.78 457.567
1475 0 91.1002 13.8419 1261 114.799 1099.12 456.5
1476 0 93.2357 13.9432 1300 115.245 1099.47 455.325
1477 0 93.2357 13.9861 1304 142.394 1099.48 455.279
1478 0 101.337 14.1311 1432 118.992 1098.83 454.797
1479 1 55.1111 11.504 634 119.396 1099.7 475.793
1480 0 56.0404 11.4382 641 117.906 1099.08 474.752
1481 0 60.0548 13.9206 836 111.315 1099.33 472.556
1482 0 63.1222 13.4026 846 112.033 1099.43 472.414
1483 0 62.1143 13.7971 857 112.58 1099.49 472.555
1484 0 65.1722 11.4159 744 118.177 1099.63 467.985
1485 0 69.2372 13.9376 965 111.846 1098.98 468.138
1486 0 71.0921 13.6302 969 113.109 1099.06 467.575
1487 0 74.1097 13.4935 1000 112.796 1099.09 468.148
1488 0 75.2313 13.8506 1042 113.986 1098.09 464.933
1489 0 78.1492 13.9349 1089 113.099 1098.95 463.978
1490 0 81.2814 13.9023 1130 113.342 1099.02 461.79
1491 0 84.2906 14.2958 1205 111.994 1099.01 461.442
1492 0 82.2716 13.7107 1128 144.879 1099.01 462.781
1493 0 88.2605 13.834 1221 117.143 1098.66 457.555
1494 0 91.2392 13.1303 1198 119.434 1098.88 457.306
1495 0 95.1507 14.1775 1349 116.809 1098.53 454.374
1496 1 48.1477 11.4024 549 115.71 1097.97 476.426
1497 0 48.1499 11.5265 555 118.589 1097.94 472.539
1498 0 51.0432 11.6372 594 118.093 1097.87 474.301
1499 0 54.073 12.4092 671 117.294 1097.15 477.402
1500 0 55.0317 12.6654 697 116.207 1097.25 476.623
1501 0 56.0284 12.9756 727 116.856 1096.69 475.11
1502 0 59.0841 13.0661 772 114.627 1096.92 476.444
1503 0 59.0841 12.1183 716 151.08 1096.93 475.501
1504 0 61.0481 14.12 862 108.026 1098.36 473.799
1505 0 64.0725 15.5293 995 105.373 1097.41 470.979
1506 0 64.0493 13.958 894 114.095 1097.32 471.843
1507 0 65.0875 12.9979 846 116.935 1097.25 471.202
1508 0 65.046 13.5596 882 116.316 1097.69 471.615
1509 0 66.0328 13.781 910 118.458 1097.47 469.978
1510 0 67.0483 12.6924 851 122.891 1097.14 469.63
1511 0 72.0871 13.4976 973 117.234 1097.03 469.336
1512 0 74.0774 14.4308 1069 114.759 1097.92 466.736
1513 0 75.0488 14.0842 1057 114.5 1097.85 467.006
1514 0 76.0703 12.3438 939 118.625 1097.39 465.699
1515 0 80.0953 14.3829 1152 112.579 1097.38 463.958
1516 0 82.2499 13.4103 1103 114.22 1097.26 464.273
1517 0 85.0873 13.9034 1183 113.23 1097.48 460.479
1518 0 85.081 13.9279 1185 137.857 1097.46 460.565
1519 0 89.141 14.2808 1273 113.581 1096.84 458.999
1520 0 91.1847 13.4562 1227 116.64 1096.86 457.138
1521 1 51.0128 11.9186 608 115.61 1096.42 479.291
1522 0 49.0503 11.4984 564 118.004 1096.31 478.076
1523 0 53.0752 12.6613 672 113.832 1096.75 477.784
1524 0 51.0484 11.9886 612 116.242 1096.92 479.18
1525 0 55.0569 12.2237 673 114.908 1096.67 478.056
1526 0 55.0974 12.7411 702 115.113 1096.88 476.688
1527 0 58.0722 13.2077 767 114.438 1097.4 476.09
1528 0 59.162 12.7109 752 117.249 1097.07 475.495
1529 0 62.0261 12.5109 776 117.227 1096.59 474.782
1530 0 62.0756 11.9693 743 121.338 1096.97 473.175
1531 0 66.1607 12.3941 820 120.08 1096.99 472.476
1532 0 66.1276 12.5969 833 122.407 1097.02 471.311
1533 0 67.1176 11.9641 803 126.076 1097.44 471.08
1534 0 72.1463 12.9736 936 122.885 1097.06 470.579
1535 0 73.1309 13.7561 1006 124.151 1096.61 469.747
1536 0 77.1302 13.5615 1046 125.265 1097.14 467.196
1537 0 79.19 13.3855 1060 126.478 1097.25 466.625
1538 0 82.2581 13.2753 1092 127.242 1097.46 464.138
1539 0 85.1903 13.9452 1188 124.884 1096.91 462.922
1540 0 89.2278 15.354 1370 119.992 1097.05 460.85
1541 1 45.1824 11.6196 525 122.571 1096.61 483.457
1542 0 45.0641 12.4711 562 125.157 1095.64 481.11
1543 0 46.1925 12.1448 561 125.756 1095.98 480.201
1544 0 49.1109 12.1765 598 123.296 1097.15 481.701
1545 0 51.1059 12.3078 629 113.065 1097.25 479.248
1546 0 54.1291 11.9898 649 114.014 1096.57 478.67
1547 0 53.0652 13.3798 710 112.106 1096.27 477.945
1548 0 57.1103 12.8523 734 110.623 1096.05 478.399
1549 0 58.1844 12.8041 745 111.707 1096.5 476.005
1550 0 59.0933 13.3687 790 110.411 1096.22 476.701
1551 0 61.113 12.7469 779 112.054 1096.49 474.997
1552 0 64.0316 11.6817 748 114.001 1095.98 474.138
1553 0 67.0541 12.8851 864 110.318 1096.11 471.067
1554 0 69.0982 13.2275 914 109.554 1096.31 471.944
1555 0 71.1144 12.8947 917 109.553 1095.97 472.4
1556 0 72.0593 13.364 963 109.725 1095.53 468.79
1557 0 74.1394 12.8137 950 109.505 1095.82 468.499
1558 0 76.0838 13.1828 1003 108.928 1096.1 465.495
1559 0 79.0274 12.1983 964 111.469 1095.71 466.638
1560 0 82.1633 13.7166 1127 108.102 1096.07 465.645
1561 0 84.117 12.8987 1085 110.361 1095.62 463.562
1562 0 86.1399 12.41 1069 111.004 1095.86 461.051
1563 0 90.1253 13.6699 1232 107.957 1095.75 460.11
1564 1 43.0736 11.0973 478 110.695 1095.13 482.686
1565 0 46.0405 11.0989 511 109.442 1096.09 481.759
1566 0 49.0724 12.0638 592 106.154 1097.1 483.399
1567 0 49.0724 12.0027 589 118.338 1098.11 483.294
1568 0 50.0416 11.4305 572 105.717 1096.72 477.657
1569 0 52.0733 12.3288 642 105.734 1097.02 478.846
1570 0 53.0919 10.2464 544 109.232 1096.93 478.855
1571 0 57.0989 11.9792 684 104.361 1097.58 476.683
1572 0 60.0515 12.9555 778 102.645 1096.87 474.604
1573 0 60.0675 12.8689 773 104.094 1097.08 475.082
1574 0 61.0251 11.6509 711 105.775 1096.58 473.172
1575 0 65.0354 12.9775 844 103.123 1096.73 473.268
1576 0 66.0519 12.2934 812 105.328 1097.36 471.91
1577 0 68.0303 11.539 785 107.554 1097.81 470.846
1578 0 73.103 11.7369 858 105.854 1097.38 471.726
1579 0 74.0693 12.5288 928 107.314 1097.45 468.822
1580 0 78.092 12.2164 954 108.031 1096.16 467.941
1581 0 81.0917 13.6759 1109 105.373 1097.03 466.378
1582 0 84.0976 12.1882 1025 108.643 1096.8 466.059
1583 0 87.0941 13.3649 1164 106.338 1096.87 462.753
1584 1 43.0709 10.889 469 112.179 1095.92 482.2
1585 0 43.0782 10.9568 472 127.763 1094.94 482.201
1586 0 47.0977 11.7628 554 110.267 1096.34 480.244
1587 0 50.0482 12.0084 601 108.732 1097.76 480.785
1588 0 50.0348 11.9117 596 110.418 1096.98 479.569
1589 0 53.0535 12.9869 689 107.392 1097.01 479.631
1590 0 55.0891 13.2513 730 106.927 1096.89 478.103
1591 0 56.0729 12.3589 693 109.468 1096.92 477.545
1592 0 58.046 13.0414 757 108.324 1097.18 476.347
1593 0 59.0501 12.8027 756 109.352 1097.39 474.433
1594 0 62.1195 13.9087 864 106.612 1097.14 474.06
1595 0 64.154 12.9688 832 109.731 1097.96 472.863
1596 0 64.1446 12.8927 827 130.591 1098.96 472.802
1597 0 67.0346 12.9336 867 112.452 1096.95 470.489
1598 0 69.1276 12.2672 848 115.402 1097.42 470.471
1599 0 70.1214 12.3643 867 115.772 1097.15 470.374
1600 0 74.129 12.6941 941 115.423 1096.28 467.165
1601 0 78.2482 12.9588 1014 114.553 1096.31 467.311
1602 0 80.351 13.2419 1064 114.759 1096.02 461.311
1603 0 82.3293 12.6686 1043 116.377 1095.67 461.03
1604 0 82.3293 12.7294 1048 136.056 1094.69 461.03
1605 0 88.3255 13.2125 1167 116.507 1095.74 457.01
1606 0 94.3023 13.3401 1258 114.383 1096.13 456.072
1607 1 50.1837 12.2151 613 113.529 1096.22 477.015
1608 0 52.1096 11.6677 608 115.959 1096.36 476.885
1609 0 52.1096 11.6869 609 137.011 1096.35 476.882
1610 0 55.0384 13.2998 732 111.65 1096.05 475.719
1611 0 55.0381 11.592 638 133.003 1094.99 477.122
1612 0 58.0709 13.518 785 112.338 1096.99 474.369
1613 0 62.0662 13.4534 835 112.202 1096.21 473.939
1614 0 64.1985 14.4396 927 109.058 1096.02 473.548
1615 0 66.2715 13.0675 866 113.157 1097.06 470.796
1616 0 67.222 12.7786 859 114.424 1096.36 469.244
1617 0 72.1612 13.4283 969 111.11 1096.26 470.4
1618 0 74.2035 12.1558 902 113.494 1096.81 470.192
1619 0 77.1093 13.9413 1075 109.617 1096.78 468.425
1620 0 80.2103 14.3373 1150 108.682 1096.48 466.424
1621 0 81.2612 13.7089 1114 110.79 1096.37 462.286
1622 0 85.2296 13.6338 1162 110.255 1096.7 463.405
1623 0 87.4476 14.3858 1258 109.462 1096.64 459.966
1624 1 45.1294 11.6332 525 112.345 1096.22 481.768
1625 0 47.1619 11.98 565 111.025 1095.69 480.811
1626 0 47.1619 11.9376 563 143.201 1094.69 480.712
1627 0 50.0524 12.6867 635 106.545 1096.76 478.054
1628 0 51.0912 12.0177 614 115.243 1096.51 477.862
1629 0 51.1053 11.9948 613 139.688 1096.49 477.923
1630 0 56.0397 12.9372 725 112.687 1096.87 476.269
1631 0 56.0901 12.3195 691 113.942 1096.24 476.022
1632 0 61.071 13.1323 802 111.86 1096.49 473.776
1633 0 61.0998 14.1244 863 109.547 1096.57 473.787
1634 0 62.0652 12.2291 759 115.17 1096.45 473.223
1635 0 65.089 12.2294 796 114.565 1096.33 471.8
1636 0 67.1137 12.0989 812 113.977 1096.55 471.389
1637 0 69.0674 12.553 867 108.582 1096.45 466.858
1638 0 70.0752 11.6304 815 110.779 1095.71 469.504
1639 0 76.0848 13.2747 1010 106.169 1095.52 466.92
1640 0 77.0758 14.1419 1090 105.437 1094.81 464.906
1641 0 81.0648 13.002 1054 109.115 1095.42 463.964
1642 0 81.1217 11.7478 953 113.368 1094.94 462.01
1643 0 85.0363 13.312 1132 109.886 1095.5 462.28
1644 0 88.0785 12.205 1075 112.512 1094.61 460.415
1645 0 92.1677 12.6292 1164 112.082 1094.97 459.774
1646 0 93.1184 12.9512 1206 112.892 1095.29 456.839
1647 1 50.0857 10.522 527 117.165 1094.43 478.624
1648 0 54.0957 12.7737 691 111.265 1094.8 477.518
1649 0 54.0179 12.1626 657 113.93 1094.63 475.47
1650 0 54.0179 12.1256 655 124.951 1094.61 475.449
1651 0 58.1624 11.9837 697 117.551 1095.1 475.529
1652 0 58.0573 12.1432 705 118.36 1094.8 474.136
1653 0 61.1002 12.3731 756 117.016 1094.69 474.024
1654 0 63.1317 11.8166 746 119.067 1094.67 473.548
1655 0 66.1786 12.5267 829 118.089 1093.87 471.7
1656 0 68.1068 13.3761 911 115.839 1095.09 469.883
1657 0 71.1339 13.5238 962 116.571 1095.09 468.863
1658 0 74.2314 12.8517 954 117.419 1095.12 469.839
1659 0 77.1669 13.2311 1021 117.299 1095.14 468.254
1660 0 79.2156 13.1792 1044 119.238 1095.14 466.061
1661 0 79.2531 12.643 1002 122.775 1095.41 465.077
1662 0 84.251 13.353 1125 120.605 1095.47 462.071
1663 0 87.2685 12.8454 1121 122.329 1095.41 461.146
1664 0 89.1726 14.2308 1269 119.896 1095.46 460.786
1665 0 92.1584 13.5853 1252 123.043 1095.86 460.929
1666 0 95.2541 14.0991 1343 123.51 1096.12 457.844
1667 0 97.3239 13.265 1291 127.06 1096.41 455.764
1668 1 51.4409 11.5472 594 123.815 1096.27 478.485
1669 0 55.4483 12.5342 695 121.683 1095.97 476.814
1670 0 55.0385 13.3361 734 123.102 1093.6 476.132
1671 0 57.013 13.1549 750 124.687 1093.3 473.797
1672 0 59.0314 13.0608 771 125.061 1093.85 474.208
1673 0 59.0158 12.7254 751 127.521 1094.37 474.084
1674 0 62.0263 13.4781 836 125.128 1094.55 474.858
1675 0 64.0564 13.6911 877 123.804 1094.66 474.421
1676 0 67.1006 14.5304 975 123.36 1094.88 472.512
1677 0 67.0783 13.2084 886 127.761 1095.35 472.326
1678 0 70.106 12.9946 911 128.755 1095.51 470.507
1679 0 73.0984 14.0222 1025 126.759 1096.07 469.52
1680 0 75.1033 13.102 984 130.6 1095.65 468.271
1681 0 76.0838 14.2475 1084 127.713 1096.1 467.796
1682 0 79.1971 13.3086 1054 131.975 1095.8 467.078
1683 0 82.0922 14.5568 1195 128.531 1096.98 464.355
1684 0 82.0922 14.5324 1193 157.557 1096.98 464.348
1685 1 43.0058 11.8821 511 133.088 1097.01 482.896
1686 0 44.0563 12.2343 539 125.686 1096.75 483.189
1687 0 47.0274 13.2476 623 121.665 1095.45 482.79
1688 0 49.03 14.3994 706 118.169 1097.07 482.72
1689 0 51.0193 13.3675 682 121.393 1096.99 481.37
1690 0 51.0407 13.4011 684 121.977 1097.06 481.846
1691 0 53.0212 14.1264 749 120.503 1096.67 479.215
1692 0 56.0266 13.1009 734 122.906 1097.3 479.623
1693 0 56.0653 12.6995 712 126.202 1096.96 477.357
1694 0 59.0645 13.7646 813 123.144 1097.13 476.834
1695 0 61.0723 13.0829 799 126.003 1097.92 475.615
1696 0 62.0462 13.6511 847 126.204 1097.41 474.898
1697 0 65.0923 13.5961 885 126.365 1097.68 474.876
1698 0 67.0905 13.6085 913 127.291 1097.64 473.083
1699 0 70.0669 13.8011 967 127.205 1097.92 472.487
1700 0 72.0786 13.3465 962 130.623 1097.62 469.287
1701 0 75.1356 13.256 996 131.931 1097.9 468.87
1702 0 77.0972 13.9564 1076 130.509 1097.91 466.884
1703 0 78.0582 12.9775 1013 134.48 1097.35 466.218
1704 0 81.1232 13.3254 1081 130.114 1096.46 463.741
1705 0 84.1351 13.4664 1133 129.462 1096.93 463.732
1706 0 87.0706 13.8508 1206 129.737 1097.44 462.888
1707 1 45.0177 11.3733 512 133.455 1098.37 483.91
1708 0 46.0201 11.6471 536 137.959 1097.9 481.416
1709 0 49.0412 12.8259 629 130.472 1097 480.003
1710 0 50.075 12.2017 611 130.347 1097.21 477.992
1711 0 51.0768 11.61 593 132.415 1097.69 477.572
1712 0 55.014 14.1055 776 127.046 1097.74 478.63
1713 0 54.0281 13.4189 725 134.658 1097.98 477.186
1714 0 55.0705 12.7655 703 137.272 1098.31 477.26
1715 0 57.0331 13.2555 756 135.091 1097.18 476.769
1716 0 58.0259 13.5284 785 135.966 1097.79 476.413
1717 0 60.0661 13.3853 804 135.744 1097.16 474.765
1718 0 64.029 14.5715 933 131.641 1097.17 474.295
1719 0 65.0332 14.0697 915 133.211 1097.19 474.636
1720 0 67.0646 13.6734 917 135.763 1097.28 472.106
1721 0 67.0501 13.6018 912 154.976 1097.3 472.091
1722 0 70.0619 13.9163 975 137.056 1097.44 470.199
1723 0 73.0399 13.8417 1011 137.605 1097.86 469.664
1724 0 75.0748 13.6131 1022 138.36 1097.31 467.851
1725 0 78.0481 14.3886 1123 136.721 1097.33 465.768
1726 0 80.0544 13.3284 1067 139.817 1097.2 466.47
1727 0 81.1165 13.4991 1095 141.332 1097.15 462.733
1728 0 86.0707 14.9296 1285 136.284 1097.18 462.391
1729 0 88.0686 13.3192 1173 142.673 1097.26 460.673
1730 0 91.0527 13.915 1267 140.016 1097.51 459.175
1731 0 93.0917 13.7176 1277 141.935 1097.68 459.126
1732 0 99.1592 14.9457 1482 137.087 1097.2 456.403
1733 0 100.148 13.6698 1369 141.137 1097.14 455.323
1734 0 100.148 13.7197 1374 163.868 1097.14 455.347
1735 1 52.018 13.1108 682 132.585 1097.22 479.783
1736 0 54.0186 13.1807 712 128.763 1097.47 478.635
1737 0 54.0705 11.9474 646 131.557 1097.07 478.949
1738 0 56.045 12.3294 691 129.731 1097.35 477.148
1739 0 58.0419 13.5419 786 126.328 1097.5 475.723
1740 0 58.0419 13.4386 780 151.099 1097.5 475.724
1741 0 63.0774 12.9841 819 127.249 1097.34 474.444
1742 0 64.0625 13.4556 862 127.097 1097.75 473.307
1743 0 67.1285 13.8689 931 126.266 1097.71 472.802
1744 0 68.127 13.1225 894 129.959 1097.27 471.625
1745 0 71.0683 13.9443 991 127.869 1097.04 469.694
1746 0 73.1017 14.8834 1088 125.751 1096.76 469.797
1747 0 76.119 15.5677 1185 124.358 1096.74 467.635
1748 0 80.1988 14.8631 1192 124.938 1096.82 467.086
1749 0 81.1002 14.8952 1208 126.463 1096.62 466.106
1750 0 83.1093 13.7048 1139 131.276 1095.89 464.235
1751 0 84.1444 13.7621 1158 131.68 1095.56 463.89
1752 0 84.1383 11.6594 981 140.321 1096.62 461.839
1753 0 91.1423 12.5518 1144 135.095 1096.34 461.401
1754 0 91.1565 11.7271 1069 138.888 1096.57 460.04
1755 1 52.0344 12.2611 638 131.929 1097.4 479.208
1756 0 53.0426 13.1027 695 129.999 1097.77 478.253
1757 0 54.1151 13.1202 710 130.613 1095.94 478.492
1758 0 56.0952 13.7088 769 123.518 1097.49 476.15
1759 0 55.1056 11.7411 647 129.532 1097.43 475.321
1760 0 59.0261 13.7227 810 121.596 1097.34 476.128
1761 0 60.0703 13.0514 784 123.819 1096.14 476.494
1762 0 63.0889 13.7742 869 120.321 1096.89 473.829
1763 0 63.0602 13.051 823 123.075 1097.14 469.955
1764 0 67.1494 13.2094 887 120.741 1096.82 470.728
1765 0 67.0956 13.3839 898 121.647 1096.32 468.334
1766 0 70.0959 13.3674 937 121.132 1096.91 467.223
1767 0 71.1309 13.4822 959 122.331 1096.59 465.667
1768 0 75.1447 13.3343 1002 121.901 1096.49 466.142
1769 0 75.1328 13.2965 999 140.123 1096.5 466.116
1770 0 78.1313 12.9014 1008 124.444 1097.11 462.182
1771 0 80.1367 13.14 1053 123.704 1096.93 461.683
1772 0 85.1329 12.9562 1103 122.145 1096.65 461.012
1773 0 87.0472 12.6253 1099 122.443 1097.59 460.504
1774 0 87.0472 12.6598 1102 134.923 1098.57 460.389
1775 0 93.071 13.1298 1222 119.964 1096.82 454.876
1776 0 98.1295 13.8898 1363 117.644 1097.03 455.23
1777 1 49.1516 11.1695 549 123.723 1094.39 477.089
1778 0 52.0834 12.672 660 118.75 1094.39 475.742
1779 0 54.0391 13.3422 721 115.48 1095.28 474.591
1780 0 58.0629 12.2281 710 117.018 1095.33 474.041
1781 0 58.0544 14.073 817 113.387 1095.95 472.623
1782 0 61.0315 13.1571 803 114.33 1095.75 473.01
1783 0 62.0486 13.151 816 115.255 1097.97 471.42
1784 0 64.0418 13.054 836 115.268 1097.7 468.847
1785 0 67.0666 12.8082 859 114.37 1097.04 469.147
1786 0 71.0145 13.279 943 112.715 1097.34 468.103
1787 0 73.1252 13.0324 953 113.295 1097.67 466.426
1788 0 74.0695 13.0823 969 113.991 1096.37 465.674
1789 0 76.1116 13.1386 1000 112.709 1096.59 465.732
1790 0 76.1116 13.2437 1008 131.992 1096.61 465.735
1791 0 82.0667 12.9041 1059 113.628 1097.05 460.008
1792 1 43.0246 11.4353 492 113.614 1097.04 481.069
1793 0 44.0608 10.6898 471 115.656 1098.01 479.915
1794 0 46.0515 11.5306 531 113.412 1097.58 479.58
1795 0 47.07 12.3221 580 107.521 1097.56 480.653
1796 0 46.0173 12.6257 581 108.921 1097.51 479.809
1797 0 47.0262 12.1847 573 110.818 1098.05 476.974
1798 0 49.019 12.0157 589 109.84 1097.93 478.509
1799 0 53.0596 12.5519 666 107.02 1098.36 477.941
1800 0 53.0384 12.8775 683 107.173 1098.7 476.461
1801 0 55.0395 13.3722 736 105.795 1097.96 475
1802 0 54.0387 13.4903 729 129.501 1096.95 474.974
1803 0 59.143 13.2053 781 105.228 1098.35 474.433
1804 0 60.0315 12.4768 749 108.258 1097.67 472.623
1805 0 60.0322 12.5433 753 130.211 1097.66 472.469
1806 0 64.0534 14.0195 898 105.9 1097.28 471.265
1807 0 64.0999 12.7457 817 110.405 1097.57 471.623
1808 0 67.0196 12.653 848 110.978 1097.55 470.097
1809 0 70.0795 14.9973 1051 105.779 1097.87 468.316
1810 0 71.0513 12.9906 923 111.897 1097.54 466.43
1811 0 74.091 13.2675 983 111.32 1097.91 466.749
1812 0 74.1031 13.2518 982 139.288 1097.91 466.713
1813 0 78.0926 12.9846 1014 114.114 1097.47 463.172
1814 0 82.0797 14.9002 1223 110.188 1097.6 461.83
1815 0 84.079 13.9987 1177 112.722 1097.41 460.978
1816 0 87.1064 12.5938 1097 116.603 1097.37 457.131
1817 0 90.1315 13.4359 1211 114.771 1097.42 459.392
1818 0 92.1699 14.0501 1295 114.279 1097.42 458.008
1819 0 95.0859 13.8086 1313 114.706 1096.7 454.201
1820 1 50.02 11.0956 555 121.085 1096.83 476.02
1821 0 50.0217 11.2151 561 145.226 1096.86 475.92
1822 0 53.0311 11.8798 630 120.298 1095.39 471.951
1823 0 57.0399 12.0267 686 118.456 1095.63 473.545
1824 0 56.1198 12.4733 700 119.133 1096.16 472.316
1825 0 60.0347 12.626 758 117.558 1095.63 473.999
1826 0 61.0757 11.7887 720 120.572 1095.89 471.197
1827 0 65.0427 13.0837 851 116.046 1095.16 470.717
1828 0 65.0395 13.1305 854 138.014 1094.16 470.649
1829 0 70.0447 13.006 911 115.274 1095.91 468.531
1830 0 72.0646 12.8773 928 116.612 1094.81 466.577
1831 0 74.2029 13.6248 1011 114.391 1094.53 465.785
1832 0 76.0382 13.4406 1022 113.893 1094.84 466.121
1833 0 78.0815 12.4742 974 116.78 1094.27 463.213
1834 0 81.1254 12.2773 996 117.207 1094.09 460.944
1835 0 86.1211 12.9237 1113 114.993 1094.58 460.506
1836 1 46.0359 12.1644 560 109.964 1095.19 480.445
1837 0 48.0568 11.2367 540 109.222 1095.09 481.522
1838 0 48.0287 12.326 592 108.757 1096.47 479.586
1839 0 49.063 11.4139 560 108.102 1097.76 478.364
1840 0 50.0111 11.5974 580 107.281 1097.39 478.967
1841 0 51.0847 12.5086 639 105.28 1097.01 478.338
1842 0 53.0281 13.5211 717 103.222 1096.7 476.328
1843 0 53.0458 12.2724 651 107.611 1097.34 474.931
1844 0 56.0187 12.8707 721 105.996 1096.59 474.656
1845 0 58.063 12.1075 703 107.814 1096.06 475.731
1846 0 58.0536 11.8339 687 110.456 1096.26 473.364
1847 0 62.0926 12.1754 756 108.937 1096.06 470.954
1848 0 62.0984 12.8828 800 107.965 1095.27 469.269
1849 0 66.0185 11.83 781 109.099 1096.32 470.424
1850 0 69.0855 14.4893 1001 102.351 1095.23 469.05
1851 0 72.0411 12.2708 884 108.255 1095.38 465.316
1852 0 75.0958 15.5135 1165 101.879 1094.81 465.052
1853 1 42.0143 10.6392 447 109.904 1094.93 482.928
1854 0 42.0244 11.7789 495 108.776 1096.4 481.026
1855 0 45.0251 12.1932 549 106.882 1097.62 482.062
1856 0 47.0405 13.4778 634 102.913 1097.46 480.904
1857 0 46.0709 11.7645 542 110.258 1097.33 479.793
1858 0 47.093 12.9531 610 103.741 1097.13 480.272
1859 0 50.0706 11.9831 600 105.827 1096.47 479.392
1860 0 50.0342 14.4501 723 100.831 1096.02 478.429
1861 0 50.0625 12.3845 620 107.047 1095.49 478.044
1862 0 55.0398 13.1359 723 103.781 1095.53 476.097
1863 0 55.0537 11.8248 651 107.837 1095.5 476.969
1864 0 55.0347 11.4655 631 110.017 1096.27 473.9
1865 0 55.0347 11.4473 630 133.89 1097.27 473.944
1866 0 59.0491 12.1255 716 107.908 1096.36 474.367
1867 0 61.1205 13.1053 801 105.184 1095.67 473.498
1868 0 62.0757 12.517 777 107.561 1095.57 471.041
1869 0 65.0366 12.6083 820 106.671 1097.02 469.379
1870 0 68.0585 13.7088 933 103.219 1097.78 470.089
1871 0 70.0811 13.2418 928 105.556 1097.28 467.31
1872 0 71.0187 12.9262 918 105.319 1096.55 468.558
1873 0 75.055 13.217 992 103.803 1096.39 466.664
1874 0 77.0691 12.8845 993 105.344 1095.53 464.507
1875 0 79.0381 12.3232 974 107.286 1095.65 463.176
1876 1 41.0566 9.18245 377 113.34 1097.21 481.942
1877 0 44.1239 10.9238 482 109.438 1096.99 481.11
1878 0 44.1079 11.6306 513 118.366 1097.01 481.472
1879 0 46.0516 10.966 505 107.099 1097.29 478.412
1880 0 48.0364 12.8653 618 106.265 1097.18 477.403
1881 0 51.0685 11.8468 605 107.81 1097.35 478.927
1882 0 51.0292 12.4831 637 107.462 1097.47 475.779
1883 0 52.1335 12.6023 657 108.25 1097.64 475.102
1884 0 55.048 12.3529 680 108.8 1097.3 475.163
1885 0 55.0559 11.2068 617 112.632 1097.5 473.483
1886 0 57.211 12.1655 696 108.787 1097.15 475.789
1887 0 57.211 12.0606 690 131.572 1097.17 475.768
1888 0 60.0801 14.2643 857 106.866 1096.95 470.844
1889 0 61.0502 12.1048 739 111.848 1097.17 471.74
1890 0 63.0913 11.9351 753 111.766 1096.79 472.158
1891 0 63.0968 12.0133 758 135.371 1096.78 472.201
1892 0 66.0445 11.7799 778 112.918 1096.9 468.527
1893 0 70.0912 12.4837 875 110.464 1096.32 468.902
1894 0 72.2325 12.4874 902 111.198 1095.92 467.554
1895 0 74.1693 13.3748 992 109.676 1096.01 467.27
1896 0 76.214 12.3468 941 112.436 1095.79 465.324
1897 0 79.2757 13.0809 1037 110.629 1095.68 463.356
1898 0 80.2084 12.7792 1025 112.578 1096.29 461.117
1899 0 84.1629 13.3075 1120 111.328 1096.17 458.879
1900 0 87.286 13.3126 1162 112.342 1096.38 458.065
1901 0 91.3249 13.8845 1268 110.361 1096.09 458.315
1902 0 93.1256 13.6482 1271 111.449 1096.64 456.369
1903 0 96.1523 11.9914 1153 113.786 1096.44 454.507
1904 1 51.0929 10.295 526 109.81 1097.73 478.342
1905 0 53.2156 11.2561 599 106.541 1097.23 476.501
1906 0 55.1677 11.0391 609 107.163 1096.33 475.314
1907 0 56.0882 11.4997 645 109.197 1097.31 474.09
1908 0 58.1501 12.1582 707 107.33 1097.2 476.069
1909 0 61.1911 12.7306 779 106.402 1097.64 472.847
1910 0 61.2006 11.879 727 109.125 1096.73 472.289
1911 0 66.2647 13.1443 871 105.018 1097.42 470.117
1912 0 67.3346 14.0938 949 103.213 1097.08 470.437
1913 0 69.1667 12.2169 845 107.78 1096.66 468.585
1914 0 71.1375 12.4829 888 107.01 1096.17 464.793
1915 0 74.1687 12.1749 903 106.99 1095.77 467.339
1916 0 76.1579 11.9357 909 107.982 1096.38 466.653
1917 0 76.1579 11.9357 909 145.341 1096.37 466.777
1918 0 81.159 11.9519 970 107.985 1096.39 465.225
1919 0 84.2446 12.1076 1020 107.514 1096.98 464.102
1920 1 41.0494 11.0111 452 104.858 1097.99 481.604
1921 0 45.1587 11.3157 511 103.961 1097.04 481.509
1922 0 46.0923 12.7787 589 95.2003 1097.15 480.171
1923 0 48.0217 10.2662 493 100.172 1097.53 481.499
1924 0 48.0918 11.2285 540 99.8037 1097.11 479.015
1925 0 51.1504 13.8024 706 93.7975 1097.09 478.02
1926 0 50.1421 11.946 599 100.659 1097.68 478.334
1927 0 53.0498 12.6862 673 97.9302 1096.95 476.997
1928 0 54.177 11.3332 614 102.218 1096.97 475.979
1929 0 55.2055 12.6437 698 100.188 1097.21 475.361
1930 0 58.0861 12.7741 742 99.9811 1097.84 473.543
1931 0 58.1769 11.0869 645 106.839 1097.65 473.248
1932 0 62.1644 13.5447 842 102.833 1096.99 471.476
1933 0 66.2935 12.3089 816 106.498 1096.93 471.474
1934 0 68.1694 12.1609 829 108.097 1096.73 470.97
1935 0 70.2705 13.633 958 106.707 1096.53 469.347
1936 0 69.3644 12.802 888 110.731 1096.64 467.98
1937 0 73.2419 13.9401 1021 109.141 1096.52 466.636
1938 0 75.2228 13.3603 1005 112.805 1096.51 466.547
1939 0 78.1864 14.0178 1096 112.518 1096.66 465.008
1940 0 81.2694 13.2522 1077 120.091 1095.99 463.987
1941 0 86.3841 13.2432 1144 120.288 1095.59 462.691
1942 0 87.3345 13.7288 1199 120.525 1095.6 460.237
1943 1 48.1559 11.4835 553 121.183 1096.73 480.839
1944 0 49.063 12.861 631 121.276 1097.52 479.401
1945 0 49.0675 12.7783 627 148.641 1098.52 479.51
1946 0 50.0354 12.3313 617 118.118 1097.98 479.64
1947 0 54.0916 13.6435 738 113.855 1098 478.917
1948 0 55.0865 12.3442 680 117.76 1097.78 478.557
1949 0 57.0767 13.9111 794 113.965 1097.92 477.248
1950 0 57.0303 14.7115 839 113.317 1097.33 475.517
1951 0 60.0877 14.146 850 113.979 1097.31 475.691
1952 0 60.0847 11.7001 703 122.757 1097 475.265
1953 0 62.1262 13.4565 836 119.304 1096.77 475.236
1954 0 64.0853 13.2012 846 120.051 1097.13 470.879
1955 0 67.1498 14.0432 943 118.454 1096.6 471.138
1956 0 69.1265 15.0593 1041 116.225 1096.47 470.167
1957 0 70.0828 13.8978 974 120.715 1096.36 467.866
1958 0 72.1592 13.2901 959 122.816 1096.47 469.295
1959 0 73.0775 13.6294 996 122.903 1097.57 466.74
1960 0 73.0775 13.6704 999 134.002 1099.56 466.723
1961 0 80.1197 13.6296 1092 123.33 1097.42 464.061
1962 0 83.1733 15.5338 1292 118.598 1097.11 461.717
1963 0 82.074 13.4756 1106 126.986 1097.17 461.496
1964 0 87.1268 14.1633 1234 125.08 1097.34 460.597
1965 0 90.1391 14.4776 1305 123.84 1097.02 458.698
1966 0 94.1273 15.2559 1436 121.18 1096.91 456.218
1967 0 96.1405 14.2812 1373 124.513 1096.71 455.614
1968 0 101.163 14.8177 1499 121.7 1097.37 453.098
1969 0 104.083 15.3915 1602 120.514 1097.22 451.482
1970 1 56.0257 12.8869 722 127.882 1097.48 475.546
1971 0 57.0646 12.9152 737 124.976 1095.99 475.44
1972 0 60.0198 12.4625 748 126.687 1095.67 474.325
1973 0 61.1076 13.3208 814 124.429 1095.51 473.322
1974 0 64.0722 13.9218 892 122.22 1095.61 471.796
1975 0 66.0587 13.3366 881 124.697 1094.87 471.05
1976 0 69.0309 13.9793 965 122.142 1095.36 468.441
1977 0 71.0828 13.7867 980 122.764 1095.62 467.779
1978 0 74.0578 14.5832 1080 120.245 1095.66 467.909
1979 0 75.0647 14.0146 1052 124.186 1095.88 463.97
1980 0 77.1185 14.938 1152 122.052 1095.72 463.542
1981 0 83.0912 15.2483 1267 119.893 1096.3 463.271
1982 0 85.107 14.5346 1237 122.614 1096.07 462.39
1983 0 89.1453 15.2223 1357 120.767 1096.29 460.989
1984 0 91.1114 14.4439 1316 123.023 1096.11 458.523
1985 0 91.1327 14.1113 1286 125.864 1095.34 457.451
1986 0 93.1383 13.947 1299 123.58 1094.96 456.815
1987 0 99.0723 14.7165 1458 123.189 1096.33 454.248
1988 1 52.0139 11.9007 619 128.359 1095.47 475.696
1989 0 55.0263 12.176 670 124.981 1094.94 475.466
1990 0 57.0236 12.2405 698 123.774 1095.33 474.109
1991 0 57.0294 12.2042 696 161.129 1095.35 474.014
1992 0 60.0984 13.4613 809 125.801 1096.11 472.311
1993 0 62.0514 12.9731 805 126.304 1095.66 471.263
1994 0 65.2246 13.3692 872 123.962 1095.34 471.509
1995 0 66.1134 13.5827 898 124.298 1095.45 471.533
1996 0 69.074 13.2756 917 125.013 1096.25 469.016
1997 0 69.0642 13.263 916 152.428 1096.26 469.204
1998 0 72.1302 12.4636 899 129.118 1095.17 465.638
1999 0 76.1508 13.1318 1000 126.863 1094.97 464.778
2000 0 79.1239 14.4204 1141 123.706 1095.02 464.243
2001 0 82.174 14.6275 1202 123.451 1095.97 461.967
2002 0 85.2678 13.2524 1130 126.559 1096.08 461.731
2003 0 86.1298 13.9441 1201 126.46 1096.24 459.88
2004 0 88.2419 13.3043 1174 128.398 1095.99 458.244
2005 0 92.2005 13.8069 1273 127.543 1096.1 457.361
2006 0 93.1906 12.2652 1143 133.174 1095.99 455.275
2007 0 98.2011 13.1669 1293 128.862 1095.88 455.151
2008 0 101.202 13.1816 1334 123.254 1095.73 453.293
2009 0 104.197 12.1596 1267 123.369 1096.13 449.255
2010 1 53.1319 9.95636 529 116.423 1097.51 474.902
2011 0 55.0883 10.6193 585 118.747 1097.06 473.34
2012 0 58.1106 11.7362 682 115.273 1097.06 473.265
2013 0 61.0729 12.0348 735 110.573 1097.02 473.105
2014 0 63.0544 10.4037 656 114.058 1096.23 470.916
2015 0 65.1608 11.7095 763 110.735 1096.17 468.663
2016 0 67.1338 11.5441 775 111.108 1095.78 468.055
2017 0 69.1222 12.5141 865 109.57 1095.46 465.169
2018 0 72.2065 11.2871 815 111.809 1095.77 464.245
2019 0 72.2065 11.3702 821 119.781 1095.73 464.157
2020 0 78.1587 11.2975 883 111.045 1095.76 463.578
2021 0 77.1336 10.0605 776 115.224 1094.92 460.423
2022 0 83.2337 12.1465 1011 110.248 1095.01 458.638
2023 0 86.1342 11.5866 998 111.363 1095.28 457.455
2024 0 88.1459 11.3562 1001 112.403 1094.87 455.642
2025 0 91.1763 11.4284 1042 112.768 1095.63 455.076
2026 0 93.1383 11.7245 1092 112.43 1095.79 452.087
2027 0 93.2672 9.64969 900 118.373 1096.46 447.359
2028 0 99.2189 10.7842 1070 115.301 1095.53 452.228
2029 0 103.131 11.849 1222 115.277 1096.15 444.448
2030 0 107.265 11.7466 1260 116.031 1096.58 445.849
2031 1 56.275 10.1644 572 116.334 1097.33 469.832
2032 0 57.3162 11.6721 669 110.734 1096.91 471.641
2033 0 59.0854 10.3917 614 111.744 1096.43 473.554
2034 0 61.1425 12.3973 758 108.053 1096.53 471.408
2035 0 63.0941 11.8236 746 108.643 1095.92 469.942
2036 0 64.07 10.6758 684 110.618 1095.71 470.573
2037 0 67.1909 10.4776 704 110.656 1096.59 468.871
2038 0 71.2401 11.5244 821 107.473 1096.19 466.129
2039 0 73.2656 12.7481 934 103.99 1096.53 465.931
2040 0 73.3003 11.2005 821 110.034 1095.75 462.798
2041 0 77.3605 11.5304 892 108.498 1096.49 461.229
2042 0 79.2552 11.2674 893 108.468 1097.14 461.884
2043 0 83.2545 12.2876 1023 106.604 1097.29 459.178
2044 0 84.308 11.5885 977 108.501 1096.87 459.282
2045 0 86.4054 10.9021 942 109.093 1096.62 457.339
2046 0 87.2777 9.15468 799 111.96 1096.6 458.161
2047 0 91.2018 10.8331 988 108.022 1096.81 456.277
2048 0 94.2443 9.4011 886 110.173 1096.79 456.226
2049 0 101.182 11.3459 1148 106.035 1096.35 454.502
2050 0 102.153 10.3766 1060 108.358 1096.28 450.341
2051 0 105.168 9.89848 1041 108.957 1095.86 453.598
2052 0 111.214 10.9249 1215 107.388 1095.88 447.992
2053 0 114.114 9.80599 1119 108.779 1096.67 447.352
2054 0 114.121 9.77033 1115 129.63 1096.66 447.609
2055 1 65.1478 12.4793 813 97.4982 1096.62 468.049
2056 0 64.1686 10.6438 683 103.069 1096.44 469.303
2057 0 69.1423 11.498 795 100.07 1096.6 467.352
2058 0 73.1742 12.4771 913 97.4403 1096.62 467.573
2059 0 75.0488 11.6857 877 98.8335 1096.61 465.722
2060 0 76.1071 11.3524 864 100.611 1096.73 463.558
2061 0 79.1366 10.842 858 101.629 1096.85 463.033
2062 0 82.116 12.1779 1000 100.124 1096.36 462.046
2063 0 85.2209 11.6403 992 99.5312 1096.71 458.287
2064 0 85.1367 10.395 885 103.008 1096.38 457.659
2065 0 85.1367 10.4655 891 126.764 1096.35 457.793
2066 0 92.2493 10.7426 991 101.552 1096.67 451.617
2067 0 95.224 11.0371 1051 101.781 1097.16 451.617
2068 0 99.203 11.4613 1137 101.23 1096.85 450.397
2069 0 103.265 10.904 1126 103.599 1096.35 446.6
2070 0 106.284 10.5002 1116 103.975 1096.07 448.404
2071 1 56.072 9.20245 516 98.8004 1097.71 470.486
2072 0 59.0752 11.9678 707 93.6874 1095.82 468.818
2073 0 61.0877 9.7892 598 97.0535 1097.06 465.214
2074 0 60.0391 10.0435 603 96.8673 1097.1 466.585
2075 0 64.051 11.1474 714 94.5672 1096.33 465.422
2076 0 65.0816 11.2474 732 94.526 1096.74 465.769
2077 0 68.0945 11.4694 781 94.7042 1097.06 462.848
2078 0 71.0653 11.5668 822 94.5243 1096.29 461.827
2079 0 73.0832 11.2611 823 95.5298 1096.2 459.177
2080 0 76.1522 11.8578 903 94.7065 1095.9 458.051
2081 0 81.0971 12.7871 1037 92.7946 1095.81 459.197
2082 0 81.1596 11.6314 944 95.9587 1095.75 458.43
2083 0 82.0922 11.6942 960 97.75 1095.59 453.275
2084 0 88.21 11.586 1022 97.684 1095.48 453.28
2085 0 88.1187 11.9384 1052 99.3698 1096.08 451.95
2086 0 94.1456 12.0558 1135 98.6423 1096.39 449.451
2087 0 96.2372 12.5731 1210 99.3719 1096.29 449.022
2088 0 97.1 11.5242 1119 104.836 1096.57 450.1
2089 0 100.214 11.6151 1164 105.414 1096.57 449.53
2090 0 104.207 12.4272 1295 110.685 1096.88 449.178
2091 1 54.0204 12.3842 669 108.83 1096.94 473.65
2092 0 56.0261 11.9409 669 109.344 1096.84 474.794
2093 0 59.1138 12.772 755 105.893 1097.35 472.909
2094 0 58.1587 11.6922 680 110.834 1096.35 471.997
2095 0 61.2111 13.5269 828 106.249 1096.34 472.098
2096 0 64.1589 13.1237 842 107.829 1096.37 470.353
2097 0 66.1905 12.5094 828 108.454 1096.84 471.229
2098 0 65.2479 13.0579 852 109.484 1097.31 467.527
2099 0 69.1349 13.2495 916 108.143 1096.9 465.706
2100 0 71.3391 14.0456 1002 106.654 1096.53 463.52
2101 0 76.2427 14.0735 1073 105.798 1095.87 464.696
2102 0 78.1011 13.4953 1054 108.037 1097.27 462.941
2103 0 81.2581 12.8726 1046 109.607 1096.97 461.872
2104 0 82.2345 13.5831 1117 109.312 1096.59 460.735
2105 0 86.3183 13.96 1205 109.175 1096.96 458.147
2106 0 87.2228 13.7235 1197 110.148 1096.74 455.226
2107 0 93.2059 14.2909 1332 108.059 1096.3 451.544
2108 1 46.1527 10.1836 470 112.985 1096.98 473.823
2109 0 48.1203 11.3673 547 112.199 1096.39 473.28
2110 0 50.076 13.5394 678 107.758 1097.15 477.603
2111 0 51.0366 11.6583 595 112.309 1097.27 475.808
2112 0 54.2452 12.3882 672 109.308 1097.26 477.177
2113 0 55.3763 12.3338 683 110.303 1096.89 475.657
2114 0 58.2462 12.0695 703 110.67 1097.26 472.555
2115 0 60.1494 12.3027 740 109.849 1097.3 473.049
2116 0 61.1845 13.4348 822 107.568 1096.91 473.757
2117 0 61.2745 13.1539 806 110.225 1096.49 471.712
2118 0 62.1662 13.48 838 108.973 1096.42 471.761
2119 0 65.1463 12.9094 841 110.537 1096.6 468.759
2120 0 65.2307 12.6628 826 113.408 1096.24 466.78
2121 0 67.2028 10.8031 726 116.921 1095.95 468.357
2122 0 71.2049 12.5272 892 113.184 1095.25 465.445
2123 0 73.334 12.6681 929 113.955 1095.86 463.837
2124 0 76.1663 11.3042 861 116.649 1095.54 463.143
2125 0 80.1776 13.5948 1090 111.956 1096.43 461.717
2126 0 79.225 11.5873 918 116.929 1096.58 460.185
2127 0 84.3904 11.7312 990 116.569 1095.96 458.387
2128 0 88.2089 11.0306 973 117.607 1095.49 456.096
2129 1 45.1532 10.5419 476 115.908 1096.49 472.338
2130 0 50.3372 11.6216 585 111.475 1096.53 472.084
2131 0 48.1621 11.8973 573 113.822 1096.47 471.396
2132 0 50.1328 12.1677 610 114.815 1096.22 470.338
2133 0 56.2023 14.6257 822 103.999 1096.48 466.729
2134 0 59.1622 15.0603 891 103.199 1095.89 468.901
2135 0 58.1873 15.4673 900 104.262 1095.89 467.473
2136 0 58.1602 13.927 810 109.115 1095.65 469.317
2137 0 61.2997 13.018 798 111.59 1095.87 469.792
2138 0 61.1745 13.3716 818 112.128 1095.21 467.207
2139 0 64.1919 13.1325 843 112.314 1095.39 465.083
2140 0 65.3202 13.2578 866 112.856 1095.38 464.655
2141 0 67.316 13.4738 907 113.104 1095.42 461.878
2142 0 70.4453 13.5424 954 112.921 1095.53 463.486
2143 0 72.2108 13.8899 1003 112.119 1095.49 462.842
2144 0 75.2801 15.8076 1190 108.045 1095.39 461.709
2145 0 77.1731 14.0334 1083 112.869 1095.17 458.763
2146 0 80.1824 12.8582 1031 112.435 1095.32 456.517
2147 0 80.1798 13.5071 1083 112.951 1095.55 453.752
2148 0 83.3141 13.011 1084 114.69 1094.9 453.263
2149 0 88.2443 12.6467 1116 115.271 1095.14 451.998
2150 0 91.2586 13.259 1210 114.447 1095.2 449.674
2151 0 96.4044 13.7131 1322 112.853 1094.81 450.538
2152 0 96.3541 12.8381 1237 116.297 1094.81 448.291
2153 0 101.429 13.1323 1332 113.996 1095.27 447.472
2154 1 57.2259 11.4808 657 113.583 1095.02 467.967
2155 0 60.1146 11.9938 721 113.209 1095.32 464.356
2156 0 60.0353 11.6765 701 114.682 1094.34 464.22
2157 0 62.1371 12.4402 773 114.066 1094.75 462.303
2158 0 65.0247 12.872 837 113.406 1094.59 461.921
2159 0 69.1171 11.8639 820 114.278 1094.27 462.305
2160 0 70.0862 12.185 854 113.142 1094.85 461.379
2161 0 71.053 12.3992 881 114.412 1094.52 459.311
2162 0 75.1436 13.6406 1025 111.78 1094.94 463.164
2163 0 76.1445 12.3843 943 116.505 1094.26 461.032
2164 0 80.0373 13.2063 1057 114.364 1093.61 460.906
2165 0 81.0381 14.3513 1163 112.51 1093.77 458.531
2166 0 84.1447 13.5124 1137 114.967 1093.43 458.497
2167 0 88.1449 12.9219 1139 115.615 1093.64 457.186
2168 0 91.1703 14.5552 1327 112.692 1094.08 455.14
2169 0 93.1449 13.1838 1228 115.459 1094.52 455.02
2170 0 97.1575 13.4215 1304 117.418 1093.85 449.699
2171 0 98.1339 13.3695 1312 118.732 1094.04 447.379
2172 0 102.301 14.9852 1533 115.264 1094.9 444.902
2173 0 104.218 13.6636 1424 118.121 1095.28 445.615
2174 0 109.369 13.779 1507 118.654 1094.87 441.614
2175 0 113.44 15.5237 1761 115.162 1094.27 439.311
2176 0 115.271 13.9063 1603 119.491 1094.57 440.16
2177 0 121.209 15.5104 1880 116.047 1094.9 436.644
2178 0 124.43 14.1928 1766 120.058 1095.43 435.512
2179 0 130.411 14.8301 1934 118.042 1095.31 431.677
2180 0 132.231 12.9924 1718 116.792 1094.62 430.959
2181 0 137.195 14.5268 1993 113.469 1094.73 430.466
2182 0 141.247 13.926 1967 116.73 1094.62 427.144
2183 0 147.278 14.2044 2092 115.581 1095.18 423.942
2184 0 149.516 14.159 2117 116.866 1095.24 423.997
2185 0 155.495 13.1708 2048 119.853 1094.73 424.435
2186 0 161.456 14.5241 2345 117.295 1094.96 418.399
2187 0 166.325 14.5438 2419 117.522 1094.64 416.655
2188 0 173.41 14.7396 2556 117.44 1095.44 415.335
2189 0 178.389 15.0177 2679 118.571 1095.06 409.743
2190 0 178.391 14.9559 2668 152.081 1094.05 409.689
2191 1 190.405 14.3274 2728 122.205 1095.04 404.955
2192 0 196.422 14.9627 2939 121.026 1094.86 402.462
2193 0 200.528 13.9931 2806 125.591 1094.56 396.71
2194 0 209.415 14.3972 3015 123.591 1094.73 397.733
2195 0 216.769 15.2098 3297 122.229 1095.07 393.824
2196 0 220.404 15.2901 3370 122.902 1095.36 389.39
2197 0 228.656 15.4031 3522 123.154 1095.23 386.28
2198 0 237.785 16.1701 3845 122.078 1095.1 384.346
2199 0 246.408 17.1869 4235 124.492 1095.11 371.986
2200 0 251.39 16.4406 4133 129.691 1095.5 366.991
2201 1 73.1647 11.3306 829 125.331 1095.47 459.9
2202 0 76.3196 11.858 905 120.382 1094.52 458.781
2203 0 78.385 12.4386 975 119.908 1095.41 460.253
2204 0 81.2916 11.797 959 120.455 1096.2 462.876
2205 0 84.1887 13.5648 1142 117.987 1095.49 463.561
2206 0 86.1173 12.2507 1055 123.787 1095.77 459.241
2207 0 89.1223 12.6792 1130 125.041 1096.29 457.405
2208 0 92.1208 12.2339 1127 127.25 1095.47 457.112
2209 0 95.2137 12.7923 1218 125.299 1095.56 456.631
2210 0 99.2757 11.7451 1166 128.31 1096.05 454.85
2211 0 101.246 11.9017 1205 130.06 1095.61 450.974
2212 1 58.2233 10.5113 612 123.533 1095.94 474.505
2213 0 61.2462 12.7681 782 118.531 1095.81 473.286
2214 0 62.1969 10.9973 684 118.595 1095.81 471.624
2215 0 64.1384 12.9564 831 115.521 1096.04 470.792
2216 0 66.3055 11.7637 780 118.974 1095.62 469.09
2217 0 71.3982 13.2076 943 112.687 1096.01 467.652
2218 0 74.3984 13.2261 984 113.991 1095.44 464.308
2219 0 74.3377 11.9724 890 120.091 1095.69 463.931
2220 0 76.4346 12.6906 970 123.872 1094.78 461.247
2221 0 79.3985 14.358 1140 120.831 1095.45 459.339
2222 0 81.7378 12.7848 1045 125.483 1095.33 459.168
2223 0 84.6393 13.7643 1165 123.771 1094.8 457.98
2224 0 87.6671 13.8821 1217 123.643 1095.35 456.412
2225 0 88.597 14.3007 1267 123.496 1095.05 457.328
2226 0 90.5018 13.1821 1193 127.023 1095.48 456.161
2227 0 92.5555 14.0132 1297 125.929 1095.39 453.987
2228 0 97.7951 13.7532 1345 125.491 1095.41 452.91
2229 0 99.4454 13.3038 1323 127.018 1095.21 454.06
2230 0 101.554 13.0768 1328 128.218 1094.75 452.11
2231 0 104.387 13.1434 1372 128.031 1095.36 451.863
2232 1 58.4135 11.2474 657 126.647 1095.65 473.475
2233 0 61.2308 12.1018 741 123.274 1096.82 472.193
2234 0 61.1347 12.0881 739 123.742 1096.6 473.111
2235 0 65.183 12.8715 839 121.2 1097.07 472.076
2236 0 66.2123 12.173 806 124.11 1097.42 469.999
2237 0 69.3164 12.378 858 124.794 1097.28 466.212
2238 0 71.3341 11.9999 856 125.97 1097.18 466.091
2239 0 73.2288 13.3691 979 123.374 1097.31 462.658
2240 0 77.2618 13.409 1036 122.464 1096.84 462.91
2241 0 79.3863 14.0956 1119 121.354 1096.99 462.542
2242 0 80.4341 12.992 1045 125.663 1095.98 461.082
2243 0 84.3855 13.782 1163 123.42 1095.69 458.776
2244 0 86.5227 12.5054 1082 126.614 1096.11 457.488
2245 0 90.4256 13.6576 1235 124.066 1096.61 454.16
2246 0 91.4457 11.9743 1095 128.03 1096.1 454.979
2247 0 96.4412 13.3553 1288 124.672 1095.64 453.741
2248 0 100.514 13.4708 1354 124.887 1095.13 451.299
2249 0 102.327 14.2094 1454 122.756 1095.62 451.485
2250 0 106.404 13.195 1404 125.449 1096.39 448.608
2251 0 106.442 12.9084 1374 128.011 1096.03 447.001
2252 0 112.372 14.7457 1657 121.855 1096.27 445.039
2253 0 114.541 13.8553 1587 124.206 1095.5 443.71
2254 0 119.601 13.6203 1629 125.05 1095.95 440.687
2255 0 123.479 12.5933 1555 127.591 1095.29 439.368
2256 0 128.499 12.7239 1635 126.95 1095.74 437.446
2257 1 68.1808 9.76814 666 123.479 1096.23 469.435
2258 0 71.1606 11.5513 822 119.639 1095.98 469.325
2259 0 74.3106 11.8153 878 119.236 1096.91 466.845
2260 0 78.2391 12.334 965 118.6 1096.35 467.391
2261 0 79.2067 11.2617 892 122.092 1096.02 467.822
2262 0 81.1503 12.7788 1037 120.797 1095.14 465.307
2263 0 83.2638 12.3463 1028 122.174 1095.26 463.931
2264 0 86.2323 12.6055 1087 123.504 1094.63 462.514
2265 0 90.3156 12.5892 1137 123.696 1094.97 466.176
2266 0 91.2644 11.7899 1076 127.46 1094.54 464.085
2267 0 94.3508 11.9978 1132 127.436 1093.99 462.909
2268 0 99.2083 11.5817 1149 127.419 1093.61 462.788
2269 0 102.166 11.0506 1129 129.312 1093.65 460.671
2270 0 104.175 12.1143 1262 127.246 1093.16 457.887
2271 1 57.0733 10.5654 603 119.489 1093.36 486.022
2272 0 60.1756 11.8653 714 122.185 1092.94 483.004
2273 0 60.2688 12.9918 783 120.469 1092.86 482.323
2274 0 63.1918 12.3908 783 121.324 1093.26 481.252
2275 0 68.2237 13.485 920 116.03 1092.42 479.732
2276 0 69.4251 13.1365 912 117.39 1091.79 476.855
2277 0 69.1772 13.1546 910 118.163 1091.76 476.127
2278 0 72.3589 11.9267 863 120.784 1091.82 472.232
2279 0 75.375 13.0017 980 117.79 1091.48 470.274
2280 0 78.3698 12.0455 944 120.003 1090.83 470.13
2281 0 81.3708 13.2111 1075 116.874 1091.14 465.886
2282 0 86.3465 13.0868 1130 116.131 1090.15 468.428
2283 0 88.3416 12.3951 1095 122.567 1090.91 466.736
2284 0 90.5802 12.5524 1137 123.73 1090.48 463.753
2285 0 93.4193 13.0059 1215 122.137 1089.22 462.795
2286 0 94.5562 11.517 1089 125.553 1089.67 460.133
2287 1 49.1236 8.59058 422 118.273 1090.77 483.123
2288 0 53.1419 9.54049 507 114.799 1090.08 486.107
2289 0 54.0952 11.0176 596 114.247 1090.22 484.06
2290 0 58.2884 12.5754 733 109.783 1089.21 482.689
2291 0 58.1659 12.0001 698 112.749 1088.21 486.696
2292 0 59.0895 11.491 679 113.841 1088.42 485.336
2293 0 61.12 12.0092 734 113.997 1088.59 485.625
2294 0 63.1171 12.0411 760 115.201 1089.73 484.541
2295 0 65.1563 12.6772 826 120.025 1089.46 483.318
2296 0 68.1349 12.8275 874 119.572 1089.03 482.254
2297 0 70.4337 12.565 885 121.15 1089.45 480.897
2298 0 74.2828 12.937 961 119.245 1089.83 479.899
2299 0 75.2859 12.4193 935 121.543 1089 477.821
2300 0 78.2526 13.1242 1027 120.019 1089.59 478.52
2301 0 81.3861 13.5895 1106 118.901 1089.6 475.128
2302 0 81.3105 12.2739 998 124.701 1089.63 471.881
2303 0 82.3152 12.3428 1016 125.502 1089.2 471.971
2304 0 85.4106 12.8555 1098 124.968 1088.97 470.669
2305 0 87.3153 11.5329 1007 119.647 1089.54 469.75
2306 0 89.1743 11.4158 1018 121.686 1089.97 470.081
2307 0 93.2677 13.2414 1235 118.925 1089.73 467.899
2308 0 96.1843 11.6443 1120 124.52 1089.93 468.841
2309 0 99.1232 11.8842 1178 125.779 1089.44 464.375
2310 1 57.0369 11.4137 651 119.75 1089.56 488.613
2311 0 56.0394 10.6532 597 122.826 1089.89 487.549
2312 0 58.0228 11.3059 656 120.79 1089.05 486.886
2313 0 60.0229 11.1124 667 128.115 1089.63 485.568
2314 0 61.0782 12.7214 777 125.698 1090.9 481.996
2315 0 66.0472 13.7629 909 120.807 1090.24 482.411
2316 0 67.0208 12.4439 834 125.04 1090.56 481.513
2317 0 70.0508 13.2904 931 122.263 1090.35 478.498
2318 0 73.0675 13.6312 996 120.062 1089.73 478.372
2319 0 73.1543 12.6445 925 122.454 1089.61 478.161
2320 0 76.1908 14.0831 1073 120.191 1090.17 475.436
2321 0 76.1934 14.0301 1069 146.07 1092.16 475.463
2322 0 80.1241 12.8551 1030 124.015 1090.34 473.12
2323 0 81.2438 15.2504 1239 119.259 1090.24 469.818
2324 0 86.1987 13.5501 1168 121.778 1091.36 470.964
2325 0 89.1844 13.5113 1205 121.83 1090.8 468.826
2326 0 90.1528 13.588 1225 122.457 1090.1 468.05
2327 0 92.1446 13.6959 1262 122.64 1091.24 467.071
2328 0 93.1834 12.7061 1184 126.13 1090.38 463.395
2329 0 98.215 14.061 1381 121.564 1091.09 461.184
2330 0 100.147 14.0693 1409 122.083 1090.44 459.885
2331 0 103.189 13.4802 1391 123.044 1090.55 459.636
2332 0 106.258 13.6084 1446 123.518 1090.41 458.364
2333 0 109.167 13.0259 1422 121.881 1090.32 458.456
2334 0 111.168 13.1422 1461 122.011 1090.09 453.066
2335 0 118.236 13.3293 1576 119.595 1090.94 452.343
2336 0 122.223 15.0545 1840 114.93 1090.38 449.859
2337 0 127.177 14.3579 1826 115.859 1090.08 446.781
2338 1 70.0647 11.8462 830 114.483 1091.46 475.755
2339 0 74.0801 11.2176 831 115.996 1091.99 471.555
2340 0 78.1185 12.6475 988 110.906 1092.07 472.51
2341 0 78.0888 12.1144 946 111.518 1091.56 471.296
2342 0 81.132 12.4365 1009 111.706 1091.48 465.735
2343 0 84.0856 13.296 1118 110.891 1091.16 464.289
2344 0 87.0475 13.7511 1197 109.221 1091.43 462.486
2345 0 89.1067 13.1415 1171 111.175 1091.7 462.099
2346 0 92.0805 13.9226 1282 109.996 1091.6 458.317
2347 0 96.114 14.1707 1362 108.6 1091.99 459.033
2348 0 97.1506 13.1034 1273 111.18 1091.85 457.855
2349 0 100.179 13.436 1346 111.325 1092.39 455.071
2350 0 103.184 13.0447 1346 111.898 1091.76 451.335
2351 0 108.168 12.7949 1384 112.976 1092.49 450.611
2352 0 109.142 11.3338 1237 116.751 1092.49 449.492
2353 0 114.155 12.5794 1436 114.326 1092.2 446.817
2354 0 116.21 11.8406 1376 116.2 1092.47 445.343
2355 0 121.172 11.265 1365 117.223 1092.39 440.529
2356 1 71.164 10.1034 719 115.574 1093.49 465.64
2357 0 74.2028 12.3176 914 110.66 1093.99 464.454
2358 0 75.0376 13.6065 1021 112.427 1094.01 465.643
2359 0 75.0366 11.5277 865 119.242 1093.98 462.916
2360 0 80.0693 12.8514 1029 114.702 1094.68 462.729
2361 0 82.0738 12.0623 990 117.125 1095.11 461.616
2362 0 85.0917 12.1751 1036 118.361 1094.9 459.912
2363 0 89.0894 12.9645 1155 116.047 1094.42 457.652
2364 0 91.0981 13.6666 1245 115.486 1094.94 457.233
2365 0 92.0549 12.5577 1156 120.662 1095.1 453.874
2366 0 96.08 14.1236 1357 116.339 1094.76 455.153
2367 0 100.102 13.0367 1305 119.306 1094.26 453.665
2368 0 101.123 12.5095 1265 122.84 1094.23 451.145
2369 0 104.213 12.3689 1289 123.895 1093.78 448.626
2370 0 110.182 14.6213 1611 118.335 1094.61 446.517
2371 0 112.247 12.3389 1385 124.155 1094.25 448.009
2372 0 115.204 12.4649 1436 125.145 1093.34 442.751
2373 0 119.228 12.1113 1444 123.769 1093.49 441.177
2374 1 63.0687 10.3538 653 115.499 1091.89 471.959
2375 0 65.1045 10.583 689 115.356 1091.92 468.231
2376 0 68.102 12.6428 861 114.886 1092.13 467.681
2377 0 70.0506 13.4617 943 112.548 1091.7 469.333
2378 0 73.1231 13.0602 955 114.299 1091.76 467.155
2379 0 75.1285 13.7631 1034 112.566 1092.1 466.987
2380 0 79.1813 12.6545 1002 113.959 1092.16 465.511
2381 0 79.0838 12.2908 972 117.274 1092.33 463.425
2382 0 83.1721 11.2658 937 118.503 1092.19 459.235
2383 0 84.1466 12.193 1026 117.885 1092.31 460.629
2384 0 88.041 13.5732 1195 114.654 1092.09 458.632
2385 0 91.1797 12.6125 1150 117.339 1092.65 456.669
2386 0 93.1108 13.8867 1293 114.337 1092.36 458.118
2387 0 94.1707 12.711 1197 118.58 1092.17 454.86
2388 0 99.184 13.6413 1353 117.13 1092.22 452.709
2389 0 102.108 13.613 1390 117.574 1092.09 454.012
2390 0 104.094 13.603 1416 118.8 1092.66 452.044
2391 0 105.153 12.1727 1280 124.329 1092.81 449.838
2392 0 108.228 12.2889 1330 124.21 1092.39 447.842
2393 0 111.235 12.3343 1372 124.776 1092.45 445.15
2394 0 115.164 12.7383 1467 123.688 1091.84 446.232
2395 0 121.23 13.0661 1584 121.835 1091.87 446.009
2396 1 66.1714 11.7725 779 118.051 1092.67 470.14
2397 0 68.1904 10.6467 726 113.22 1093.2 462.552
2398 0 71.343 10.1482 724 112.739 1093.87 465.736
2399 0 75.1366 12.0048 902 102.545 1094.92 466.33
2400 0 74.099 11.0393 818 107.262 1093.81 462.813
2401 0 78.0777 13.0127 1016 108.721 1094.76 465.33
2402 0 80.1109 13.1942 1057 109.116 1095.01 464.756
2403 0 82.1246 12.408 1019 112.013 1094.97 462.867
2404 0 85.1508 13.3175 1134 110.667 1094.66 462.037
2405 0 88.2195 12.3215 1087 113.423 1095.53 460.788
2406 0 90.1553 13.3326 1202 112.117 1094.79 458.606
2407 0 94.1436 14.531 1368 109.035 1095.09 458.647
2408 0 95.1593 13.5457 1289 112.369 1094.61 457.934
2409 0 99.1529 13.7162 1360 111.66 1094.74 453.509
2410 0 101.149 13.6135 1377 112.935 1095 451.507
2411 0 104.102 14.4474 1504 110.197 1095.38 451.061
2412 0 107.05 13.3676 1431 112.449 1095.06 449.432
2413 0 110.159 13.771 1517 111.702 1094.65 447.486
2414 0 112.243 12.0185 1349 112.021 1094.11 444.543
2415 0 115.231 13.0868 1508 110.297 1094.08 445.073
2416 0 120.225 11.936 1435 112.116 1093.49 443.34
2417 1 65.1399 10.9764 715 109.35 1094.57 466.708
2418 0 69.1215 11.3279 783 108.026 1094.44 466.982
2419 0 74.1223 14.2062 1053 103.737 1094.03 468.04
2420 0 73.139 11.6627 853 107.79 1094.83 464.424
2421 0 77.1068 12.3725 954 104.929 1094.75 461.87
2422 0 78.1174 11.5083 899 106.507 1094.59 461.434
2423 0 81.1325 11.4011 925 105.765 1094.85 460.951
2424 0 85.1667 12.4227 1058 103.164 1094.7 458.056
2425 0 90.1272 12.8485 1158 101.151 1094.75 458.373
2426 0 90.1606 11.8899 1072 103.123 1094.49 453.146
2427 0 94.1695 11.7979 1111 102.77 1094.73 453.928
2428 0 96.1958 11.6637 1122 102.71 1094.4 451.786
2429 0 99.1301 13.4974 1338 98.7294 1094.64 451.626
2430 0 102.196 12.9751 1326 99.6802 1094.09 450.078
2431 0 106.205 12.2782 1304 101.367 1094.1 450.11
2432 0 108.169 12.5452 1357 101.511 1094.71 448.239
2433 0 110.166 12.1997 1344 103.085 1093.71 444.911
2434 0 111.33 10.7788 1200 106.787 1093.62 442.337
2435 0 120.273 11.4906 1382 106.585 1094.22 444.456
2436 1 64.0481 10.133 649 104.821 1094.6 469.616
2437 0 68.0701 11.8261 805 103.215 1095.81 468.272
2438 0 67.0844 11.1203 746 107.68 1095.66 463.602
2439 0 72.0661 12.1139 873 103.189 1095.24 464.591
2440 0 75.0768 12.5738 944 102.281 1095.61 464.287
2441 0 76.1013 13.8237 1052 101.413 1095.42 462.961
2442 0 79.1957 12.6017 998 104.916 1095.55 461.422
2443 0 82.1253 13.0167 1069 104.312 1095.9 462.129
2444 0 83.0848 14.6116 1214 102.139 1095.87 460.488
2445 0 88.0802 14.6344 1289 103.057 1095.62 460.373
2446 0 90.0836 14.0647 1267 106.061 1095.94 458.157
2447 0 93.1685 15.1875 1415 104.204 1095.97 455.116
2448 0 96.1441 13.9998 1346 107.574 1095.56 454.72
2449 0 98.1625 14.313 1405 107.688 1095.64 453.142
2450 0 101.154 14.2753 1444 109.146 1095.17 452.62
2451 0 104.169 14.7741 1539 108.226 1094.89 451.984
2452 0 107.166 15.2661 1636 108.603 1094.93 448.683
2453 0 109.209 14.1105 1541 108.454 1094.77 448.742
2454 0 112.141 13.1353 1473 111.615 1095.38 447.593
2455 0 117.24 14.0054 1642 109.865 1094.81 444.002
2456 0 118.178 12.9127 1526 113.64 1094.72 443.1
2457 0 125.149 14.263 1785 109.496 1094.43 441.448
2458 0 131.35 14.6631 1926 108.809 1094.6 439.11
2459 1 70.1701 13.1395 922 107.618 1093.95 468.31
2460 0 73.2325 12.8904 944 109.406 1094.37 462.45
2461 0 74.2116 13.9197 1033 104.437 1095.02 463.955
2462 0 77.1247 12.1881 940 106.249 1095.54 466.074
2463 0 79.1407 13.4065 1061 105.317 1094.66 464.057
2464 0 83.1401 12.7014 1056 105.968 1095.53 463.652
2465 0 82.1411 12.4177 1020 109.407 1095.32 458.097
2466 0 87.1214 13.3148 1160 106.522 1095.69 458.825
2467 0 88.23 12.2294 1079 110.585 1095.61 455.981
2468 0 93.1537 12.313 1147 110.781 1096.01 455.61
2469 0 94.1035 12.1356 1142 111.689 1095.59 456.384
2470 0 97.1277 12.7358 1237 109.273 1095.4 451.544
2471 0 100.128 13.5427 1356 109.125 1095.14 451.024
2472 0 105.231 13.1996 1389 107.212 1095.37 450.159
2473 0 106.203 12.5514 1333 108.953 1095.05 449.03
2474 0 108.09 12.7578 1379 109.32 1095.77 445.688
2475 0 114.223 13.9114 1589 107.61 1095.12 441.301
2476 0 115.098 11.564 1331 112.103 1095.29 440.691
2477 0 121.129 12.2597 1485 111.514 1095.41 436.811
2478 0 127.289 12.9783 1652 108.509 1095.31 435.896
2479 0 132.269 12.6258 1670 110.326 1096.01 435.356
2480 1 70.2239 10.5092 738 105.917 1095.52 467.202
2481 0 75.3491 13.3247 1004 102.809 1094.51 459.33
2482 0 78.296 12.8359 1005 103.013 1095.45 463.766
2483 0 82.086 13.6199 1118 101.38 1095.78 461.953
2484 0 84.5608 13.9308 1178 101.165 1094.81 459.744
2485 0 86.2971 13.8939 1199 101.023 1095.55 460.11
2486 0 89.2629 14.4629 1291 100.726 1095.83 456.637
2487 0 92.2169 13.7936 1272 103.064 1095.76 453.203
2488 0 95.3345 13.2376 1262 104.074 1095.37 457.121
2489 0 96.3472 13.0466 1257 107.434 1096.05 449.692
2490 0 100.474 14.969 1504 103.152 1095.27 449.969
2491 0 104.376 14.946 1560 102.61 1095.75 448.072
2492 0 107.68 13.0757 1408 107.251 1095.74 446.572
2493 0 108.54 13.35 1449 108.385 1095.34 441.273
2494 0 115.251 14.5422 1676 104.872 1095.11 444.397
2495 0 115.251 11.5313 1329 115.538 1094.1 444.51
2496 0 120.186 12.6887 1525 111.76 1094.65 438.128
2497 1 64.2007 10.3893 667 106.66 1095.27 466.109
2498 0 65.1775 10.8626 708 107.828 1095.02 464.599
2499 0 67.2115 11.382 765 106.508 1094.29 465.256
2500 0 71.1684 12.6601 901 103.133 1093.74 464.888
2501 0 71.1843 12.9804 924 104.175 1094.49 462.303
2502 0 74.151 11.8947 882 107.314 1094.37 463.23
2503 0 75.1877 11.8637 892 108.483 1094.75 461.489
2504 0 74.1548 9.95215 738 114.088 1094.35 452.791
2505 0 81.1273 11.7963 957 110.323 1094.57 456.873
2506 0 84.2504 13.8041 1163 108.028 1094.48 457.038
2507 0 88.2135 11.2228 990 113.657 1094.71 457.207
2509 0 89.0974 11.9195 1062 114.865 1095.41 454.384
2510 0 90.1124 12.2847 1107 114.934 1095.79 453.369
2511 0 91.1083 11.854 1080 117.653 1095.42 450.882
2512 0 95.1924 12.3434 1175 116.081 1095.02 451.022
2513 0 99.209 13.4564 1335 113.512 1095.05 448.935
2514 0 101.267 12.6103 1277 114.359 1095.15 447.25
2515 0 106.114 11.6196 1233 117.888 1095.38 444.049
2516 1 58.2655 10.7439 626 110.925 1095.26 469.548
2517 0 59.1857 12.1482 719 111.357 1094.91 465.598
2518 0 60.1952 12.4595 750 111.309 1095.07 464.813
2519 0 62.1597 13.1596 818 109.298 1095.21 466.711
2520 0 65.0779 12.9076 840 109.156 1095.57 467.617
2521 0 65.0966 12.2433 797 111.915 1095.54 465.794
2522 0 70.0842 13.9404 977 107.365 1095.53 466.571
2523 0 72.2982 12.8634 930 110.606 1094.75 465.758
2524 0 74.1336 12.3965 919 113.244 1095.11 463.581
2525 0 76.1679 12.5644 957 115.271 1094.39 461.974
2526 0 77.1972 11.503 888 120.22 1094.75 460.412
2527 0 81.2142 12.8795 1046 115.91 1095.61 459.502
2528 0 81.2638 12.3917 1007 119.297 1095.3 456.812
2529 0 85.2966 12.9313 1103 118.46 1095.17 453.859
2530 0 86.3597 12.9459 1118 118.914 1095.3 453.519
2531 0 90.4814 13.174 1192 117.959 1095.19 451.488
2532 0 92.3133 12.3167 1137 121.084 1094.6 447.446
2533 0 95.3184 13.3238 1270 118.803 1095.51 449.052
2534 0 100.432 11.7891 1184 120.093 1095.66 449.461
2535 0 102.44 11.9484 1224 121.838 1095.64 442.931
2536 0 105.334 12.8259 1351 120.333 1095.15 442.778
2537 0 110.271 13.5122 1490 117.422 1095.8 442.233
2538 0 113.392 12.1614 1379 120.791 1096.01 439.196
2539 0 117.303 12.3953 1454 119.911 1094.96 436.814
2540 1 64.2427 11.4099 733 114.236 1094.77 463.087
2541 0 69.1376 11.9183 824 111.982 1095.18 464.074
2542 0 67.157 11.0338 741 115.43 1094.95 462.082
2543 0 74.1131 12.5349 929 110.774 1096.93 459.042
2544 0 76.1073 12.4955 951 110.912 1097.14 459.205
2545 0 79.2427 11.7992 935 113.264 1097.45 456.581
2546 0 79.1379 12.017 951 113.906 1097.15 454.732
2547 0 83.1426 12.3523 1027 113.542 1097.33 453.368
2548 0 86.1773 13.7739 1187 110.055 1097.62 454.094
2549 0 86.1194 11.4608 987 116.668 1097.71 452.248
2550 0 90.1469 13.123 1183 114.751 1096.51 449.79
2551 0 93.3079 12.3034 1148 117.259 1096.47 448.698
2552 0 96.256 13.5991 1309 114.294 1096.16 447.892
2553 0 99.1709 13.0683 1296 116.118 1096.3 448.023
2554 0 102.206 12.9444 1323 116.392 1096.36 446.483
2555 0 106.206 12.9089 1371 117.209 1096.25 442.59
2556 0 107.26 11.4208 1225 120.45 1096.34 444.554
2557 0 112.216 14.1157 1584 115.047 1096.51 441.421
2558 0 114.192 13.8452 1581 116.866 1096.38 438.04
2559 0 119.328 13.8023 1647 117.015 1096.09 434.884
2560 0 125.358 14.1036 1768 114.356 1096.59 437.303
2561 0 129.23 13.6036 1758 116.272 1095.89 433.646
2562 1 70.1528 12.0451 845 112.523 1096.61 461.613
2563 0 73.1245 11.8702 868 114.055 1096.41 459.758
2564 0 75.0925 12.984 975 110.973 1094.88 459.547
2565 0 78.157 12.1166 947 112.185 1095.11 459.705
2566 0 82.0847 12.7673 1048 110.424 1094.8 458.875
2567 0 82.1181 11.3495 932 115.207 1094.9 455.358
2568 0 87.1641 11.9315 1040 112.964 1094.72 455.23
2569 0 85.1578 12.7176 1083 113.815 1094.87 452.31
2570 0 91.143 11.9702 1091 114.823 1094.83 454.859
2571 0 93.1099 12.6302 1176 114.15 1095.77 450.366
2572 0 97.1031 13.1201 1274 111.872 1095.68 453.173
2573 0 100.112 13.3551 1337 113.151 1095.58 445.832
2574 0 104.118 12.8316 1336 114.868 1095.62 445.916
2575 0 106.103 13.4681 1429 113.511 1096.08 447.166
2576 0 110.069 12.2105 1344 115.517 1095.68 442.481
2577 0 113.15 12.6028 1426 114.776 1095.05 438.824
2578 0 119.135 14.4122 1717 109.605 1094.94 441.21
2579 0 122.177 13.1694 1609 113.05 1094.99 438.956
2580 0 126.145 12.2082 1540 116.129 1095.48 433.896
2581 1 71.091 11.4642 815 110.355 1094.7 463.898
2582 0 74.1571 12.6758 940 107.564 1095 462.831
2583 0 76.1211 13.2683 1010 108.198 1094.98 459.789
2584 0 78.1563 13.3962 1047 108.448 1095.49 459.156
2585 0 80.2081 14.0883 1130 110.678 1094.9 456.992
2586 0 84.3145 13.8054 1164 112.342 1094.96 453.416
2587 0 84.2846 12.6358 1065 116.421 1095.07 453.215
2588 0 84.2846 12.5883 1061 147.221 1095.07 453.054
2589 0 91.4967 12.9185 1182 118.017 1095.69 450.371
2590 0 94.3178 12.4579 1175 119.125 1095.46 451.334
2591 0 96.3041 13.4262 1293 119.579 1096.13 449.466
2592 0 99.3366 13.6707 1358 120.352 1095.96 447.214
2593 0 101.247 12.2473 1240 125.029 1095.6 446.777
2594 0 104.217 13.1936 1375 123.452 1096.22 445.381
2595 0 108.415 13.0886 1419 123.514 1096.1 445.082
2596 0 111.366 13.3434 1486 123.347 1095.98 441.24
2597 0 115.324 12.9635 1495 122.182 1096.59 436.126
2598 0 121.187 12.6333 1531 118.582 1096.12 438.263
2599 0 125.141 13.5607 1697 115.775 1095.53 439.446
2600 0 128.254 13.0912 1679 117.785 1095.52 432.996
2601 1 74.2662 12.5898 935 109.904 1095.32 460.943
2602 0 74.1219 11.6295 862 113.241 1097.19 461.274
2603 0 76.2083 12.6758 966 111.503 1096.94 460.514
2604 0 80.1083 12.9949 1041 111.057 1097.35 457.735
2605 0 83.2197 13.194 1098 110.969 1097.2 456.728
2606 0 85.1411 12.9667 1104 112.145 1097.64 454.078
2607 0 88.1412 12.8998 1137 112.367 1097.58 454.645
2608 0 92.2042 14.8366 1368 107.35 1097.44 454.289
2609 0 92.1369 13.3714 1232 112.584 1097.21 452.04
2610 0 93.1235 13.0257 1213 114.438 1096.76 449.162
2611 0 99.147 13.253 1314 112.005 1097.08 450.445
2612 0 102.134 13.0514 1333 112.746 1097.04 448.033
2613 0 105.133 12.7838 1344 112.938 1097.24 447.17
2614 0 108.151 13.1113 1418 113.097 1097.27 443.77
2615 0 114.125 13.2136 1508 111.668 1097.36 443.649
2616 0 116.144 12.9667 1506 113.799 1097.65 440.855
2617 1 67.056 10.439 700 114.183 1095.22 468.167
2618 0 67.1338 10.844 728 110.478 1095.05 465.824
2619 0 69.0645 11.5689 799 108.509 1095.38 464.569
2620 0 71.0516 11.9491 849 107.734 1095.18 464.529
2621 0 74.0434 11.6958 866 108.117 1094.52 461.301
2622 0 78.1132 12.2386 956 105.338 1093.98 461.465
2623 0 80.098 12.5971 1009 105.535 1094.18 461.075
2624 0 80.0825 12.2873 984 108.197 1094.49 457.905
2625 0 84.1104 11.9129 1002 108.11 1093.81 458.606
2626 0 88.067 12.5473 1105 107.102 1094.05 457.198
2627 0 91.1298 12.8279 1169 107.892 1094.07 455.557
2628 0 92.1642 12.1197 1117 109.33 1094.04 457.358
2629 0 95.1265 12.2363 1164 109.614 1094.31 451.989
2630 0 101.154 14.0084 1417 104.499 1094.14 453.408
2631 0 105.267 13.955 1469 102.745 1094.51 450.7
2632 0 106.254 12.5736 1336 105.583 1094.92 449.789
2633 0 108.297 11.7362 1271 108.123 1094.92 446.777
2634 0 114.51 13.0294 1492 106.834 1094.66 443.325
2635 0 118.35 12.6743 1500 108.743 1094.53 442.905
2636 0 118.35 12.2265 1447 142.089 1094.53 441.697
2637 1 65.3455 10.6511 696 108.352 1094.52 468.481
2638 0 68.1221 10.2463 698 107.658 1094.69 463.06
2639 0 70.1824 11.4844 806 104.767 1094.77 464.627
2640 0 73.2152 11.8691 869 104.558 1094.94 466.18
2641 0 73.1141 12.501 914 104.612 1094.73 469.465
2642 0 76.1792 11.8536 903 106.96 1094.29 467.374
2643 0 80.1635 13.6596 1095 102.927 1094.32 465.954
2644 0 82.145 11.8449 973 108.225 1094.5 464.503
2645 0 82.2399 11.0895 912 110.239 1094.7 463.797
2646 0 87.2804 11.9156 1040 108.055 1094.25 461.056
2647 0 89.1948 10.1239 903 111.599 1094.22 460.507
2648 0 92.1765 11.5539 1065 108.763 1094.04 459.12
2649 0 93.3039 12.7647 1191 109.059 1093.49 453.186
2650 0 95.3826 11.7422 1120 112.828 1092.96 451.547
2651 0 101.417 13.0255 1321 109.577 1093.49 449.312
2652 0 105.435 12.8421 1354 110.453 1093.18 446.394
2653 0 106.415 12.5828 1339 112.483 1093.57 446.727
2654 0 110.417 13.295 1468 111.453 1093.67 444.373
2655 0 111.513 11.2722 1257 116.842 1093.74 441.443
2656 0 117.295 11.5606 1356 115.799 1093.43 444.613
2657 0 122.406 13.1121 1605 112.436 1093.26 441.435
2658 0 124.442 12.7449 1586 113.906 1092.57 439.999
2659 0 128.411 12.0239 1544 115.898 1093.86 432.68
2660 1 68.3023 9.86789 674 112.365 1093.92 463.809
2661 0 71.1782 9.83446 700 107.067 1092.86 464.126
2662 0 77.1631 12.4282 959 100.589 1091.87 466.878
2663 0 78.101 13.0088 1016 100.265 1091.43 466.363
2664 0 79.0785 10.9511 866 106.33 1091.18 465.176
2665 0 82.0664 10.9545 899 106.951 1091.33 463.265
2666 0 84.0432 12.6364 1062 105.017 1091.59 462.557
2667 0 86.1489 10.7604 927 110.603 1091.51 457.748
2668 0 89.1606 12.0457 1074 108.02 1091.26 456.201
2669 0 92.1112 12.3763 1140 108.273 1091.81 456.939
2670 0 93.1243 11.7692 1096 110.835 1091.85 453.674
2671 0 98.2685 12.0486 1184 109.608 1092.01 453.303
2672 0 104.265 11.5092 1200 108.677 1092.27 456.529
2673 0 104.223 11.6481 1214 111.586 1092 450.519
2674 0 106.26 13.147 1397 108.709 1092.21 450.453
2675 0 109.355 11.9427 1306 111.666 1091.91 447.598
2676 0 114.246 12.2981 1405 110.057 1091.81 446.493
2677 0 116.227 12.054 1401 111.046 1092.01 447.061
2678 0 121.267 13.0373 1581 109.692 1091.66 442.352
2679 0 125.288 12.172 1525 111.396 1092.28 441.138
2680 0 129.209 11.9264 1541 113.001 1092.03 437.295
2681 0 133.303 11.6352 1551 113.884 1091.66 436.954
2682 0 139.268 11.941 1663 113.556 1092.16 433.738
2683 0 142.266 12.2306 1740 113.806 1092.31 428.519
2684 0 147.318 12.4832 1839 113.584 1091.7 427.61
2685 0 154.312 13.2459 2044 112.204 1091.62 425.457
2686 1 87.1483 11.7271 1022 105.324 1091.6 462.152
2687 0 87.2466 12.2526 1069 106.276 1091.6 459.061
2688 0 89.1036 10.9311 974 111.317 1092.09 457.953
2689 0 94.2612 11.1605 1052 115.457 1091.59 460.256
2690 0 94.1857 11.403 1074 111.71 1092 457.714
2691 0 97.1447 12.1983 1185 111.795 1092.34 455.352
2692 0 100.139 12.4327 1245 113.025 1092.56 453.466
2693 0 105.379 12.4313 1310 112.792 1093.57 451.867
2694 0 108.297 11.9578 1295 115.354 1093.62 447.558
2695 0 109.382 11.7112 1281 115.761 1093.78 447.134
2696 0 115.283 12.2482 1412 114.938 1094.07 444.312
2697 0 117.349 11.1036 1303 117.513 1094.34 444.543
2698 0 121.204 12.0128 1456 115.56 1094.25 441.848
2699 0 126.364 13.0417 1648 113.99 1094.1 438.874
2700 1 71.1752 11.0151 784 112.401 1093.76 468.944
2701 0 72.0774 10.6968 771 113.719 1095.03 464.52
2702 0 77.0439 13.4858 1039 105.538 1094.28 468.564
2703 0 77.1028 12.0099 926 111.276 1095.17 464.01
2704 0 78.1767 12.1136 947 112.95 1092.84 465.497
2705 0 81.1621 10.5468 856 115.722 1094.25 463.415
2706 0 85.1012 11.2572 958 112.667 1093.49 463.754
2707 0 87.1087 12.8345 1118 110.268 1094.19 460.98
2708 0 89.0817 11.7645 1048 112.672 1093.9 459.652
2709 0 95.1578 12.5686 1196 108.612 1094.21 460.307
2710 0 97.1854 13.0575 1269 108.734 1093.52 456.452
2711 0 98.2024 12.6473 1242 110.955 1093.44 456.018
2712 0 103.326 12.7171 1314 110.666 1093.65 454.176
2713 0 106.242 12.0574 1281 112.108 1093.17 453.239
2714 0 108.225 11.7717 1274 113.524 1092.28 449.109
2715 0 113.324 13.0334 1477 109.684 1092.73 448.775
2716 0 114.282 11.8304 1352 113.555 1092.79 445.415
2717 0 119.326 11.2381 1341 114.116 1092.53 447.64
2718 1 62.0346 9.70426 602 116.302 1092.17 472.346
2719 0 66.1148 10.7692 712 115.424 1092.11 471.892
2720 0 67.0952 13.0412 875 111.967 1092.64 470.802
2721 0 67.1743 10.8673 730 118.415 1092.32 467.466
2722 0 71.0468 12.4425 884 113.309 1092.29 468.943
2723 0 73.0961 12.5315 916 113.18 1091.92 467.576
2724 0 77.031 13.0077 1002 113.31 1091.34 465.542
2725 0 79.0863 12.4421 984 113.532 1091.52 466.484
2726 0 80.0852 12.1371 972 116.578 1091.15 461.606
2727 0 82.0793 13.0605 1072 113.885 1091.21 462.208
2728 0 86.0933 14.0661 1211 111.804 1091.32 459.446
2729 0 88.0651 13.5582 1194 113.319 1091.66 459.369
2730 0 92.0851 13.3681 1231 113.255 1091.72 459.709
2731 0 92.0569 12.2098 1124 116.701 1092.89 458.73
2732 0 95.0434 13.2255 1257 115.691 1092.5 453.799
2733 0 99.1182 14.0136 1389 113.986 1091.82 451.841
2734 0 100.12 14.213 1423 114.623 1092.1 451.741
2735 0 103.108 12.8215 1322 116.918 1092.8 453.381
2736 0 106.125 13.2579 1407 116.613 1092.53 450.073
2737 0 109.181 14.4897 1582 113.657 1092.57 449.932
2738 0 111.093 13.7453 1527 116.951 1092.71 447.359
2739 0 115.19 13.8815 1599 116.702 1092.74 446.193
2740 0 119.291 14.276 1703 116.124 1093.16 442.784
2741 0 122.218 13.4023 1638 115.093 1093.28 443.927
2742 1 67.1372 13.2713 891 113.239 1093.49 469.446
2743 0 69.1695 13.2139 914 110.857 1093.99 469.977
2744 0 70.1678 13.5817 953 110.885 1094.54 468.318
2745 0 74.211 13.8659 1029 109.981 1093.76 467.536
2746 0 75.2146 13.3352 1003 111.953 1094.04 467.145
2747 0 79.077 15.2762 1208 106.795 1093.36 465.71
2748 0 80.0782 12.5128 1002 113.841 1093.98 465.822
2749 0 83.1566 14.0578 1169 110.347 1094.3 463.654
2750 0 87.1214 14.761 1286 107.621 1094.4 461.928
2751 0 90.0981 15.2057 1370 107.154 1094.82 458.59
2752 0 91.2247 14.4149 1315 110.253 1095.29 460.113
2753 0 91.1458 12.9244 1178 115.757 1094.99 454.908
2754 0 97.137 14.5671 1415 110.67 1095.48 452.532
2755 0 97.1701 13.111 1274 114.684 1095.26 451.962
2756 0 99.1385 13.4055 1329 115.629 1094.73 448.608
2757 0 103.111 13.7425 1417 114.831 1094.94 447.039
2758 0 105.111 12.0634 1268 118.363 1094.15 448.735
2759 0 109.188 14.1316 1543 112.964 1093.96 446.529
2760 0 112.116 12.8796 1444 115.904 1093.94 446.057
2761 0 118.078 14.6344 1728 111.473 1094.17 442.748
2762 1 64.104 13.6029 872 114.201 1094.08 467.794
2763 0 67.012 14.2213 953 114.2 1093.97 462.321
2764 0 67.1008 13.7405 922 113.247 1093.8 463.773
2765 0 70.1337 14.3725 1008 112.729 1093.74 461.856
2766 0 73.0527 15.2903 1117 111.61 1093.9 461.745
2767 0 76.1295 14.7118 1120 112.807 1093.67 460.59
2768 0 79.086 14.8699 1176 111.653 1093.8 460.235
2769 0 81.1216 14.4351 1171 113.566 1094.24 458.886
2770 0 85.0587 14.8721 1265 112.452 1094.23 457.412
2771 0 86.0984 13.7053 1180 115.839 1094.25 455.351
2772 0 91.0951 15.3795 1401 111.716 1094.4 453.361
2773 0 91.0766 14.625 1332 115.16 1094.1 451.881
2774 0 98.1835 15.1044 1483 112.284 1094.16 450.926
2775 0 100.074 15.6585 1567 111.31 1094.33 450.016
2776 0 103.156 15.0936 1557 113.775 1094.04 445.934
2777 1 58.1545 13.0514 759 113.759 1094.41 470.653
2778 0 60.1916 13.3906 806 117.686 1094.53 469.055
2779 0 64.1282 15.2351 977 108.651 1094.92 470.682
2780 0 65.0808 14.2131 925 112.21 1093.65 474.743
2781 0 66.1346 14.531 961 111.867 1094.35 472.993
2782 0 69.0737 15.3894 1063 109.708 1093.96 471.906
2783 0 69.0378 14.76 1019 112.774 1093.54 470.988
2784 0 73.1163 14.2649 1043 113.027 1093.77 468.96
2785 0 75.0468 15.0573 1130 111.819 1093.44 467.529
2786 0 78.1671 15.0575 1177 111.809 1094.8 465.237
2787 0 80.1301 14.5139 1163 113.927 1093.72 465.187
2788 0 82.1483 16.0929 1322 110.368 1093.91 465.508
2789 0 84.1967 15.44 1300 112.526 1094.17 465.555
2790 0 86.0951 14.8789 1281 115.229 1094.65 460.94
2791 0 91.1427 16.6662 1519 110.819 1094.43 457.938
2792 0 94.107 15.8437 1491 112.626 1094.53 458.491
2793 0 97.1561 15.5935 1515 112.759 1094.25 458.388
2794 0 99.1451 14.8772 1475 116.681 1094.52 453.792
2795 0 103.089 14.7736 1523 116.068 1094.66 453.464
2796 1 53.0569 11.8364 628 118.283 1095.08 471.508
2797 0 56.0236 13.0838 733 114.746 1094.41 472.214
2798 0 57.0791 13.928 795 113.465 1094.75 473.896
2799 0 60.0228 14.3612 862 112.063 1094.56 472.973
2800 0 62.1153 14.3765 893 112.82 1094.29 470.274
2801 0 64.1185 14.9411 958 111.251 1094.48 471.084
2802 0 67.0316 14.1873 951 112.612 1093.75 470.189
2803 0 70.0445 14.7192 1031 111.521 1094.63 468.926
2804 0 72.0334 15.8399 1141 111.125 1094.65 471.628
2805 0 74.0528 15.678 1161 112.326 1094.75 468.222
2806 0 76.1184 14.7533 1123 114.582 1094.43 468.337
2807 0 81.0848 15.0953 1224 112.296 1094.25 466.425
2808 0 81.0807 14.9481 1212 154.241 1094.23 466.488
2809 0 86.1277 15.7325 1355 111.52 1094.61 462.117
2810 0 88.1241 14.4682 1275 115.744 1094.35 461.089
2811 0 90.1752 14.5827 1315 116.07 1094.44 458.011
2812 0 94.0917 15.538 1462 112.834 1094.4 457.654
2813 0 96.1006 16.0769 1545 111.702 1094.57 455.573
2814 0 100.095 15.6651 1568 112.827 1094.59 452.123
2815 0 102.114 14.19 1449 115.566 1094.01 453.232
2816 0 106.098 14.5714 1546 114.341 1093.9 449.725
2817 0 107.116 13.4154 1437 117.34 1094.34 449.483
2818 0 114.236 13.4547 1537 114.919 1095.23 448.943
2819 1 64.3159 13.5581 872 111.967 1094.73 473.664
2820 0 67.0797 15.176 1018 107.907 1094.18 472.429
2821 0 70.327 14.916 1049 111.024 1094.7 471.361
2822 0 70.2406 13.2544 931 115.215 1094.68 469.148
2823 0 73.1913 14.5099 1062 113.699 1094.73 466.63
2824 0 76.1786 14.5185 1106 114.183 1094.31 464.632
2825 0 78.2402 14.954 1170 114.139 1094.01 463.845
2826 0 84.2864 14.427 1216 113.491 1094.46 463.616
2827 0 84.0937 14.2222 1196 115.875 1094.88 460.472
2828 0 87.1703 15.0166 1309 114.242 1093.57 458.934
2829 0 90.2268 15.5386 1402 112.949 1093.85 459.644
2830 0 94.3446 14.4152 1360 116.125 1093.64 458.122
2831 0 96.3055 14.7344 1419 115.521 1093.7 456.786
2832 0 100.254 15.5405 1558 114.422 1093.63 453.148
2833 0 100.152 13.7192 1374 119.98 1093.68 451.985
2834 0 105.167 14.8241 1559 117.008 1093.83 450.69
2835 0 109.283 14.586 1594 118.313 1093.64 447.415
2836 0 114.185 15.0195 1715 116.543 1093.08 445.854
2837 0 117.406 15.2462 1790 116.182 1093.58 444.032
2838 0 123.275 15.6966 1935 114.49 1093.6 444.618
2839 0 126.424 14.6887 1857 118.481 1093.48 439.795
2840 0 132.265 15.3102 2025 117.14 1093.88 439.749
2841 1 70.1336 12.3336 865 119.805 1093.59 469.527
2842 0 74.2906 13.9183 1034 117.908 1093.41 466.285
2843 0 78.2206 14.1906 1110 117.546 1093.5 465.091
2844 0 80.2345 14.5075 1164 117.211 1092.75 464.945
2845 0 82.2124 14.5598 1197 117.967 1093.38 461.076
2846 0 86.1132 14.899 1283 117.101 1093.36 459.42
2847 0 90.2709 15.3427 1385 115.63 1093.22 458.145
2848 0 92.317 14.9485 1380 116.601 1093.37 457.607
2849 0 96.5056 16.0612 1550 114.399 1093.09 456.217
2850 0 99.1792 14.5696 1445 118.291 1092.88 456.358
2851 0 102.253 14.9042 1524 119.001 1092.78 451.621
2852 0 105.33 15.2853 1610 117.794 1093.98 452.2
2853 0 112.283 16.1021 1808 113.866 1093.16 450.567
2854 0 114.326 14.3799 1644 119.212 1093.4 448.511
2855 0 120.283 15.0561 1811 118.686 1092.85 443.634
2856 0 125.338 15.901 1993 116.757 1092.96 443.43
2857 0 128.374 15.2757 1961 122.15 1092.93 440.406
2858 1 68.25 13.4212 916 120.752 1093.34 470.29
2859 0 70.2451 14.7341 1035 119.512 1093.56 466.708
2860 0 73.4822 14.1531 1040 119.919 1094.1 465.707
2861 0 78.4191 14.2057 1114 118.207 1094.04 465.438
2862 0 80.1905 13.1312 1053 120.294 1093.65 465.355
2863 0 85.3103 14.4766 1235 117.408 1093.92 461.802
2864 0 85.3285 14.2742 1218 119.209 1093.83 459.619
2865 0 89.1215 15.3386 1367 116.894 1093.46 457.14
2866 0 90.1792 13.4621 1214 123.013 1093.45 455.365
2867 0 95.3498 15.0079 1431 118.043 1093.57 455.53
2868 0 98.2445 15.3291 1506 118.335 1093.7 453.52
2869 0 98.2302 13.9672 1372 124.363 1093.9 450.178
2870 0 105.232 15.9267 1676 118.096 1093.03 448.341
2871 0 107.214 15.11 1620 120.694 1092.83 447.75
2872 0 110.458 15.4176 1703 120.274 1092.93 445.689
2873 0 115.416 16.4275 1896 116.899 1093.14 444.046
2874 0 120.546 16.6493 2007 116.277 1093.27 442.89
2875 1 64.2943 14.6358 941 118.833 1094.07 469.425
2876 0 66.3393 13.7475 912 124.669 1093.6 467.243
2877 0 69.2412 13.5324 937 124.984 1094.21 467.283
2878 0 72.2929 14.8839 1076 122.552 1093.91 464.843
2879 0 74.2284 14.3611 1066 125.358 1093.95 464.26
2880 0 76.2809 13.8567 1057 127.239 1093.91 463.116
2881 0 79.292 14.6042 1158 125.012 1094.06 463.098
2882 0 80.1769 13.6074 1091 129.8 1093.42 459.474
2883 0 85.2326 14.9825 1277 126.261 1093.67 458.759
2884 0 85.304 13.6219 1162 131.471 1093.42 457.464
2885 0 89.2462 13.9838 1248 130.245 1093.62 455.483
2886 0 93.3522 14.7934 1381 127.398 1093.42 457.196
2887 0 97.2279 15.438 1501 126.478 1094.05 453.939
2888 0 99.2684 15.0199 1491 129.021 1093.82 450.809
2889 0 103.154 15.85 1635 127.372 1093.7 449.609
2890 0 108.126 15.4079 1666 128.077 1093.75 448.865
2891 0 110.202 16.252 1791 126.359 1093.89 449.15
2892 0 115.244 15.9835 1842 126.936 1093.69 446.04
2893 0 118.16 15.4113 1821 128.544 1093.84 442.484
2894 0 122.093 14.6692 1791 129.246 1093.85 443.788
2895 1 68.1072 12.9061 879 133.134 1094.03 467.638
2896 0 70.1303 14.7582 1035 129.103 1094.45 466.909
2897 0 73.1632 13.6681 1000 132.546 1094 464.591
2898 0 76.053 14.411 1096 131.135 1093.7 464.438
2899 0 77.1768 14.24 1099 132.881 1094.67 463.368
2900 0 80.0765 14.7109 1178 132.151 1094.15 461.924
2901 0 81.0609 13.9031 1127 135.047 1094.01 460.248
2902 0 84.1937 14.2053 1196 136.137 1094.82 457.452
2903 0 87.1071 14.2468 1241 133.978 1094.08 457.263
2904 0 89.0917 13.8958 1238 136.519 1094.16 455.873
2905 0 92.1263 13.9917 1289 136.615 1093.85 454.166
2906 0 94.0615 14.5862 1372 136.619 1093.39 452.323
2907 0 98.151 14.6 1433 136.098 1093.79 451.368
2908 0 102.19 15.5691 1591 133.569 1093.69 450.437
2909 0 104.241 17.2772 1801 129.653 1093.65 447.173
2910 0 106.189 14.2671 1515 137.915 1093.34 446.749
2911 0 111.244 15.2099 1692 134.385 1093.47 445.106
2912 0 112.147 13.9281 1562 140.163 1093.1 444.009
2913 0 117.113 16.4029 1921 132.153 1092.95 441.839
2914 0 119.105 14.3067 1704 138.95 1093.35 441.591
2915 0 121.073 14.2972 1731 140.525 1093.19 438.281
2916 0 124.14 15.0234 1865 139.53 1093.29 434.291
2917 0 131.194 15.0159 1970 137.709 1093.91 434.217
2918 0 135.128 14.9488 2020 137.454 1093.51 429.847
2919 0 138.192 13.6911 1892 142.448 1093.81 423.858
2920 1 78.098 11.3575 887 133.962 1093.46 457.26
2921 0 78.0771 11.1428 870 135.601 1093.69 454.705
2922 0 82.067 12.5873 1033 130.458 1093.62 453.78
2923 0 82.0848 11.0861 910 136.081 1093.33 450.503
2924 0 90.1256 12.1719 1097 131.055 1093.61 448.789
2925 0 91.1261 11.5664 1054 133.804 1092.89 444.97
2926 0 96.2791 12.0899 1164 129.64 1093.21 446.291
2927 0 96.184 11.8003 1135 132.097 1093.04 442.955
2928 0 101.215 12.2907 1244 128.691 1092.88 443.348
2929 0 105.118 12.5383 1318 128.962 1093.26 438.376
2930 0 111.228 13.8364 1539 123.495 1092.87 438.913
2931 0 113.25 11.9823 1357 129.062 1092.97 435.881
2932 0 116.174 11.3881 1323 131.643 1093.04 429.525
2933 1 73.3146 12.0031 880 112.835 1094.23 460.72
2934 0 72.1929 9.33609 674 119.378 1092.5 461.512
2935 0 74.0846 9.50265 704 111.845 1092.01 462.003
2936 0 76.1141 12.3105 937 106.236 1092.32 460.255
2937 0 79.2 10.8586 860 109.58 1092.22 458.578
2938 0 83.2389 11.3048 941 109.219 1092.67 457.502
2939 0 84.2123 11.1504 939 109.659 1092.74 457.332
2940 0 89.1773 11.3594 1013 109.025 1092.43 454.146
2941 0 90.1141 11.2968 1018 109.135 1093.61 455.819
2942 0 93.1673 11.1734 1041 110.859 1093.96 450.892
2943 0 97.2241 10.7792 1048 110.425 1094.17 452.739
2944 0 99.2154 11.218 1113 110.839 1094.01 447.215
2945 0 105.122 11.7483 1235 109.027 1093.62 448.067
2946 0 105.2 11.5494 1215 110.451 1093.48 446.339
2947 0 110.273 10.7098 1181 116.547 1094.02 442.867
2948 0 114.276 11.411 1304 115.845 1093.23 440.168
2949 0 114.282 9.09151 1039 125.657 1092.59 435.876
2950 0 119.321 10.5765 1262 119.723 1093.34 439.673
2951 0 124.214 10.1357 1259 120.713 1093.49 435.546
2952 0 127.281 10.2215 1301 119.776 1092.7 433.29
2953 0 131.392 10.1528 1334 120.833 1092.33 426.186
2955 0 136.334 10.2616 1399 120.126 1092.39 428.106
2956 0 141.349 9.15466 1294 124.547 1091.8 420.781
2957 1 82.2547 9.39764 773 108.451 1092.6 454.373
2958 0 89.2174 8.6194 769 106.592 1093.27 460.974
2959 0 88.2387 10.0183 884 107.633 1093.1 451.394
2960 0 91.2584 9.11697 832 108.971 1092.98 452.947
2961 0 97.1957 9.79467 952 107.119 1093.59 451.494
2962 0 100.111 9.08989 910 117.89 1093.58 445.485
2963 0 105.184 8.33779 877 119.174 1093.61 445.287
2964 0 106.219 11.1186 1181 114.948 1093.38 440.843
2965 0 111.231 10.213 1136 116.221 1093.18 443.07
2966 0 116.211 11.5479 1342 113.127 1093.56 440.206
2967 0 118.458 9.96978 1181 116.067 1092.31 433.976
2968 0 123.387 10.7304 1324 116.862 1092.92 437.571
2969 0 128.193 11.8571 1520 110.926 1091.49 435.547
2970 1 73.1403 10.6371 778 102.878 1093.66 465.4
2971 0 75.3001 11.2616 848 100.562 1093.03 461.816
2972 0 77.2261 10.9289 844 101.052 1093.49 462.376
2973 0 80.4569 10.1669 818 102.189 1092.61 453.147
2974 0 82.4622 9.74992 804 103.899 1092.37 456.726
2975 0 83.2768 9.89471 824 104.78 1092.37 453.056
2976 0 86.3336 10.8417 936 103.931 1092.09 450.583
2977 0 89.2795 11.044 986 104.372 1092.33 451.969
2978 0 90.2136 9.79897 884 109.628 1093.3 452.667
2979 0 94.1995 11.1784 1053 106.834 1092.95 450.194
2980 0 100.268 12.0477 1208 104.114 1092.65 449.891
2981 0 102.256 11.9211 1219 105.227 1093.03 450.496
2982 0 104.255 11.4431 1193 107.417 1092.48 445.484
2983 0 106.252 11.9621 1271 108.352 1091.95 444.131
2984 0 108.267 11.952 1294 109.153 1092.58 446.175
2985 0 112.245 11.3591 1275 109.491 1092.82 444.6
2986 0 116.192 12.1006 1406 109.009 1092.87 438.955
2987 0 120.256 12.0743 1452 110.396 1091.9 440.103
2988 0 122.204 13.2647 1621 108.357 1092.13 441.272
2989 0 127.159 13.2669 1687 109.16 1093.34 438.924
2990 0 130.098 11.8219 1538 113.11 1092.09 439.852
2991 0 130.071 10.0022 1301 118.508 1092.35 436.269
2992 0 137.097 11.1527 1529 116.243 1092.38 431.579
2993 1 84.1752 10.3712 873 111.552 1092.18 459.608
2994 0 86.3331 12.556 1084 108.289 1091.76 455.763
2995 0 87.2842 11.1933 977 111.448 1091.77 454.724
2996 0 91.1372 12.75 1162 105.055 1092.07 453.799
2997 0 92.2022 11.3338 1045 110.892 1091.41 452.61
2998 0 95.2473 11.9478 1138 108.515 1091.15 448.366
2999 0 99.2332 11.6997 1161 108.614 1090.55 450.661
3000 0 100.163 11.2616 1128 110.799 1090.37 443.376
3001 0 104.315 11.6091 1211 108.149 1090.76 448.926
3002 0 106.224 11.3534 1206 110.665 1090.94 441.767
3003 0 109.198 10.1193 1105 113.973 1091.77 441.311
3004 0 112.312 12.2783 1379 109.251 1091.04 443.63
3005 0 116.251 11.9311 1387 109.367 1090.95 440.417
3006 0 119.239 11.7495 1401 110.709 1091.17 439.971
3007 0 120.258 10.9431 1316 114.729 1091.4 439.72
3008 0 125.315 12.0816 1514 110.787 1091.29 434.604
3009 0 130.202 12.2732 1598 109.965 1091.03 435.413
3010 0 133.215 12.9565 1726 111.48 1091.12 432.525
3011 0 135.24 13.0361 1763 113.123 1090.9 428.744
3012 0 139.218 12.0961 1684 115.286 1090.88 427.239
3013 1 81.2669 10.8162 879 107.265 1091.44 461.975
3014 0 82.106 9.95056 817 108.372 1091.41 460.564
3015 0 87.103 11.4233 995 103.142 1091.75 455.814
3016 0 89.2489 12.3475 1102 101.481 1091.55 455.662
3017 0 92.2004 12.8091 1181 100.772 1091.64 453.108
3018 0 92.1208 11.3872 1049 105.29 1091.82 451.818
3019 0 97.2383 11.4358 1112 105.701 1091.89 446.89
3020 0 102.124 12.6905 1296 101.99 1091.42 446.762
3021 0 103.16 12.1946 1258 104.75 1091.41 444.532
3022 0 104.202 10.4508 1089 110.053 1091.84 439.798
3023 0 109.252 12.732 1391 103.9 1091.47 443.045
3024 0 113.182 13.3678 1513 102.845 1091.59 441.722
3025 0 116.164 12.9989 1510 105.089 1091.24 438.55
3026 0 116.165 11.8711 1379 109.29 1092.12 435.259
3027 0 122.226 12.0842 1477 108.439 1092.31 434.732
3028 0 124.24 12.9508 1609 109.262 1091.86 439.343
3029 0 128.299 13.2971 1706 110.309 1091.25 436.05
3030 0 133.238 14.4853 1930 108.635 1091.72 436.127
3031 0 135.159 12.0747 1632 119.925 1091.55 434.488
3032 0 140.308 13.727 1926 111.758 1091.27 431.51
3033 0 144.207 12.1492 1752 115.594 1091.38 431.589
3034 0 148.361 13.0291 1933 114.974 1091.25 423.638
3035 0 153.351 12.9376 1984 115.624 1091.59 425.718
3036 0 156.193 11.4473 1788 121.322 1091.08 421.98
3037 0 163.272 12.5435 2048 119.029 1091.44 420.107
3038 0 167.246 12.6102 2109 119.44 1092.14 417.883
3039 1 101.247 11.7238 1187 114.253 1092.65 445.974
3040 0 105.223 11.851 1247 115.756 1092.56 445.84
3041 0 106.113 11.5914 1230 117.741 1092.05 441.497
3042 0 111.314 14.0234 1561 112.199 1091.94 440.83
3043 0 113.24 12.213 1383 116.952 1092.54 441.084
3044 0 117.23 12.3688 1450 116.982 1092.71 440.949
3045 0 123.304 13.5681 1673 114.449 1092.95 440.976
3046 0 121.235 10.9622 1329 112.556 1092.06 431.643
3047 0 121.174 12.3954 1502 112.985 1092.2 431.567
3048 0 122.267 11.5975 1418 119.576 1092.46 427.032
3049 0 125.202 14.6324 1832 100.77 1092.79 429.932
3050 0 125.164 11.2252 1405 113.713 1092.89 430.075
3051 0 124.275 11.7964 1466 122.133 1093.36 424.276
3052 0 127.28 11.5101 1465 123.442 1092.81 424.408
3053 0 129.205 12.0971 1563 121.555 1092.98 425.382
3054 0 134.366 13.6939 1840 119.034 1093.67 428.144
3055 0 136.247 13.8499 1887 118.273 1093.56 426.488
3056 0 142.167 12.9917 1847 116.768 1093.74 425.674
3057 1 87.134 10.8913 949 109.864 1093.71 459.071
3058 0 88.2244 10.4053 918 111.688 1093.65 457.503
3059 0 93.1351 10.6619 993 109.573 1093.18 456.259
3060 0 94.2186 11.8236 1114 106.967 1091.94 451.829
3061 0 97.208 11.0279 1072 109.15 1091.57 449.507
3062 0 100.368 13.4705 1352 104.114 1091.64 449.854
3063 0 101.245 10.0647 1019 114.605 1091.6 445.335
3064 0 106.163 12.0569 1280 109.998 1091.69 448.025
3065 0 105.217 10.4356 1098 116.341 1091.39 445.199
3066 0 108.223 12.8716 1393 113.126 1092.14 442.887
3067 0 112.195 11.8811 1333 116.083 1092 439.335
3068 0 113.203 11.2895 1278 118.023 1091.5 440.742
3069 0 117.313 10.6126 1245 121.165 1092.44 438.335
3070 0 119.27 11.495 1371 120.505 1091.48 438.047
3071 0 121.212 10.8983 1321 123.45 1091.78 436.078
3072 0 126.213 10.823 1366 124.887 1092.5 432.209
3073 1 75.091 11.4395 859 113.737 1091.74 463.407
3074 0 74.0678 10.4364 773 117.549 1092.09 463.265
3075 0 77.0647 12.2105 941 114.278 1091.52 463.844
3076 0 80.3537 12.5943 1012 116.761 1093.73 458.082
3077 0 80.0557 12.6787 1015 121.062 1091.29 459.599
3078 0 82.0588 12.6738 1040 122.556 1091.21 457.847
3079 0 85.0549 14.2026 1208 119.91 1091.23 456.84
3080 0 87.1188 12.7183 1108 124.519 1091.91 457.548
3081 0 90.1274 13.6806 1233 123.82 1091.51 454.949
3082 0 91.1054 13.1716 1200 127.118 1091.05 452.137
3083 0 94.1185 13.7699 1296 126.758 1090.66 451.353
3084 0 94.1048 13.0812 1231 129.842 1090.34 451.35
3085 0 98.0466 12.7898 1254 132.305 1090.77 449.651
3086 0 103.108 13.7817 1421 129.217 1090.59 449.042
3087 0 105.057 13.4213 1410 131.443 1090.61 446.087
3088 0 106.136 13.4168 1424 132.261 1091.17 447.525
3089 0 110.074 13.6181 1499 131.669 1091.11 443.504
3090 0 111.133 13.3444 1483 133.253 1091.14 440.144
3091 0 114.148 12.0107 1371 128.634 1092.44 443.157
3092 0 114.241 10.7667 1230 131.613 1092.36 442.454
3093 0 117.146 11.3534 1330 130.176 1092.64 433.823
3094 0 121.106 11.94 1446 131.49 1091.89 438.831
3095 0 124.151 11.8807 1475 131.13 1092.13 432.374
3096 0 131.146 12.8101 1680 126.6 1092.12 433.434
3097 0 134.243 12.3284 1655 127.263 1092.43 428.938
3098 0 136.213 11.4967 1566 131.706 1092.38 423.347
3099 1 74.068 8.37069 620 127.477 1091.47 456.489
3100 0 79.1584 9.86629 781 123.748 1091.75 454.565
3101 0 81.1221 11.5875 940 119.737 1091.62 456.287
3102 0 83.1701 11.206 932 119.932 1091.85 454.685
3103 0 87.1043 11.5379 1005 118.828 1092.24 451.523
3104 0 90.148 11.6586 1051 117.679 1091.53 451.818
3105 0 90.1465 10.4497 942 122.512 1092.22 447.121
3106 0 95.1061 12.0812 1149 117.896 1091.73 447.781
3107 0 96.1584 12.6666 1218 117.357 1091.76 443.462
3108 0 101.199 12.6978 1285 117.054 1091.47 445.174
3109 0 104.166 12.1249 1263 119.671 1092.49 440.52
3110 0 107.135 12.1995 1307 119.34 1092.51 441.499
3111 0 109.189 12.7852 1396 118.113 1092.22 439.064
3112 0 109.196 12.8027 1398 127.071 1091.2 439.129
3113 0 115.084 12.3128 1417 119.265 1092.79 439.516
3114 0 119.131 12.2135 1455 119.897 1092.32 434.746
3115 0 122.072 11.0099 1344 123.162 1092.81 433.72
3116 0 129.132 12.6073 1628 118.909 1093.36 431.592
3117 0 134.168 13.2595 1779 117.42 1093.33 431.032
3118 0 135.24 13.3319 1803 117.72 1092.59 429.805
3119 0 140.18 12.8192 1797 119.425 1093 426.023
3120 0 144.197 13.2805 1915 118.399 1092.55 427.277
3121 0 148.158 12.8984 1911 120.163 1092.35 422.885
3122 0 153.209 13.4588 2062 119.127 1092.11 422.432
3123 0 157.318 11.8041 1857 124.934 1091.74 418.411
3124 0 164.242 13.267 2179 121.86 1091.76 415.749
3125 1 96.0558 10.4939 1008 120.248 1092.14 447.951
3126 0 100.282 12.2156 1225 116.686 1094.56 448.687
3127 0 104.094 12.7674 1329 115.406 1094.08 447.424
3128 0 107.193 14.0121 1502 111.734 1093.59 445.518
3129 0 111.309 12.928 1439 114.61 1092.71 443.589
3130 0 113.228 13.7069 1552 113.189 1093.3 439.978
3131 0 119.242 13.2336 1578 114.349 1093.03 440.565
3132 0 120.278 13.1611 1583 115.343 1093.9 439.347
3133 0 124.245 13.0549 1622 115.344 1094.05 437.777
3134 0 127.219 14.0309 1785 112.77 1093.99 435.246
3135 0 131.197 13.5445 1777 114.097 1094.24 433.212
3136 0 134.272 12.1097 1626 116.304 1094.29 429.978
3137 0 138.357 13.4652 1863 112.437 1094.45 427.354
3138 0 142.421 12.2735 1748 117.684 1093.42 421.629
3139 0 149.451 13.9979 2092 113.53 1093.95 419.238
3140 0 151.235 11.5251 1743 117.966 1094.12 411.885
3141 0 156.279 12.2985 1922 113.75 1094.07 412.854
3142 0 162.353 12.6268 2050 113.271 1094.05 411.668
3143 1 92.1336 10.0615 927 111.627 1093.55 448.45
3144 0 93.2422 10.0491 937 112.127 1093.92 447.689
3145 0 95.2904 10.4627 997 107.256 1094.64 444.024
3146 0 97.2568 10.6933 1040 108.007 1095.25 443.463
3147 0 100.338 10.056 1009 110.71 1094.85 442.693
3148 0 101.257 10.7054 1084 112.05 1094.32 439.48
3149 0 104.371 10.501 1096 113.26 1094.07 436.527
3150 0 105.226 11.2045 1179 113.251 1093.9 434.543
3151 0 110.192 10.3819 1144 115.952 1093.73 432.279
3152 0 115.256 13.2921 1532 108.227 1093.85 433.342
3153 0 118.269 11.6091 1373 112.506 1094.03 431.186
3154 0 120.33 11.9588 1439 112.28 1093.7 431.428
3155 0 122.195 10.9088 1333 114.286 1093.82 430.14
3156 0 125.265 11.0725 1387 115.125 1094.26 423.368
3157 0 129.307 10.6878 1382 116.918 1094.79 419.475
3158 0 134.445 10.8149 1454 115.113 1094.61 422.041
3159 0 140.372 11.5479 1621 113.157 1094.3 420.492
3160 0 145.29 12.0035 1744 111.654 1094.31 416.389
3161 0 151.382 12.2207 1850 110.781 1094.32 417.156
3162 0 152.294 11.7339 1787 112.926 1094.49 413.828
3163 0 157.407 11.5687 1821 114.622 1094.89 407.475
3164 0 164.343 12.6565 2080 111.57 1094.72 407.658
3165 0 168.471 11.4263 1925 115.786 1094.38 402.492
3166 0 169.363 11.3248 1918 116.433 1093.97 400.423
3167 0 173.308 11.4651 1987 117.164 1094.37 397.984
3168 0 183.272 13.0953 2400 111.283 1094.33 396.593
3169 0 191.33 12.6169 2414 111.98 1093.75 394.989
3170 0 193.298 13.2489 2561 111.167 1093.82 391.187
3171 1 7.0002 3.42848 24 77.0833 1092.29 492.542
3172 0 9.00218 3.99903 36 72.6944 1091.69 493.389
3173 0 8.00201 4.87378 39 73.6667 1092.18 492.615
3174 0 9.00307 5.55366 50 74.3 1092.34 492.96
3175 0 10.0048 6.99661 70 75.9714 1090.9 491.629
3176 0 10.0012 2.39971 24 75.4583 1091.29 493.917
3177 0 10.0015 6.39902 64 73.4531 1092.2 492.391
3178 0 10.0014 4.89933 49 74.3265 1091.27 492.653
3179 0 8.0003 4.74982 38 76 1090.87 493.395
3180 0 10.0006 2.09988 21 79.619 1090.9 489.476
3181 0 12.0009 4.66631 56 76.1964 1091.14 491.571
3182 0 12.0022 3.66599 44 77.2045 1091.98 491.409
3183 0 14.0024 6.9274 97 74.3608 1091.39 489.443
3184 1 66.1476 10.4614 692 84.711 1092.37 461.864
3185 0 67.0444 7.99471 536 90.3396 1093.29 464.513
3186 0 67.0888 11.0749 743 92.7402 1094.45 465.743
3187 0 71.0639 10.4835 745 95.4309 1094.35 463.587
3188 0 72.063 11.934 860 97.1837 1094.38 465.023
3189 0 74.0607 12.2467 907 96.7133 1094.61 464.148
3190 0 78.095 13.2403 1034 94.2186 1094.88 462.093
3191 0 80.0981 11.0864 888 99.7894 1094.91 461.159
3192 0 81.0847 11.8765 963 98.9252 1093.91 461.593
3193 0 83.0399 12.0665 1002 98.5928 1094.97 460.451
3194 0 84.0321 11.8288 994 100.692 1094.82 458.076
3195 0 84.1277 11.8867 1000 95.065 1094.25 460.635
3196 0 85.1304 12.0286 1024 97.1045 1093.97 460.773
3197 0 87.1287 10.2148 890 102.198 1094.34 457.055
3198 0 90.1531 11.425 1030 101.117 1093.79 452.011
3199 0 97.2159 13.4443 1307 97.9832 1094.11 425.295
3200 0 99.1317 12.9222 1281 100.681 1094.87 422.758
3201 0 100.116 13.0948 1311 101.733 1094.66 423.554
3202 0 102.092 13.7817 1407 102.171 1094.1 417.691
3203 0 105.206 13.4783 1418 103.475 1094.55 414.255
3204 0 108.067 14.1579 1530 102.116 1094.17 413.099
3205 0 110.068 14.9998 1651 100.645 1094.13 416.303
3206 0 110.163 13.4165 1478 104.893 1093.73 421.775
3207 0 115.262 16.8398 1941 97.0479 1093.79 423.365
3208 0 116.16 14.7555 1714 102.052 1093.23 418.956
3209 0 120.116 14.7857 1776 101.532 1093.69 423.116
3210 0 122.193 13.3232 1628 105.754 1093.73 418.329
3211 0 120.174 12.3155 1480 106.588 1093.25 413.814
3212 0 126.222 12.066 1523 107.318 1092.6 419.851
3213 0 130.177 12.9055 1680 104.606 1092.26 424.716
3214 0 134.137 13.4638 1806 104.69 1091.92 420.047
3215 1 74.052 11.0868 821 96.6285 1091.92 462.083
3216 0 74.045 9.73732 721 103.381 1092.19 454.817
3217 0 79.0926 11.5687 915 98.5005 1092.03 458.228
3218 0 81.086 12.3449 1001 91.045 1092.13 455.733
3219 0 84.163 12.048 1014 92.145 1092.7 454.55
3220 0 83.0693 11.4603 952 94.6891 1092.59 454.858
3221 0 86.1584 11.0726 954 96.7044 1092.63 451.824
3222 0 90.0931 10.6112 956 97.7552 1092.6 449.584
3223 0 91.1806 13.1497 1199 87.5663 1092.31 450.004
3224 0 93.1652 12.1183 1129 96.1568 1092.74 450.43
3225 0 95.1714 11.2744 1073 98.89 1093.16 446.5
3226 0 97.1006 12.142 1179 96.4843 1092.05 447.088
3227 0 98.1568 13.3766 1313 94.8248 1093.25 443.24
3228 0 101.073 11.4472 1157 99.2316 1092.66 441.007
3229 0 105.137 12.2412 1287 98.1927 1092.28 441.891
3230 0 105.145 13.5908 1429 97.5703 1092.56 440.369
3231 0 108.141 11.522 1246 102.833 1092.21 435.995
3232 0 112.19 11.8995 1335 102.913 1092 436.207
3233 0 114.213 12.0389 1375 102.695 1091.87 438.644
3234 0 122.223 12.9599 1584 100.328 1092.02 440.086
3235 0 124.258 13.4801 1675 100.87 1091.41 437.143
3236 0 126.203 12.5275 1581 102.643 1092.22 434.774
3237 0 133.221 11.9426 1591 104.343 1091.98 430.12
3238 0 136.205 11.5487 1573 105.467 1092.09 428.013
3239 0 141.272 12.2954 1737 104.814 1092.01 421.374
3240 1 79.1184 9.7828 774 99.5917 1092.35 454.054
3241 0 79.0982 10.8726 860 98.6349 1092.58 456.999
3242 0 83.0872 10.8079 898 97.971 1094.08 459.576
3243 0 87.0608 12.8186 1116 94.8674 1094.25 456.82
3244 0 89.0817 11.2032 998 100.666 1094.15 454.049
3245 0 91.0758 12.4841 1137 99.2401 1094.3 456.976
3246 0 95.1567 14.2187 1353 96.4154 1094.58 454.494
3247 0 97.1662 13.0292 1266 100.124 1094.34 451.694
3248 0 100.158 13.4388 1346 100.195 1094.24 449.133
3249 0 103.123 12.1796 1256 102.193 1094.26 449.618
3250 0 105.11 11.7781 1238 105.193 1094.18 447.91
3251 0 108.117 13.1987 1427 103.362 1094.38 444.611
3252 0 110.259 12.4525 1373 104.733 1093.93 445.681
3253 0 112.219 11.8162 1326 106.814 1093.79 438.906
3254 0 118.148 12.7213 1503 104.344 1093.55 437.752
3255 0 121.122 10.9806 1330 108.326 1094.03 436.293
3256 0 128.146 13.0399 1671 106.16 1093.68 435.362
3257 0 131.109 12.1502 1593 108.592 1094.23 430.449
3258 1 80.0895 10.2261 819 105.796 1094.84 457.094
3259 0 79.0953 9.01444 713 107.912 1094.64 452.22
3260 0 86.0753 12.8841 1109 105.336 1094.94 456.489
3261 0 88.0698 11.3887 1003 108.638 1094.69 457.674
3262 0 88.0863 10.3535 912 112.236 1094.69 456.265
3263 0 92.1158 11.5398 1063 110.233 1094.67 455.818
3264 0 94.1478 11.397 1073 111.447 1094.61 450.302
3265 0 100.192 11.967 1199 110.407 1093.79 451.708
3266 0 99.1523 11.558 1146 113.82 1094.13 449.169
3267 0 105.245 12.4947 1315 112.265 1092.69 446.816
3268 0 108.374 12.0601 1307 113.816 1092.74 445.455
3269 0 108.21 12.0507 1304 115.507 1092.87 442.41
3270 0 114.26 12.8391 1467 112.901 1092.7 440.556
3271 0 118.319 13.1509 1556 112.707 1092.69 435.731
3272 0 121.376 14.3109 1737 110.034 1092.49 431.757
3273 0 121.31 11.3429 1376 116.164 1093.28 432.083
3274 0 128.21 13.6495 1750 110.935 1092.68 429.099
3275 1 71.069 9.54003 678 113.513 1093.9 455.022
3276 0 73.1062 11.8184 864 109.399 1093.86 455.927
3277 0 77.3434 11.4683 887 107.679 1093.67 455.249
3278 0 79.142 10.1969 807 107.96 1093.25 455.213
3279 0 84.1737 12.5692 1058 102.597 1093.22 455.9
3280 0 86.2402 12.5579 1083 102.367 1093.97 459.291
3281 0 87.1259 12.3729 1078 106.136 1093.52 453.62
3282 0 89.1005 11.4926 1024 110.253 1093.82 453.006
3283 0 91.2186 13.1333 1198 108.41 1094.45 450.988
3284 0 94.2003 12.0169 1132 110.537 1093.09 451.748
3285 0 98.2829 11.0904 1090 112.874 1093.35 449.039
3286 0 99.167 12.3529 1225 111.687 1093.73 445.498
3287 0 102.238 12.8035 1309 111.128 1093.44 445.8
3288 0 105.271 12.919 1360 111.251 1093.38 444.501
3289 0 109.366 12.5359 1371 112.536 1093.02 440.293
3290 0 109.374 12.4801 1365 130.081 1092.04 440.298
3291 0 115.378 12.7667 1473 113.702 1092.21 437.716
3292 0 117.283 12.4315 1458 113.413 1092.46 440.174
3293 0 121.295 11.74 1424 114.777 1092.45 436.546
3294 0 125.262 13.0446 1634 112.816 1091.71 433.724
3295 0 126.242 12.27 1549 114.677 1091.74 432.231
3296 0 134.254 11.7688 1580 114.654 1091.86 430.697
3297 0 137.269 13.2805 1823 110.805 1092.35 433.384
3298 0 141.325 11.4488 1618 116.786 1092.58 422.01
3299 0 150.235 13.186 1981 112.278 1092.87 423.366
3300 0 152.186 12.0116 1828 117.181 1092.72 417.838
3301 0 157.225 11.9192 1874 119.269 1093.51 419.917
3302 0 165.218 13.4913 2229 116.233 1093.45 418.011
3303 1 96.2542 11.8125 1137 111.876 1093.41 451.548
3304 0 98.2052 12.7183 1249 109.999 1093.46 450.607
3305 0 102.248 13.3206 1362 112.57 1094.15 449.628
3306 0 102.249 12.675 1296 115.938 1093.81 446.205
3307 0 108.33 13.1265 1422 115.008 1094.14 446.613
3308 0 105.344 11.6286 1225 121.523 1094.57 443.3
3309 0 114.228 13.333 1523 115.979 1093.66 443.595
3310 0 116.337 13.0311 1516 116.499 1093.99 441.294
3311 0 122.396 12.7292 1558 117.539 1093.89 438.612
3312 0 125.137 12.6102 1578 115.23 1094.06 437.384
3313 0 132.191 14.4564 1911 111.413 1094.73 435.774
3314 0 132.219 13.3037 1759 116.362 1094.81 430.989
3315 1 74.0874 11.3785 843 114.591 1095.63 462.281
3316 0 75.1008 11.398 856 119.757 1094.04 453.022
3317 0 79.1184 13.1575 1041 114.232 1092.99 455.279
3318 0 76.0447 11.9798 911 122.322 1093.33 452.666
3319 0 82.0338 12.5314 1028 120.387 1093.05 455.947
3320 0 84.038 11.8399 995 122.927 1093.17 452.87
3321 0 86.0808 12.163 1047 123.426 1093.34 452.241
3322 0 91.0447 12.719 1158 122.676 1092.75 451.756
3323 0 92.0723 13.3156 1226 123.678 1093.24 446.885
3324 0 95.136 14.7263 1401 121.251 1093.17 445.76
3325 0 98.0942 12.6919 1245 128.3 1092.71 444.916
3326 0 101.076 12.9209 1306 128.958 1093.02 445.135
3327 0 106.196 14.3132 1520 126.084 1093.41 441.759
3328 0 108.113 13.8096 1493 129.171 1093.75 439.924
3329 0 110.134 13.6016 1498 130.49 1093.92 439.856
3330 0 114.166 13.5679 1549 131.68 1093.91 436.976
3331 0 122.125 14.8782 1817 125.691 1093.31 434.859
3332 0 124.095 13.1834 1636 132.318 1093.43 430.474
3333 0 129.115 13.5693 1752 127.099 1093.55 432.47
3334 1 72.1204 10.5657 762 131.23 1094.1 456.57
3335 0 76.1682 12.6299 962 126.348 1092.6 453.347
3336 0 79.0892 11.9865 948 126.82 1092.37 454.525
3337 0 84.0718 12.2276 1028 124.108 1092.2 454.117
3338 0 87.0747 13.1956 1149 122.283 1092.07 452.017
3339 0 85.0386 11.7476 999 129.691 1092.31 449.755
3340 0 89.1222 13.0383 1162 126.058 1092.15 447.391
3341 0 94.0854 13.6897 1288 123.622 1092.76 447.314
3342 0 96.0931 12.2694 1179 124.74 1093.59 444.772
3343 0 97.1931 12.9639 1260 123.155 1092.9 447.375
3344 0 98.1531 11.8285 1161 129.006 1092.81 442.537
3345 0 105.118 13.6323 1433 123.613 1093.31 441.447
3346 0 106.189 13.4288 1426 124.364 1093.39 441.034
3347 0 111.077 12.973 1441 126.617 1093.46 439.442
3348 0 113.151 13.725 1553 125.632 1092.65 439.486
3349 0 115.069 11.5409 1328 132.355 1092.53 441.477
3350 0 122.195 13.3885 1636 132.498 1093.52 440.203
3351 0 126.204 12.7334 1607 134.943 1095.01 436.138
3352 1 68.113 11.1432 759 130.31 1095.38 459.456
3353 0 73.0565 12.1002 884 126.784 1093.22 459.782
3354 0 73.0391 13.2532 968 127.274 1092.9 457.876
3355 0 75.0787 12.9331 971 128.074 1093.06 459.058
3356 0 78.0683 13.1551 1027 128.422 1092.91 457.612
3357 0 79.0437 12.2084 965 132.324 1093.03 455.849
3358 0 82.0401 13.0302 1069 130.232 1092.79 455.177
3359 0 86.038 13.8892 1195 128.56 1092.51 454.269
3360 0 88.0574 13.9568 1229 129.398 1092.57 452.157
3361 0 90.0805 13.388 1206 132.349 1092.75 449.645
3362 0 93.0749 13.5375 1260 132.521 1093.29 449.395
3363 0 96.0713 13.771 1323 131.805 1092.52 450.245
3364 0 98.0696 13.7249 1346 132.858 1092.86 448.692
3365 0 102.076 13.7054 1399 133.73 1092.95 447.846
3366 0 105.07 13.096 1376 137.534 1092.96 443.698
3367 0 109.051 14.3786 1568 134.122 1092.79 442.927
3368 0 111.104 13.8968 1544 135.848 1092.86 441.051
3369 0 114.052 13.5727 1548 136.995 1093.2 438.149
3370 0 117.062 13.7533 1610 137.239 1092.95 435.604
3371 0 117.139 13.0187 1525 141.096 1092.91 432.129
3372 0 122.113 13.2828 1622 138.916 1093.79 434.019
3373 0 130.224 13.5382 1763 136.751 1093.39 432.355
3374 1 71.0652 10.7225 762 131.269 1092.61 460.713
3375 0 75.1036 11.0913 833 130.576 1093.25 456.825
3376 0 76.1203 11.3505 864 130.613 1093.7 455.694
3377 0 79.1581 12.254 970 129.141 1093.17 451.488
3378 0 82.1605 12.0861 993 128.479 1092.63 451.79
3379 0 86.1748 12.347 1064 126.157 1092.79 451.635
3380 0 87.1815 12.8582 1121 125.576 1092.45 449.062
3381 0 87.2117 12.2461 1068 129.081 1092.45 446.638
3382 0 91.1819 11.6909 1066 129.377 1092.17 447.845
3383 0 93.1103 12.3939 1154 127.828 1092.92 445.548
3384 0 97.1874 13.0058 1264 125.955 1093.53 444.972
3385 0 99.151 13.0004 1289 127.349 1093.12 442.13
3386 0 104.149 14.8633 1548 121.452 1093.22 441.979
3387 0 106.253 12.1784 1294 129.318 1093.13 439.403
3388 0 109.167 12.3114 1344 128.696 1093.57 439.558
3389 0 113.082 13.8307 1564 120.169 1094.22 442.498
3390 0 115.142 13.0708 1505 124.843 1093.65 437.426
3391 0 121.088 13.4778 1632 123.14 1093.58 437.854
3392 0 122.095 11.4256 1395 129.105 1092.77 430.539
3393 0 129.246 12.6812 1639 126.189 1093.08 429.8
3394 0 131.226 12.2918 1613 128.422 1093.63 424.251
3395 1 71.0987 7.28565 518 131.844 1094.06 454.154
3396 0 76.1396 11.584 882 120.304 1093.6 455.444
3397 0 75.1434 11.0189 828 122.694 1094.08 454.171
3398 0 80.1602 11.215 899 124.397 1094.1 451.882
3399 0 83.0712 13.3379 1108 119.316 1093.85 451.459
3400 0 85.0664 12.6019 1072 122.465 1093.18 447.717
3401 0 84.0782 10.3832 873 130.165 1093.29 446.065
3402 0 90.0805 11.1123 1001 126.443 1093.29 447.426
3403 0 89.0406 11.6014 1033 129.184 1093.34 440.257
3404 0 96.0914 12.5818 1209 125.429 1093.98 442.948
3405 0 99.0996 11.8164 1171 127.67 1093.7 443.708
3406 0 100.132 10.8157 1083 131.113 1093.37 441.262
3407 0 108.254 11.6577 1262 126.984 1093.06 440.307
3408 0 109.199 12.2986 1343 126.454 1092.4 434.393
3409 0 113.171 13.2808 1503 123.997 1093.54 436.069
3410 0 116.099 11.404 1324 130.017 1094.45 438.126
3411 0 125.18 12.1345 1519 125.314 1094.57 438.91
3412 0 127.1 12.0535 1532 126.458 1094.55 434.008
3413 1 73.1603 10.4291 763 119.742 1094.74 461.072
3414 0 75.1663 11.2817 848 116.592 1094.21 455.834
3415 0 78.1333 10.9428 855 114.409 1094.89 456.013
3416 0 82.2273 11.225 923 107.575 1093.76 454.017
3417 0 83.1013 9.97578 829 111.803 1093.21 450.698
3418 0 86.1384 12.1781 1049 107.169 1093.55 450.626
3419 0 88.1019 11.8159 1041 109.01 1093.46 446.888
3420 0 90.1588 11.3688 1025 110.091 1093.56 448.349
3421 0 94.1671 12.361 1164 108.814 1093.04 448.057
3422 0 99.178 12.1599 1206 109.611 1093.14 444.466
3423 0 102.16 11.9909 1225 110.775 1092.3 443.179
3424 0 103.116 12.1901 1257 113.363 1093 440.375
3425 0 104.129 11.5626 1204 117.52 1093.11 438.143
3426 0 109.263 12.2822 1342 117.6 1092.87 439.161
3427 0 112.067 12.6353 1416 120.252 1094.1 436.456
3428 0 115.159 12.9125 1487 122.35 1094.47 436.209
3429 0 119.193 12.8783 1535 122.712 1093.68 433.209
3430 0 124.168 14.118 1753 119.868 1092.97 431.797
3431 1 69.0317 11.2412 776 118.177 1091.98 463.633
3432 0 72.2017 11.8695 857 119.4 1092.1 466.448
3433 0 74.0694 12.0833 895 120.493 1091.63 464.078
3434 0 77.0511 12.3684 953 120.528 1091.64 463.276
3435 0 81.0724 13.2351 1073 118.48 1091.86 462.518
3436 0 82.0659 12.624 1036 120.826 1092.18 462.335
3437 0 85.0658 12.5315 1066 121.854 1091.85 460.768
3438 0 88.1165 14.2766 1258 117.945 1092.02 458.809
3439 0 91.1466 13.769 1255 118.896 1091.62 458.072
3440 0 90.121 13.1379 1184 122.96 1092.05 454.465
3441 0 94.0771 14.892 1401 118.257 1091.65 453.489
3442 0 97.1118 14.4061 1399 119.977 1091.61 454.269
3443 0 100.061 13.8216 1383 122.021 1091.34 450.717
3444 0 105.066 14.2957 1502 120.176 1090.94 451.294
3445 0 109.088 15.3454 1674 117.312 1091.36 450.254
3446 0 109.094 14.4829 1580 121.393 1091.61 446.664
3447 0 112.083 14.3465 1608 122.29 1091.26 446.366
3448 0 116.117 14.3906 1671 122.882 1092.2 443.009
3449 0 120.191 14.9013 1791 121.731 1092.64 442.266
3450 0 124.155 13.902 1726 123.673 1092.64 439.315
3451 0 129.118 14.3203 1849 123.24 1092.46 436.577
3452 0 131.215 13.5045 1772 127.431 1094.17 436.033
3453 0 137.225 13.9406 1913 125.802 1094.05 433.26
3454 0 142.104 13.6097 1934 126.611 1094.02 432.018
3455 0 147.223 14.04 2067 125.934 1094.15 429.977
3456 0 150.293 13.3872 2012 128.809 1093.35 426.274
3457 0 156.221 13.929 2176 127.779 1093.77 424.069
3458 0 161.332 13.4939 2177 128.886 1093.33 422.152
3459 0 168.274 13.7276 2310 128.403 1092.87 421.869
3460 0 172.227 14.4054 2481 127.123 1092.58 418.655
3461 0 175.232 13.5135 2368 130.882 1092.48 414.032
3462 0 180.315 13.7759 2484 131.889 1092.81 404.827
3463 0 184.227 13.7114 2526 130.276 1092.33 403.492
3464 0 191.302 13.5022 2583 132.185 1091.45 400.693
3465 0 199.28 14.6829 2926 128.522 1091.05 399.208
3466 0 205.432 14.1604 2909 130.174 1090.5 396.182
3467 0 209.261 14.145 2960 132.05 1090.53 397.109
3468 0 216.558 14.1163 3057 133.435 1090.5 387.598
3469 1 167.39 12.3006 2059 136.778 1091.1 414.123
3470 0 171.351 11.707 2006 139.741 1091.22 409.227
3471 0 179.357 15.0873 2706 126.583 1091.3 407.722
3472 0 186.337 14.463 2695 127.996 1091.19 403.12
3473 0 192.266 15.3902 2959 124.725 1091.34 404.202
3474 0 197.327 14.1795 2798 129.95 1091.45 397.818
3475 0 203.268 14.7539 2999 129.781 1091.54 391.297
3476 0 209.266 13.7433 2876 133.484 1091.45 388.692
3477 1 56.1235 10.1205 568 119.255 1092.62 467.359
3478 0 57.2376 10.5874 606 117.779 1092.42 464.616
3479 0 60.0443 11.6914 702 110.64 1090.95 467.101
3480 0 58.0589 10.5238 611 116.408 1090.28 464.242
3481 0 63.0329 11.6923 737 112.334 1091.2 465.366
3482 0 62.0797 11.0181 684 124.05 1090.68 464.63
3483 0 66.1305 12.3695 818 120.699 1090.55 469.656
3484 0 68.0913 13.2176 900 118.99 1090.45 469.654
3485 0 69.0824 12.7674 882 121.4 1091.24 469.849
3486 0 72.1136 13.3539 963 121.022 1091.16 466.434
3487 0 73.072 12.344 902 123.627 1090.21 467.125
3488 0 76.1391 13.2521 1009 122.436 1089.79 463.108
3489 0 79.0233 13.7934 1090 121.742 1089.79 460.398
3490 0 82.1255 13.1141 1077 123.568 1090.73 460.69
3491 0 83.0439 15.0764 1252 119.216 1090.08 459.451
3492 0 83.0346 13.5124 1122 125.521 1090.51 459.13
3493 0 87.1718 14.0757 1227 123.535 1090.38 457.172
3494 0 91.0994 14.314 1304 122.989 1090.57 456.471
3495 0 93.1029 14.4142 1342 122.087 1091.09 457.282
3496 0 94.1329 13.4278 1264 126.267 1091.08 455.555
3497 0 98.1663 13.8337 1358 125.241 1091.55 454.617
3498 0 100.082 13.5489 1356 126.153 1091.04 445.437
3499 0 102.121 12.9454 1322 131.462 1090.9 448.908
3500 1 60.0441 10.6089 637 129.885 1091.12 473.914
3501 0 62.1325 11.5077 715 128.73 1093.37 472.78
3502 0 64.1547 11.3476 728 123.666 1092.93 464.257
3503 0 66.191 10.9532 725 124.581 1093.03 460.786
3504 0 68.1026 12.2756 836 122.496 1092.87 466.618
3505 0 68.2772 11.1311 760 127.243 1092.66 461.732
3506 0 72.2032 12.4371 898 122.332 1093.35 462.151
3507 0 69.2581 11.3055 783 125.642 1092.58 460.701
3508 0 75.1993 13.0586 982 118.638 1092.75 465.714
3509 0 79.1863 12.7168 1007 119.322 1092.35 466.157
3510 0 79.1158 12.172 963 120.947 1092.32 464.938
3511 0 81.1004 11.4426 928 122.661 1092.85 464.612
3512 0 84.0884 12.0231 1011 120.455 1092.3 464.676
3513 0 87.2109 12.487 1089 122.599 1093.2 459.45
3514 0 90.1684 13.4748 1215 120.225 1092.93 458.542
3515 0 94.1644 12.7543 1201 121.367 1092.1 458.898
3516 0 94.1901 12.8994 1215 122.58 1092.88 457.14
3517 0 98.1774 13.2719 1303 124.312 1093.5 455.446
3518 0 100.315 12.7499 1279 127.24 1093.34 451.485
3519 0 104.176 15.0515 1568 121.539 1093.22 449.987
3520 0 106.155 13.5368 1437 125.647 1093.4 449.612
3521 0 110.185 15.0564 1659 121.816 1092.72 444.081
3522 1 62.0835 11.1946 695 120.672 1093.61 473.435
3523 0 62.0956 10.516 653 122.591 1092.89 471.391
3524 0 66.1061 13.7355 908 115.579 1093.81 469.337
3525 0 66.1326 12.5052 827 117.95 1093.03 469.805
3526 0 71.1203 13.892 988 114.475 1092.74 467.818
3527 0 73.1305 13.2503 969 117.062 1092.43 466.065
3528 0 74.1578 13.6061 1009 117.406 1093.28 465.508
3529 0 75.0801 13.399 1006 120.261 1093.36 462.743
3530 0 78.0986 12.3946 968 123.418 1093.2 463.076
3531 0 80.0991 12.3222 987 124.554 1094.01 461.965
3532 0 83.0683 12.4957 1038 126.031 1093.5 460.138
3533 0 86.1286 12.5394 1080 127.082 1092.73 460.15
3534 0 89.2049 13.3737 1193 125.358 1092.99 459.899
3535 0 91.1441 13.5171 1232 125.233 1093.63 459.263
3536 0 93.2205 13.4949 1258 127.151 1092.98 456.781
3537 0 97.1453 13.032 1266 129.066 1093.16 454.526
3538 0 100.33 13.0968 1314 128.979 1093.09 454.026
3539 0 101.404 13.0468 1323 130.658 1093.51 451.172
3540 0 102.362 13.0322 1334 131.695 1092.72 447.379
3541 0 106.327 13.2515 1409 132.361 1092.72 444.385
3542 0 110.481 13.6222 1505 130.599 1092.98 443.367
3543 0 116.756 13.7552 1606 129.846 1093.33 440.991
3544 0 117.455 13.2902 1561 131.984 1093.08 439.508
3545 0 121.457 13.1404 1596 131.994 1092.3 437.82
3546 0 128.53 14.5103 1865 128.479 1092.42 432.152
3547 0 132.471 13.6181 1804 131.769 1092.82 428.501
3548 1 74.3203 11.9617 889 123.984 1092.56 461.12
3549 0 76.2337 11.8189 901 125.498 1092.45 459.809
3550 0 78.1658 13.2155 1033 122.315 1092.73 463.321
3551 0 80.0948 12.7599 1022 124.5 1093.05 460.386
3552 0 82.1476 12.0637 991 126.396 1093.15 460.416
3553 0 86.3336 12.4054 1071 125.148 1093.55 460.262
3554 0 89.1966 12.0184 1072 127.333 1093.52 456.41
3555 0 92.298 11.6687 1077 128.203 1093.5 455.058
3556 0 94.2578 12.1369 1144 128.906 1093.28 452.147
3557 0 97.2535 12.1744 1184 129.284 1092.6 450.372
3558 0 100.321 13.0182 1306 127.589 1093.8 445.901
3559 0 105.399 12.5618 1324 127.149 1093.17 448.233
3560 0 108.37 13.9615 1513 125.404 1093.49 443.968
3561 0 110.371 12.9473 1429 128.206 1092.75 444.016
3562 0 114.319 12.8676 1471 129.827 1092.72 441.801
3563 0 119.459 13.7871 1647 127.616 1092.84 440.775
3564 0 122.436 13.5255 1656 129.217 1092.71 438.249
3565 0 128.254 14.5571 1867 125.881 1093.32 438.387
3566 0 129.278 12.2062 1578 134.143 1093.06 436.65
3567 0 135.333 13.6256 1844 129.943 1092.94 435.152
3568 1 78.2568 12.344 966 128.241 1093.25 462.79
3569 0 81.116 11.9089 966 123.773 1093.17 457.878
3570 0 83.1256 12.415 1032 122.533 1093.19 458.08
3571 0 86.0962 13.694 1179 121.978 1093.06 456.165
3572 0 88.1197 12.8235 1130 125.348 1093.68 455.559
3573 0 90.1473 13.4558 1213 124.868 1093.99 455.738
3574 0 96.1075 13.8699 1333 123.137 1093.46 454.972
3575 0 99.2047 12.9631 1286 126.154 1093.89 453.858
3576 0 100.155 13.6787 1370 126.758 1093.61 449.428
3577 0 103.112 14.2079 1465 124.752 1093.68 449.486
3578 0 105.142 13.8194 1453 127.575 1093.6 449.17
3579 0 110.191 13.7851 1519 128.189 1093.45 445.908
3580 0 113.182 13.6152 1541 127.707 1093.34 442.83
3581 0 119.221 14.4437 1722 124.794 1093 438.877
3582 0 121.166 13.3784 1621 129.812 1093.9 433.047
3583 1 68.1229 12.0811 823 126.118 1094.79 462.505
3584 0 71.3523 13.076 933 123.113 1093.35 462.802
3585 0 72.1233 12.7698 921 124.864 1094.15 459.375
3586 0 75.1233 13.4046 1007 122.221 1094.46 460.526
3587 0 77.0699 12.3913 955 125.499 1094.06 459.487
3588 0 79.1392 13.3562 1057 124.819 1093.47 456.702
3589 0 83.0691 13.1216 1090 125.364 1093.96 455.795
3590 0 85.1961 13.557 1155 125.175 1094.2 455.505
3591 0 89.1148 14.8348 1322 121.156 1094.02 453.714
3592 0 91.11 13.7965 1257 125.894 1093.63 452.71
3593 0 92.1426 12.8605 1185 123.801 1093.19 455.391
3594 0 96.1791 13.4125 1290 123.068 1092.9 454.912
3595 0 98.1612 14.1909 1393 130.738 1092.64 455.093
3596 0 102.082 13.8124 1410 131.138 1093.73 454.241
3597 0 104.119 14.7811 1539 129.353 1093.28 454.008
3598 0 107.102 15.3218 1641 128.594 1093.04 450.749
3599 0 109.102 13.9686 1524 134.315 1093.14 449.335
3600 0 112.104 14.6381 1641 133.283 1092.98 448.041
3601 0 115.126 14.9141 1717 132.144 1093.51 445.51
3602 0 118.147 15.2945 1807 129.418 1093.59 439.11
3603 0 124.166 14.8188 1840 130.004 1093.51 439.17
3604 0 125.08 16.0297 2005 128.606 1094.03 437.642
3605 0 129.144 14.6193 1888 134.146 1094.15 432.519
3606 0 134.231 15.1455 2033 133.327 1093.89 429.493
3607 0 139.172 14.5001 2018 135.08 1094.22 430.26
3608 0 141.129 14.136 1995 137.95 1093.78 426.518
3609 0 148.315 14.8063 2196 134.792 1094.28 426.43
3610 0 153.174 15.3616 2353 135.056 1093.39 422.706
3611 0 158.155 14.783 2338 136.021 1093.65 423.086
3612 0 162.2 14.7287 2389 137.361 1093.64 419.208
3613 0 165.198 14.2314 2351 132.731 1093.21 415.266
3614 0 172.24 15.2694 2630 129.83 1093.69 412.598
3615 0 177.295 15.0991 2677 131.048 1093.62 410.931
3616 0 182.248 16.1922 2951 128.498 1093.41 408.812
3617 0 188.284 15.9334 3000 130.123 1093.56 404.064
3618 0 193.197 14.7156 2843 133.856 1093.13 400.952
3619 0 202.241 15.6793 3171 130.56 1094.27 397.649
3620 0 208.214 15.1863 3162 133.397 1093.41 391.995
3621 0 215.329 15.5204 3342 132.643 1094.17 386.919
3622 0 224.282 15.3066 3433 133.547 1094.07 384.372
3623 0 230.429 14.9113 3436 136.753 1094.73 381.694
3624 0 239.435 16.0921 3853 131.103 1094.08 370.253
3625 0 248.3 17.0882 4243 128.584 1094.42 368.758
3626 0 246.449 12.7653 3146 139.545 1094.61 372.695
3627 0 246.462 10.667 2629 143.472 1095.2 376.403
3628 0 369.188 24.0582 8882 105.998 1094.95 292.15
3629 1 58.1543 9.59517 558 120.887 1095.66 470.373
3630 0 61.0802 10.8055 660 119.162 1095.01 470.553
3631 0 62.0614 11.4886 713 120.048 1093.13 471.482
3632 0 67.1359 12.6013 846 116.604 1093.6 471.161
3633 0 68.0907 12.0428 820 118.834 1093.09 468.095
3634 0 71.064 12.4395 884 108.853 1095.33 469.399
3635 0 71.12 10.3628 737 114.339 1094.72 468.03
3636 0 73.0656 11.8387 865 111.755 1094.25 465.212
3637 0 75.0678 11.0034 826 113.668 1093.78 463.92
3638 0 80.1751 12.7221 1020 109.282 1094.08 463.624
3639 0 82.222 12.15 999 111.072 1093.52 461.557
3640 0 82.0928 10.5247 864 116.75 1093.97 460.9
3641 0 88.0861 12.0564 1062 113.928 1093.59 458.575
3642 1 102.189 16.0291 1638 98.1923 1094.08 451.306
3643 0 99.2934 14.8147 1471 106.247 1094.32 452.36
3644 0 100.067 12.8114 1282 114.165 1094.55 455.46
3645 0 102.091 13.1745 1345 114.333 1094.05 453.129
3646 0 108.115 16.5934 1794 103.757 1093.2 453.293
3647 0 111.112 15.8849 1765 107.333 1093.79 449.724
3648 1 68.1509 12.6631 863 111.769 1092.81 472.207
3649 0 70.1456 14.0707 987 109.793 1092.57 471.523
3650 0 74.1258 13.0724 969 112.384 1092.63 471.027
3651 0 75.1167 13.6454 1025 111.951 1093 471.402
3652 0 76.1399 13.3964 1020 114.22 1092.72 469.749
3653 0 79.1428 13.1534 1041 115.661 1092.8 467.528
3654 0 78.1372 12.862 1005 119.248 1092.99 465.746
3655 0 83.0903 13.5756 1128 115.598 1092.78 468.538
3656 0 84.1434 13.1799 1109 118.784 1092.73 466.142
3657 0 86.0685 13.3266 1147 119.894 1092.85 464.079
3658 0 91.077 13.4611 1226 119.148 1092.98 464.505
3659 0 93.0983 14.0497 1308 118.833 1092.82 461.626
3660 0 96.0763 12.6878 1219 122.791 1093.03 460.952
3661 0 98.0579 12.8394 1259 124.352 1092.68 458.392
3662 0 102.072 13.2455 1352 123.171 1092.74 457.524
3663 1 58.0492 11.9209 692 124.169 1094.32 478.902
3664 0 61.4031 14.5107 891 118.634 1093.27 477.174
3665 0 62.0852 13.4815 837 119.345 1092.74 476.081
3666 0 64.1519 13.6551 876 119.192 1092.67 474.684
3667 0 66.1403 14.2273 941 118.58 1093.07 474.074
3668 0 68.1365 13.2235 901 121.523 1092.63 473.92
3669 0 69.1586 12.8111 886 123.631 1092.87 473.315
3670 0 71.1074 14.3164 1018 120.472 1093.23 471.185
3671 0 74.1437 14.364 1065 121.155 1093.19 470.681
3672 0 73.1066 12.5844 920 133.558 1093.1 470.448
3673 0 76.1379 13.226 1007 131.933 1093.16 468.047
3674 0 79.2036 14.4312 1143 128.416 1092.61 467.133
3675 0 81.1168 12.895 1046 130.718 1092.65 468.759
3676 0 81.1448 12.8412 1042 132.937 1093.19 465.998
3677 0 86.2366 13.1267 1132 131.124 1091.7 465.241
3678 0 88.1647 13.6222 1201 128.994 1091.11 462.548
3679 0 92.2355 15.1026 1393 124.468 1090.5 460.206
3680 0 92.2533 13.3979 1236 130.054 1090.2 461.068
3681 0 96.2145 13.5634 1305 129.765 1090.77 458.105
3682 0 100.128 14.2517 1427 126.624 1090.67 458.898
3683 0 105.331 14.0605 1481 126.44 1091.03 456.872
3684 0 104.177 13.5826 1415 129.586 1091.24 454.187
3685 0 108.139 13.6954 1481 128.713 1091.03 453.386
3686 0 110.217 13.7547 1516 128.892 1090.51 451.927
3687 0 114.166 14.6365 1671 126.142 1090.95 451.14
3688 0 117.161 13.6137 1595 129.482 1090.84 448.399
3689 0 122.279 15.2111 1860 124.103 1091 446.544
3690 1 70.0532 12.9045 904 127.129 1091.53 471.283
3691 0 75.0954 14.5814 1095 122.855 1091.53 468.568
3692 0 75.0462 13.7782 1034 126.786 1091.18 466.973
3693 0 79.0747 13.3418 1055 128.76 1091.23 467.239
3694 0 78.133 13.157 1028 130.174 1091.22 465.428
3695 0 82.0519 13.6377 1119 128.956 1091.87 464.115
3696 0 86.0956 13.0088 1120 129.216 1091.52 462.757
3697 0 89.1456 13.6518 1217 128.001 1091.62 463.36
3698 0 91.1344 14.2976 1303 125.641 1091.33 462.635
3699 0 92.1165 13.5481 1248 129.886 1090.74 459.288
3700 0 97.0684 13.2896 1290 129.116 1091.15 459.068
3701 0 99.119 13.1055 1299 127.628 1090.68 456.543
3702 0 97.1617 11.5272 1120 132.968 1091.29 449.817
3703 0 102.108 13.045 1332 129.056 1091.63 451.61
3704 0 106.186 13.2691 1409 126.827 1091.34 452.737
3705 0 110.131 13.8562 1526 124.612 1091.59 450.956
3706 0 116.201 14.2942 1661 122.841 1091.41 447.936
3707 0 119.15 14.0999 1680 124.197 1091.71 444.692
3708 0 127.15 12.7644 1623 127.065 1092.15 444.972
3709 0 127.222 14.6201 1860 123.319 1091.46 442.981
3710 0 129.285 13.4819 1743 126.683 1091.47 441.873
3711 0 132.161 13.6576 1805 127.23 1090.86 437.705
3712 0 141.492 14.8136 2096 121.625 1091.61 435.291
3713 0 145.27 13.7881 2003 124.411 1091.33 434.44
3714 1 70.1792 12.8813 904 121.706 1091.06 467.218
3715 0 74.33 12.8885 958 119.954 1091.05 467.559
3716 0 74.2257 13.9035 1032 118.078 1091 467.732
3717 0 78.1936 15.7941 1235 113.687 1091.3 464.056
3718 0 79.1311 14.04 1111 119.123 1091.23 465.173
3719 0 82.0903 14.0821 1156 120.192 1090.53 461.787
3720 0 84.0708 14.4878 1218 119.241 1090.39 460.803
3721 0 90.3535 15.8267 1430 115.245 1090.64 460.217
3722 0 89.2094 14.7182 1313 119.843 1090.79 458.23
3723 0 94.3314 14.2476 1344 120.278 1091.1 457.522
3724 0 94.2235 14.646 1380 120.783 1091.56 454.901
3725 0 99.2352 16.0528 1593 117.303 1091.84 453.871
3726 0 102.152 14.8015 1512 120.786 1091.59 451.81
3727 0 107.17 15.1534 1624 121.166 1091.44 449.894
3728 0 107.141 14.1682 1518 125.489 1092.24 447.014
3729 0 113.184 14.8873 1685 124.018 1092.45 443.961
3730 0 116.254 14.4769 1683 126.5 1092.24 439.272
3731 0 121.271 14.6614 1778 125.489 1092.14 438.688
3732 0 125.352 15.3168 1920 124.746 1091.71 434.829
3733 0 129.227 15.02 1941 125.704 1092.03 431.764
3734 0 134.239 16.2025 2175 121.899 1091.82 432.84
3735 0 140.342 15.8613 2226 122.341 1092.24 429.761
3736 0 145.288 15.108 2195 124.95 1092.01 425.891
3737 0 149.412 15.1527 2264 124.848 1091.73 427.388
3738 0 154.411 14.9277 2305 125.82 1092.14 422.826
3739 0 159.364 14.721 2346 126.514 1091.39 417.089
3740 0 166.556 17.0634 2842 120.287 1091.82 416.191
3741 0 169.441 14.3708 2435 129.037 1091.56 407.5
3742 0 176.415 15.1234 2668 126.786 1091.57 408.529
3743 0 180.45 15.5501 2806 126.881 1092.24 405.77
3744 0 188.281 16.2151 3053 125.187 1091.99 402.287
3745 1 200.515 19.026 3815 115.568 1092.15 390.566
3746 0 198.506 14.9719 2972 129.499 1092.15 397.888
3747 0 205.315 14.7919 3037 131.098 1092.73 393.666
3748 0 213.424 14.9936 3200 130.167 1092.65 393.767
3749 0 221.486 15.5721 3449 129.192 1093.12 391.223
3750 0 229.414 16.1935 3715 128.566 1093.02 384.111
3751 0 237.401 14.9578 3551 132.997 1092.8 381.433
3752 1 186.305 14.3528 2674 132.893 1093.69 406.55
3753 0 192.396 14.7353 2835 133.229 1093.63 401.59
3754 0 198.619 15.2554 3030 133.457 1094.1 396.255
3755 0 202.321 14.9564 3026 136.225 1093.01 394.073
3756 0 209.382 15.264 3196 135.855 1093.65 392.262
3757 0 216.369 15.5937 3374 135.041 1093.39 391.745
3758 0 222.311 15.8472 3523 136.412 1093.12 384.675
3759 0 231.415 15.8503 3668 136.576 1093.24 383.835
3760 0 238.347 14.8439 3538 140.314 1093.81 381.828
3761 0 247.358 16.0739 3976 137.844 1094.43 377.8
3762 0 251.498 15.3003 3848 118.615 1093.78 370.625
3763 0 260.229 14.3912 3745 147.023 1093.33 364.843
3764 0 268.423 14.4511 3879 147.065 1092.89 366.185
3765 0 279.466 15.365 4294 145.878 1092.79 356.353
3766 0 279.536 13.2791 3712 152.449 1093 362.197
3767 0 280.459 12.4581 3494 152.325 1093.53 372.783
3768 1 81.1269 11.3896 924 119.455 1094.25 457.08
3769 0 82.1373 8.97278 737 124.661 1093.91 458.562
3770 0 83.1587 11.1955 931 117.924 1094.18 458.309
3771 0 86.0846 11.6862 1006 116.697 1094.04 456.836
3772 0 90.1156 11.341 1022 118.68 1093.98 454.144
3773 0 92.179 10.7291 989 120.675 1094.1 453.712
3774 0 97.109 11.4099 1108 119.444 1094.28 450.173
3775 0 98.1689 10.9709 1077 121.812 1094.22 448.292
3776 1 43.0995 10.3018 444 108.441 1093.35 476
3777 0 45.0171 7.61932 343 113.924 1092.3 476.02
3778 0 46.0576 8.25054 380 112.253 1092.77 473.679
3779 0 47.0472 9.84118 463 108.13 1091.93 473.482
3780 0 50.0608 9.62829 482 106.712 1092.76 475.32
3781 0 51.0674 9.0077 460 108.611 1091.68 469.92
3782 0 53.0215 9.33583 495 109.388 1092.35 472.311
3783 0 53.0676 10.2699 545 107.974 1092.95 472.523
3784 0 53.0775 8.08252 429 112.03 1092.86 472.788
3785 0 54.0802 8.39494 454 110.559 1093.29 472.553
3786 0 55.0432 7.84838 432 110.708 1093.06 472.859
3787 0 57.1322 10.1519 580 103.917 1093.16 470.743
3788 0 56.1636 6.67692 375 109.805 1093.07 466.232
3789 0 56.094 6.66738 374 108.118 1093.47 464.722
3790 0 58.0671 8.67962 504 105.478 1093.24 466.252
3791 0 56.1231 4.91776 276 111.931 1093.61 462.812
3792 0 59.1381 7.86296 465 104.57 1093.84 467.699
3793 0 60.1082 7.58632 456 105.193 1093.62 464.73
3794 0 62.1304 6.90483 429 107.347 1093.49 467.48
3795 0 63.0872 5.73809 362 105.022 1093.77 463.088
3796 0 64.1798 4.76785 306 106.814 1094.4 464.307
3797 0 64.0455 5.26188 337 105.795 1094.47 464.08
3798 0 67.127 7.32939 492 102.972 1094.65 464.522
3799 0 66.1072 7.60886 503 102.135 1094.84 465.382
3800 0 67.1705 7.45863 501 102.06 1094.09 466.008
3801 0 69.1564 7.72163 534 101.152 1094.09 463.749
3802 0 69.1094 5.91815 409 105.061 1093.82 466.714
3803 0 70.1252 7.672 538 102.441 1093.39 463.658
3804 0 70.2269 6.4078 450 104.702 1093.67 464.853
3805 0 71.2491 7.32641 522 103.644 1093.52 461.816
3806 0 64.2441 5.04326 324 109.361 1094.94 469.469
3807 0 72.5206 5.95692 432 106.4 1093.75 465.345
3808 0 68.5211 6.74245 462 107.524 1093.99 467.814
3809 0 75.319 8.97516 676 103.003 1093.62 465.417
3810 0 73.397 8.09297 594 105.707 1093.79 466.582
3811 0 77.4151 7.5825 587 106.421 1093.62 464.71
3812 0 73.2244 9.19093 673 105.55 1094.14 463.848
3813 0 75.2447 8.79796 662 105.618 1094.36 464.356
3814 1 28.0116 10.3528 290 108.762 1093.91 488.4
3815 0 28.0189 8.85117 248 112.403 1093.57 488.46
3816 0 30.0094 8.46401 254 114.807 1093.97 488.213
3817 0 29.025 7.57966 220 117.332 1093.66 489.423
3818 0 30.0472 8.85274 266 113.677 1093.41 488.56
3819 0 29.049 8.9504 260 113.946 1092.95 488.965
3820 0 28.0306 8.13398 228 117.316 1093.54 489.811
3821 0 29.0283 8.78453 255 115.075 1093.82 490.416
3822 0 29.046 9.26119 269 115.007 1093.32 488.405
3823 1 66.1346 11.0683 732 106.754 1093.7 470.803
3824 0 66.3778 10.9374 726 108.12 1093.44 471.493
3825 0 66.2103 11.539 764 107.696 1093.39 471.082
3826 0 66.2781 9.67136 641 112.101 1094.32 470.516
3827 0 66.374 11.6461 773 108.71 1094.35 471.789
3828 0 64.4005 10.59 682 112.78 1093.9 470.814
3829 0 65.2843 11.3963 744 110.388 1093.81 470.421
3830 0 65.3427 11.2331 734 110.838 1094.26 473.421
3831 0 65.2388 12.186 795 110.747 1094.06 469.769
3832 0 68.4748 11.5663 792 111.33 1093.52 470.158
3833 1 30.0225 9.29303 279 113.072 1093.57 489.441
3834 0 27.0148 8.10666 219 119.11 1093.67 489.11
3835 1 69.2966 11.1982 776 111.983 1093.82 471.957
3837 0 67.3763 12.4673 840 111.275 1093.59 469.586
3838 0 68.228 10.5089 717 114.236 1093.87 470.773
3839 0 66.1713 10.0195 663 117.584 1094.43 470.125
3840 0 68.3178 11.344 775 113.005 1094.71 470.325
3841 1 28.0054 7.78422 218 117.138 1094.67 488.349
3842 0 31.0436 10.5658 328 108.497 1096.25 487.265
3843 0 36.036 12.5707 453 95.5254 1095.89 489.499
3844 0 35.021 11.7644 412 98.5728 1094.94 489.269
3845 0 35.022 11.6213 407 98.4152 1094.88 489.973
3846 0 36.0084 12.5526 452 95.4204 1094.66 489.958
3847 0 33.0207 11.1143 367 101.883 1093.87 488.629
3848 0 36.017 13.4103 483 93.0124 1093.86 489.824
3849 0 36.0191 11.5494 416 97.1755 1094.54 490.103
3850 0 34.0338 10.9009 371 100.032 1094.09 489.323
3851 0 36.025 13.4906 486 92.6914 1093.66 488.84
3852 0 37.0416 13.3094 493 91.5984 1093.61 489.477
3853 0 35.0063 12.1121 424 96.066 1094.29 489.106
3854 0 37.2057 12.2024 454 94.5441 1094.26 488.696
3855 0 34.0289 11.3139 385 98.2883 1094.39 490.094
3856 0 33.0499 11.0439 365 99.526 1093.74 490.09
3857 0 37.0264 9.69579 359 100.312 1094.64 490.053
3858 0 34.0457 11.9252 406 97.4409 1094.22 488.397
3859 0 36.0205 11.077 399 97.6341 1093.92 488.882
3860 0 34.0324 10.9014 371 100.474 1093.88 487.601
3861 0 35.0755 12.1167 425 95.1953 1094.64 489.308
3862 0 36.1526 12.7238 460 94.4826 1094.62 486.685
3863 0 37.1101 11.5871 430 96.2953 1094.13 488.721
3864 0 34.0329 11.3126 385 98.1039 1093.11 488.101
3865 0 35.0263 10.6206 372 97.6559 1093.66 489.812
3866 0 35.043 11.5002 403 96.0993 1093.24 488.787
3867 0 36.0252 12.1304 437 93.6957 1092.85 487.778
3868 0 36.0174 10.9947 396 95.8636 1093.06 489.076
3869 0 36.0045 10.8042 389 95.7763 1092.71 488.823
3870 0 34.0117 10.3788 353 97.2975 1092.99 489.53
3871 0 34.0447 10.1337 345 98.4232 1092.72 489.829
3872 0 36.0106 12.2186 440 92.5727 1092.57 489.273
3873 0 35.0777 11.0041 386 95.3912 1092.53 488.834
3874 0 37.0412 12.0136 445 91.8629 1092.84 488.683
3875 0 35.0262 12.3622 433 92.3695 1092.51 489.337
3876 0 36.021 11.8542 427 93.096 1092.63 489.187
3877 0 36.0176 11.2445 405 93.2222 1093.21 489.568
3878 0 37.0647 13.0852 485 90.6577 1093.48 488.555
3879 0 36.0406 11.6258 419 92.7208 1093.4 490.095
3880 0 37.0473 11.2559 417 93.0408 1093.71 489.201
3881 0 35.0578 10.6681 374 92.1471 1095.55 485.976
3882 0 35.1019 9.48666 333 94.8288 1095.84 487.093
3883 0 35.135 10.2177 359 93.1086 1091.97 485.315
3884 0 35.0123 9.91081 347 93.0231 1092.91 484.772
3885 0 35.0385 9.9034 347 90.4294 1092.78 487.804
3886 0 36.4043 11.2349 409 96.0342 1092.95 485.932
3887 0 35.3394 13.4694 476 93.5021 1092.86 484.832
3888 0 36.2264 13.1672 477 93.2767 1092.74 484.679
3889 0 37.42 11.2774 422 96.8033 1092.96 483.725
3890 0 39.513 12.8312 507 91.8028 1092.28 485.389
3891 0 36.4706 12.3387 450 94.8467 1092.45 483.758
3892 0 35.5152 12.4735 443 95.5372 1092.82 484.878
3893 0 37.3819 12.8137 479 93.7599 1092.81 484.194
3894 0 38.3889 12.5557 482 93.1411 1092.1 486.05
3895 0 37.3785 12.9754 485 94.8515 1092.03 484.256
3896 0 36.4188 11.56 421 97.4371 1091 484.109
3897 0 36.412 12.5783 458 94.476 1090.83 485.426
3898 0 36.412 12.7156 463 154.235 1089.83 485.395
3899 0 37.2775 12.474 465 93.486 1091.79 483.998
3900 0 36.4539 11.9329 435 94.9241 1092.4 483.961
3901 0 37.463 10.9441 410 96.3732 1092.13 483.705
3902 0 38.4367 10.6409 409 96.1443 1092.67 485.753
3903 0 38.3821 13.2353 508 90.9646 1091.94 484.169
3904 0 38.2451 12.0538 461 95.2148 1093.3 484.807
3905 0 36.2491 11.6693 423 96.0236 1092.79 485.3
3906 0 41.2634 13.1351 542 91.2878 1092.78 485.09
3907 0 38.2138 11.645 445 96.1798 1092.52 485.796
3908 0 39.1329 11.5759 453 96.6667 1095.77 484.645
3909 0 38.2791 14.1069 540 92.4 1094.57 487.339
3910 0 40.0157 14.5193 581 90.759 1095.77 485.554
3911 0 37.2888 12.068 450 95.6578 1094.06 487.182
3912 0 38.0704 13.475 513 93.7758 1095.89 485.146
3913 0 38.0343 12.3573 470 94.5766 1095.84 486.474
3914 0 37.2883 12.1754 454 95.3965 1094.12 486.557
3915 0 40.0599 14.6031 585 89.8017 1095.48 484.713
3916 0 39.0743 13.5639 530 92.7 1095.4 485.519
3917 0 39.0819 12.461 487 93.3285 1095.75 487.528
3918 0 37.3752 14.4481 540 91.1333 1092.73 486.18
3919 0 39.0504 14.0075 547 90.8227 1095.06 486.117
3920 0 37.0569 12.0895 448 94.2344 1094.98 488.382
3921 0 39.0981 14.6555 573 89.712 1095.07 485.309
3922 0 38.0699 11.1374 424 96.9599 1094.77 487.262
3923 0 39.3382 13.3712 526 91.1331 1092.83 487.741
3924 0 37.325 13.5834 507 92.5937 1092.92 487.294
3925 0 39.0501 11.959 467 93.5567 1094.86 486.604
3926 0 37.1252 13.2255 491 92.0305 1094.92 487.603
3927 0 37.0569 12.3054 456 94.2346 1094.59 486.239
3928 0 38.0265 12.2809 467 93.5889 1094.66 488.036
3929 0 36.2977 12.3975 450 96.08 1093.1 487.104
3930 0 38.5456 13.8537 534 92.3483 1091.29 484.337
3931 0 38.0696 12.8712 490 94.649 1094.22 485.422
3932 0 36.0288 13.406 483 93.381 1094.58 486.714
3933 0 38.1425 12.9777 495 94.3556 1093.66 486.869
3934 0 37.0679 13.0571 484 94.5021 1094.18 486.911
3935 0 37.0459 11.6342 431 98.181 1094.78 486.587
3936 0 36.0899 13.2724 479 96.7328 1093.46 486.848
3937 0 38.0209 14.3605 546 91.6099 1094 486.806
3938 0 38.2313 13.0521 499 92.8737 1093.58 487.94
3939 0 37.078 13.4042 497 94.4507 1093.93 487.65
3940 0 35.081 12.3714 434 95.2696 1092.91 490.127
3941 0 37.194 14.0614 523 90.7017 1093.22 487.199
3942 0 35.0228 10.1363 355 91.738 1091.54 490.749
3943 0 37.2007 13.0374 485 93.9134 1090.14 489.144
3944 0 35.345 11.6848 413 98.3535 1090.14 487.603
3945 0 35.522 17.3413 616 88.1234 1089.97 488.153
