time division length width area intensity CMx CMy
0 0 178.552 13.5534 2420 111.325 1265.73 413.157
1 0 184.405 14.1102 2602 109.887 1265.76 411.367
2 0 190.417 14.4525 2752 109.846 1265.03 403.14
3 0 190.417 14.4052 2743 155.64 1264.03 403.125
4 1 155.27 12.5136 1943 110.027 1265.5 426.887
5 0 156.348 13.4955 2110 108.894 1264.3 424.195
6 0 161.317 13.3836 2159 109.81 1265.6 421.403
7 0 165.395 13.7428 2273 110.12 1266.33 419.33
8 0 173.597 13.7963 2395 110.621 1265.68 414.201
9 0 173.54 13.8585 2405 145.329 1265.69 414.185
10 1 185.445 13.8909 2576 111.156 1266 410.784
11 0 191.621 14.6905 2815 110.774 1266.47 402.263
12 0 197.258 13.1452 2593 113.721 1268 402.19
13 0 206.423 14.7319 3041 110.902 1267.7 400.08
14 0 214.459 14.856 3186 111.47 1268.14 392.687
15 0 224.424 15.1544 3401 111.205 1267.45 391.936
16 0 229.391 15.2491 3498 112.49 1267.16 385.559
17 0 237.403 15.1219 3590 114.216 1266.91 381.458
18 1 63.2145 13.9367 881 110.891 1267.85 468.412
19 0 66.0864 14.3146 946 111.829 1267.84 466.125
20 0 65.3406 13.6515 892 114.485 1267.62 466.453
21 0 69.1686 14.3562 993 112.627 1267.36 464.548
22 0 70.5278 13.8811 979 113.563 1267.54 466.082
23 0 71.2793 14.6466 1044 113.533 1266.65 462.335
24 0 71.2793 14.6606 1045 159.312 1265.64 462.285
25 0 76.3434 14.9325 1140 114.315 1267.43 460.677
26 0 79.4258 14.1012 1120 116.982 1266.88 459.701
27 0 82.3003 14.8967 1226 115.059 1266.76 458.909
28 0 84.3313 14.5498 1227 116.402 1267.31 457.443
29 0 87.2266 15.5686 1358 114.56 1266.99 456.225
30 0 90.2539 16.5976 1498 112.498 1267.44 454.376
31 0 93.38 17.22 1608 110.184 1267.41 454.491
32 0 97.3994 15.6058 1520 112.173 1266.93 451.619
33 0 99.3931 15.987 1589 112.169 1267.41 447.638
34 0 105.325 16.2545 1712 109.845 1267.17 448.756
35 0 106.321 15.0957 1605 114.282 1267.15 445.756
36 0 110.37 15.5839 1720 112.972 1267.11 444.126
37 0 118.19 17.4296 2060 108.526 1267.29 439.338
38 0 118.381 16.4807 1951 113.147 1267.11 440.319
39 0 124.426 16.9819 2113 110.86 1267.21 437.59
40 0 130.594 19.128 2498 104.076 1266.94 431.41
41 0 134.442 17.7177 2382 107.819 1267.85 429.032
42 0 137.333 17.4831 2401 108.306 1267.57 429.796
43 0 138.481 15.7567 2182 115.365 1267.44 431.829
44 0 142.392 15.5768 2218 115.107 1267.82 428.454
45 0 147.283 14.6385 2156 117.401 1267.36 428.089
46 0 155.408 16.3891 2547 111.543 1267.27 425.475
47 1 81.4524 13.3084 1084 120.387 1267.43 459.377
48 0 86.2921 15.6329 1349 115.374 1267.44 456.417
49 0 91.4849 15.4889 1417 115.761 1267.35 454.641
50 0 94.2973 15.1648 1430 116.693 1267.07 454.823
51 0 95.3415 13.8869 1324 118.598 1267.36 454.755
52 0 97.3614 15.7763 1536 115.089 1266.75 452.744
53 0 102.289 15.7103 1607 115.283 1267.77 451.124
54 0 105.356 16.6958 1759 113.135 1267.43 449.713
55 0 107.421 14.634 1572 118.508 1267.19 445.812
56 0 111.4 15.8887 1770 115.407 1267.21 446.944
57 0 114.529 14.5902 1671 119.349 1267.11 444.842
58 0 118.182 15.2561 1803 117.809 1266.98 443.886
59 0 122.245 15.6325 1911 117.273 1266.4 439.675
60 0 128.337 15.9034 2041 114.972 1266.13 437.39
61 0 133.335 15.3448 2046 115.276 1266.92 436.912
62 0 138.584 15.8965 2203 114.584 1267.17 434.858
63 0 143.281 15.6057 2236 115.305 1266.63 433.364
64 1 79.191 15.5573 1232 117.989 1268.06 462.556
65 0 79.1353 14.3804 1138 121.813 1267.8 461.346
66 0 84.2172 16.4218 1383 115.923 1268.28 458.296
67 0 86.3201 15.2108 1313 118.823 1267.91 458.758
68 0 88.156 15.5179 1368 118.388 1267.98 458.083
69 0 91.1554 16.247 1481 117.127 1267.47 456.031
70 0 96.176 16.7505 1611 114.448 1267.95 457.554
71 0 98.0765 15.6306 1533 117.904 1267.81 455.039
72 0 101.141 16.3732 1656 117.327 1266.79 450.752
73 0 105.145 15.2836 1607 119.083 1266.99 450.706
74 0 109.147 14.8699 1623 120.428 1267.42 448.654
75 0 113.155 15.1562 1715 121.326 1267.32 445.777
76 0 117.155 15.313 1794 121.156 1267.37 445.707
77 0 121.227 15.5163 1881 120.777 1267.51 441.315
78 0 125.194 15.3522 1922 120.993 1266.92 440.137
79 0 128.16 14.1152 1809 124.141 1267.48 439.628
80 0 136.149 16.1515 2199 118.639 1266.62 436.477
81 0 140.457 15.2787 2146 121.354 1266.92 435.483
82 0 145.214 15.9351 2314 120.951 1266.82 432.277
83 0 151.276 15.8386 2396 122.263 1267.04 429.101
84 1 81.0736 15.9238 1291 124.438 1267.29 460.808
85 0 84.0472 15.5984 1311 126.604 1267.67 460.533
86 0 86.0885 15.8906 1368 126.345 1266.7 458.625
87 0 87.0882 16.4086 1429 124.403 1267.14 456.842
88 0 91.1795 17.6246 1607 121.31 1266.93 453.553
89 0 95.0998 17.0768 1624 122.539 1267 453.574
90 0 97.1353 16.5748 1610 124.02 1266.55 453.729
91 0 100.107 15.7332 1575 125.731 1266.5 449.491
92 0 105.196 17.244 1814 121.675 1267.1 447.501
93 0 109.161 17.0299 1859 121.735 1266.31 445.785
94 0 112.27 15.5696 1748 125.138 1266.37 445.098
95 0 118.105 16.8409 1989 121.758 1266.76 440.273
96 0 120.26 16.5558 1991 123.473 1265.37 438.863
97 0 125.307 16.0805 2015 124.677 1266.14 439.541
98 0 129.123 15.4891 2000 125.624 1266.25 435.938
99 0 132.189 15.962 2110 119.019 1266.59 432.492
100 0 139.308 17.8238 2483 108.13 1266.98 433.324
101 0 142.27 15.7377 2239 114.21 1266.54 429.368
102 0 146.475 17.5115 2565 111.005 1266.3 424.656
103 0 153.358 17.1233 2626 111.376 1266.42 424.732
104 0 157.254 16.2476 2555 114.048 1266.22 424.947
105 0 164.21 16.826 2763 111.347 1266.15 425.215
106 0 167.23 15.8106 2644 114.166 1266.02 421.036
107 0 174.271 16.2104 2825 113.336 1266.57 418.281
108 0 178.301 16.1974 2888 113.233 1266.82 415.657
109 0 184.184 15.7071 2893 115.093 1266.07 410.056
110 0 192.232 16.6674 3204 112.587 1265.69 408.045
111 0 199.397 17.6783 3525 110.754 1266.09 402.514
112 0 206.285 17.3594 3581 110.495 1265.65 406.13
113 0 213.359 15.9402 3401 113.68 1265.39 400.148
114 0 222.207 16.3721 3638 113.316 1265.67 394.759
115 1 173.374 15.5098 2689 118.372 1266.43 419.854
116 0 181.505 16.556 3005 116.272 1265.96 416.367
117 0 186.3 16.2909 3035 117.706 1265.35 413.347
118 0 192.237 16.6149 3194 118.886 1265.72 405.169
119 0 199.234 16.1117 3210 118.687 1265.27 398.874
120 0 209.406 17.9651 3762 115.189 1265.25 394.945
121 0 217.299 16.3415 3551 119.434 1265.84 395.553
122 0 225.406 16.1975 3651 120.993 1265.78 389.151
123 1 49.0657 10.8018 530 109.902 1266.15 472.557
124 0 56.0516 11.6857 655 107.513 1265.9 470.91
125 0 58.0484 12.3862 719 108.933 1265.25 470.445
126 0 61.0482 12.2854 750 109.592 1266.22 470.752
127 0 60.0638 12.1538 730 114.455 1265.96 467.34
128 0 64.0864 12.7484 817 112.567 1266.06 467.963
129 0 65.029 12.4714 811 114.232 1266.04 466.793
130 0 69.0861 12.9114 892 113.046 1265.71 464.713
131 0 71.0316 13.0224 925 113.519 1265.75 461.036
132 0 72.074 11.6824 842 115.949 1266.56 462.068
133 0 77.1889 12.45 961 114.82 1266.01 458.495
134 0 80.0841 13.9354 1116 112.19 1266.32 455.962
135 0 81.1475 13.2968 1079 113.286 1265.73 456.785
136 0 83.2672 12.1897 1015 115.49 1265.99 455.648
137 0 84.2257 11.8729 1000 116.407 1265.69 455.62
138 0 84.1232 12.0775 1016 117.083 1265.55 452.732
139 0 93.233 10.758 1003 118.151 1265.39 453.052
140 0 95.1211 13.0991 1246 113.996 1265.38 448.611
141 0 97.349 11.9364 1162 117.337 1266.32 447.725
142 0 101.144 13.7526 1391 112.506 1265.28 444.541
143 1 50.098 10.8986 546 113.848 1264.83 470.892
144 0 52.0905 11.5376 601 114.348 1264.75 468.606
145 0 55.1274 12.0448 664 112.054 1264.85 468.795
146 0 57.1969 11.067 633 115.627 1264.73 466.411
147 0 59.1398 10.2469 606 117.442 1264.27 464.784
148 0 58.1962 12.0455 701 114.606 1264.02 463.593
149 0 62.2251 10.237 637 117.728 1264.19 464.088
150 0 64.1818 13.0723 839 112.489 1265.17 461.69
151 0 66.0979 11.725 775 115.334 1265.05 460.991
152 0 68.1684 11.8237 806 116.995 1264.34 457.963
153 0 69.2335 11.0496 765 120.003 1264.66 457.68
154 0 73.1677 12.0818 884 118.371 1265.1 456.943
155 0 76.3211 12.2378 934 118.314 1265.07 456.952
156 0 77.4238 11.5339 893 121.46 1265.2 456.222
157 0 79.2745 11.9837 950 121.877 1265.6 455.084
158 0 81.2848 11.9826 974 117.821 1265.95 454.358
159 0 81.3412 10.6219 864 122.863 1265.04 451.565
160 0 85.1536 11.5791 986 120.756 1264.82 452.569
161 0 90.0919 12.0988 1090 120.574 1264.72 450.903
162 0 92.3364 12.3895 1144 120.877 1264.81 448.096
163 0 95.1696 12.7877 1217 121.743 1265.54 447.129
164 0 96.3128 11.9403 1150 126.481 1264.57 443.145
165 0 100.204 11.247 1127 128.458 1264.42 441.705
166 0 104.129 12.5613 1308 125.534 1264.19 439.343
167 0 108.183 12.7747 1382 124.967 1264.14 440.449
168 0 114.254 13.1461 1502 123.85 1264.48 438.187
169 0 115.259 12.1032 1395 127.024 1264.72 438.14
170 0 120.185 13.2878 1597 124.919 1264.03 435.621
171 1 66.2262 10.7057 709 117.903 1264.3 462.472
172 0 69.2633 10.1641 704 119.283 1264.77 461.705
173 0 71.2205 11.6118 827 116.385 1264.96 459.289
174 0 73.1788 11.875 869 118.07 1264.62 458.12
175 0 72.22 10.0803 728 124.57 1264.11 454.952
176 0 78.3686 10.9227 856 121.334 1263.51 456.169
177 0 80.2004 13.0423 1046 116.84 1264.37 453.424
178 0 82.3139 12.1365 999 119.366 1264.75 452.113
179 0 83.2655 12.5262 1043 118.838 1265.24 450.874
180 0 85.2657 10.9774 936 122.932 1265.41 449.368
181 0 89.23 12.7311 1136 118.474 1264.99 449.993
182 0 91.2109 12.663 1155 118.894 1265.18 446.992
183 0 93.1692 12.4397 1159 118.638 1265.04 444.112
184 0 96.1752 11.687 1124 117.927 1265.4 443.178
185 0 99.1542 12.6974 1259 114.751 1265.16 442.639
186 0 103.161 11.3803 1174 118.988 1264.76 439.461
187 0 107.145 12.0957 1296 116.725 1265.69 437.619
188 1 62.115 8.62915 536 104.261 1265.2 465.45
189 0 59.1166 8.54244 505 106.564 1264.32 462.713
190 0 62.1824 9.32739 580 93.4776 1267.48 465.955
191 0 62.1804 9.16687 570 94.4842 1267.05 466.444
192 0 63.2106 9.15986 579 94.7876 1266.86 466.285
193 0 66.1553 8.79748 582 94.6512 1266.61 466.643
194 0 66.2429 7.78951 516 96.2345 1267.03 466.919
195 0 67.1437 7.98288 536 96.3787 1266.28 465.991
196 0 69.1563 10.0642 696 112.437 1265.07 461.609
197 0 72.1563 10.3387 746 94.4504 1265.38 460.457
198 0 73.1437 10.1307 741 95.8246 1266.26 459.541
199 0 74.1304 8.8088 653 99.5345 1265.45 458.806
200 0 77.2101 11.6824 902 94.3503 1265.48 462.369
201 0 78.1918 9.70691 759 100.041 1265.83 460.036
202 0 83.1692 11.9756 996 97.6235 1265.73 455.722
203 0 84.1761 11.8323 996 98.8544 1265.45 454.12
204 0 85.2059 10.7504 916 100.953 1264.85 451.569
205 0 89.1844 11.2127 1000 99.685 1265.66 453.093
206 0 91.0929 11.5926 1056 99.5663 1263.79 450.404
207 0 95.144 10.9834 1045 99.5665 1264.67 446.46
208 0 99.0557 11.2159 1111 97.1656 1264.72 450.129
209 0 101.105 10.7512 1087 98.9632 1264.16 443.89
210 0 103.123 10.9093 1125 98.0338 1264.78 447.273
211 0 103.164 10.2749 1060 104.662 1264.73 446.372
212 0 107.164 11.8883 1274 102.121 1265.39 445.038
213 0 109.252 11.9906 1310 102.508 1265.77 444.302
214 0 110.412 10.9771 1212 105.729 1266.13 440.788
215 1 57.1224 9.08575 519 98.2197 1267.54 471.358
216 0 59.0581 10.3796 613 98.1272 1267.04 469.494
217 0 61.0768 10.4622 639 97.6088 1267.07 468.742
218 0 62.1051 7.21357 448 103.502 1266.01 468.469
219 0 66.0716 9.92863 656 98.625 1266.3 466.854
220 0 66.0611 11.4288 755 97.8622 1266.59 462.646
221 0 68.0825 10.546 718 99.5153 1266.76 464.031
222 0 68.1508 9.28822 633 102.589 1267.35 462.449
223 0 72.1704 11.5144 831 97.3718 1267.2 463.126
224 0 75.2132 11.1682 840 99.0833 1265.75 459.862
225 0 77.0904 11.5838 893 97.5274 1265.6 461.349
226 0 77.1538 10.7966 833 100.672 1266.81 461.013
227 0 82.1875 11.8631 975 99.6544 1266.33 457.015
228 0 82.0874 11.9507 981 99.737 1265.73 456.225
229 0 88.142 10.9936 969 100.924 1266.05 456.955
230 0 87.3965 11.5336 1008 101.713 1266.38 454.132
231 0 91.1787 10.5836 965 103.404 1266.1 456.001
232 0 92.1954 12.0396 1110 103.45 1267.04 452.217
233 0 96.1209 11.652 1120 103.074 1266.32 453.493
234 0 97.3386 12.8212 1248 102.481 1265.68 450.608
235 0 100.047 11.8944 1190 104.173 1265.94 451.282
236 0 102.142 11.7582 1201 105.527 1265.62 450.434
237 0 102.194 11.3706 1162 108.701 1266.35 447.971
238 0 107.132 11.6958 1253 108.464 1266.43 446.316
239 0 112.147 12.448 1396 106.763 1266.61 444.883
240 0 115.164 13.0076 1498 106.439 1265.62 441.896
241 0 120.266 12.9962 1563 105.244 1265.82 437.141
242 0 123.254 13.7439 1694 105.298 1265.09 433.917
243 0 125.276 11.774 1475 110.161 1265.55 433.913
244 0 131.325 13.0668 1716 107.573 1265.81 433.421
245 0 134.419 14.1721 1905 107.329 1266.11 428.459
246 0 137.301 12.3597 1697 112.331 1265.5 427.403
247 0 143.289 13.6926 1962 110.478 1266.13 424.677
248 0 146.349 12.5385 1835 114.041 1265.36 422.788
249 0 150.329 13.537 2035 113.123 1266.29 421.585
250 0 156.299 13.8004 2157 114.08 1265.4 415.111
251 0 158.283 14.0192 2219 114.69 1265.97 415.896
252 0 162.417 13.6808 2222 115.032 1264.99 416.41
253 0 167.27 14.3002 2392 114.109 1264.45 412.351
254 0 171.426 13.8427 2373 116.852 1265.19 409.112
255 0 179.324 15.4581 2772 112.944 1264.98 407.735
256 0 184.312 14.177 2613 110.199 1265.37 406.418
257 0 189.375 12.9267 2448 112.12 1264.72 398.183
258 0 195.484 13.5715 2653 110.04 1265.42 400.642
259 0 200.295 12.9858 2601 112.185 1265.52 396.774
260 0 207.307 14.0613 2915 109.853 1264.23 388.476
261 1 43.0928 11.5101 496 99.1996 1265.84 477.536
262 0 46.0938 9.89287 456 101.684 1266.1 477.715
263 0 47.1512 10.4981 495 103.034 1267.67 477.273
264 0 49.0261 12.7075 623 99.252 1266.85 473.984
265 0 49.0911 11.3259 556 102.942 1266.74 475.698
266 0 52.1178 11.9921 625 100.821 1267.05 474.214
267 0 52.0375 11.1074 578 104.561 1266.16 475.507
268 0 53.1724 11.5285 613 105.295 1266.86 473.917
269 0 55.1418 11.552 637 105.4 1267.16 472.49
270 0 57.1184 11.7125 669 103.152 1267.03 472.918
271 0 59.1739 12.4717 738 101.808 1266.96 469.522
272 0 59.1419 10.7369 635 106.203 1266.71 470.35
273 0 62.1296 12.313 765 102.374 1266.24 469.797
274 0 62.1545 11.9219 741 104.262 1266.08 467.864
275 0 66.3475 12.1632 807 101.766 1265.6 466.949
276 0 65.2724 11.812 771 103.556 1266.23 466.757
277 0 67.21 11.3376 762 103.123 1266.87 467.577
278 0 70.1682 13.1969 926 98.9762 1266.55 464.531
279 0 73.2127 11.692 856 100.563 1265.94 463.939
280 0 75.1896 11.7968 887 101.516 1265.72 462.166
281 0 78.2623 11.3848 891 102.09 1266.67 461.93
282 0 81.1762 11.974 972 100.838 1266.08 458.036
283 0 85.2668 12.0211 1025 103.623 1264.96 455.147
284 0 85.3301 10.9574 935 101.778 1265.42 460.871
285 0 88.2948 12.6735 1119 99.5648 1264.19 454.382
286 0 92.4391 10.6881 988 101.808 1265.28 453.978
287 1 52.1525 12.4826 651 99.851 1265.77 472.971
288 0 55.2572 13.0481 721 97.1054 1265.62 473.012
289 0 51.2267 11.0685 567 104.534 1266.03 471.266
290 0 57.3025 12.0065 688 101.052 1265.59 469.776
291 0 58.1784 12.2726 714 100.731 1266.34 469.349
292 0 59.1824 12.6389 748 100.154 1265.97 467.587
293 0 60.2169 11.1264 670 99.7612 1265.9 469.585
294 0 67.2048 11.6956 786 98.2939 1265.06 455.284
295 0 67.2101 11.7393 789 99.6984 1266.57 455.695
296 0 70.3456 14.0449 988 95.837 1265.72 455.203
297 0 70.335 11.9855 843 100.318 1265.96 457.098
298 0 71.2793 12.43 886 100.783 1265.8 457.501
299 0 78.3591 12.9787 1017 99.3894 1265.86 417.457
300 0 80.3876 13.6339 1096 97.0639 1265.29 419.104
301 0 80.2761 10.9123 876 103.799 1265.35 419.113
302 0 83.2674 12.0095 1000 101.086 1265.08 418.113
303 0 86.2087 12.8525 1108 97.6381 1265.15 419.292
304 0 82.2128 12.2609 1008 101.516 1265.48 416.486
305 0 87.2403 12.712 1109 99.147 1266.06 418.614
306 0 92.1046 14.0818 1297 96.0362 1265.87 422.463
307 1 43.0298 12.0614 519 92.8651 1266.2 449.05
308 0 43.0298 12.0846 520 144.825 1265.22 449.062
309 0 50.136 10.4715 525 90.7943 1264.68 451.674
310 0 58.2591 13.0967 763 87.4024 1265.92 452.98
311 0 51.1246 12.225 625 94.0432 1265.36 456.293
312 0 54.0961 12.1451 657 93.8858 1265.48 456.831
313 0 61.166 13.2427 810 88.5123 1265.73 459.417
314 0 63.0859 11.9361 753 91.5126 1265.17 463.692
315 0 61.1302 12.9232 790 91.6772 1265.91 461.591
316 0 64.1859 12.8689 826 90.9407 1264.66 455.492
317 0 64.1931 11.2785 724 94.953 1265.52 454.689
318 0 67.3657 12.0536 812 93.4286 1265.32 454.839
319 0 63.2107 14.6336 925 91.1989 1266.32 456.6
320 0 71.1729 11.17 795 96.7509 1266.85 456.652
321 0 65.0653 14.0167 912 94.1338 1265.59 456.012
322 0 75.1239 12.9253 971 94.1586 1265.02 457.484
323 0 70.1035 13.8081 968 95.7624 1266.15 455.48
324 0 79.0865 13.6054 1076 94.8448 1265.81 441.158
325 0 81.1455 13.6052 1104 95.5661 1265.86 444.553
326 0 74.1379 13.6502 1012 99.2708 1266.69 448.032
327 0 76.1032 12.7327 969 101.33 1265.9 451.237
328 0 79.0872 12.7834 1011 101.183 1266.16 452.524
329 0 82.1005 13.8489 1137 98.9015 1266.3 449.143
330 0 84.0966 12.3192 1036 102.379 1266.36 449.509
331 0 87.1788 13.6616 1191 99.4761 1266.64 447.921
332 0 96.1542 12.6776 1219 100.141 1266.08 444.934
333 0 91.1793 14.0931 1285 99.6023 1265.91 444.379
334 0 96.0773 15.4563 1485 97.0889 1266.4 444.022
335 0 98.0862 14.3037 1403 100.785 1266.26 441.148
336 0 100.088 13.9178 1393 102.918 1266.22 441.179
337 1 54.1259 12.9882 703 104.518 1266.69 460.131
338 0 60.1299 12.0406 724 100.243 1266.84 470.809
339 0 62.1258 11.7825 732 101.489 1266.83 469.109
340 0 65.1242 11.9311 777 100.9 1265.54 467.214
341 0 66.1493 12.4718 825 100.72 1266.05 467.37
342 0 67.0344 13.0978 878 99.6355 1265.3 464.931
343 0 70.1079 12.8944 904 99.4447 1266.93 466.556
344 0 72.1551 14.0392 1013 96.6752 1266.41 463.576
345 0 73.0879 12.916 944 98.7405 1266.55 463.066
346 0 76.0935 13.1023 997 97.1715 1265.75 462.998
347 0 80.0684 13.9131 1114 96.105 1266.1 458.17
348 0 81.2146 13.0149 1057 98.1627 1266.29 459.138
349 0 86.4224 14.0126 1211 95.7836 1265.42 449.549
350 0 86.4224 14.0241 1212 139.891 1264.43 449.521
351 0 91.0874 12.5703 1145 97.9004 1265.8 456.019
352 0 93.1629 14.0614 1310 97.4031 1265.96 452.382
353 0 94.1309 14.3948 1355 97.7897 1266.59 450.316
354 1 53.1172 11.3711 604 91.096 1266.48 473.778
355 0 56.3834 11.6169 655 87.5954 1265.82 470.359
356 0 59.5233 12.4825 743 87.7847 1266.46 454.545
357 0 59.478 12.2062 726 88.1942 1266.01 461.762
358 0 61.402 10.9768 674 89.1588 1266.83 465.193
359 0 61.5194 13.1015 806 85.0596 1266.6 465.484
360 0 64.4275 12.3084 793 85.918 1266.02 464.634
361 0 63.1019 12.3451 779 86.5905 1266.6 467.255
362 0 67.0634 12.7044 852 85.3005 1266.33 467.18
363 0 69.0634 11.3519 784 87.4707 1266.27 466.888
364 0 71.0676 11.7916 838 87.5943 1266.25 464.345
365 0 74.1362 12.6524 938 85.29 1266.15 464.737
366 0 74.0768 10.7861 799 88.8961 1266.08 462.998
367 0 79.0989 13.1355 1039 85.8884 1266.17 459.59
368 0 81.0997 11.64 944 90.0011 1264.74 458.607
369 0 86.2259 12.6296 1089 89.169 1265.89 459.273
370 0 88.2703 13.9798 1234 87.6653 1265.66 459.494
371 1 44.0485 10.1025 445 92.3393 1266.12 477.461
372 0 47.1246 11.9895 565 87.4726 1265.82 477.66
373 0 47.1725 12.5497 592 88.2888 1266.59 478.037
374 0 46.2112 10.5386 487 94.9466 1265.91 478.499
375 0 50.0513 12.2474 613 90.9592 1265.89 478.555
376 0 50.1711 13.2148 663 91.2775 1265.85 477.813
377 0 50.0485 11.8685 594 93.8468 1265.71 477.923
378 0 51.294 12.2042 626 105.113 1266.16 477.34
379 0 50.1579 11.8027 592 107.412 1265.92 476.118
380 0 53.456 11.935 638 105.403 1265.54 476.256
381 0 54.12 11.9549 647 105.125 1265.35 474.737
382 0 56.214 12.2212 687 102.504 1265.73 474.214
383 0 58.2962 13.1741 768 101.885 1266.57 473.428
384 0 60.3491 12.494 754 101.794 1266.42 473.264
385 0 59.262 12.8244 760 102.616 1266.5 471.337
386 0 63.2832 12.9576 820 102.08 1266.58 469.929
387 0 65.2724 13.1909 861 101.957 1265.33 469.553
388 0 67.1136 13.4399 902 101.611 1265.45 467.81
389 0 68.1658 12.4549 849 103.77 1265.33 467.557
390 0 71.0646 13.0163 925 102.554 1265.09 466.445
391 0 74.098 14.3998 1067 99.1884 1265.71 463.897
392 0 76.0901 12.6692 964 103.461 1266.04 464.011
393 0 79.1875 12.7167 1007 103.042 1265.84 463.214
394 1 45.066 11.6274 524 95.6527 1265.77 479.626
395 0 46.0846 11.4789 529 95.4367 1264.78 479.79
396 0 47.1472 12.4716 588 98.9337 1265.22 479.631
397 0 47.2228 12.0069 567 101.723 1264.9 478.455
398 0 47.104 11.3154 533 106.024 1265.15 478.319
399 0 48.2372 11.7752 568 106.303 1264.78 476.245
400 0 52.2139 12.1424 634 103.76 1265.38 476.817
401 0 53.1071 12.2394 650 104.062 1265.03 475.711
402 0 54.067 12.7434 689 103.334 1264.76 474.319
403 0 55.0713 11.3308 624 105.317 1264.9 469.455
404 0 57.1032 11.6806 667 105.589 1264.69 471.555
405 0 58.1165 11.8039 686 106.124 1265.28 472.207
406 0 60.1048 11.846 712 105.843 1264.54 471.205
407 0 63.1829 13.5796 858 74.0058 1264.82 470.519
408 0 62.0526 12.5378 778 104.506 1265.94 469.771
409 0 64.1291 13.3793 858 102.727 1264.55 469.941
410 0 64.1291 13.3948 859 138.561 1262.56 469.888
411 0 69.1289 13.106 906 102.593 1265.03 469.292
412 0 71.0656 12.9599 921 103.111 1265.01 466.016
413 0 73.0849 11.9997 877 104.789 1265.28 464.973
414 0 74.0999 12.2267 906 104.607 1265.41 461.851
415 0 79.1603 12.6452 1001 101.395 1265.82 463.774
416 0 80.2038 13.0916 1050 101.711 1265.63 460.686
417 0 82.2487 11.9759 985 101.38 1264.46 460.682
418 0 86.1411 12.526 1079 99.9194 1264.92 457.739
419 1 46.0819 11.2625 519 98.6069 1264.99 478.293
420 0 48.1553 12.5635 605 95.7967 1265.23 476.674
421 0 49.0605 12.2298 600 97.17 1265.48 475.857
422 0 49.1542 11.3927 560 99.5179 1265.93 474.504
423 0 51.0836 13.3115 680 95.1235 1265.38 475.147
424 0 52.0614 11.7169 610 98.9607 1264.84 473.584
425 0 53.1114 10.6757 567 98.9912 1264.51 474.769
426 0 53.0489 11.4234 606 99.8234 1264.08 471.959
427 0 57.0872 12.5072 714 96.7045 1264.38 471.046
428 0 59.0658 12.6977 750 95.624 1265.09 470.871
429 0 59.0357 10.9425 646 98.1269 1264.66 469.752
430 0 62.0562 12.4242 771 94.9364 1265.21 470.436
431 0 64.0793 11.6418 746 94.63 1264.6 469.106
432 0 64.0688 11.4096 731 93.1341 1265.36 467.49
433 0 68.1034 13.7144 934 87.1906 1265.46 470.012
434 0 69.0708 11.7995 815 91.2012 1264.2 466.95
435 0 70.0529 9.82115 688 95.0116 1264.64 465.583
436 0 73.1013 11.1216 813 93.5879 1264.93 466.26
437 0 76.0557 12.9773 987 92.1358 1265.38 462.161
438 0 78.1492 12.3738 967 93.4581 1264.91 460.299
439 0 83.1405 11.4745 954 94.1656 1264.4 461.87
440 0 83.1126 11.4784 954 94.3103 1264.82 461.383
441 1 51.0865 9.7286 497 95.7746 1264.61 476.797
442 0 54.0838 10.7426 581 97.8898 1264.93 474.756
443 0 55.2511 11.7826 651 90.9048 1265.11 476.605
444 0 53.1198 9.75153 518 95.9363 1265.39 473.815
445 0 57.0449 11.4121 651 92.874 1265.23 473.192
446 0 59.2134 12.0074 711 91.166 1264.66 472.647
447 0 61.1185 11.6986 715 92.4867 1265.52 472.127
448 0 62.1518 11.2949 702 93.5028 1265.45 470.517
449 0 65.0855 11.3236 737 94.7436 1264.77 466.833
450 0 68.1217 12.0666 822 93.5839 1265.31 467.853
451 0 70.0924 12.3979 869 93.557 1265.07 466.168
452 0 72.0624 13.641 983 92.354 1264.92 464.117
453 0 74.1258 11.0488 819 97.7888 1265.43 462.862
454 1 11.0024 5.0898 56 84.5714 1266.79 495.875
455 0 11.0038 7.99726 88 80 1265.67 495.33
456 0 13.0028 4.61441 60 83.4833 1265.65 496.267
457 0 11.0074 7.17701 79 81.2405 1264.99 495.165
458 0 11.0039 7.72456 85 79.9647 1264.62 494.871
459 0 10.0055 5.39706 54 80.8518 1264.78 495.833
460 0 10.0052 4.19782 42 80.0238 1264.62 496.881
461 0 12.0005 3.66652 44 84.5682 1264.95 494.886
462 0 13.0163 4.53277 59 81.5254 1265.41 494.729
463 0 12.0176 5.0759 61 82.7705 1265.52 495.639
464 0 0 0 0 -nan -nan -nan
465 0 0 0 0 -nan -nan -nan
466 0 0 0 0 -nan -nan -nan
467 0 8.00042 2.49987 20 71.3 1264.2 498.75
468 1 125.165 14.5169 1817 100.674 1264.87 440.11
469 0 125.125 13.3626 1672 104.555 1265.66 437.061
470 0 134.33 15.4545 2076 102.206 1264.46 432.685
471 1 71.0811 11.508 818 109.389 1265.43 461.062
472 0 75.0899 12.5716 944 106.191 1264.93 462.517
473 0 73.0924 12.7236 930 98.0312 1266.05 464.595
474 0 75.0429 12.8193 962 104.875 1265.3 464.455
475 0 80.0577 14.1148 1130 101.85 1266.02 462.246
476 0 79.0686 12.0149 950 108.813 1265.41 461.053
477 0 85.0774 14.046 1195 104.391 1267.02 460.696
478 0 87.1888 12.8916 1124 107.076 1266.52 460.051
479 0 87.1746 12.6872 1106 109.74 1265.95 457.805
480 0 92.1441 13.3161 1227 108.793 1265.98 454.835
481 0 95.1328 12.7926 1217 110.254 1266.24 454.669
482 0 96.0834 12.1041 1163 112.532 1266.21 452.94
483 0 101.141 13.3576 1351 110.309 1265.01 450.72
484 0 103.211 13.1285 1355 111.447 1264.93 448.539
485 0 108.075 13.0743 1413 112.151 1264.58 447.514
486 0 112.128 13.2349 1484 111.445 1263.87 444.826
487 0 115.214 11.2834 1300 115.171 1265.04 445.134
488 0 119.083 13.3857 1594 111.283 1265.17 438.354
489 0 124.295 13.6691 1699 111.114 1264.52 439.484
490 0 128.207 14.4844 1857 110.621 1264.06 438.1
491 0 131.164 14.5085 1903 107.791 1264.23 438.872
492 0 136.349 14.8736 2028 106.904 1264.97 435.801
493 0 139.342 14.5613 2029 108.54 1264.34 430.669
494 0 144.401 13.0816 1889 113.002 1263.9 428.97
495 0 151.354 12.9102 1954 113.856 1264.29 428.603
496 0 156.349 14.1734 2216 111.272 1264.84 423.781
497 1 87.1176 11.2262 978 108.001 1265.16 458.946
498 0 90.299 11.1961 1011 106.908 1264.76 458.959
499 0 92.2152 10.8767 1003 108.793 1264.7 454.971
500 0 95.2089 13.4546 1281 105.218 1264.98 454.714
501 0 98.2447 12.3976 1218 109.33 1264.24 450.085
502 0 104.185 13.4089 1397 106.195 1264.99 451.775
503 0 105.166 12.6086 1326 108.938 1265.02 451.876
504 0 109.199 12.3536 1349 110.632 1265.03 446.832
505 0 112.219 13.6965 1537 108.304 1264.39 447.064
506 0 112.2 13.7433 1542 108.981 1264.83 446.393
507 0 115.474 13.3277 1539 110.493 1264.71 441.331
508 0 120.265 14.2851 1718 107.832 1264.2 441.559
509 0 122.182 13.6354 1666 110.627 1264.59 440.17
510 0 127.171 12.6208 1605 113.374 1264.3 435.147
511 0 131.162 12.961 1700 112.106 1264.43 436.759
512 0 136.312 13.073 1782 111.969 1264.49 430.233
513 0 139.19 13.3918 1864 112.701 1264.98 429.376
514 0 146.247 12.8686 1882 114.309 1263.7 429.197
515 1 77.1751 12.7502 984 105.2 1264.82 462.165
516 0 80.1902 12.7946 1026 106.145 1264.4 461.57
517 0 84.1902 13.1369 1106 107.967 1263.68 458.541
518 0 88.0989 13.2692 1169 107.398 1263.78 457.727
519 0 90.1604 12.5332 1130 107.546 1264.12 456.768
520 0 93.176 12.2456 1141 109.103 1263.95 452.797
521 0 94.2188 12.3436 1163 110.73 1264.13 450.515
522 0 100.209 13.0627 1309 108.197 1263.9 452.915
523 0 101.145 13.1495 1330 109.133 1264.75 449.937
524 0 106.287 14.2068 1510 107.332 1264.91 448.813
525 0 108.14 14.2685 1543 107.337 1265.39 446.594
526 0 111.168 13.0703 1453 111.412 1265.16 445.595
527 0 119.227 13.9733 1666 108.702 1265.4 441.849
528 0 120.298 13.425 1615 111.274 1264.63 438.104
529 0 122.237 13.0893 1600 112.272 1264.61 441.268
530 0 127.325 15.5508 1980 106.286 1264.58 437.97
531 0 136.226 13.9327 1898 109.311 1264.66 432.538
532 0 138.197 13.6038 1880 110.609 1264.33 431.838
533 0 142.352 13.1927 1878 112.769 1264.79 426.404
534 0 144.204 13.1758 1900 113.799 1265.15 423.862
535 0 154.205 13.8517 2136 110.413 1264.06 419.349
536 0 155.184 13.8996 2157 111.955 1264.14 420.433
537 0 162.111 14.7923 2398 108.541 1264.59 421.97
538 0 167.229 15.3143 2561 107.504 1264.45 419.083
539 0 170.305 13.6578 2326 112.592 1263.8 412.259
540 0 177.275 14.8977 2641 108.292 1264.55 405.838
541 0 181.293 13.674 2479 111.824 1264.49 398.054
542 0 190.327 14.8744 2831 109.112 1264.42 397.491
543 0 197.539 15.445 3051 106.737 1263.31 398.274
544 1 48.1644 9.30147 448 101.016 1264.29 471.047
545 0 51.2828 11.5243 591 94.1827 1262.87 475.926
546 0 51.1306 12.1062 619 92.9451 1264.11 474.237
547 0 52.0506 11.2391 585 88.3436 1264.64 475.788
548 0 55.0392 10.5016 578 87.4325 1264.59 475.227
549 0 56.0437 11.5624 648 87.0417 1264.17 476.289
550 0 58.0153 10.773 625 88.12 1264.68 476.035
551 0 59.1455 11.5309 682 86.3416 1265.03 475.51
552 0 59.1096 11.8763 702 86.5399 1263.91 471.852
553 0 61.0516 10.8269 661 88.3268 1264.36 472.648
554 0 66.0322 10.1769 672 88.8839 1264.3 471.193
555 0 67.029 11.8904 797 85.5772 1264.88 472.128
556 0 66.0743 11.033 729 97.8807 1264.75 469.807
557 0 68.0723 11.9432 813 99.2841 1264.36 470.199
558 0 68.0917 11.7048 797 93.3714 1264.68 469.62
559 0 68.0976 11.0283 751 97.3622 1266.21 469.213
560 0 70.1142 13.15 922 95.756 1265.66 465.36
561 0 70.0919 11.5705 811 100.025 1265.38 465.212
562 0 71.2242 11.9622 852 99.2277 1264.28 467.513
563 0 72.1302 11.2713 813 101.326 1264.66 466.823
564 0 74.2263 11.2763 837 102.182 1264.27 466.271
565 1 38.0648 10.3245 393 91.8651 1265.54 485.176
566 0 39.0457 8.73336 341 89.8651 1265.13 485.903
567 0 38.0729 9.58688 365 89.3397 1264.18 483.249
568 0 40.083 9.65496 387 87.8191 1264.52 485.543
569 0 40.0322 10.1418 406 84.9803 1265.61 486.882
570 0 43.0811 9.79547 422 86.2441 1264.57 483.118
571 0 44.0276 10.6297 468 84.6197 1264.73 481.577
572 0 43.0744 10.3542 446 85.3094 1265.03 480.137
573 0 47.1668 10.0282 473 85.2156 1264.61 471.825
574 0 48.1913 12.1184 584 81.1096 1263.53 473.461
575 0 47.1095 7.72668 364 86.0412 1264.79 482.077
576 0 49.1354 11.621 571 82.352 1264.12 478.594
577 0 50.1062 8.40215 421 86.8551 1264 479.017
578 0 49.0983 10.204 501 86.1896 1264.71 476.116
579 0 53.0691 10.0812 535 85.5458 1264.77 476.097
580 0 51.0337 9.36636 478 90.6695 1264.2 475.709
581 0 53.1039 9.30251 494 92.8907 1263.81 465.002
582 0 57.2553 10.7763 617 91.5673 1263.25 459.976
583 0 56.2131 10.14 570 91.8263 1264.03 466.777
584 0 59.1172 9.96325 589 93.6486 1264.49 474.068
585 0 60.0901 11.6658 701 92.281 1264.03 464.405
586 0 59.0273 9.79208 578 98.4204 1264.51 471.261
587 0 63.1385 11.546 729 95.4911 1264.72 471.01
588 0 62.299 10.7225 668 98.1662 1264.89 470.436
589 0 66.2578 11.5156 763 97.2975 1264.3 469.03
590 0 67.2376 11.8981 800 100.25 1264.39 469.611
591 0 69.1496 11.3811 787 98.9123 1265.08 468.366
592 0 73.2441 12.9703 950 93.5579 1264.85 462.235
593 0 74.1703 10.422 773 99.8564 1264.96 459.841
594 0 76.1779 8.24387 628 101.693 1264.74 462.736
595 0 79.2589 11.33 898 98.7249 1264.76 458.78
596 1 40.0629 10.6832 428 97.1939 1264.29 474.881
597 0 42.2048 11.5627 488 94.0656 1264.25 473.588
598 0 44.1502 11.0079 486 94.7284 1264.8 478.453
599 0 46.1054 10.7363 495 96.404 1265.25 476.497
600 0 47.1661 11.3641 536 96.5802 1264.87 476.438
601 0 48.0726 10.6922 514 97.8988 1265.67 477.183
602 0 52.0738 12.5207 652 93.8451 1264.82 475.597
603 0 52.0472 12.3542 643 94.8554 1264.44 474.684
604 0 54.0936 12.3674 669 95.5994 1264.08 474.229
605 0 53.1329 10.9348 581 99.7504 1263.57 472.676
606 0 57.1227 11.6416 665 97.8812 1263.65 471.789
607 0 58.2697 11.4468 667 97.6882 1263.29 470.892
608 0 57.0883 10.7377 613 100.938 1264.52 471.144
609 0 58.3248 10.6816 623 102.4 1264.68 472.631
610 0 61.3309 12.9951 797 98.1506 1264.63 469.385
611 0 63.3505 13.3701 847 97.5809 1263.82 470.688
612 0 66.4329 12.1626 808 99.7871 1263.49 467.457
613 0 66.4166 11.5784 769 102.798 1264.15 466.592
614 0 69.306 11.8172 819 102.88 1263.5 464.736
615 0 71.2612 11.4929 819 104.244 1263.97 467.142
616 0 72.4093 9.91585 718 109.496 1264.15 465.557
617 0 75.4075 12.8502 969 105.141 1264.4 464.19
618 0 79.1538 11.7619 931 107.129 1263.29 463.602
619 0 80.1836 11.0746 888 111.882 1263.36 462.354
620 1 44.285 11.6518 516 109.151 1263.52 480.405
621 0 46.143 10.2724 474 113.508 1263.54 477.749
622 0 45.1316 12.8513 580 109.831 1263.51 475.452
623 0 49.2292 11.5988 571 110.59 1263.27 470.138
624 0 51.2099 12.478 639 109.092 1263.82 474.432
625 0 52.4657 11.9316 626 110.481 1263.57 475.765
626 0 55.5495 11.6833 649 106.86 1263.28 473.871
627 0 55.258 11.2201 620 111.692 1264.21 473.077
628 0 57.3423 10.7251 615 112.997 1263.35 473.397
629 0 59.2807 11.9094 706 110.101 1263.32 471.901
630 0 62.2775 11.6254 724 111.359 1264.27 471.102
631 0 63.5451 13.1088 833 107.749 1263.7 470.521
632 0 69.359 12.1397 842 109.909 1263.69 469.27
633 0 69.2936 12.8583 891 110.15 1263.86 466.712
634 0 73.3994 12.357 907 109.606 1263.14 467.506
635 0 75.2689 13.1927 993 109.05 1263.57 463.191
636 0 76.2797 12.8343 979 111.28 1264.03 463.256
637 0 81.4589 13.0864 1066 109.976 1263.99 461.354
638 0 82.3194 11.5283 949 113.445 1263.51 462.058
639 0 86.3004 12.1089 1045 114.018 1263.73 458.479
640 0 88.2244 11.2667 994 114.533 1262.84 456.642
641 1 47.13 10.2058 481 104.006 1264.12 477.925
642 0 50.2124 11.5509 580 101.195 1263.9 478.557
643 0 48.0255 9.70317 466 100.579 1263.95 476.021
644 0 49.0312 11.0338 541 98.2255 1263.46 476.192
645 0 50.1125 9.51859 477 101.415 1263.81 476.002
646 0 54.2512 11.8338 642 96.9003 1263.89 473.659
647 0 56.1402 13.021 731 95.4118 1264.73 472.57
648 0 57.2164 11.9896 686 97.8469 1264.51 471.625
649 0 58.1246 11.5098 669 99.3184 1264.67 467.428
650 0 61.1558 11.8059 722 99.2452 1264.91 470.654
651 0 62.0511 10.862 674 101.482 1264.74 469.05
652 0 63.204 11.3442 717 101.561 1264.56 469.672
653 0 66.1791 11.7409 777 115.408 1264.37 468.79
654 0 70.2199 13.1017 920 111.675 1264.32 467.714
655 0 72.22 13.7081 990 109.326 1263.48 466.833
656 0 74.2564 13.0628 970 111.745 1263.68 464.989
657 0 75.2484 12.5318 943 113.424 1264.16 461.862
658 0 78.3758 12.6442 991 113.592 1264.08 460.9
659 0 82.2141 13.7446 1130 109.388 1263.97 461.914
660 0 82.3572 13.3807 1102 110.702 1264.42 457.969
661 0 85.3654 13.0849 1117 111.479 1264.78 457.403
662 1 44.2453 10.713 474 106.738 1265.4 477.76
663 0 47.4953 10.4431 496 99.7319 1263.93 478.425
664 0 47.0719 8.68883 409 101.929 1264.45 473.946
665 0 49.2872 8.96784 442 98.5679 1263.8 472.138
666 0 49.1724 10.5344 518 96.0521 1264.6 474.836
667 0 50.1136 9.91746 497 100.332 1264.16 462.742
668 0 50.0941 8.62376 432 99.4097 1264.66 470.062
669 0 54.0759 10.5038 568 97.7817 1264 470.611
670 0 54.2957 8.12219 441 104.143 1264.51 469.442
671 0 53.1583 9.74447 518 101.419 1264.49 467.83
672 0 58.1768 9.53988 555 101.809 1264.16 467.314
673 0 60.1315 10.0945 607 105.471 1264.2 464.054
674 0 62.0983 9.59768 596 109.826 1264.04 463.612
675 0 63.1082 11.1554 704 106.643 1264.54 462.712
676 0 66.1194 10.9196 722 107.119 1264.39 464.017
677 0 68.1315 10.5238 717 107.432 1264.15 462.834
678 0 69.2461 9.6612 669 109.469 1264.48 458.831
679 0 73.1233 10.5849 774 106.674 1264.45 459.379
680 0 76.2653 9.92587 757 107.324 1265.03 457.741
681 0 78.088 10.9364 854 104.804 1265.33 454.981
682 0 82.2504 12.1337 998 100.312 1265.34 456.644
683 0 86.1462 12.1886 1050 97.5438 1265.3 452.299
684 0 96.1928 15.7808 1518 85.3445 1264.19 442.261
685 0 95.4319 16.1791 1544 87.1483 1265.36 449.182
686 1 48.1096 11.162 537 91.121 1265.53 471.499
687 0 52.1739 10.4267 544 89.0552 1264.8 472.996
688 0 52.1228 11.2619 587 88.8688 1265.34 472.319
689 0 54.1541 11.9843 649 87.9769 1264.92 470.626
690 0 57.0834 12.4905 713 86.7195 1265.59 471.073
691 0 57.0582 11.9527 682 88.5674 1265.59 469.616
692 0 60.4578 11.8099 714 87.3641 1265.88 470.924
693 0 60.173 11.8159 711 89.6948 1265.06 466.903
694 0 63.2986 12.7175 805 87.4671 1265.27 467.181
695 0 63.2113 10.7892 682 91.5455 1264.79 465.579
696 0 65.2493 11.2492 734 90.9673 1264.19 466.234
697 0 67.1342 10.1141 679 93.1075 1264.42 463.527
698 0 70.1718 12.8542 902 89.2894 1264.7 462.889
699 0 72.1041 12.2046 880 91.5 1265.48 461.118
700 0 75.4227 10.5671 797 95.478 1265.37 456.306
701 0 76.1588 11.371 866 99.4122 1265.61 455.893
702 0 79.1805 12.5031 990 95.8616 1266.09 455.584
703 0 83.1601 10.7984 898 99.7216 1265.59 454.857
704 0 84.3026 10.9131 920 100.109 1265.42 454.803
705 0 90.1815 11.366 1025 98.9727 1266.36 451.181
706 1 44.1422 9.44674 417 93.4221 1265.5 474.813
707 0 45.3141 8.93762 405 96.6815 1266.35 474.385
708 0 47.1465 10.9658 517 95.2456 1265.99 471.671
709 0 48.297 11.5949 560 93.0554 1264.94 472.846
710 0 51.3467 10.8673 558 94.629 1265.32 474.065
711 0 53.215 10.918 581 94.5095 1265.56 471.372
712 0 55.3005 10.8679 601 94.8785 1265.33 470.491
713 0 56.3216 8.9486 504 96.5159 1265.7 472.163
714 0 57.2984 10.4541 599 96.0851 1265.92 467.838
715 0 59.2285 11.4641 679 94.0486 1266.23 467.965
716 0 61.3442 8.42785 517 98.1567 1265.47 465.406
717 0 62.1563 11.7768 732 94.3292 1265.59 464.418
718 0 65.3798 11.1044 726 92.3402 1266.25 466.431
719 0 66.1944 10.4692 693 92.1053 1266.61 465.984
720 0 68.4824 10.5137 720 93.0236 1266.45 461.603
721 0 71.3494 12.1935 870 90.8184 1266.02 462.349
722 0 75.26 11.839 891 92.064 1265.58 461.487
723 0 78.2468 11.1698 874 94.706 1266.17 457.053
724 0 79.2281 11.0062 872 94.1823 1264.84 458.146
725 0 81.2474 11.2619 915 122.809 1262.82 457.53
726 0 88.3957 12.0594 1066 93.3039 1265.46 454.662
727 0 92.372 12.6337 1167 91.8123 1265.73 453.536
728 1 47.1088 10.4864 494 88.5243 1265.65 475.587
729 0 47.1243 9.46434 446 96.2735 1265.48 473.845
730 0 50.1178 10.7946 541 93.4732 1265.81 474.068
731 0 52.2696 10.7519 562 93.9591 1265.06 473.794
732 0 51.0918 11.176 571 94.3082 1265.24 472.328
733 0 54.3995 12.831 698 90.7722 1265.15 472.159
734 0 56.3172 12.11 682 90.4839 1265.57 473.296
735 0 56.1162 10.1219 568 95.037 1264.78 468.092
736 0 59.1405 10.957 648 92.8673 1265.16 468.284
737 0 62.1441 12.7285 791 88.8761 1265.03 468.178
738 0 64.2492 12.3581 794 89.4987 1264.78 467.417
739 0 65.1774 13.2101 861 88.5482 1265.18 465.731
740 0 67.4302 11.7751 794 90.4572 1264.58 465.213
741 0 69.6206 10.8445 755 93.351 1264.7 461.36
742 0 74.4199 13.3701 995 88.8633 1264.91 462.914
743 0 76.4751 11.8601 907 92.4653 1264.41 456.647
744 0 79.34 10.9403 868 94.7385 1264.19 456.382
745 0 83.2799 12.2478 1020 91.8333 1264.35 458.851
746 0 86.314 12.1185 1046 91.2973 1264.66 461.922
747 0 89.1851 12.7263 1135 91.9753 1264.91 457.788
748 0 92.231 12.4145 1145 91.9886 1264.43 456.512
749 0 96.1743 12.5501 1207 91.0886 1264.11 455.202
750 1 52.0248 10.5142 547 88.8154 1264.49 475.501
751 0 55.0178 11.1237 612 87.9657 1264.43 473.539
752 0 57.0893 12.1564 694 82.9395 1264.1 475.203
753 0 58.0357 10.1489 589 85.8285 1264.37 472.747
754 0 60.0583 10.9394 657 85.0548 1263.95 471.303
755 0 61.0388 10.649 650 85.7862 1264.49 472.202
756 0 65.0316 12.2248 795 83.0579 1264.89 471.307
757 0 66.0685 10.8221 715 84.9133 1263.99 471.422
758 0 69.0745 10.3367 714 85.8375 1264.08 470.092
759 0 69.1185 9.46201 654 87.5596 1263.69 469.081
760 0 71.1269 12.2317 870 84.8609 1263.62 468.31
761 0 74.1256 11.7638 872 85.4679 1264.47 468.416
762 0 75.097 10.8793 817 86.5728 1264.32 466.097
763 0 80.2012 11.6208 932 85.8187 1264.22 465.284
764 0 83.0755 11.8447 984 86.5945 1264.15 462.975
765 0 83.0835 11.338 942 88.9989 1263.83 459.274
766 0 87.228 11.4413 998 88.5511 1263.63 459.252
767 0 89.1535 12.0915 1078 88.6967 1262.87 456.126
768 0 92.1955 11.7793 1086 90.302 1262.3 455.252
769 0 95.1615 9.28947 884 93.4548 1263.25 458.592
770 0 99.2464 11.3858 1130 91.1867 1263.82 449.512
771 0 104.386 10.9689 1145 90.5825 1263.7 451.353
772 1 52.0479 9.27992 483 88.4079 1264.18 474.708
773 0 58.0584 12.5047 726 82.9463 1263.67 474.332
774 0 60.0727 12.9177 776 93.2229 1262.45 472.487
775 0 61.0846 10.0353 613 98.2855 1263.07 469.935
776 0 64.093 11.6861 749 95.4753 1262.79 469.937
777 0 66.1227 10.3142 682 98.063 1263.31 466.339
778 0 67.0491 11.8122 792 96.149 1263.52 469.937
779 0 71.0804 12.2537 871 95.4776 1263.55 467.251
780 0 72.1958 11.4273 825 98.6642 1263.2 465.43
781 0 75.0975 11.3719 854 99.3033 1263.35 464.862
782 0 76.102 12.273 934 98.4561 1263.22 464.253
783 0 81.1295 14.4707 1174 94.3986 1262.41 461.65
784 0 83.1203 12.2112 1015 99.8847 1263.07 459.185
785 0 74.1196 8.16248 605 190.747 1262.54 455.329
786 1 93.1013 13.727 1278 100.146 1261.23 429.877
787 0 95.0631 13.6751 1300 100.435 1260.67 434.267
788 0 98.1087 13.2914 1304 101.556 1261.64 437.14
789 0 102.125 14.3746 1468 99.3971 1261.31 441.646
790 0 103.112 13.5677 1399 101.253 1261.7 441.991
791 0 104.16 13.2201 1377 100.574 1261.52 440.528
792 1 55.2336 12.2751 678 97.5457 1262.51 471.702
793 0 57.4196 12.0516 692 99.9754 1263.45 470.101
794 0 59.0637 12.4442 735 86.4381 1263.54 472.129
795 0 62.0936 11.3216 703 89.9175 1262.96 471.129
796 0 61.1005 11.0801 677 92.6263 1263.12 469.298
797 0 63.1436 10.5315 665 94.8992 1261.95 470.039
798 0 66.1964 12.7197 842 91.8218 1263.17 469.894
799 0 69.1032 11.9966 829 94.6369 1263.24 468.242
800 0 68.0959 11.9684 815 96.584 1263.23 468.78
801 0 75.1757 15.9493 1199 89.5505 1263.05 465.221
802 0 76.0689 15.1573 1153 92.2637 1263.5 465.23
803 0 76.2207 13.1985 1006 105.361 1263.04 464.062
804 0 80.2328 13.1368 1054 101.282 1262.88 462.748
805 0 81.0934 12.4424 1009 105.56 1263.26 460.224
806 0 88.1125 13.4828 1188 101.87 1263.71 453.622
807 0 91.244 13.8311 1262 98.061 1263.85 455.873
808 0 93.1373 13.8398 1289 102.645 1262.72 456.433
809 1 50.0812 9.42469 472 105.263 1264.07 477.193
810 0 53.3186 11.8345 631 102.466 1262.9 476.292
811 0 54.0969 10.6291 575 100.638 1263.52 477.511
812 0 55.0961 12.3965 683 98.5124 1262.55 475.98
813 0 58.0566 11.7816 684 99.5395 1262.14 473.82
814 0 59.1181 10.775 637 101.907 1262.73 473.372
815 0 62.0897 11.9666 743 100.009 1263.21 470.606
816 0 64.1283 11.1807 717 99.8591 1262.48 471.958
817 0 67.1177 12.262 823 99.3572 1262.4 469.419
818 0 67.0471 12.5882 844 101.392 1262.92 467.806
819 0 69.0388 12.8623 888 102.025 1262.62 466.732
820 0 72.1203 12.7565 920 101.285 1262.79 467.687
821 0 76.1094 13.5726 1033 98.9593 1262.2 464.461
822 0 78.0618 13.5277 1056 100.224 1262.52 460.664
823 0 81.1857 13.9803 1135 97.8502 1262.5 459.76
824 0 84.179 12.4853 1051 100.986 1263.06 457.871
825 0 87.2181 12.6923 1107 100.59 1262.9 457.789
826 0 89.2052 11.9948 1070 103.713 1262.83 455.921
827 0 93.0741 12.4847 1162 103.88 1263.07 454.591
828 0 95.0596 13.1917 1254 104.482 1262.85 454.402
829 0 100.109 11.8371 1185 105.391 1263.36 452.36
830 0 104.195 13.2156 1377 103.043 1263.33 447.357
831 1 56.2254 9.67534 544 97.5092 1263.79 474.311
832 0 55.246 9.28574 513 103.7 1263.5 466.795
833 0 60.1564 11.52 693 95.2049 1263.94 470.061
834 0 63.3403 11.3198 717 94.0851 1262.83 467.669
835 0 64.356 10.9702 706 96.449 1262.31 464.874
836 0 68.1258 11.4494 780 95.0577 1263.27 462.003
837 0 68.1851 10.6621 727 98.2517 1263.01 464.132
838 0 72.2458 11.3225 818 96.0941 1263.56 464.834
839 0 73.2476 11.154 817 97.4553 1263.29 458.499
840 0 77.1502 12.7284 982 94.1619 1263.32 460.628
841 0 79.3608 12.0463 956 95.5837 1263.5 461.289
842 0 81.1217 9.78777 794 99.8035 1263.4 458.105
843 0 86.3894 12.733 1100 95.1973 1263.91 455.959
844 0 87.1541 11.8755 1035 97.8647 1263.15 455.473
845 0 93.2631 13.0169 1214 95.7257 1264.25 452.825
846 0 93.1785 11.8697 1106 101.307 1263.28 451.696
847 0 97.1744 12.7606 1240 100.04 1263.42 447.607
848 0 101.146 12.6352 1278 101.263 1263.48 446.286
849 0 106.434 12.947 1378 101.362 1263.03 443.998
850 1 57.2226 10.3281 591 104.667 1264.51 466.418
851 0 59.1371 12.3273 729 101.139 1264.05 470.372
852 0 60.1649 10.4047 626 100.558 1263.43 468.851
853 0 62.1171 10.9793 682 99.8196 1263.96 468.515
854 0 66.3025 12.8804 854 96.6276 1263.14 466.609
855 0 65.1296 10.4868 683 101.802 1263.01 464.302
856 0 70.2322 12.5441 881 97.891 1263.19 465.126
857 0 72.1552 11.5584 834 100.314 1263.1 462.795
858 0 75.2065 12.2463 921 98.582 1262.72 463.385
859 0 77.2015 12.1889 941 99.3454 1263.21 460.501
860 0 80.3932 14.2052 1142 95.6524 1263.48 459.116
861 0 83.3502 12.1176 1010 100.202 1263.52 458.127
862 0 85.2945 12.9903 1108 99.6246 1262.77 450.867
863 0 89.1193 12.1074 1079 100.605 1263.11 452.263
864 0 93.2825 13.2715 1238 98.5945 1263.41 452.744
865 0 95.1584 13.2936 1265 99.5502 1262.57 451.319
866 0 96.1709 11.9891 1153 107.771 1263.08 450.139
867 0 101.226 11.7559 1190 101.615 1263.12 446.213
868 0 103.227 12.3805 1278 101.303 1263.41 446.826
869 0 108.193 11.1468 1206 103.709 1263.16 443.161
870 0 116.233 13.4471 1563 98.35 1263.75 446.541
871 1 60.1618 10.8541 653 99.9709 1263.76 469.763
872 0 64.1874 11.8559 761 99.1629 1263.34 466.971
873 0 66.1721 10.8203 716 99.6439 1264.07 463.528
874 0 68.1647 12.6458 862 96.3492 1264.64 462.392
875 0 72.0798 12.8607 927 96.2438 1264.24 464.498
876 0 72.2294 12.488 902 96.9036 1264.22 462.266
877 0 75.1126 11.9288 896 99.3996 1264.55 457.743
878 0 78.1116 13.5831 1061 95.9972 1263.54 458.42
879 0 81.2001 12.463 1012 98.5464 1263.92 457.28
880 0 86.3812 13.0121 1124 96.9733 1263.79 452.39
881 0 89.196 13.6665 1219 94.1378 1263.92 453.555
882 0 89.1993 12.4889 1114 97.2926 1263.86 452.832
883 0 92.4187 13.2008 1220 96.6902 1263.49 449.32
884 0 95.4606 12.4554 1189 98.2136 1264.12 449.155
885 0 99.4062 12.967 1289 99.9364 1263.89 443.908
886 0 102.284 12.6609 1295 105.022 1263.99 435.985
887 0 105.25 13.1021 1379 102.5 1263.66 442.489
888 0 111.578 14.3756 1604 99.4807 1263.73 440.2
889 1 58.1941 11.3929 663 95.9713 1263.39 464.278
890 0 63.2525 10.6399 673 100.239 1264.12 465.26
891 0 63.1289 10.8983 688 90.6395 1264.11 462.009
892 0 65.104 10.9517 713 91.1739 1263.54 460.454
893 0 67.0572 11.1994 751 91.028 1263.72 460.991
894 0 72.144 13.5562 978 87.18 1264.38 458.386
895 0 72.2552 13.0648 944 89.4979 1264.07 458.962
896 0 74.2721 12.1176 900 93.0722 1265.04 454.919
897 0 78.1851 11.9972 938 92.7569 1264.26 455.826
898 0 81.1706 12.2951 998 91.8317 1263.86 458.104
899 0 82.2166 12.8806 1059 91.8291 1264.23 456.47
900 0 88.2167 12.2879 1084 93.6578 1263.48 453.888
901 0 90.1695 12.7649 1151 93.3875 1263.02 452.055
902 0 95.2064 14.6419 1394 89.2812 1263.21 451.823
903 0 98.1791 12.8439 1261 93.2292 1263.43 448.96
904 0 98.0916 12.4577 1222 95.1997 1263.53 446.502
905 0 101.201 13.3398 1350 94.7215 1263.98 444.481
906 0 105.147 12.8772 1354 96.2083 1263.45 441.677
907 1 55.1212 9.83288 542 98.2398 1264.42 466.614
908 0 63.2512 10.4978 664 97.5452 1263.54 467.955
909 0 66.1151 11.843 783 96.3704 1263.26 466.718
910 0 67.0854 11.2245 753 98.7118 1262.76 465.857
911 0 69.0806 11.9136 823 98.1446 1262.82 463.47
912 0 73.1465 12.5502 918 96.7331 1263.57 461.428
913 0 74.2108 12.9496 961 95.7628 1263.48 461.23
914 0 75.0897 12.8113 962 97.0769 1263.15 458.884
915 0 78.053 13.1577 1027 96.4499 1263.11 457.207
916 0 81.1643 12.333 1001 98.4426 1264.06 457.676
917 0 80.2475 11.3648 912 102.238 1263.41 454.755
918 0 85.09 11.5055 979 101.783 1264.17 452.852
919 0 87.1681 12.7684 1113 99.8526 1263.71 451.552
920 0 90.2365 12.8884 1163 100.433 1264.62 449.003
921 0 92.0979 12.6822 1168 101.067 1264.05 450.076
922 0 96.0654 14.8128 1423 96.8756 1263.57 447.342
923 0 99.1475 13.5656 1345 99.7576 1263.8 448.201
924 0 102.13 12.5918 1286 103.334 1263.35 442.015
925 0 106.161 12.9802 1378 101.102 1263.21 441.831
926 0 112.212 13.1804 1479 100.682 1263.6 441.219
927 0 117.223 13.5383 1587 100.025 1263.31 439.415
928 0 120.156 12.5753 1511 100.574 1263.54 434.697
929 0 125.147 11.2428 1407 98.5288 1264.1 434.724
930 0 130.088 11.1232 1447 98.4692 1263.93 428.198
931 0 135.311 10.8269 1465 99.2143 1262.89 428.871
932 1 73.1551 10.0061 732 88.5478 1263.92 458.561
933 0 77.1648 11.2746 870 86.0782 1263.43 459.53
934 0 79.2995 10.1388 804 89.4602 1262.82 455.29
935 0 83.2101 11.6693 971 88.7271 1263.67 456.387
936 0 85.1145 12.4421 1059 86.9103 1263.39 455.361
937 0 85.1512 10.3698 883 92.6704 1263.56 455.627
938 0 89.0864 11.1802 996 92.6857 1263.53 453.284
939 0 90.1032 11.7088 1055 93.9052 1263.38 447.457
940 0 95.1428 12.3183 1172 93.2747 1263.85 450.908
941 0 96.1189 10.5911 1018 97.7731 1264.14 449.052
942 0 100.248 10.2446 1027 99.8014 1263.51 448.148
943 0 104.079 11.7795 1226 99.7259 1264.33 443.524
944 0 110.136 11.2407 1238 101.216 1263.95 441.153
945 0 111.11 13.0052 1445 98.89 1263.83 440.215
946 0 115.207 13.3412 1537 98.9226 1263.73 439.439
947 0 120.171 12.2742 1475 101.307 1263.71 436.257
948 0 125.19 13.5394 1695 99.0755 1264.53 434.277
949 1 67.1344 9.35437 628 102 1264.16 456.435
950 0 73.1471 10.4994 768 97.5104 1263.52 459.931
951 0 76.0627 12.2925 935 93.7572 1263.43 458.814
952 0 77.1224 11.3975 879 97.033 1264.64 454.075
953 0 82.1658 11.6107 954 96.0849 1264.66 454.664
954 0 83.3063 10.4434 870 100.405 1264.5 449.884
955 0 86.1085 11.6829 1006 97.5815 1264.28 452.877
956 0 91.3472 12.3375 1127 93.6406 1263.85 451.665
957 0 90.2814 10.1017 912 98.727 1264.37 448.01
958 0 96.2178 12.4301 1196 94.1998 1264.44 445.908
959 0 97.1793 11.8029 1147 95.2424 1263.96 442.254
960 0 101.169 12.1084 1225 94.3135 1263.75 443.248
961 0 103.172 12.1836 1257 94.2243 1263.78 441.599
962 0 106.1 11.7813 1250 95.2512 1263.78 440.152
963 0 110.293 12.1767 1343 94.0894 1264.17 438.363
964 0 114.316 12.9203 1477 93.5457 1264.01 437.982
965 0 117.211 14.0772 1650 90.8842 1264.14 435.116
966 0 119.123 13.0957 1560 93.7859 1263.62 431.648
967 0 124.121 13.1404 1631 92.9234 1263.27 428.67
968 0 130.234 12.9306 1684 92.9062 1263.61 428.095
969 0 132.137 14.1671 1872 91.5502 1263.46 423.071
970 1 55.0477 9.11936 502 80.5378 1263.28 468.633
971 0 54.0756 9.13535 494 82.3077 1262.82 469.429
972 0 57.1776 10.8259 619 79.8126 1264.1 467.485
973 0 59.0893 10.4418 617 80.6402 1264.15 466.613
974 0 60.1528 12.2521 737 78.6771 1263.65 468.186
975 0 64.1754 9.91034 636 83.7076 1264.43 466.445
976 0 67.1542 10.4387 701 92.0913 1264.21 463.532
977 0 70.1445 11.0914 778 91.4653 1264.36 456.401
978 0 72.181 11.6928 844 88.9052 1264.32 464.111
979 0 75.3674 13.1091 988 88.2621 1264.78 457.552
980 0 75.0522 9.83316 738 95.4688 1264.37 455.183
981 0 82.1525 12.6594 1040 88.6904 1264.17 455.766
982 0 82.1345 11.4812 943 90.9099 1264.51 454.573
983 0 85.133 10.1606 865 91.5977 1264.06 452.771
984 0 89.1582 11.4964 1025 88.7756 1263.64 453.025
985 1 44.0488 8.15006 359 89.9805 1262.51 473.838
986 0 46.0474 10.6412 490 87.149 1262.53 473.51
987 0 50.0112 10.2377 512 86.332 1262.99 474.379
988 0 49.0468 9.09336 446 90.287 1262.73 470.729
989 0 50.1275 9.25639 464 88.6056 1263.21 472.403
990 0 53.0286 11.4089 605 85.1636 1262.91 469.051
991 0 52.0272 10.802 562 86.1957 1263.02 469.463
992 0 55.1157 9.85201 543 88.3941 1262.64 467.486
993 0 58.1048 10.9629 637 86.7488 1263 467.889
994 0 56.1374 9.9577 559 89.3792 1264.54 464.519
995 0 58.2212 10.1509 591 88.1997 1264.44 461.878
996 0 61.088 8.23402 503 90.5726 1264.75 462.501
997 0 62.2233 11.6837 727 86.5021 1264.69 461.296
998 0 63.1199 9.4265 595 89.4824 1264.91 463.326
999 0 67.1338 11.4696 770 86.3156 1265.02 462.271
1000 0 69.2088 13.2209 915 83.7443 1264.86 462.011
1001 0 69.191 11.3888 788 88.2234 1265.27 459.194
1002 0 74.1492 12.5962 934 86.3351 1264.79 456.41
1003 0 75.085 11.2273 843 88.3203 1265.01 456.556
1004 0 77.289 11.5799 895 89.1888 1264.31 452.082
1005 0 78.3255 10.9798 860 91.6105 1264.31 454.235
1006 0 82.1842 11.2552 925 91.52 1264.01 452.321
1007 0 85.0905 11.9755 1019 90.0255 1264.35 453.108
1008 0 89.084 12.0785 1076 90.4833 1264.28 448.886
1009 0 94.256 13.7392 1295 87.1614 1264.51 450.576
1010 0 95.1523 12.7059 1209 90.0629 1264.06 446.926
1011 0 97.1374 11.9521 1161 91.9053 1265.59 442.335
1012 1 54.05 12.7845 691 83.6122 1265.11 469.019
1013 0 54.137 11.6002 628 88.6417 1264.69 466.709
1014 0 57.107 11.3821 650 89.7923 1264.68 464.442
1015 0 60.0713 13.0678 785 88.451 1265.27 465.208
1016 0 64.078 12.9373 829 87.3691 1264.71 464.992
1017 0 65.1553 13.2913 866 87.56 1264.46 461.674
1018 0 67.1501 11.035 741 91.8691 1264.46 458.3
1019 0 68.1112 10.3507 705 94.0851 1264.47 455.379
1020 0 74.2524 13.508 1003 87.5474 1263.98 458.096
1021 0 76.137 12.2279 931 90.3835 1263.67 455.349
1022 0 78.0878 11.692 913 92.6364 1264.34 447.915
1023 0 81.1202 11.5754 939 92.6251 1264.05 454.616
1024 0 84.1837 13.4468 1132 91.4214 1264.18 452.228
1025 0 86.345 12.0794 1043 96.2522 1263.98 450.407
1026 0 89.2732 13.9572 1246 92.0642 1264.28 449.578
1027 0 89.2732 14.0132 1251 139.925 1264.29 449.608
1028 0 98.2652 13.4636 1323 94.6085 1263.78 447.195
1029 0 98.2589 11.5918 1139 99.3257 1263.1 447.248
1030 1 54.0721 12.5573 679 91.592 1263.29 468.847
1031 0 55.3135 11.7331 649 90.1156 1264.71 468.794
1032 0 55.4046 11.028 611 90.8854 1263.88 466.398
1033 0 56.2568 11.0209 620 90.5839 1264.37 467.315
1034 0 59.1805 11.1523 660 90.4424 1264.93 465.218
1035 0 60.092 12.847 772 88.351 1264.67 464.768
1036 0 62.2196 9.96471 620 92.9145 1265.17 465.005
1037 0 64.3198 11.3029 727 92.0082 1265.03 462.435
1038 0 66.1748 11.7718 779 92.3119 1265.4 459.883
1039 0 67.2128 11.5603 777 92.0888 1265.3 461.398
1040 0 72.1264 12.4365 897 89.7581 1264.18 460.373
1041 0 73.1348 11.0071 805 91.8199 1264.67 458.119
1042 0 77.1161 13.3694 1031 88.5965 1264.68 456.335
1043 0 79.1482 11.2068 887 91.8061 1264.59 452.804
1044 0 81.2103 9.94948 808 93.1176 1264.68 455.079
1045 0 83.1094 11.4427 951 91.0231 1264.18 448.903
1046 0 88.2024 12.7774 1127 89.1934 1265.37 450.551
1047 0 90.288 12.1943 1101 91.8474 1265.23 449.068
1048 0 93.064 13.0985 1219 91.7703 1265.54 446.71
1049 0 98.1087 12.0071 1178 92.6638 1264.44 443.665
1050 0 99.1711 11.1827 1109 95.2633 1264.44 442.179
1051 1 56.0671 10.6658 598 89.9565 1264.07 466.684
1052 0 56.1897 9.69929 545 91.4972 1264.03 465.598
1053 0 58.0957 12.1179 704 94.419 1264.33 460.655
1054 0 59.0518 8.83969 522 99.7146 1264.54 460.992
1055 0 57.0453 10.6582 608 98.5049 1264.41 455.5
1056 0 69.0607 11.3234 782 94.6752 1264 457.02
1057 0 72.1738 10.6133 766 94.9608 1264.79 458.461
1058 0 76.0712 9.83289 748 96.8302 1264.87 454.333
1059 0 79.104 11.8578 938 93.0512 1264.86 454.973
1060 0 82.107 10.5229 864 95.6748 1265.26 451.341
1061 0 85.0839 12.3878 1054 92.6565 1265.32 456.121
1062 0 88.0966 12.7474 1123 94.5316 1264.88 451.326
1063 0 91.136 14.4838 1320 91.8379 1264.86 452.392
1064 0 94.135 13.3 1252 95.0024 1264.3 450.179
1065 0 97.1015 13.1306 1275 96.2573 1264.2 449.118
1066 0 102.088 13.3904 1367 95.5538 1265.01 448.67
1067 0 104.101 13.1219 1366 97.265 1264.66 444.362
1068 0 104.101 13.1507 1369 142.831 1264.67 444.418
1069 0 104.099 13.1701 1371 142.164 1264.67 444.62
1070 1 116.07 13.4401 1560 98.4718 1265.23 437.283
1071 0 118.127 13.9765 1651 98.146 1264.99 436.589
1072 0 121.166 14.2697 1729 98.5708 1264.9 432.308
1073 1 64.1361 12.645 811 90.7102 1264.5 465.039
1074 0 65.0692 11.5416 751 96.5419 1264.75 463.197
1075 0 67.2677 12.1752 819 97.9011 1264.8 463.18
1076 0 70.09 11.1571 782 101.297 1265.7 459.678
1077 0 75.2262 12.8811 969 97.3354 1264.62 459.353
1078 0 79.0784 12.8354 1015 96.3596 1265.3 456.287
1079 0 80.0925 12.3857 992 96.7873 1264.8 455.846
1080 0 83.0698 13.1456 1092 95.8837 1265.08 454.46
1081 0 84.0506 12.1118 1018 98.4656 1265.53 452.96
1082 0 87.1162 13.1434 1145 97.2734 1265.21 449.637
1083 0 92.2633 12.8328 1184 98.1394 1265 448.017
1084 0 94.0776 12.8192 1206 98.7628 1264.85 446.89
1085 0 96.119 13.3688 1285 98.3105 1265.85 448.196
1086 0 100.186 13.1855 1321 99.0954 1265.68 447.004
1087 0 103.192 13.9061 1435 98.407 1264.87 441.989
1088 0 103.192 13.8867 1433 141.042 1263.87 441.823
1089 0 110.178 12.4707 1374 101.191 1265.7 441.531
1090 1 59.0307 9.84233 581 97.1136 1265.95 465.468
1091 0 63.0807 12.3017 776 96.7513 1266.01 462.894
1092 0 65.105 12.3493 804 100.617 1266.03 460.029
1093 0 71.1181 12.6691 901 100.244 1266.11 457.595
1094 0 72.1534 10.5747 763 106.591 1265.49 455.246
1095 0 72.1044 11.7885 850 104.509 1265.8 450.18
1096 0 80.2489 12.3865 994 101.176 1265.64 452.426
1097 0 79.1043 12.0221 951 103.852 1265.17 450.244
1098 0 84.1698 12.2134 1028 103.111 1265.86 451.699
1099 0 88.127 12.8564 1133 104.184 1265.59 446.565
1100 0 89.111 12.4115 1106 105.736 1265.22 445.91
1101 0 97.1172 13.2005 1282 103.522 1265.04 444.531
1102 0 99.127 13.9417 1382 102.332 1265.51 443.168
1103 0 102.148 13.4903 1378 103.624 1266.05 441.752
1104 0 104.199 12.7064 1324 105.785 1266.48 439.288
1105 0 107.133 13.1985 1414 104.792 1265.99 435.891
1106 1 61.025 12.372 755 97.3828 1266.39 459.211
1107 0 62.0767 12.0657 749 96.2937 1266.67 462.132
1108 0 63.0476 11.753 741 100.996 1266.07 461.054
1109 0 65.0388 11.1626 726 99.5372 1265.94 463.917
1110 0 67.0554 10.9313 733 100.389 1265.09 459.81
1111 0 69.1613 10.4538 723 101.195 1265.46 458.354
1112 0 71.0819 9.97441 709 102.327 1265.55 453.808
1113 0 74.0617 12.3276 913 97.9124 1265.28 455.869
1114 0 79.2444 12.8968 1022 95.817 1264.65 455.288
1115 0 81.2443 12.5917 1023 95.7517 1265.31 454.68
1116 0 85.1374 12.8968 1098 96.5191 1265.03 450.544
1117 0 87.1762 12.4575 1086 97.6556 1264.9 449.634
1118 0 89.0969 10.887 970 100.913 1265.11 446.616
1119 0 91.2409 12.33 1125 100.674 1264.89 443.578
1120 0 95.3057 12.4337 1185 100.911 1265.68 443.204
1121 0 97.2836 11.9445 1162 103.035 1265.26 439.335
1122 0 102.206 11.3007 1155 102.764 1265.44 437.649
1123 0 106.236 11.7756 1251 100.732 1265.61 439.111
1124 0 111.137 10.8245 1203 102.755 1265.38 435.424
1125 1 63.0721 11.7167 739 91.2382 1265.64 462.731
1126 0 64.1546 10.8644 697 96.1205 1265.44 460.759
1127 0 67.1134 11.7115 786 102.625 1265.23 460.038
1128 0 71.1388 10.1632 723 104.474 1264.79 458.456
1129 0 74.2048 11.4952 853 102.68 1264.79 457.171
1130 0 76.0716 11.7521 894 101.779 1264.9 458.147
1131 0 79.0636 12.3066 973 101.186 1265.49 455.616
1132 0 82.0378 12.9818 1065 100.42 1264.73 451.968
1133 0 86.1973 13.3415 1150 98.72 1265.21 451.171
1134 0 87.1219 12.1324 1057 102.946 1265.53 449.934
1135 0 88.1119 12.7452 1123 104.262 1265.68 445.849
1136 0 90.2298 12.0359 1086 106.352 1265.1 443.126
1137 0 96.1018 12.1746 1170 104.597 1265.02 443.015
1138 0 101.247 13.0769 1324 102.216 1265.86 443.575
1139 0 99.2582 13.2382 1314 102.235 1264.59 441.621
1140 0 105.267 13.822 1455 96.7759 1264.53 440.421
1141 0 110.232 13.3083 1467 101.819 1265.32 439.411
1142 0 111.214 12.2197 1359 105.492 1264.25 436.618
1143 0 117.345 13.0896 1536 104.775 1265.6 433.707
1144 1 63.1611 10.6711 674 104.463 1266.41 461.862
1145 0 66.0626 11.807 780 102.256 1265.29 461.291
1146 0 69.0685 12.712 878 94.9579 1264.74 461.211
1147 0 71.0991 11.7582 836 93.9976 1266.12 458.043
1148 0 74.1022 13.4139 994 91.174 1265.32 458.412
1149 0 75.1142 11.6356 874 95.6522 1264.82 453.452
1150 0 78.2215 11.8126 924 93.6396 1264.49 455.312
1151 0 79.1454 11.7379 929 95.0775 1265.12 454.396
1152 0 83.1144 11.779 979 96.4454 1265.59 450.635
1153 0 85.1364 12.0043 1022 95.7456 1265.14 450.494
1154 0 88.0782 13.0452 1149 94.6353 1265.37 450.938
1155 0 94.2187 12.4604 1174 96.6405 1266.08 436.546
1156 0 95.1516 11.9914 1141 96.7388 1265.41 437.954
1157 0 101.105 12.2942 1243 95.3146 1266.19 441.109
1158 0 102.103 11.6941 1194 96.3953 1265.91 443.055
1159 0 102.103 11.7235 1197 142.022 1265.92 443.109
1160 0 108.225 11.7625 1273 97.9544 1265.87 442.971
1161 0 111.129 12.283 1365 98.5648 1265.99 439.634
1162 0 113.104 10.7423 1215 101.667 1265.34 442.193
1163 0 119.154 13.0588 1556 98.0257 1265.26 436.426
1164 1 67.0292 11.398 764 95.8678 1265.68 462.839
1165 0 67.0668 11.6898 784 101.116 1266.09 460.028
1166 0 68.166 12.983 885 100.299 1265.14 455.626
1167 0 73.0851 11.685 854 102.201 1264.92 453.7
1168 0 77.1194 11.9036 918 101.572 1265.16 454.525
1169 0 78.0495 12.9149 1008 101.115 1265.12 451.938
1170 0 80.0909 12.0613 966 103.385 1265.03 451.34
1171 0 86.1181 14.7124 1267 97.6527 1265.45 450.778
1172 0 86.0648 11.8748 1022 103.836 1265.94 450.96
1173 0 90.1592 13.7313 1238 101.342 1265.33 447.906
1174 0 93.1218 13.4555 1253 102.277 1265.73 445.654
1175 0 94.1074 12.3795 1165 105.756 1265.2 444.037
1176 0 99.2389 13.0997 1300 104.3 1265.47 442.043
1177 0 103.104 14.2381 1468 102.202 1265.31 440.926
1178 0 105.204 13.374 1407 104.891 1265.03 440.654
1179 0 108.181 13.4312 1453 105.012 1265.62 440.473
1180 0 112.324 14.1109 1585 103.857 1265.24 436.483
1181 0 116.173 14.0652 1634 103.965 1264.7 435.608
1182 1 63.0936 12.5845 794 95.9081 1265.8 459.144
1183 0 66.1308 12.1577 804 92.8781 1265.39 461.828
1184 0 69.0667 11.5685 799 91.3392 1265.61 459.652
1185 0 71.0419 14.9208 1060 85.8047 1265.37 459.165
1186 0 74.1015 12.4559 923 89.5937 1265.49 460.577
1187 0 74.1513 12.4475 923 91.1246 1265.9 458.258
1188 0 77.0928 12.7249 981 90.9205 1266.34 458.311
1189 0 80.0334 13.7568 1101 89.7929 1265.79 453.003
1190 0 83.1479 12.604 1048 91.5821 1265.74 456.282
1191 0 85.132 13.6259 1160 91.2474 1265.06 453.797
1192 0 85.0968 13.2555 1128 93.4911 1265.43 451.612
1193 0 89.2147 14.3698 1282 93.9672 1264.94 443.714
1194 0 91.1282 13.0256 1187 94.7885 1264.59 449.589
1195 0 95.0595 14.3699 1366 93.4949 1265.23 447.804
1196 0 97.2924 13.2487 1289 98.1482 1265.74 445.467
1197 0 98.135 14.0725 1381 101.063 1266.1 442.199
1198 0 100.099 12.6075 1262 105.575 1265.53 440.857
1199 0 105.176 14.5661 1532 101.615 1264.4 438.275
1200 0 108.17 13.941 1508 102.781 1264.9 437.082
1201 1 59.0453 12.465 736 99.2174 1264.41 462.909
1202 0 60.08 12.4834 750 101.128 1265.08 463.212
1203 0 63.1061 12.9464 817 98.2778 1265.92 463.579
1204 0 62.0477 12.6032 782 102.624 1266.49 461.698
1205 0 66.1035 13.5847 898 99.8508 1265.47 460.149
1206 0 68.1091 12.157 828 104.03 1265.28 458.742
1207 0 69.0314 12.7913 883 103.852 1265.84 459.549
1208 0 72.0718 12.9038 930 103.038 1264.81 455.663
1209 0 75.0946 14.2221 1068 99.9925 1265.07 456.455
1210 0 74.1789 13.2248 981 102.7 1265.8 455.285
1211 0 79.132 13.6734 1082 101.162 1265.32 452.866
1212 0 83.0878 14.0213 1165 99.4446 1265.45 451.96
1213 0 84.0893 13.4262 1129 101.696 1265.13 449.919
1214 0 88.061 14.2174 1252 99.246 1265.35 448.76
1215 0 89.1548 13.2466 1181 101.212 1265.73 450.345
1216 0 91.0978 13.1287 1196 101.434 1264.89 447.845
1217 0 94.14 13.3206 1254 101.363 1265.3 447.747
1218 0 99.2123 13.6677 1356 99.267 1265.35 445.845
1219 0 100.309 12.6908 1273 102.174 1264.94 445.683
1220 0 104.303 14.3141 1493 99.4474 1265.45 443.287
1221 0 104.21 13.4824 1405 102.334 1265.53 441.467
1222 0 109.327 14.0405 1535 101.38 1265.33 439.487
1223 0 114.162 13.9539 1593 100.725 1265.5 437.367
1224 0 116.212 13.5787 1578 103.072 1265.11 433.221
1225 0 123.254 13.8982 1713 101.421 1265.7 433.316
1226 0 125.222 13.8474 1734 102.768 1265.62 432.715
1227 1 67.0769 11.2259 753 106.308 1265.56 460.39
1228 0 72.1535 12.8753 929 102.608 1265.47 460.056
1229 0 74.1025 13.3194 987 102.658 1265.57 458.573
1230 0 77.1388 13.3785 1032 103.457 1265.35 456.116
1231 0 79.0845 14.1115 1116 102.524 1266.01 456.505
1232 0 81.0809 13.283 1077 105.87 1266.17 452.692
1233 0 83.0913 13.2505 1101 106.205 1265.63 452.267
1234 0 85.1547 13.5753 1156 106.619 1265.87 450.545
1235 0 87.2103 13.1177 1144 107.858 1265.82 447.89
1236 0 92.1874 14.6549 1351 105.393 1266.76 449.376
1237 0 89.0906 13.3572 1190 111.686 1266.09 445.829
1238 0 95.1492 13.7573 1309 109.458 1267 444.687
1239 0 97.0956 13.4507 1306 110.739 1266.84 442.867
1240 0 99.2459 12.8469 1275 103.608 1267.43 448.551
1241 0 103.1 12.677 1307 104.064 1267.03 443.978
1242 0 106.161 11.6427 1236 105.429 1266.16 445.049
1243 0 113.134 12.7724 1445 103.844 1266.72 440.59
1244 0 115.107 11.2851 1299 107.334 1266.21 440.475
1245 0 115.083 11.2876 1299 135.533 1265.21 440.393
1246 1 67.0908 11.9241 800 109.248 1266.13 463.294
1247 0 69.0996 12.851 888 108.42 1266.04 462.515
1248 0 67.1073 12.1447 815 110.586 1266.53 459.255
1249 0 70.205 12.6772 890 108.985 1266.4 459.692
1250 0 73.0995 12.9413 946 108.45 1266.64 458.768
1251 0 76.1811 13.3104 1014 100.178 1266.36 458.526
1252 0 78.1222 11.482 897 103.486 1266.66 457.545
1253 0 83.0897 11.7945 980 102.758 1266.46 458.827
1254 0 84.0802 12.4048 1043 102.658 1265.87 457.258
1255 0 87.0676 14.0121 1220 101.962 1265.69 450.649
1256 0 90.0875 13.4203 1209 102.28 1266.14 451.913
1257 0 90.1714 12.687 1144 104.036 1265.81 451.524
1258 0 93.1058 12.9745 1208 105.527 1265.09 446.716
1259 0 99.1731 13.8041 1369 106.971 1265.94 448.207
1260 0 99.2891 13.6873 1359 111.792 1264.51 446.446
1261 0 103.113 13.0149 1342 112.146 1264.78 446.075
1262 1 58.0484 12.903 749 111.103 1265.69 465.865
1263 0 61.1842 12.2744 751 113.458 1267.24 466.3
1264 0 60.205 13.8859 836 112.434 1266.39 464.305
1265 0 65.0839 13.3981 872 112.7 1266.71 463.578
1266 0 65.1322 13.3114 867 108.633 1266.42 464.804
1267 0 66.0633 13.8201 913 107.79 1265.29 464.497
1268 0 69.0611 13.8139 954 113.041 1265.51 462.305
1269 0 73.0273 15.0765 1101 111.257 1265.53 460.693
1270 0 74.0941 13.9012 1030 114.79 1265.98 460.027
1271 0 75.0286 13.5015 1013 116.754 1266.58 459.053
1272 0 80.0631 15.5252 1243 110.809 1266.33 456.531
1273 0 83.1494 14.1673 1178 112.03 1266.1 458.278
1274 0 82.1228 14.3566 1179 113.401 1266.57 456.615
1275 0 86.1205 14.3868 1239 111.316 1266.94 456.303
1276 0 90.1734 14.3723 1296 111.214 1266.83 455.987
1277 0 90.2846 14.2771 1289 113.068 1266.97 452.981
1278 0 95.0752 14.4307 1372 112.786 1267.44 450.958
1279 0 98.1049 14.566 1429 112.437 1266.58 449.72
1280 0 101.121 12.9844 1313 115.677 1266.68 449.561
1281 0 104.227 15.4182 1607 110.862 1266.87 443.683
1282 0 108.169 14.311 1548 112.468 1266.09 443.93
1283 1 62.1411 12.8095 796 117.291 1266.78 465.593
1284 0 63.1797 13.2479 837 113.93 1265.84 466.319
1285 0 65.1922 13.9281 908 108.814 1266.97 463.439
1286 0 64.2124 13.4865 866 111.607 1267.52 463.26
1287 0 66.1668 14.5541 963 109.752 1267.33 460.909
1288 0 68.367 13.2374 905 112.243 1267.43 461.368
1289 0 70.1442 12.7024 891 113.044 1267.13 459.864
1290 0 75.3716 13.1615 992 111.731 1267.13 456.777
1291 0 76.1568 14.956 1139 108.319 1266.96 455.188
1292 0 79.1303 15.089 1194 107.056 1266.93 455.245
1293 0 82.1535 13.7182 1127 109.789 1267.18 453.122
1294 0 84.1955 13.8962 1170 109.332 1267.28 450.529
1295 0 86.1229 12.9466 1115 110.847 1267.36 452.572
1296 0 90.2507 14.504 1309 106.854 1267.3 449.853
1297 0 93.311 13.3103 1242 109.738 1267.81 448.604
1298 0 93.1367 12.487 1163 112.169 1268.12 446.04
1299 0 98.3953 13.4153 1320 108.749 1267.53 445.305
1300 0 97.238 12.1866 1185 112.724 1267.25 444.516
1301 0 105.382 13.3039 1402 108.984 1266.39 442.802
1302 0 109.282 13.0122 1422 110.591 1267.16 440.014
1303 0 115.254 14.0819 1623 108.921 1266.92 438.501
1304 1 56.1641 11.3774 639 115.535 1267.68 461.228
1305 0 62.3558 13.5673 846 108.554 1267.5 461.24
1306 0 63.4484 12.4195 788 110.508 1268.14 462.641
1307 0 66.3045 12.3974 822 110.27 1267.57 459.742
1308 0 68.2751 13.3431 911 108.459 1267.76 458.766
1309 0 71.2026 13.5669 966 107.332 1268.78 457.747
1310 0 74.2744 15.2139 1130 104.254 1268.61 457.135
1311 0 76.1988 14.659 1117 105.928 1267.4 456.141
1312 0 79.1019 14.1716 1121 106.927 1267.66 455.135
1313 0 80.2162 14.0869 1130 108.317 1267.25 453.095
1314 0 82.2404 11.9649 984 113.815 1267.88 450.621
1315 0 86.2109 13.7454 1185 108.505 1267.18 452.851
1316 0 88.211 12.8102 1130 110.596 1267.4 450.43
1317 0 92.1924 13.7864 1271 108.596 1267.08 448.542
1318 0 95.1761 14.0161 1334 108.382 1266.78 445.213
1319 0 98.2828 14.2955 1405 107.8 1266.72 444.958
1320 0 100.141 13.6806 1370 109.587 1266.64 444.655
1321 0 104.252 14.3882 1500 106.895 1265.85 444.773
1322 0 106.177 14.1745 1505 108.249 1266.02 441.369
1323 0 108.301 14.432 1563 108.015 1265.39 439.917
1324 0 111.206 12.4364 1383 111.806 1265.98 436.426
1325 0 114.246 13.2171 1510 109.023 1265.48 439.037
1326 0 120.264 13.4372 1616 108.214 1266.55 436.282
1327 1 65.1696 12.3064 802 108.867 1265.63 461.115
1328 0 68.1638 11.7951 804 109.036 1265.9 461.562
1329 0 69.1368 11.2241 776 110.881 1265.72 459.804
1330 0 71.1821 12.6015 897 108.588 1265.82 458.828
1331 0 75.2332 14.1028 1061 105.69 1266.39 455.299
1332 0 75.4128 12.6636 955 109.24 1266.31 454.4
1333 0 80.3148 13.4969 1084 106.741 1265.76 454.402
1334 0 82.2355 13.4613 1107 106.911 1265.18 452.374
1335 0 84.3401 14.4534 1219 104.347 1265.07 453.162
1336 0 86.2311 13.2667 1144 107.456 1265.76 448.556
1337 0 89.1983 13.5989 1213 106.549 1264.9 447.961
1338 0 93.267 14.6461 1366 103.53 1265.71 451.867
1339 0 96.2803 14.6447 1410 103.606 1265.39 449.436
1340 0 97.1392 13.599 1321 107.618 1266.2 444.916
1341 0 101.203 13.5667 1373 107.476 1265.87 444.925
1342 0 102.092 14.2617 1456 107.051 1265.31 443.071
1343 0 106.286 13.9059 1478 107.765 1265.35 442.903
1344 0 110.322 13.9863 1543 107.835 1265.44 439.657
1345 0 115.267 14.2365 1641 106.517 1265.15 437.74
1346 0 120.163 14.5052 1743 106.2 1264.87 435.192
1347 0 124.188 14.1801 1761 107.357 1265.03 434.961
1348 0 127.154 12.7326 1619 112.085 1265.44 431.458
1349 0 127.294 12.9542 1649 113.386 1265.22 428.873
1350 0 134.321 13.3561 1794 113.394 1265.51 428.181
1351 0 140.255 13.725 1925 115.345 1265.33 427.637
1352 0 145.342 13.4235 1951 119.117 1264.29 421.284
1353 0 149.247 13.8094 2061 120.011 1265.91 422.366
1354 0 151.209 14.1394 2138 119.518 1264.87 411.912
1355 0 157.297 12.9182 2032 122.438 1265.48 412.021
1356 1 83.0525 6.61027 549 117.834 1265.31 444.038
1357 0 89.1027 8.68661 774 112.606 1265 446.345
1358 0 92.1436 7.61855 702 113.632 1264.7 445.728
1359 0 92.0602 8.33151 767 116.094 1265 440.14
1360 0 94.2048 8.85305 834 115.704 1265.19 438.416
1361 0 100.174 9.773 979 112.085 1265.32 441.707
1362 0 100.136 9.9365 995 111.089 1265.39 441.002
1363 0 104.162 7.15231 745 114.4 1264.9 440.407
1364 0 105.124 8.07619 849 115.92 1264.5 433.525
1365 0 101.114 8.00087 809 116.923 1264.67 427.314
1366 1 116.194 4.77648 555 120.245 1264.89 431.447
1367 0 113.119 8.61037 974 115.6 1264.91 431.237
1368 0 116.235 8.06126 937 115.526 1265.46 425.808
1369 0 122.182 6.80954 832 116.534 1263.82 427.578
1370 0 125.218 5.74199 719 128.73 1265.14 413.43
1371 0 121.179 5.20718 631 128.255 1264.11 416.604
1372 0 122.154 2.17758 266 135.722 1264.58 414.977
1373 0 119.118 4.32344 515 121.118 1264.21 430.817
1374 0 125.092 1.44694 181 122.873 1265.5 437.663
1375 1 222.362 15.0745 3352 121.328 1264.15 379.834
1376 0 226.342 11.5622 2617 132.506 1264.06 372.323
1377 0 234.43 13.0402 3057 129.014 1263.34 370.97
1378 0 239.443 10.4785 2509 138.523 1263.58 349.354
1379 0 251.385 12.9165 3247 129.449 1262.88 359.855
1380 0 258.405 14.1754 3663 126.192 1263.64 351.29
1381 0 267.332 12.419 3320 130.909 1263 351.059
1382 0 274.39 12.5442 3442 130.705 1262.39 345.314
1383 0 273.308 9.23136 2523 136.758 1262.12 351.646
1384 0 273.313 3.81614 1043 151.042 1262.39 339.643
1385 1 112.22 8.50116 954 102.249 1263.74 433.879
1386 0 118.183 8.74917 1034 102.739 1263.58 435.239
1387 0 119.165 8.13162 969 104.439 1263.57 428.743
1388 0 124.145 9.30364 1155 101.614 1262.83 433.474
1389 0 126.143 8.19704 1034 104.306 1263.66 426.829
1390 0 128.225 6.96435 893 108.952 1263.85 421.045
1391 1 189.397 9.0128 1707 113.76 1262.67 407.103
1392 1 243.307 6.80211 1655 130.682 1262.92 362.404
1393 0 252.521 6.87466 1736 129.093 1262.45 365.461
1394 0 262.466 5.97793 1569 125.933 1262.03 380.286
1395 0 272.524 9.0891 2477 123.613 1262.76 364.763
1396 0 279.912 9.00999 2522 121.2 1263.39 369.206
1397 1 223.403 9.52092 2127 113.456 1262.76 386.358
1398 0 227.449 8.06334 1834 118.382 1263.21 378.102
1399 1 52.0852 2.57271 134 91.6045 1263.9 484.037
1400 0 53.1676 6.4513 343 91.2682 1263.81 475.948
1401 1 113.083 4.6426 525 107.505 1263.94 443.259
1402 0 113.117 8.57521 970 100.507 1263.9 441.075
1403 0 114.108 8.98274 1025 99.2283 1264.33 442.302
1404 0 120.104 10.724 1288 95.6693 1264.08 443.092
1405 0 120.105 9.48338 1139 97.7621 1263.93 443.432
1406 0 124.14 10.609 1317 96.0592 1263.61 441.764
1407 0 127.154 10.8058 1374 96.5953 1262.93 437.568
1408 0 130.218 10.06 1310 98.2664 1262.93 437.043
1409 0 134.268 9.45124 1269 99.5674 1261.78 434.36
1410 0 136.281 11.0507 1506 97.6607 1262.55 431.972
1411 0 137.22 9.65602 1325 101.299 1263.08 431.46
1412 1 76.1432 9.57406 729 88.3004 1263.13 461.457
1413 0 78.1254 9.48475 741 88.9339 1264.32 459.429
1414 0 79.2046 9.57015 758 88.6385 1263.72 460.777
1415 0 81.2136 9.59199 779 90.1181 1263.96 457.14
1416 0 84.1524 10.9682 923 85.8397 1264.13 457.04
1417 0 86.296 9.56011 825 87.6194 1263.73 456.57
1418 0 89.1744 9.67766 863 87.3835 1264.34 457.696
1419 0 92.1493 11.5465 1064 85.8487 1263.63 455.78
1420 0 95.1512 12.5485 1194 86.0302 1264.43 456.172
1421 0 97.1018 11.4416 1111 90.2097 1264.09 454.392
1422 0 96.0689 10.5133 1010 92.7713 1264.18 453.352
1423 0 99.1687 10.3763 1029 94.4354 1263.9 452.021
1424 0 102.188 11.381 1163 93.9209 1264.12 448.437
1425 0 106.204 11.3837 1209 93.4194 1263.48 451.815
1426 0 107.209 10.652 1142 96.8853 1263.75 444.941
1427 0 112.157 10.3338 1159 96.7343 1263.06 448.085
1428 0 114.16 11.2824 1288 95.7306 1263.84 444.407
1429 0 118.203 9.54293 1128 100.443 1262.87 435.842
1430 0 122.23 11.0284 1348 98.201 1263.63 442.944
1431 0 124.204 11.8354 1470 97.4708 1263.03 438.57
1432 0 127.214 11.5396 1468 98.5981 1263.02 435.83
1433 0 135.295 12.7129 1720 95.1651 1263.23 436.447
1434 0 137.436 11.962 1644 96.3029 1262.98 434.849
1435 0 142.328 12.0567 1716 96.8648 1262.65 430.305
1436 0 145.217 11.6997 1699 99.8805 1262.96 425.988
1437 1 84.1604 11.9534 1006 89.4066 1262.43 453.351
1438 0 85.267 9.85141 840 92.7512 1262.32 453.537
1439 0 86.4382 9.97244 862 92.2854 1261.78 454.015
1440 0 89.1511 10.2859 917 92.0981 1261.9 452.047
1441 0 92.1996 10.0651 928 93.5011 1261.07 450.814
1442 0 96.2982 11.0698 1066 91.8856 1262.43 450.064
1443 0 96.2004 10.3118 992 94.3256 1261.77 449.971
1444 0 100.111 9.10992 912 94.659 1261.65 452.578
1445 0 103.256 10.779 1113 93.8113 1261.63 447.214
1446 0 106.073 12.2935 1304 91.0245 1261.52 447.833
1447 0 106.185 10.3687 1101 95.5168 1262.89 443.223
1448 0 111.206 11.2404 1250 93.0072 1262.28 445.922
1449 0 113.187 10.7963 1222 95.2962 1262.43 442.873
1450 0 117.299 10.7844 1265 94.634 1262.43 442.628
1451 0 121.347 12.1388 1473 92.2675 1261.92 440.433
1452 0 123.225 12.0836 1489 92.3721 1262.45 439.633
1453 0 127.37 12.4048 1580 92.8848 1262.19 434.335
1454 0 127.37 12.4048 1580 133.437 1261.2 434.523
1455 1 73.1925 9.30423 681 88.3054 1262.84 457.811
1456 0 73.1032 10.5057 768 87.1302 1262.64 459.603
1457 0 72.1076 10.6924 771 88.4008 1262.07 458.001
1458 0 78.2547 9.44352 739 90.0771 1262.77 454.936
1459 0 82.1259 11.3728 934 86.6745 1263.11 455.624
1460 0 84.1793 10.0619 847 88.5466 1262.93 454.871
1461 0 85.1319 10.2547 873 89.0756 1263.04 451.506
1462 0 87.1916 9.50779 829 90.2244 1262.79 452.762
1463 0 85.151 9.55949 814 91.3587 1261.88 448.297
1464 0 95.1909 11.9759 1140 86.4018 1262.68 449.466
1465 0 99.232 13.0603 1296 84.2122 1262.51 449.435
1466 0 98.117 11.4353 1122 88.2068 1263.54 444.727
1467 0 102.103 13.0163 1329 85.4928 1262.99 447.341
1468 0 105.168 11.011 1158 88.6071 1262.97 444.465
1469 0 104.118 9.89258 1030 92.2214 1262.07 436.966
1470 0 113.118 12.0935 1368 87.3392 1262.94 441.859
1471 0 116.422 12.8498 1496 86.3703 1262.49 439.698
1472 0 118.144 11.8245 1397 88.7058 1262.97 438.495
1473 0 122.338 11.1576 1365 89.5172 1262.79 436.117
1474 0 125.207 11.0537 1384 89.8851 1263.43 432.368
1475 0 132.314 11.9715 1584 87.5581 1263.66 435.366
1476 0 133.147 11.2883 1503 90.0872 1262.37 426.5
1477 1 79.1408 11.2458 890 78.1303 1264.08 462.442
1478 0 82.1855 13.6034 1118 75.3462 1263.22 460.192
1479 0 81.1018 9.62988 781 81.6146 1263.75 457.72
1480 0 87.1997 10.4588 912 80.7522 1263.16 458.543
1481 0 88.2257 10.8698 959 80.5923 1263.68 460.114
1482 0 90.1363 10.6394 959 82.3139 1263.99 456.937
1483 0 94.2947 11.761 1109 80.8494 1263.17 456.95
1484 0 95.3139 10.9533 1044 83.4502 1263.41 452.443
1485 0 99.16 12.3134 1221 81.7142 1263.91 450.333
1486 0 104.157 12.1739 1268 82.1151 1263.41 452.421
1487 0 108.292 12.4478 1348 81.9555 1263.94 450.332
1488 0 109.324 12.7968 1399 82.1694 1263.28 448.183
1489 0 112.168 12.1247 1360 84.025 1262.72 448.409
