time division length width area intensity CMx CMy
0 0 76.1251 13.3202 1014 81.5464 1341.53 452.927
1 0 81.1911 12.1196 984 86.2978 1341.65 448.632
2 0 86.0963 14.1121 1215 84.4189 1340.89 445.804
3 0 86.0963 14.1353 1217 137.583 1339.9 445.901
4 0 92.1548 14.1935 1308 85.3731 1341.24 443.797
5 0 95.1886 13.8252 1316 85.6603 1340.1 446.264
6 0 97.1556 14.1834 1378 86.4724 1341.44 443.378
7 1 50.0837 10.6821 535 84.9477 1342.44 466.527
8 0 53.2437 13.7481 732 81.2404 1341.8 464.542
9 0 53.2437 13.7669 733 123.325 1341.83 464.574
10 0 55.0872 12.2533 675 87.8741 1342.09 450.382
11 0 57.0456 13.1123 748 86.9492 1342.62 448.968
12 0 59.1142 12.2982 727 87.4278 1344.19 449.417
13 0 61.0287 13.977 853 85.6084 1343.79 443.992
14 0 64.0802 12.2815 787 87.7827 1344.22 441.456
15 0 65.0866 12.8444 836 87.4258 1343.43 439.306
16 0 68.0218 13.0546 888 87.2466 1343.27 436.76
17 0 71.0852 13.4064 953 87.4323 1343 434.504
18 0 73.1555 12.5486 918 89.0272 1343.19 435.711
19 0 76.3403 13.5315 1033 87.4172 1343.12 436.053
20 0 76.0471 12.1241 922 90.8568 1343.04 434.601
21 0 83.206 13.0159 1083 88.4995 1342.68 428.413
22 0 84.1351 13.6091 1145 87.1878 1342.77 428.526
23 0 87.1019 13.8688 1208 88.6399 1341.87 421.398
24 0 87.1019 13.8918 1210 143.105 1340.89 421.466
25 0 94.1496 13.0218 1226 89.6468 1342.73 423.684
26 1 48.0927 13.5987 654 86.4098 1342.69 449.876
27 0 49.0952 11.6305 571 89.1121 1342.58 454.991
28 0 52.2954 13.0604 683 84.9956 1343.26 458.054
29 0 54.085 14.847 803 82.9763 1342.77 457.986
30 0 55.0769 13.0908 721 82.319 1343.26 460.164
31 0 54.0668 11.9667 647 85.119 1343.06 459.726
32 0 61.1269 13.8891 849 78.9541 1342.75 460.562
33 0 61.1051 12.1267 741 83.1471 1343.28 458.182
34 0 65.1486 14.3211 933 80.6785 1343.11 457.298
35 0 67.0564 12.7803 857 91.3524 1342.75 458.014
36 0 71.1442 14.5339 1034 87.588 1342.7 456.507
37 0 73.3181 13.7619 1009 89.668 1342.8 452.26
38 0 84.2892 19.4924 1643 72.7693 1342.28 443.421
39 0 86.1872 17.2996 1491 77.3823 1342.56 445.987
40 0 89.178 20.6329 1840 71.5641 1342.11 440.377
41 0 91.1194 16.3302 1488 79.0847 1343.27 444.27
42 0 87.1203 13.6822 1192 79.7752 1342.93 440.326
43 0 92.1075 14.8305 1366 79.1259 1342.77 439.613
44 0 95.1307 15.4524 1470 78.7959 1343.34 437.556
45 1 47.0589 11.4962 541 81.1682 1343.09 461.359
46 0 51.0797 12.4707 637 85.8038 1343.13 454.48
47 0 52.0444 12.105 630 86.9349 1342.44 459.514
48 0 54.1333 12.3584 669 84.1106 1342.88 462.185
49 0 57.1573 15.2562 872 79.5115 1342.88 462.849
50 0 59.0479 11.8548 700 86.6114 1342.68 461.4
51 0 66.1785 15.8662 1050 76.6581 1342.73 456.214
52 0 68.096 16.0949 1096 77.0557 1342.06 457.201
53 0 67.0821 14.3854 965 81.3969 1343.16 456.93
54 0 76.1226 17.0383 1297 73.5844 1342.59 450.493
55 0 78.3567 18.6072 1458 70.6523 1342.46 447.874
56 0 83.2262 20.21 1682 69.1088 1341.99 445.717
57 0 83.1978 16.8875 1405 74.6505 1342.34 447.615
58 0 83.1128 18.1079 1505 74.9827 1342.1 446.196
59 0 85.1512 14.3862 1225 82.9412 1341.87 447.886
60 0 88.2134 17.5144 1545 77.7307 1341.43 446.067
61 0 85.0661 15.1764 1291 84.2696 1342.28 448.355
62 0 89.3276 12.4262 1110 90.055 1342.59 444.719
63 0 88.1158 11.7232 1033 92.9042 1341.99 435.997
64 0 93.2137 12.8093 1194 91.6499 1342.85 420.675
65 0 95.2082 13.2132 1258 87.0366 1342.83 423.577
66 1 50.057 11.1273 557 88.316 1343.4 445.808
67 0 51.0195 12.7794 652 86.1089 1343.4 447.475
68 0 52.0562 12.6402 658 87.1687 1343.64 443.29
69 0 54.0332 10.6601 576 89.8976 1343.1 443.734
70 0 56.088 12.1416 681 87.627 1343.55 443.37
71 0 58.1042 14.147 822 84.2798 1343.53 442.667
72 0 60.1125 14.4396 868 84.318 1342.44 441.581
73 0 61.0978 13.192 806 85.66 1342.63 442.908
74 0 64.0517 13.2705 850 86.6271 1343.13 439.872
75 0 67.0686 13.5085 906 86.3852 1343.06 441.623
76 0 66.0361 12.9626 856 87.625 1343.23 448.449
77 0 68.0626 11.4453 779 90.0873 1343.42 447.954
78 0 74.0564 13.2332 980 88.0694 1342.71 440.022
79 0 76.0647 13.0678 994 88.5634 1343.21 436.713
80 0 77.0859 13.206 1018 87.8271 1342.51 445.144
81 0 80.1007 13.483 1080 87.9343 1342.81 443.725
82 0 82.0736 13.9387 1144 87.8252 1342.29 441.801
83 0 87.1148 12.5696 1095 89.3817 1342.93 441.182
84 1 44.1528 9.71625 429 83.2681 1342.57 466.254
85 0 45.057 12.4509 561 83.6328 1343.27 470.032
86 0 50.0481 13.5669 679 81.0015 1342.33 469.54
87 0 51.1036 13.5216 691 76.9928 1342.77 466.948
88 0 51.0664 10.6724 545 82.0147 1342.81 469.949
89 0 51.0223 13.3471 681 79.5976 1342.76 468.214
90 0 56.1518 12.6265 709 80.5994 1342.32 465.059
91 0 55.1371 12.3873 683 81.2943 1342.13 464.594
92 0 57.1279 12.2007 697 82.3644 1342.8 462.428
93 0 59.072 10.6988 632 84.1677 1342.1 455.054
94 0 62.0733 13.178 818 80.401 1342.15 456.841
95 0 65.0799 13.3374 868 80.2258 1342.61 453.818
96 0 67.0418 11.9925 804 82.9838 1341.22 453.57
97 0 69.1842 11.3176 783 84.8225 1341.94 450.833
98 0 70.0996 11.1841 784 85.4337 1341.77 448.529
99 0 73.0898 12.6694 926 79.7009 1342.28 449.635
100 0 77.1144 11.2171 865 78.7538 1342.44 446.424
101 1 39.0186 11.6611 455 74.6374 1342.57 469.336
102 0 41.0715 12.1252 498 76.1566 1342.27 466.645
103 0 43.0754 12.9076 556 82.4317 1342.58 463.57
104 0 43.0532 12.9607 558 76.9498 1342.06 465.416
105 0 46.0515 12.638 582 74.1546 1341.96 467.509
106 0 42.1053 11.5187 485 78.068 1341.98 466.779
107 0 50.3071 12.9405 651 73.4178 1342.59 464.591
108 0 50.1139 14.1877 711 74.0788 1342.85 464.201
109 0 52.125 12.5084 652 77.0092 1341.97 464.36
110 0 51.1177 12.8918 659 78.3338 1341.68 463.323
111 0 54.0952 13.9754 756 77.1931 1342.26 463.175
112 0 59.3944 13.6377 810 76.2185 1341.64 461.526
113 0 60.1214 14.9198 897 76.2297 1341.47 461.563
114 0 58.1493 13.0354 758 81.4868 1341.88 462.197
115 0 62.0887 14.431 896 82.1161 1342.44 466.532
116 0 63.0892 14.5033 915 82.5967 1341.87 465.446
117 0 64.258 13.757 884 85.905 1341.49 462.923
118 0 66.1458 13.7877 912 85.7928 1341.91 463.573
119 0 65.0956 13.0731 851 87.6557 1341.37 461.121
120 0 68.1424 13.281 905 89.4155 1341.32 460.47
121 0 70.0591 11.5759 811 92.6215 1341.96 462.268
122 0 71.2108 12.6245 899 92.2258 1342.06 456.299
123 0 78.0883 13.728 1072 88.5448 1341.86 459.493
124 0 80.2329 13.3736 1073 89.3383 1341.79 456.092
125 0 82.2535 12.7046 1045 91.5167 1341.08 454.791
126 1 46.1554 12.7179 587 90.8501 1342.09 471.862
127 0 46.0682 13.0459 601 90.7321 1341.65 471.998
128 0 47.0788 14.6988 692 90.4957 1341.99 470.897
129 0 47.1117 12.2687 578 94.4135 1341.93 470.934
130 0 49.1279 13.129 645 90.493 1341.6 471.797
131 0 50.0454 13.8474 693 89.8499 1341.55 470.043
132 0 52.1079 11.2267 585 92.6496 1342.4 471.251
133 0 57.1071 13.7986 788 88.4721 1341.76 467.801
134 0 57.2423 13.9931 801 88.9613 1342.17 466.24
135 0 58.0855 12.6882 737 91.7802 1341.66 467.186
136 0 63.1042 13.4222 847 89.6175 1341.9 464.401
137 0 65.0427 14.0523 914 89.3698 1341.72 462.208
138 0 69.188 12.3865 857 90.6243 1341.77 464.639
139 0 68.09 14.5983 994 89.3561 1341.48 457.988
140 0 72.2305 14.3014 1033 89.1936 1341.35 456.424
141 0 72.1039 13.3973 966 91.0052 1342.35 456.98
142 0 76.3631 14.3525 1096 88.9589 1341.4 454.347
143 0 85.2603 16.2796 1388 82.6974 1341.19 447.277
144 0 84.1618 17.0386 1434 83.3333 1341.11 448.474
145 0 87.0757 17.2034 1498 82.8979 1341.15 444.078
146 0 89.1197 17.9983 1604 82.8354 1340.97 444.539
147 0 91.1976 16.7329 1526 84.7523 1340.4 441.846
148 0 94.1133 14.9819 1410 88.6915 1340.12 443.678
149 0 94.2699 14.3206 1350 90.5904 1340.52 444.021
150 0 97.1267 14.7436 1432 89.2786 1341.4 442.315
151 0 100.166 15.1149 1514 88.9445 1341.21 438.561
152 0 105.136 16.1409 1697 86.2457 1340.33 436.676
153 0 107.171 13.4925 1446 90.1259 1340.75 440.259
154 0 112.193 13.147 1475 90.3668 1341.05 436.57
155 0 116.25 14.83 1724 87.656 1341.11 435.201
156 1 59.0236 13.6555 806 93.4045 1341.44 461.335
157 0 59.0626 13.6973 809 95.1187 1341.81 460.981
158 0 64.1005 14.0249 899 93.5729 1341.95 459.032
159 0 65.0829 15.6416 1018 91.2485 1341 457.934
160 0 70.1302 17.1823 1205 87.2755 1340.87 453.12
161 0 72.0619 18.1927 1311 86.2365 1340.55 453.334
162 0 72.1346 15.0275 1084 93.1827 1340.78 455.806
163 0 72.0845 13.9558 1006 97.1272 1341.49 452.775
164 0 76.1435 12.8179 976 99.1424 1340.48 454.339
165 0 78.1856 14.6702 1147 96.6739 1340.39 452.362
166 0 81.111 14.363 1165 96.9657 1340.26 450.953
167 0 87.1883 15.3002 1334 94.3508 1340.1 449.328
168 0 88.1715 15.4925 1366 94.5447 1340.44 447.607
169 0 93.2267 14.2985 1333 95.2341 1340.72 446.428
170 0 95.1673 16.0244 1525 92.762 1339.98 444.038
171 1 49.0626 13.4726 661 94.9304 1340.77 465.753
172 0 53.0291 15.0672 799 91.4543 1341.34 463.408
173 0 57.0552 15.7742 900 87.2167 1341.35 462.079
174 0 60.0529 17.035 1023 84.6432 1341.04 459.157
175 0 57.0419 13.7969 787 93.6544 1340.66 461.558
176 0 61.2737 15.1452 928 91.458 1339.88 461.204
177 0 64.2432 14.8031 951 91.7518 1340.66 458.565
178 0 67.1186 14.303 960 92.2802 1340.87 457.11
179 0 69.0932 15.414 1065 90.107 1341.33 458.422
180 0 71.1136 13.4433 956 93.6716 1341.77 455.292
181 0 75.1238 14.6558 1101 91.5322 1341.6 455.548
182 0 75.1832 13.3939 1007 94.4072 1341.72 454.416
183 0 82.1996 16.4113 1349 86.7465 1341.41 452.031
184 0 84.237 15.9075 1340 87.0634 1341.73 449.875
185 0 85.1143 14.0869 1199 90.7973 1341.47 449.678
186 0 89.2101 17.1505 1530 85.2072 1341.14 448.026
187 0 90.1573 15.961 1439 87.3912 1342.26 444.961
188 0 92.2258 14.1067 1301 90.8025 1342.12 441.895
189 0 97.097 15.1395 1470 88.7925 1341.28 441.184
190 0 102.301 16.7153 1710 85.5871 1341.89 439.388
191 1 49.0291 14.5016 711 87.8101 1341.74 464.572
192 0 49.0541 13.3322 654 92.4465 1341.68 462.165
193 0 51.0533 14.4359 737 89.8385 1341.31 463.877
194 0 58.0613 19.0316 1105 78.0163 1341.51 457.23
195 0 57.0436 15.8651 905 86.0088 1340.9 459.572
196 0 57.1109 12.6771 724 91.2003 1341.03 461.543
197 0 59.1064 14.8715 879 88.9386 1340.46 458.511
198 0 61.1576 14.4545 884 89.6561 1341.28 457.357
199 1 71.0728 15.0128 1067 84.7085 1340.53 453.443
200 0 89.743 14.0289 1259 80.2947 1340.08 450.192
201 0 93.9349 16.0643 1509 76.7455 1340.19 447.812
202 0 93.5163 16.1148 1507 78.6463 1340.42 449.615
203 0 86.3218 17.9213 1547 78.6173 1340.29 447.355
204 0 85.1798 16.0719 1369 83.7071 1339.79 446.294
205 0 87.1869 19.6704 1715 78.0216 1340.53 446.182
206 0 86.2583 19.9865 1724 79.1659 1338.87 444.926
207 0 89.2167 18.7073 1669 80.4236 1339.47 440.852
208 0 91.2843 18.1959 1661 82.2781 1340 445.286
209 1 110.223 17.2197 1898 77.8377 1339.76 439.57
210 0 102.152 18.0221 1841 80.0011 1340.54 438.468
211 0 100.663 18.5371 1866 81.7465 1340.07 438.505
212 0 103.283 16.3822 1692 85.607 1340.89 439.297
213 0 107.44 18.5034 1988 81.8209 1341.12 435.328
214 0 106.375 16.0657 1709 88.0919 1341.57 435.673
215 0 108.181 18.7093 2024 84.6487 1342.17 432.834
216 0 110.351 16.0578 1772 91.7049 1341.84 434.69
217 0 114.16 14.7687 1686 94.3529 1341.83 433.021
218 0 120.205 15.1241 1818 93.6293 1340.67 430.898
219 0 123.163 14.5985 1798 94.7219 1341.09 430.398
220 1 62.1269 13.8748 862 99.8422 1341.62 457.499
221 0 66.2027 14.7426 976 98.1055 1341.57 456.445
222 0 72.19 15.9717 1153 93.1119 1342.28 450.959
223 0 75.1528 14.9695 1125 94.5467 1341.19 363.538
224 0 79.2679 20.0712 1591 86.1314 1340.54 449.445
225 0 76.0589 15.225 1158 99.0717 1340.3 450.139
226 0 79.0648 16.4169 1298 96.8629 1341.35 450.111
227 0 81.1404 15.2329 1236 99.6246 1341.06 449.335
228 0 87.0906 15.5241 1352 98.27 1340.3 444.354
229 0 93.0452 18.3997 1712 90.4445 1340.7 440.16
230 0 97.1505 20.1749 1960 86.8536 1341 438.918
231 0 93.14 18.7567 1747 93.0063 1340.63 439.602
232 0 93.0909 14.1689 1319 103.735 1341.69 440.675
233 0 96.189 15.0329 1446 101.763 1341.26 440.893
234 0 101.063 14.9906 1515 101.034 1340.84 438.962
235 0 105.202 15.323 1612 100.084 1341.07 434.193
236 0 109.127 15.0926 1647 100.059 1341.06 434.512
237 0 112.268 15.0622 1691 100.565 1341.79 434.175
238 0 118.153 15.3445 1813 99.8494 1341.93 430.775
239 0 125.109 17.2969 2164 95.5578 1341.91 425.4
240 0 125.154 15.5408 1945 100.558 1341.16 427.26
241 0 130.181 15.0099 1954 101.818 1340.83 424.902
242 0 135.075 16.3909 2214 99.7019 1340.28 421.044
243 0 139.26 15.4101 2146 102.048 1340.84 419.573
244 0 143.135 15.9989 2290 101.181 1341.07 416.333
245 0 150.298 15.4892 2328 101.881 1341.45 412.935
246 0 155.45 15.8315 2461 101.915 1340.97 413.268
247 0 160.301 16.8558 2702 99.7746 1341.49 410.554
248 0 163.393 15.5882 2547 103.889 1340.78 407.483
249 0 169.274 14.8812 2519 105.304 1341.66 404.709
250 0 176.69 15.0377 2657 105.095 1340.9 400.463
251 0 181.245 15.4653 2803 103.245 1341.48 401.577
252 0 189.42 15.368 2911 102.139 1340.44 398.98
253 0 195.28 16.1819 3160 100.682 1339.86 395.208
254 0 204.218 16.977 3467 98.8826 1340.67 388.082
255 0 208.232 14.8152 3085 103.109 1340.34 388.985
256 0 217.392 14.7935 3216 102.957 1340.38 381.406
257 0 227.49 15.3633 3495 101.437 1339.74 379.729
258 0 235.346 14.8335 3491 102.491 1340.49 375.831
259 0 244.47 15.1879 3713 101.537 1340.62 370.551
260 1 50.3303 13.2723 668 86.2021 1339.9 469.364
261 0 55.1238 12.8438 708 88.4477 1339.92 469.853
262 0 55.2087 10.5418 582 93.134 1340.19 466.741
263 0 57.2157 12.5315 717 89.0558 1341.54 467.784
264 0 59.0718 12.561 742 90.8437 1340.77 464.423
265 0 62.3892 11.2519 702 92 1340.69 463.89
266 0 63.2103 11.7544 743 91.8991 1340.89 460.148
267 0 64.1811 11.8727 762 92.6496 1340.05 458.974
268 0 69.3114 10.9506 759 91.9104 1340.67 462.014
269 0 67.0927 12.058 809 92.3337 1341.14 454.434
270 0 74.2416 13.1193 974 88.5288 1340.86 458.505
271 0 75.1514 11.5367 867 89.91 1340.96 457.967
272 0 76.2179 10.9948 838 92.8162 1340.72 450.017
273 0 82.6461 11.761 972 90.999 1340.34 452.999
274 0 86.2463 10.7715 929 93.2185 1340.46 449.629
275 0 90.3771 12.4368 1124 89.7189 1340.21 447.246
276 0 95.0994 12.4501 1184 88.174 1340.68 448.857
277 0 96.1441 11.8468 1139 89.4241 1341.23 447.762
278 1 50.1171 13.668 685 79.4409 1341.51 472
279 0 49.1378 13.0042 639 87.3083 1340.64 469.798
280 0 50.1347 12.0077 602 90.5083 1340.51 467.145
281 0 53.0621 10.1202 537 92.7002 1341.31 466.192
282 0 56.1083 12.2085 685 89.3022 1340.96 467.45
283 0 56.1404 12.5044 702 90.1225 1340.21 465.638
284 0 57.1111 13.0448 745 89.3074 1340.99 466.298
285 0 61.1926 13.0571 799 88.7209 1339.89 466.189
286 0 63.0542 12.6716 799 88.6796 1341.21 466.253
287 0 63.1105 10.6321 671 92.8033 1340.9 465.379
288 0 64.1225 14.4567 927 88.2039 1340.79 463.448
289 0 66.1573 12.9389 856 89.9813 1341.55 462.109
290 0 69.119 13.7589 951 89.102 1341.2 460.568
291 0 72.146 11.8648 856 90.6904 1341.93 460.759
292 0 74.2118 13.8253 1026 87.7388 1341.61 460.84
293 0 78.2522 12.7664 999 89.6076 1341.4 458.398
294 0 79.2095 13.2434 1049 89.7369 1340.6 457.448
295 0 81.1274 13.2384 1074 89.8371 1342.05 455.462
296 0 86.1918 13.9572 1203 88.2411 1341.28 455.117
297 0 87.173 13.0889 1141 90.6968 1341.49 451.92
298 0 91.2004 13.4539 1227 90.2152 1341.34 450.78
299 0 94.2522 13.4957 1272 90.7563 1341.93 450.134
300 1 47.0598 11.5172 542 89.8838 1341.5 471.771
301 0 49.2928 13.3285 657 86.035 1341.9 472.612
302 0 49.1839 11.3248 557 90.6068 1341.3 471.634
303 0 51.0978 12.8381 656 87.8598 1341.64 470.101
304 0 53.304 12.3631 659 87.2519 1341.88 469.844
305 0 54.1255 12.3047 666 87.2748 1342.38 468.641
306 0 56.1727 13.3161 748 85.5628 1342.15 468.384
307 0 58.5118 11.1601 653 87.2037 1341.79 469.119
308 0 58.5118 11.2627 659 134.15 1340.82 469.253
309 0 63.3174 11.8451 750 87.8107 1341.3 463.659
310 0 67.4142 13.7953 930 83.6129 1342.04 464.282
311 0 69.3418 14.2194 986 83.6339 1342.09 463.604
312 0 70.1203 11.8225 829 87.4005 1342.04 461.98
313 0 74.7074 13.3856 1000 84.639 1341.94 461.575
314 0 78.6236 13.3548 1050 84.0143 1341.49 462.453
315 0 78.449 13.8052 1083 84.4866 1342.26 461.419
316 0 81.3041 13.3819 1088 85.4706 1341.11 460.243
317 0 87.6912 13.6046 1193 84.2951 1341.99 458.484
318 0 89.7094 15.3273 1375 83.0691 1341.68 455.648
319 0 92.0627 13.4908 1242 86.4364 1342.39 454.151
320 0 92.5241 13.5424 1253 86.7949 1342.94 452.123
321 0 97.6544 14.1622 1383 86.1815 1341.76 452.23
322 0 99.1768 12.029 1193 90.2699 1341.2 451.869
323 0 102.366 13.95 1428 88.1457 1342.28 447.389
324 0 108.355 13.871 1503 86.4398 1342.21 448.363
325 0 110.372 15.3118 1690 83.497 1342.22 447.741
326 1 59.6034 12.6838 756 86.9854 1343.09 469.479
327 0 62.3771 12.5206 781 87.8694 1342.35 469.351
328 0 63.2463 14.2617 902 86.2151 1342.66 466.936
329 0 66.5077 14.0284 933 84.865 1342.79 465.488
330 0 69.4949 14.6773 1020 84.0324 1342.92 465.958
331 0 71.3458 13.4416 959 86.0824 1343.09 463.073
332 0 72.4429 14.3423 1039 85.5332 1342.35 460.844
333 0 75.5212 15.0024 1133 84.459 1342.46 461.131
334 0 78.4368 15.3754 1206 84.141 1342.94 458.624
335 0 79.4147 13.398 1064 88.7575 1342.66 457.338
336 0 84.4633 14.1363 1194 87.6114 1342.67 456.204
337 0 87.6455 14.5701 1277 87.4182 1342.96 453.823
338 0 87.6015 13.0934 1147 91.8666 1342.66 452.16
339 0 92.7038 14.3576 1331 91.0661 1342.77 449.566
340 0 97.5821 14.4186 1407 91.0569 1342.18 450.189
341 0 99.7149 15.2234 1518 89.9611 1342.07 449.411
342 0 101.509 13.7525 1396 93.4183 1341.47 446.234
343 0 106.401 14.2949 1521 91.954 1342.49 443.807
344 1 55.5706 13.3884 744 90.0901 1342.63 468.918
345 0 57.8112 13.9765 808 89.2079 1342.69 466.507
346 0 61.555 12.7853 787 90.1232 1342.03 467.527
347 0 62.4961 14.4329 902 88.4723 1342.66 465.744
348 0 63.3844 12.1639 771 93.0065 1342.4 464.519
349 0 67.599 14.4529 977 87.8915 1342.19 466.058
350 0 67.599 15.5772 1053 145.545 1342.14 465.085
351 0 72.3834 13.9535 1010 89.3663 1342.15 462.117
352 0 73.4617 13.5853 998 91.1663 1342.21 460.237
353 0 77.4675 15.9809 1238 86.1389 1342.99 458.052
354 0 78.2901 13.5522 1061 90.8492 1342.44 460.156
355 0 79.5047 14.2004 1129 90.7768 1342.08 458.815
356 0 84.5301 14.6457 1238 89.0444 1342.96 457.99
357 0 84.2929 13.7378 1158 92.506 1342.32 454.83
358 0 90.344 14.2788 1290 91.3721 1343.07 452.884
359 0 91.3474 13.7169 1253 91.5938 1342.7 454.994
360 0 97.298 19.1782 1866 81.9957 1342.13 448.361
361 0 98.2086 15.4671 1519 89.5392 1342.25 449.229
362 0 103.35 14.8622 1536 90.5202 1341.94 449.937
363 0 107.169 15.5362 1665 89.9207 1342.14 443.896
364 0 111.725 16.4422 1837 88.0419 1341.86 441.873
365 0 121.188 21.0087 2546 78.2561 1341.46 434.934
366 1 62.126 11.2352 698 95.1748 1341.65 465.958
367 0 67.1126 13.2762 891 91.1134 1341.95 464.957
368 0 68.132 12.9455 882 92.5907 1340.31 464.48
369 0 75.1156 18.5714 1395 79.9835 1341.31 458.191
370 0 78.3712 17.315 1357 82.2167 1341.21 457.523
371 0 80.4099 19.3508 1556 79.626 1341.02 455.58
372 0 77.2995 14.3856 1112 91.2329 1341.03 456.202
373 0 81.1677 12.6898 1030 94.2534 1341.56 455.517
374 0 84.2262 14.5442 1225 91.4898 1341.01 454.469
375 0 86.3516 14.522 1254 91.6029 1340.95 454.923
376 0 89.117 13.9704 1245 93.0811 1340.86 451.315
377 0 92.0831 13.9874 1288 92.6685 1340.78 453.514
378 0 94.0815 12.3297 1160 95.2931 1341.29 452.354
379 0 97.1953 13.8278 1344 93.9048 1340.98 447.38
380 0 102.161 13.2242 1351 94.5899 1340.64 445.46
381 0 107.192 14.488 1553 91.4031 1340.41 443.59
382 0 111.164 14.1233 1570 90.3338 1340.65 440.965
383 0 115.325 12.8333 1480 92.6419 1341.31 438.793
384 1 51.2299 11.751 602 80.3106 1341.24 471.762
385 0 52.1056 9.5767 499 82.8156 1341.53 471.032
386 0 53.065 9.53547 506 86.1285 1342.19 469.887
387 0 56.1042 11.2648 632 84.4889 1341.11 470.052
388 0 56.0833 9.68202 543 87.0147 1341.38 466.74
389 0 59.1107 9.96435 589 85.9491 1341.22 466.893
390 0 62.0581 8.78209 545 87.5394 1340.99 468.56
391 0 61.0558 10.1055 617 87.5397 1341.64 463.169
392 0 65.0492 12.5597 817 83.9168 1341.68 463.051
393 0 66.2597 10.972 727 87.5832 1341.71 461.93
394 0 68.059 11.5488 786 87.0776 1341.3 460.738
395 0 72.0636 11.8645 855 86.4854 1340.79 461.17
396 1 39.0262 10.6339 415 79.7542 1341.54 476.735
397 0 41.1191 8.00114 329 81.3708 1341.42 479.271
398 0 40.1737 8.16454 328 84.6677 1341.62 477.549
399 0 43.127 8.62568 372 84.6237 1341.28 477.79
400 0 44.0623 11.3476 500 80.916 1341.82 475.856
401 0 46.0398 11.9462 550 80.3818 1340.93 475.893
402 0 47.0936 9.49173 447 85.0134 1340.81 474.774
403 0 46.2646 11.1532 516 84.3295 1340.31 473.494
404 0 49.0724 10.8004 530 84.7679 1339.98 472.609
405 0 49.1151 11.1167 546 84.826 1340.65 472.288
406 0 49.0983 11.4872 564 84.3599 1339.63 472.684
407 0 49.1859 9.3726 461 62.1779 1339.62 473.343
408 0 54.0938 11.1288 602 83.9336 1341.14 471.13
409 0 53.1906 11.205 596 85.255 1339.57 469.728
410 0 53.1906 11.0922 590 134.234 1337.61 469.673
411 0 58.1455 13.0191 757 83.8573 1340.39 466.893
412 0 57.1656 10.5308 602 86.6346 1340.7 470.478
413 1 121.185 12.8151 1553 92.1333 1340.75 436.06
414 0 128.404 13.8157 1774 90.6731 1341.07 435.198
415 0 133.361 14.4045 1921 89.3691 1341.12 433.46
416 0 134.256 14.6511 1967 89.4032 1341.08 430.6
417 0 137.181 13.0339 1788 92.1801 1339.87 425.611
418 0 144.363 14.2904 2063 89.7935 1340.31 425.333
419 0 148.171 13.5114 2002 91.4905 1339.86 421.855
420 0 153.233 13.7372 2105 91.4884 1339.84 414.232
421 0 159.624 14.2335 2272 90.6505 1340.12 414.29
422 0 165.453 13.4419 2224 92.0175 1340.51 414.319
423 0 169.407 12.8035 2169 93.4255 1339.89 411.831
424 0 177.38 15.1708 2691 90.1089 1339.5 406.866
425 1 96.2884 11.8291 1139 88.0439 1339.33 448.414
426 1 45.3534 9.23855 419 82.9308 1339.73 471.773
427 0 49.2324 9.99342 492 80.1931 1340.12 472.498
428 0 52.2154 10.8206 565 80.2319 1340.58 472.966
429 0 47.0511 6.7161 316 75.3481 1341.67 480.475
430 1 112.46 11.951 1344 84.3058 1340.62 444.21
431 0 111.393 9.50692 1059 89.2059 1340.08 438.527
432 0 117.199 11.1434 1306 85.9387 1340.7 440.365
433 0 119.425 11.5219 1376 86.4382 1340.79 435.76
434 0 122.423 11.2316 1375 87.8087 1339.61 433.016
435 1 58.1756 10.0901 587 73.8944 1341.32 471.131
436 0 57.1185 7.84334 448 78.433 1341.46 470.973
437 0 59.067 7.94014 469 76.8038 1342.08 472.525
438 1 137.328 11.6582 1601 88.1187 1340.32 430.535
439 0 141.384 11.7127 1656 89.5278 1339.65 425.193
440 1 66.0651 10.2323 676 75.2278 1341.17 469.207
441 0 67.1287 7.25472 487 79.575 1340.91 467.649
442 0 70.2213 8.48745 596 78.1812 1341.15 467.391
443 0 73.2087 7.37617 540 80.4222 1341.22 464.7
444 0 75.0958 10.3867 780 77.4397 1341.6 462.947
445 0 76.0914 9.63315 733 79.7231 1341.37 461.969
446 0 80.0885 10.1513 813 78.1107 1341.15 464.119
447 0 81.1791 9.4236 765 80.6719 1341.74 459.783
448 0 84.1694 10.3482 871 79.7417 1341.77 455.958
449 0 87.1726 9.62458 839 80.261 1341.25 457.386
450 0 93.1485 10.7141 998 77.9479 1341.48 450.833
451 0 99.3071 10.9559 1088 87.3336 1340.75 448.708
452 0 101.207 9.69299 981 85.3068 1340.8 450.46
453 0 105.212 9.28599 977 84.6469 1341.27 449.388
454 0 107.297 10.3451 1110 87.5829 1341.65 445.924
455 0 109.215 10.0811 1101 88.4759 1340.79 446.536
456 0 111.16 12.0907 1344 85.4948 1341.07 441.984
457 0 117.364 11.9116 1398 84.6423 1340.86 440.489
458 0 120.322 11.0536 1330 86.0068 1340.51 438.265
459 1 65.0924 12.4746 812 79.3091 1341.59 466.22
460 0 66.0284 11.0559 730 80.9233 1341.81 466.401
461 0 69.1568 10.6425 736 80.803 1341.76 468.243
462 0 72.0669 12.0166 866 78.261 1342.12 465.588
463 0 73.0554 9.85554 720 82.5653 1341.8 464.854
464 0 73.1288 11.1857 818 80.5416 1342.21 461.881
465 0 76.018 10.5896 805 81.4447 1341.32 463.383
466 0 76.1589 10.3599 789 84.1229 1340.89 460.51
467 1 39.0284 10.9408 427 75.4496 1339.45 480.698
468 0 41.1236 9.07021 373 74.9196 1340.03 480.799
469 0 41.0226 9.84822 404 74.7574 1341.45 479.349
470 0 43.0904 9.09716 392 78.5281 1339.77 479.745
471 0 43.1051 10.5092 453 77.2804 1340.77 478.408
472 0 44.0476 9.33082 411 79.7664 1340.14 479.589
473 0 47.1028 13.6085 641 73.1747 1341.09 477.44
474 0 50.1586 11.2244 563 76.0124 1340.11 476.249
475 0 51.1405 11.576 592 74.3801 1341.17 476.586
476 0 51.1046 13.306 680 74.7735 1340 474.235
477 0 52.1828 11.1531 582 79.0292 1341.33 473.796
478 0 54.0197 11.4032 616 79.3799 1340.75 475.023
479 0 56.0933 10.643 597 80.7035 1340.64 472.92
480 0 59.113 13.5672 802 76.6396 1340.45 472.01
481 0 58.1194 11.2527 654 81.5153 1340.73 471.622
482 0 60.113 12.9922 781 78.8771 1340.87 471.096
483 0 60.0773 10.37 623 84.5602 1339.73 472.543
484 0 64.1317 13.1136 841 79.2033 1339.84 471.137
485 0 65.055 12.3741 805 80.6385 1339.88 468.755
486 0 66.22 12.4736 826 81.1598 1339.1 469.194
487 0 69.1104 13.8763 959 79.1262 1340.29 466.504
488 0 71.1375 10.9647 780 82.1077 1340.63 466.032
489 0 72.0366 12.105 872 81.5975 1339.83 463.479
490 0 76.0842 11.9079 906 81.8499 1339.02 461.288
491 0 78.1244 14.3489 1121 76.95 1339.3 460.55
492 0 82.1915 12.4587 1024 80.4824 1340.17 458.932
493 1 39.049 9.32163 364 84.3901 1339.35 478.074
494 0 40.098 11.7213 470 81.0362 1339.33 475.857
495 0 44.0563 10.9405 482 83.527 1338.87 477.222
496 0 42.0529 12.3416 519 82.4952 1339.38 478.486
497 0 45.0424 12.4327 560 82.5429 1339.52 474.255
498 0 46.0583 11.6157 535 83.3028 1339.16 474.387
499 0 47.0365 11.4167 537 83.7989 1339.14 474.292
500 0 48.0241 10.9737 527 84.6281 1339.57 473.484
501 0 50.062 11.8253 592 83.1959 1338.6 474.448
502 0 52.0332 10.9161 568 85.2641 1339.61 471.97
503 0 54.0789 12.7222 688 82.6454 1339.6 469.616
504 0 53.1058 9.86709 524 87.9313 1339.74 470.592
505 0 55.0609 11.0605 609 86.358 1338.99 470.143
506 0 59.0205 12.5889 743 82.6904 1339.54 470.493
507 0 59.1538 11.225 664 85.8434 1339.39 467.098
508 0 61.1462 12.1676 744 84.1868 1338.94 467.94
509 0 61.0238 12.2247 746 85.5979 1339.57 464.944
510 0 65.0831 13.1217 854 83.3372 1339.48 464.898
511 0 65.1166 12.5774 819 85.0769 1339.87 462.103
512 0 71.1631 13.4761 959 82.5005 1339.98 464.044
513 0 72.158 12.4033 895 85.5687 1340.38 463.449
514 0 76.1541 13.1707 1003 86.4516 1338.91 463.47
515 0 79.1455 12.9887 1028 86.7481 1339.95 462.899
516 0 81.1653 13.146 1067 87.1303 1339.72 460.352
517 0 85.3176 12.7172 1085 87.0968 1338.97 460.193
518 0 88.0791 12.7499 1123 87.13 1338.97 457.533
519 1 45.1632 12.0452 544 81.8787 1339.46 478.899
520 0 47.0495 12.7738 601 80.6456 1339.15 478.592
521 0 48.0519 12.6738 609 80.3908 1339.69 479.741
522 0 49.0661 12.0246 590 83.2881 1338.94 477.153
523 0 50.052 12.1673 609 83.0246 1339.48 476.993
524 0 51.0283 12.4049 633 83.6051 1339.57 475.866
525 0 54.0734 11.7803 637 84.1915 1339.75 475.452
526 0 54.0234 12.328 666 85.7297 1339.57 473.653
527 0 55.019 11.7232 645 86.8295 1339.78 473.549
528 0 58.0806 13.619 791 83.78 1339.26 470.448
529 0 59.091 12.1 715 86.9217 1339.41 470.929
530 0 60.0607 13.5863 816 85.0135 1339.46 468.142
531 0 63.0644 12.8599 811 85.8459 1339.66 468.337
532 0 63.2443 12.3173 779 87.5879 1339.31 468.638
533 0 65.0863 12.9981 846 87.0378 1339.78 467.651
534 0 67.1919 12.7099 854 88.055 1340.16 467.212
535 0 71.1097 13.2049 939 86.3919 1339.13 465.948
536 0 72.0447 13.1307 946 87.7294 1339.35 464.511
537 0 73.0967 13.3795 978 87.636 1339.67 463.457
538 0 76.1316 14.7376 1122 84.9893 1339.65 462.443
539 0 79.093 13.1112 1037 87.6972 1338.99 459.893
540 0 82.25 14.31 1177 85.0246 1340.01 458.745
541 0 83.0904 12.1434 1009 88.8097 1340.03 455.888
542 0 88.1942 13.0621 1152 87.3307 1339.95 454.114
543 0 90.2768 12.7275 1149 87.691 1338.83 454.655
544 1 45.2124 11.4792 519 85.8998 1339.15 475.358
545 0 48.0681 12.3783 595 84.5445 1337.88 474.203
546 0 48.0414 10.9489 526 75.6369 1339.91 466.709
547 0 48.0213 9.4125 452 78.0907 1339.73 466.409
548 0 48.0345 11.3252 544 75.8088 1339.77 464.312
549 0 51.1456 11.7117 599 75.8331 1339.26 464.771
550 0 53.0541 10.9322 580 76.4655 1339.7 463.629
551 0 55.0306 11.1938 616 76.0877 1340.06 463.821
552 0 54.0217 9.51469 514 79.3152 1339.12 462.619
553 0 58.0804 11.7596 683 74.7614 1339.78 462.767
554 0 58.1552 11.4177 664 75.866 1339.57 461.617
555 0 61.09 10.8692 664 75.378 1340.23 461.176
556 0 64.3007 11.1196 715 83.6028 1339.91 471.913
557 0 64.0851 12.2025 782 86.1905 1339.57 469.812
558 0 64.1832 11.0309 708 83.089 1339.91 470.048
559 0 65.0555 10.6986 696 83.4526 1341.35 472.333
560 0 66.0959 11.9069 787 85.0483 1340.93 465.386
561 0 68.0396 11.3022 769 85.9168 1340.42 467.189
562 0 69.0818 11.4357 790 85.462 1339.32 470.47
563 0 66.0403 9.94847 657 90.6773 1339.74 468.294
564 0 71.1773 10.7338 764 90.3835 1339.21 467.759
565 0 72.1308 10.9523 790 86.8266 1340.08 468.248
566 0 72.1633 10.0051 722 88.5443 1339.92 466.695
567 1 42.0772 12.2394 515 85.8718 1339.32 480.342
568 0 43.1253 10.8985 470 87.5128 1339.44 480.23
569 0 44.0664 12.2542 540 84.3093 1340.19 480.544
570 0 45.0538 12.2298 551 84.4991 1339.31 478.69
571 0 47.0687 12.11 570 83.7526 1339.53 478.788
572 0 49.1746 13.1165 645 81.7674 1339.78 477.04
573 0 50.2006 13.2269 664 80.6566 1339.54 477.626
574 0 51.2468 12.4496 638 82.5768 1338.53 476.429
575 0 51.0632 11.5347 589 84.2224 1339.43 476.645
576 0 52.0822 12.5187 652 83.6135 1339.05 475.569
577 0 53.1286 12.0839 642 84.8972 1338.88 473.966
578 0 54.1508 13.0377 706 83.7096 1339.6 473.357
579 0 59.092 13.1151 775 82.76 1339.32 474.07
580 0 58.0821 14.2213 826 83.7688 1338.94 471.95
581 0 60.0847 13.2313 795 87.0013 1338.62 472.233
582 0 57.185 11.9962 686 91.879 1338.43 470.063
583 0 62.0681 12.1479 754 90.5769 1338.96 470.902
584 0 62.3398 10.6673 665 92.0617 1339.4 470.045
585 0 65.1746 13.4562 877 88.1174 1339.64 468.028
586 0 68.3501 11.9239 815 91.9215 1339.61 466.84
587 1 34.3683 9.28182 319 95.069 1340 481.476
588 0 31.0716 9.46203 294 92.3435 1339.51 477.245
589 0 33.1434 10.6507 353 90.6686 1339.09 477.297
590 0 36.0975 9.86218 356 95.1096 1339.21 479.562
591 0 34.0204 9.11218 310 93.9 1339.76 485.91
592 0 36.1521 10.6218 384 90.7474 1341.27 482.924
593 0 38.0355 12.278 467 88.6702 1341.69 482.687
594 0 40.1558 12.2523 492 89.5041 1341.23 481.27
595 0 38.0729 9.40302 358 97.1285 1341.38 483.693
596 0 42.1052 11.3763 479 93.1628 1340.67 481.916
597 0 41.0783 10.7599 442 96.6697 1340.55 482.174
598 0 44.119 10.2677 453 98.1192 1340.98 481.124
599 0 46.073 11.764 542 95.155 1341.45 480.939
600 0 48.072 11.774 566 95.0389 1341.28 481.368
601 0 48.0429 11.0943 533 98.6173 1341.8 479.448
602 0 47.0427 10.6711 502 100.341 1340.9 479.952
603 0 51.0582 12.711 649 96.6394 1340.56 477.943
604 0 52.1056 11.2848 588 99.4167 1340.41 478.849
605 0 55.0687 11.0407 608 99.5033 1339.81 477.952
606 0 56.0764 11.413 640 97.7297 1339.87 479.03
607 0 59.0693 12.0706 713 96.993 1339.3 476.296
608 0 59.0591 11.0737 654 97.9113 1339.47 474.957
609 0 63.0727 12.5728 793 96.309 1339.71 472.27
610 0 64.1295 12.4436 798 96.4875 1339.62 472.788
611 0 65.104 11.3203 737 102.697 1338.59 468.722
612 0 67.0392 11.5306 773 102.677 1338.27 470.104
613 0 71.1098 11.7143 833 102.516 1338.76 467.106
614 0 75.0651 13.8813 1042 99.0931 1338.19 465.944
615 0 76.0629 11.0566 841 105.098 1338.7 465.533
616 0 79.1053 11.8703 939 105.115 1338.7 462.89
617 1 43.0612 11.681 503 104.781 1338.71 481.046
618 0 44.1411 12.2335 540 98.5093 1338.66 483.131
619 0 46.031 11.2098 516 104.663 1338.27 481.62
620 0 47.0534 12.0076 565 103.427 1338.62 480.625
621 0 50.0315 11.9325 597 103.59 1338.4 480.424
622 0 51.0712 10.9259 558 105.233 1338.41 479.21
623 0 54.0397 12.1392 656 101.784 1338.16 477.508
624 0 53.0851 12.6401 671 103.402 1338.58 475.426
625 0 55.0219 12.4678 686 102.848 1338.24 475.383
626 0 56.1137 11.5836 650 105.412 1337.88 474.977
627 0 61.0409 11.6971 714 103.346 1338.77 473.534
628 0 61.132 12.5303 766 102.499 1337.82 471.181
629 0 63.051 11.4035 719 104.152 1338 471.146
630 0 66.0302 12.7972 845 100.004 1338.87 471.269
631 0 71.1203 12.5843 895 99.1866 1338.39 469.286
632 0 72.1005 13.0235 939 98.1214 1338.4 468.073
633 0 75.0736 13.2537 995 98.7005 1338.55 463.77
634 0 78.0715 11.8481 925 95.5686 1338.54 463.298
635 0 78.043 13.4541 1050 94.059 1339.04 460.096
636 0 83.2098 12.3183 1025 93.6566 1339.81 458.893
637 1 44.0235 8.47276 373 91.0295 1340.36 482.418
638 0 46.0273 8.56014 394 91.2234 1339.86 480.947
639 0 47.0323 11.2051 527 89.6603 1340.09 479.438
640 0 49.0624 12.2701 602 91.9967 1339.06 477.324
641 0 50.0398 11.2111 561 91.8182 1339.89 479.984
642 0 52.1254 12.5659 655 86.4031 1339.44 476.684
643 0 56.0714 12.1274 680 85.0176 1339.76 476.579
644 0 57.0755 10.5124 600 88.3067 1339.77 476.855
645 0 58.2206 10.9755 639 87.3709 1340.04 475.006
646 0 62.1357 12.5854 782 84.4169 1340.12 474.848
647 0 62.111 11.6243 722 85.8975 1341.13 474.346
648 0 65.1246 11.7467 765 86.4353 1340.63 472.488
649 0 69.141 11.7441 812 86.6096 1340.63 470.169
650 0 71.1785 10.9865 782 87.6266 1340.77 470.983
651 0 73.1048 12.2837 898 86.2918 1340.47 465.953
652 0 74.257 11.9046 884 87.7376 1340.41 465.411
653 0 78.0878 12.1146 946 86.5444 1340.81 465.734
654 0 81.1324 12.1283 984 87.0041 1340.74 465.156
655 0 82.0777 11.014 904 89.0575 1339.73 462.11
656 1 39.0588 11.5467 451 89.8004 1340.72 481.346
657 0 42.0368 11.8468 498 87.1888 1341.16 481.799
658 0 43.1397 11.0803 478 88.6172 1340.92 481.51
659 0 45.0357 12.3014 554 88.6552 1340.9 479.007
660 0 45.0518 11.964 539 85.8108 1341.09 479.354
661 0 48.0542 12.4235 597 84.6616 1341.47 478.961
662 0 46.1323 9.38604 433 90.6074 1341.51 479.684
663 0 51.126 13.3983 685 83.4526 1340.11 477.399
664 0 52.0331 10.9353 569 88.4499 1340.3 475.895
665 0 54.0455 11.8419 640 86.1781 1340.39 477.084
666 0 53.0961 11.7899 626 88.3003 1340.93 475.083
667 0 57.1018 11.5583 660 87.7894 1340.7 472.855
668 0 58.0315 12.0452 699 87.206 1341.14 473.13
669 0 60.1138 11.7777 708 87.7175 1340.45 473.521
670 0 61.1348 11.352 694 88.6081 1340.83 472.432
671 0 63.0766 11.7635 742 88.4178 1340.8 470.003
672 0 66.0594 12.8369 848 85.816 1340.4 469.906
673 0 69.1398 12.9448 895 85.5531 1340.45 467.36
674 0 69.1106 12.3136 851 87.4289 1340.24 464.625
675 0 69.1139 9.94011 687 91.5924 1340.82 466.009
676 0 76.1029 12.4962 951 86.6109 1340.25 464.036
677 0 75.1394 10.8332 814 89.2494 1340.18 462.735
678 0 81.1841 12.096 982 86.111 1340.47 461.169
679 0 84.1333 11.0658 931 88.4629 1339.97 458.328
680 0 87.1571 12.3914 1080 86.0806 1340.42 458.258
681 0 90.3087 11.0842 1001 88.2867 1340.92 456.137
682 1 47.0747 11.9172 561 89.1212 1340.94 475.551
683 0 49.0998 12.4644 612 89.4951 1341.04 476.06
684 0 49.0998 12.5255 615 125.821 1342.03 476.089
685 0 53.0806 11.605 616 93.3864 1339.64 474.782
686 0 54.0999 12.5324 678 91.0236 1339.64 474.401
687 0 55.0713 12.5292 690 91.4159 1338.96 473.965
688 0 57.041 12.8855 735 90.2735 1339.55 471.278
689 0 56.1203 11.3506 637 94.4396 1339.32 472.052
690 0 61.0511 12.9564 791 90.579 1340.07 471.145
691 0 60.0586 12.621 758 91.7863 1340.22 471.496
692 0 64.0788 14.9347 957 87.0627 1340.55 468.781
693 0 64.0635 13.3461 855 91.779 1339.81 467.477
694 0 67.0692 12.5393 841 93.4982 1339.99 466.805
695 0 69.0529 15.2202 1051 89.392 1339.86 466.821
696 0 72.1944 13.6714 987 93.2888 1339.33 466.334
697 0 75.173 13.5953 1022 93.4139 1339.53 466.675
698 0 74.2469 13.3608 992 96.4173 1339.89 463.837
699 0 79.1066 13.2353 1047 96.5912 1340.71 461.33
700 0 82.2117 13.4409 1105 96.9674 1340.68 461.23
701 1 42.0349 11.8235 497 97.4125 1340.26 481.479
702 0 44.0178 11.609 511 96.0117 1340.94 480.481
703 0 45.0057 12.3762 557 97.5494 1339.93 477.573
704 0 57.0901 21.1245 1206 72.3897 1339.39 469.236
705 0 56.0689 13.5904 762 87.5105 1340.77 472.096
706 0 60.0705 18.7446 1126 73.0462 1340.55 470.932
707 0 51.0364 15.1265 772 86.2487 1340.84 475.263
708 0 58.0608 14.6743 852 84.5505 1340.78 473.167
709 0 55.0423 13.8076 760 90.2605 1340.46 473.425
710 0 55.0315 14.9914 825 89.7782 1340.88 472.808
711 0 57.0199 13.8022 787 91.8488 1341.02 471.586
712 0 58.0256 13.5457 786 93.5827 1340.89 470.639
713 0 59.0631 13.8665 819 93.7619 1341.07 471.236
714 0 64.0747 12.7195 815 101.439 1341.26 469.896
715 0 66.0404 14.052 928 98.2295 1341.41 469.231
716 0 69.049 14.439 997 97.9629 1340.7 467.052
717 0 70.0773 14.8122 1038 98.1609 1340.57 465.808
718 0 73.1284 13.2507 969 100.653 1340.96 466.889
719 0 75.1098 14.4588 1086 98.9374 1341.39 464.061
720 0 80.1105 15.6908 1257 94.3986 1341.43 460.449
721 0 82.0618 15.6224 1282 95.4158 1341.02 458.884
722 0 84.0718 14.2735 1200 100.242 1340.59 456.02
723 1 44.0902 12.6559 558 95.6434 1342.07 479.907
724 0 44.0178 12.4495 548 94.042 1340.65 481.544
725 0 44.0178 12.4495 548 140.692 1339.65 481.637
726 0 47.1043 12.8014 603 97.2471 1341.13 479.629
727 0 46.0428 12.5318 577 95.461 1341.6 479.009
728 0 49.0481 12.2533 601 95.4043 1340.8 478.742
729 0 49.0628 13.0037 638 95.7994 1340.84 477.542
730 0 50.07 13.0018 651 95.9263 1341.1 476.894
731 0 53.0746 11.7759 625 96.4784 1340.4 477.526
732 0 56.0681 12.0746 677 96.223 1340.61 477.421
733 0 58.0452 12.2835 713 97.0182 1340.49 474.079
734 0 59.0355 11.9081 703 98.5818 1340.92 474.265
735 0 62.0668 13.131 815 96.027 1340.44 471.951
736 0 65.0595 12.7883 832 95.8125 1340.66 471.684
737 0 68.0555 13.5478 922 94.4696 1340.7 469.825
738 0 69.0654 11.7135 809 99.3375 1340.24 468.216
739 0 73.0737 13.1648 962 95.2568 1340.87 468.753
740 0 73.0379 10.8848 795 99.995 1340.3 470.275
741 0 78.0486 12.9022 1007 97.4657 1340.44 465.072
742 0 79.0762 11.2803 892 100.522 1340.35 465.73
743 0 83.0997 11.9736 995 99.9025 1339.99 464.587
744 0 85.0585 13.3908 1139 99.1062 1339.88 460.787
745 0 89.0824 14.7728 1316 95.6702 1340.1 460.104
746 0 92.1412 13.6638 1259 98.135 1340.44 460.632
747 0 94.095 12.0623 1135 100.971 1340.36 456.678
748 0 96.0751 11.72 1126 102.101 1340.25 454.94
749 0 102.16 13.0286 1331 99.4207 1339.89 452.841
750 1 59.1099 11.5717 684 104.029 1340.7 470.433
751 0 62.0467 12.684 787 104.975 1340 472.499
752 0 63.0902 11.6024 732 96.123 1339.68 475.26
753 0 66.1084 12.8425 849 91.8139 1339.75 472.717
754 0 69.0757 12.9279 893 92.2396 1339.63 470.383
755 0 69.0563 11.744 811 95.0518 1339.99 468.942
756 0 72.0894 10.8893 785 96.3236 1340.48 468.154
757 0 77.0344 13.0202 1003 94.9741 1339.16 464.164
758 0 80.1487 13.3502 1070 95.2065 1339.33 462.666
759 0 81.0823 12.2962 997 98.2367 1339.06 460.533
760 0 85.054 12.4156 1056 97.5284 1339.07 460.222
761 0 89.1216 13.1281 1170 94.641 1340.06 459.743
762 0 91.1536 12.3967 1130 96.7876 1339.8 457.717
763 0 95.125 13.0145 1238 96.189 1339.75 456.2
764 0 99.1523 13.1313 1302 96.0246 1339.55 454.065
765 0 103.334 13.9064 1437 94.6388 1339.37 452.919
766 0 105.204 13.1839 1387 96.9495 1339.05 448.033
767 0 109.215 13.533 1478 97.113 1338.4 446.822
768 0 113.254 13.377 1515 98.2568 1337.78 443.75
769 0 117.175 13.2793 1556 98.7718 1338.77 439.831
770 0 120.312 12.426 1495 100.898 1339.23 439.781
771 0 124.247 11.7106 1455 101.739 1339.31 438.107
772 0 129.213 12.197 1576 101.745 1339.5 438.57
773 1 53.0194 10.1284 537 94.2831 1339.68 476.263
774 0 54.0914 10.7965 584 90.4606 1338.82 472.344
775 0 56.0736 11.2709 632 90.5839 1339.84 474.392
776 0 58.0602 12.7971 743 88.817 1339.63 472.013
777 0 63.0604 10.6406 671 90.8361 1340.2 473.349
778 0 63.122 8.77666 554 93.0379 1340.31 472.986
779 0 67.0822 11.9704 803 88.3686 1340.22 470.346
780 0 72.1254 12.0346 868 94.2949 1340.27 467.751
781 0 73.1009 11.2858 825 93.5236 1340.03 465.387
782 0 76.1201 13.0977 997 90.5757 1339.64 462.782
783 0 79.1376 11.8401 937 93.2636 1338.79 462.435
784 0 84.2899 12.896 1087 94.4333 1339.51 463.159
785 0 87.1534 12.2313 1066 163.335 1338.84 462.949
786 1 43.0447 11.2209 483 78.1843 1338.03 473.596
787 0 43.0878 11.465 494 79.6113 1337.6 472.152
788 0 44.1285 10.5827 467 81.6809 1338.31 472.435
789 0 47.0271 10.6747 502 81.5259 1337.92 472.924
790 0 47.1044 11.4214 538 81.355 1338.25 470.067
791 0 49.1285 11.2155 551 80.5318 1338.01 469.804
792 0 47.0472 10.5851 498 82.4277 1337.8 467.456
793 0 52.0568 11.7756 613 80.3687 1338.77 467.484
794 0 54.0392 10.6034 573 86.5305 1339.15 464.398
795 0 54.104 12.8087 693 85.2035 1338.52 466.488
796 0 56.125 11.9555 671 86.8867 1338.6 461.939
797 0 59.0803 13.6086 804 85.4602 1337.74 465.199
798 0 62.2207 13.8378 861 94.3206 1338.63 470.672
799 0 63.1412 11.9257 753 98.4807 1338.6 473.311
800 0 63.0966 11.8707 749 100.917 1338.49 470.642
801 0 65.1644 12.7217 829 100.115 1338.35 466.858
802 0 70.1885 12.7656 896 97.4464 1338.8 467.441
803 0 72.0505 14.3788 1036 94.5405 1338.64 467.306
804 0 73.1301 13.0452 954 98.0199 1338.26 463.295
805 0 77.1701 14.1117 1089 94.4004 1338.85 464.246
806 0 79.2237 13.2031 1046 96.1377 1339.21 460.58
807 0 83.1829 13.9692 1162 94.2719 1339.23 457.077
808 0 86.1549 14.532 1252 92.4161 1338.32 457.645
809 0 91.2532 15.2323 1390 91.9719 1339.29 452.954
810 1 48.1389 10.3243 497 97.7525 1338.22 472.298
811 0 50.0767 11.5822 580 96.2655 1339.03 468.488
812 0 51.2165 13.0232 667 96.2354 1337.65 470.207
813 0 54.2628 12.8449 697 96.6384 1337.69 469.617
814 0 56.1524 13.0181 731 96.238 1338.33 469.349
815 0 55.1612 12.7082 701 98.3424 1338.72 465.204
816 0 58.2089 13.7436 800 95.455 1338.01 466.316
817 0 60.1675 12.5649 756 92.5728 1337.88 469.642
818 0 63.1858 13.7214 867 89.9054 1338.55 466.458
819 0 62.0879 12.0635 749 94.1869 1338.17 465.806
820 0 67.1221 13.468 904 91.7743 1338.25 462.275
821 0 69.149 13.2468 916 92.3166 1337.68 462.407
822 0 72.2609 12.9669 937 93.1644 1337.92 459.347
823 0 76.2097 13.3054 1014 90.0769 1337.91 460.145
824 0 77.1484 13.9083 1073 90.4632 1338.47 455.229
825 0 79.2903 12.6876 1006 92.6412 1338.24 454.416
826 0 83.2621 14.8087 1233 88.5539 1338.17 453.841
827 0 87.1442 12.9555 1129 91.5722 1338.4 451.455
828 1 46.0513 11.118 512 94.0684 1338.38 472.818
829 0 47.2429 13.7163 648 89.6728 1339.08 469.693
830 0 48.2783 12.2001 589 90.9745 1339.1 475.326
831 0 49.1552 11.2297 552 92.5888 1339.23 472.911
832 0 53.121 12.5939 669 87.1704 1339.2 469.468
833 0 53.1933 12.37 658 89.2401 1339.3 467.751
834 0 57.2262 14.1718 811 85.0616 1338.28 468.292
835 0 59.4116 13.1288 780 87.4923 1338.08 466.503
836 0 63.149 12.9535 818 85.3447 1338.92 463.292
837 0 62.1309 12.023 747 89.5208 1338.68 462.046
838 0 66.1971 14.9704 991 84.1887 1339.16 459.792
839 0 65.0921 12.321 802 91.889 1339.02 458.64
840 0 68.0943 13.5547 923 90.8635 1338.96 457.13
841 0 71.1936 14.0041 997 89.4794 1339.06 454.893
842 0 73.19 12.2558 897 92.7625 1338.97 455.761
843 0 75.1233 11.4612 861 95.1336 1339.31 453.382
844 0 82.1408 12.5516 1031 91.8458 1338.68 452.587
845 0 86.2192 13.0481 1125 89.8773 1339.7 451.762
846 0 88.3143 13.5539 1197 90.1445 1338.89 449.791
847 0 91.3725 12.4436 1137 91.7617 1339.06 446.695
848 0 96.2713 13.2438 1275 91.142 1339.13 445.966
849 1 48.0383 10.6165 510 95.2529 1338.68 468.829
850 0 51.0703 11.2786 576 95.4688 1339.18 474.484
851 0 56.1069 11.5672 649 93.7566 1339.26 474.892
852 0 58.1252 13.0064 756 91.3082 1338.9 472.905
853 0 60.23 11.9708 721 94.2372 1339.25 471.775
854 0 62.204 11.7517 731 93.6799 1338.43 472.114
855 0 64.3056 11.8652 763 93.8794 1338.4 469.244
856 0 66.2606 11.7717 780 94.0115 1338.39 469.18
857 0 69.2456 11.8275 819 93.9365 1338.53 468.07
858 0 71.2839 12.4152 885 91.7153 1338.21 469.17
859 0 74.3053 13.1215 975 92.0164 1338.86 465.223
860 0 77.2564 12.1932 942 93.9427 1338.86 464.126
861 0 80.5796 13.8248 1114 90.6598 1339.27 462.618
862 0 81.1603 10.6949 868 91.4516 1338.71 460.706
863 0 86.2513 13.2056 1139 86.5162 1339.08 459.36
864 0 90.1237 12.0945 1090 83.0587 1339.03 459.304
865 1 46.0767 10.0485 463 81.6091 1339.32 481.898
866 0 50.1437 11.9656 600 79.075 1339.86 479.62
867 0 48.0432 9.30412 447 84.7875 1339.33 479.244
868 0 51.0679 10.3392 528 82.6932 1339.86 478.212
869 0 52.0821 10.445 544 82.6728 1339.71 477.18
870 0 54.0581 11.8391 640 80.7141 1340.15 476.636
871 0 58.0868 12.1198 704 79.1506 1339.55 474.325
872 0 60.1476 13.2341 796 77.804 1339.46 474.119
873 0 62.1814 11.1448 693 80.7532 1339.57 472.453
874 0 66.161 12.8323 849 77.8127 1340.07 472.734
875 0 65.1051 11.4584 746 82.4169 1339.12 470.865
876 0 64.0978 9.95353 638 85.3793 1338.86 472.277
877 0 67.1323 10.7102 719 84.7566 1339.21 471.12
878 0 68.0506 11.7413 799 84.2791 1338.24 469.553
879 0 73.1373 11.7587 860 86.1326 1338.55 464.691
880 0 74.1224 10.0105 742 88.3558 1338.75 465.082
881 0 78.0489 10.9034 851 82.2703 1339.65 460.273
882 0 81.1919 11.3065 918 82.1253 1339.68 461.773
883 0 84.2099 10.4382 879 85.2287 1339.26 456.041
884 0 89.1265 11.6127 1035 84.0029 1339.78 458.535
885 0 95.1292 12.1729 1158 88.5855 1339.68 454.295
886 0 93.1664 11.238 1047 91.7956 1339.58 452.372
887 1 50.0434 9.83147 492 83.1972 1339.36 479.075
888 0 53.0936 11.9035 632 81.3718 1339.51 474.886
889 0 53.0274 10.1268 537 83.5903 1338.9 472.555
890 0 57.1665 10.7231 613 83.3556 1338.7 472.284
891 0 60.0324 10.5276 632 81.9209 1339.73 472.93
892 0 62.0702 11.8092 733 80.7954 1339.31 471.49
893 0 62.0631 8.99086 558 84.3978 1339.33 472.724
894 0 63.036 10.8985 687 82.9767 1340.25 468.319
895 0 68.2359 12.0318 821 81.9367 1339.76 465.937
896 0 70.2802 11.3688 799 82.3592 1341.25 461.77
897 0 74.1071 10.0935 748 83.9144 1340.34 465.047
898 0 76.1248 11.0739 843 82.5575 1340.12 463.763
899 0 80.248 12.4489 999 80.7187 1340.84 461.709
900 0 82.0673 10.4305 856 83.8902 1339.98 461.57
901 0 84.1812 10.9288 920 84.3185 1339.35 456.426
902 0 90.1553 11.6909 1054 82.4089 1339.8 456.731
903 1 46.0704 11.3088 521 79.7428 1340.08 476.416
904 0 48.0767 10.608 510 80.9353 1340.36 475.643
905 0 50.1185 12.231 613 78.2822 1340.55 475.685
906 0 52.0642 13.4065 698 79.4212 1339.05 474.862
907 0 54.0716 12.9088 698 80.2063 1339.66 473.659
908 0 55.079 13.9618 769 78.4343 1338.66 472.59
909 0 57.1322 10.2569 586 79.4027 1338.96 469.503
910 0 59.0251 12.2321 722 75.7687 1338.79 463.374
911 0 60.0649 11.1879 672 77.7827 1338.95 461.143
912 0 61.0631 11.6928 714 77.8571 1339.55 459.134
913 0 60.3031 10.4472 630 80.5444 1339.35 457.089
914 0 67.029 13.2629 889 75.7165 1339.1 458.375
915 0 67.0475 12.4091 832 77.9183 1339.1 455.565
916 0 69.1033 11.3019 781 80.1434 1340.06 452.895
917 0 73.0689 11.1265 813 80.786 1339.47 454.563
918 0 77.0474 13.1477 1013 78.305 1340.43 460.786
919 0 80.0473 13.3796 1071 78.2344 1339.96 457.977
920 0 83.1844 13.3799 1113 82.9587 1340.91 461.36
921 0 87.1898 12.7308 1110 83.4117 1340.17 458.834
922 0 90.1931 13.1052 1182 82.7039 1339.73 456.828
923 0 93.2463 13.1909 1230 83.3447 1339.97 455.978
924 0 97.0918 13.7499 1335 83.3528 1339.42 453.289
925 1 51.0348 12.9715 662 82.5891 1339.44 477.086
926 0 50.0323 11.9923 600 88.6117 1340.2 476.08
927 0 53.078 11.7375 623 85.7111 1339.67 473.759
928 0 54.0946 11.1102 601 87.0416 1339.78 475.126
929 0 55.124 11.5558 637 86.4144 1339.97 475.02
930 0 61.0398 12.6475 772 83.5764 1339.75 473.219
931 0 61.0554 13.2666 810 83.8938 1338.67 470.809
932 0 60.0538 12.5388 753 85.7118 1339.43 469.394
933 0 66.0289 12.9337 854 84.2799 1339.15 469.239
934 0 66.0579 13.2157 873 84.732 1338.49 467.829
935 0 70.0713 13.7574 964 83.2251 1338.96 467.981
936 0 70.027 12.2381 857 86.14 1339.1 467.646
937 0 73.0549 11.594 847 86.4711 1338.92 468.254
938 0 76.0703 12.265 933 85.3934 1338.94 467.153
939 0 77.0887 13.478 1039 84.9721 1338.74 464.043
940 0 80.1162 10.9716 879 86.9022 1339.39 468.859
941 0 83.1016 13.2007 1097 85.1568 1339.51 462.988
942 0 85.1545 12.1896 1038 84.5857 1338.91 457.581
943 0 87.0997 11.6533 1015 88.8108 1339.78 460.732
944 0 90.1375 11.8486 1068 89.4401 1339.5 457.22
945 0 91.0637 11.783 1073 91.5676 1339.17 456.13
946 1 49.1118 9.9365 488 92.5779 1339.45 475.625
947 0 50.0783 11.1026 556 85.946 1339.26 468.531
948 0 51.0406 14.8901 760 82.5737 1340.53 476.346
949 0 52.1339 11.5664 603 89.0199 1339.42 475.335
950 0 54.0515 12.2291 661 87.2254 1339.08 474.561
951 0 56.0269 11.2446 630 87.2349 1338.8 475.664
952 0 58.123 12.3015 715 84.8587 1340.07 473.741
953 0 60.0894 12.0154 722 85.5665 1340.12 473.47
954 0 64.0643 13.5021 865 84.1699 1340.22 471.553
955 0 65.126 12.2992 801 86.2372 1340.16 471.316
956 0 68.0891 11.8815 809 87.4438 1339.88 469.281
957 0 70.1386 12.5038 877 86.8187 1340.31 467.673
958 0 72.1476 13.514 975 86.4072 1340.52 466.394
959 0 74.1165 13.7351 1018 87.3084 1339.72 464.223
960 0 77.0619 13.6514 1052 89.6046 1339.24 456.381
961 0 80.0749 12.6257 1011 90.7132 1339.33 458.239
962 0 83.0749 13.2531 1101 89.7638 1339.54 460.698
963 0 84.1738 13.6978 1153 91.3478 1339.74 453.042
964 0 90.0667 14.5115 1307 89.8814 1339.56 450.33
965 0 90.1545 14.5528 1312 90.9062 1339.72 448.694
966 0 94.1251 13.6839 1288 88.8432 1339.12 451.262
967 0 97.068 12.9806 1260 89.831 1338.8 453.128
968 0 100.294 13.5302 1357 90.4643 1339.17 452.539
969 0 107.089 13.8763 1486 89.0673 1339.13 449.781
970 1 58.0648 11.9177 692 88.1647 1339.13 471.763
971 0 62.0224 12.5439 778 83.838 1338.65 470.834
972 0 62.095 13.0928 813 83.4686 1339.24 468.605
973 0 64.0957 12.5593 805 84.6286 1339.47 467.958
974 0 69.0835 11.8407 818 85.3692 1339.17 466.84
975 0 72.173 13.4122 968 83.0992 1339.78 465.662
976 0 73.0983 12.4764 912 86.3268 1339.01 464.474
977 0 76.1508 13.25 1009 86.0753 1339.42 462.451
978 0 79.0782 14.4035 1139 84.2827 1339.44 462.096
979 0 83.1055 14.9689 1244 83.2259 1339.78 459.798
980 0 85.1582 13.6217 1160 86.375 1339.39 457.562
981 0 93.1725 14.5751 1358 83.2577 1339.27 459.697
982 0 93.1116 13.908 1295 87.3761 1339.37 454.341
983 0 95.0898 13.1244 1248 88.5264 1339.21 441.063
984 1 48.0661 11.8587 570 83.9053 1339.39 474.256
985 0 51.0256 12.3663 631 81.496 1339.02 472.647
986 0 52.0234 11.9946 624 88.7756 1338.92 476.841
987 0 54.0639 13.0586 706 87.3994 1339.3 475.894
988 0 56.0381 14.2938 801 84.9201 1339.12 474.282
989 0 59.0617 14.07 831 83.6486 1339.53 474.077
990 0 61.0158 13.7669 840 84.1345 1339.19 472.032
991 0 63.076 13.127 828 84.3068 1339.5 472.037
992 0 64.0457 13.6777 876 83.9852 1338.98 469.949
993 0 67.0314 14.5753 977 82.3388 1339.46 467.589
994 0 67.0499 12.1104 812 87.0714 1339.31 469.867
995 0 70.1304 10.2951 722 83.1316 1339.15 465.244
996 0 73.1191 11.4744 839 81.7962 1339.37 461.256
997 0 76.094 10.8681 827 81.7739 1339.49 463.033
998 0 79.1641 10.1814 806 83.9752 1339.77 459.073
999 0 82.1935 11.5581 950 82.0179 1339.69 456.733
1000 0 84.1436 11.4091 960 84.6552 1339.79 459.98
1001 0 90.1471 12.1357 1094 81.1581 1340.19 454.22
1002 1 48.0269 12.9302 621 78.7037 1339.81 472.787
1003 0 50.0548 11.7272 587 81.5043 1340.46 473.155
1004 0 53.0682 12.4368 660 81.9667 1339.71 471.15
1005 0 54.075 13.1114 709 80.1171 1339.69 468.047
1006 0 57.0384 13.2542 756 80.041 1339.47 468.78
1007 0 60.0463 13.5562 814 81.0221 1339.86 471.577
1008 0 61.0603 12.7251 777 82.5405 1339.69 468.803
1009 0 65.1449 12.7562 831 82.7665 1339.98 466.827
1010 0 65.0621 14.1096 918 83.0784 1339.27 465.324
1011 0 68.1564 13.2489 903 84.8128 1340.67 465.41
1012 0 67.0866 11.91 799 89.3179 1340.25 467.596
1013 0 69.1099 12.0533 833 91.3097 1339.85 465.767
1014 0 73.1693 13.5849 994 95.4316 1340.54 461.986
1015 0 79.0539 14.9265 1180 91.8856 1340.58 461.73
1016 0 81.1053 13.9942 1135 94.0661 1340.54 460.214
1017 0 84.2032 14.56 1226 92.9013 1340.21 458.215
1018 0 86.0773 13.3949 1153 96.0295 1340.11 458.645
1019 0 90.0533 13.7363 1237 95.5748 1340.17 457.589
1020 1 44.1408 12.007 530 102.053 1339.71 476.521
1021 0 47.0885 13.825 651 98.8848 1339.55 475.671
1022 0 47.2407 13.3571 631 101.09 1340.43 475.626
1023 0 50.1262 14.8027 742 97.3625 1339.92 475.429
1024 0 51.1546 14.4659 740 99.9905 1340.11 472.997
1025 0 53.164 13.0351 693 103.732 1339.8 474.837
1026 0 54.1395 14.9798 811 99.3391 1340.29 471.75
1027 0 54.1395 14.9983 812 166.446 1340.25 471.883
1028 0 59.1436 14.4563 855 100.477 1340.01 468.356
1029 0 61.0929 15.3046 935 98.6449 1339.08 468.559
1030 0 63.1491 13.8878 877 101.062 1339.34 469.661
1031 0 65.1839 14.4975 945 99.5831 1340.73 467.506
1032 0 67.2029 14.5529 978 100.148 1339.76 465.662
1033 0 69.1658 13.7929 954 101.072 1340.27 465.635
1034 0 72.1935 15.4307 1114 97.842 1340.69 463.944
1035 0 76.222 14.589 1112 98.4047 1340.58 463.684
1036 0 78.2964 14.9304 1169 98.2284 1341.04 461.449
1037 0 80.2334 14.1836 1138 99.7285 1340.9 460.446
1038 0 82.1453 13.9874 1149 101.007 1341.29 459.641
1039 0 85.3105 14.7696 1260 99.9365 1341.04 456.821
1040 0 89.2166 14.179 1265 101.743 1339.96 455.612
1041 0 90.3041 12.7348 1150 102.794 1340.55 455.508
1042 0 95.3601 14.3142 1365 94.8498 1340.4 455.504
1043 0 101.309 15.5564 1576 92.0539 1340.35 450.589
1044 0 100.286 13.9402 1398 95.3698 1340.18 450.603
1045 1 52.1553 14.7828 771 99.1388 1339.81 473.292
1046 0 52.0727 13.8268 720 101.808 1341.02 471.912
1047 0 54.2157 13.4463 729 103.48 1341.12 471.272
1048 0 57.1422 14.6652 838 100.598 1341.36 469.61
1049 0 60.0836 14.0138 842 101.998 1340.26 468.765
1050 0 62.1568 16.0562 998 97.2154 1340.18 468.5
1051 0 64.2145 14.436 927 100.874 1339.75 467.049
1052 0 65.228 14.0737 918 102.298 1339.63 464.131
1053 0 69.2534 13.9776 968 101.326 1339.72 465.851
1054 0 71.2245 14.5455 1036 101.138 1340.02 463.458
1055 0 74.0932 13.9824 1036 101.285 1339.95 464.794
1056 0 76.1906 14.5687 1110 101.511 1339.56 461.335
1057 0 81.5054 14.9315 1217 99.9417 1340.26 459.83
1058 1 36.1418 12.6723 458 105.727 1340.17 479.646
1059 0 37.0605 13.8692 514 103.391 1340.13 479.576
1060 0 40.056 13.2065 529 103.558 1340.4 478.535
1061 0 41.0926 15.0879 620 100.206 1340.51 477.894
1062 0 40.0831 12.6487 507 108.596 1340 477.68
1063 0 42.1459 12.9075 544 107.8 1340.05 476.958
1064 0 44.1274 14.0502 620 105.724 1339.58 475.773
1065 0 46.1956 14.2221 657 105.44 1339.55 475.47
1066 0 48.0422 13.8212 664 105.753 1340.38 475.866
1067 0 49.0384 15.702 770 102.162 1339.95 475.555
1068 0 49.0384 15.6408 767 155.338 1339.96 475.578
1069 0 48.0375 15.9459 766 154.881 1339.96 475.611
1070 0 56.0716 15.0522 844 104.154 1340.62 472.476
1071 0 57.0429 15.7425 898 104.235 1340.5 470.686
1072 0 57.087 15.5552 888 105.693 1340.65 469.573
1073 0 61.0606 15.0506 919 107.102 1340.14 468.547
1074 0 63.0541 14.7651 931 108.01 1340.48 467.233
1075 0 66.0802 14.6186 966 108.336 1340.4 468.329
1076 0 66.0664 14.8941 984 110.853 1340.74 465.485
1077 0 71.0506 15.299 1087 109.155 1339.91 463.877
1078 0 75.0475 16.2564 1220 106.274 1340.88 462.093
1079 0 74.0747 15.4169 1142 110.131 1340.34 461.619
1080 0 79.112 16.6852 1320 105.645 1340.58 459.57
1081 0 83.1522 17.1372 1425 104.756 1341.13 457.396
1082 0 84.0766 15.2242 1280 109.978 1340.77 457.849
1083 0 88.147 17.3006 1525 104.679 1340.44 457.285
1084 0 93.07 16.0309 1492 107.665 1340.36 452.269
1085 0 96.1328 15.6866 1508 109.095 1341.32 449.633
1086 0 100.173 16.6712 1670 107.811 1341.14 449.742
1087 0 102.067 15.725 1605 111.672 1340.36 447.572
1088 0 106.059 15.8496 1681 112.491 1340.01 444.475
1089 0 111.128 16.7374 1860 108.518 1341.29 447.848
1090 0 115.228 17.7907 2050 107.977 1341.21 442.169
1091 0 116.346 16.7002 1943 112.606 1341.28 437.688
1092 0 122.15 16.013 1956 114.629 1341.13 437.498
1093 0 129.135 16.9202 2185 111.467 1341.2 435.743
1094 0 134.31 17.4968 2350 110.889 1340.69 432.43
1095 0 137.289 15.828 2173 113.904 1341.04 431.14
1096 0 144.248 16.6518 2402 111.723 1340.76 425.71
1097 0 149.29 16.2369 2424 113.669 1340.22 422.979
1098 1 60.0694 13.0849 786 120.67 1341.26 466.973
1099 0 65.1114 15.0818 982 115.547 1341.01 463.823
1100 0 66.1056 13.5843 898 120.48 1340.95 463.782
1101 0 69.1777 14.4411 999 119.158 1340.7 460.834
1102 0 74.1874 15.1373 1123 116.007 1341.22 459.41
1103 0 76.1408 13.7114 1044 119.646 1341.73 456.853
1104 0 79.2422 14.727 1167 116.32 1342.41 457.221
1105 0 85.1924 14.7666 1258 115.758 1341.9 454.909
1106 0 87.3256 14.2455 1244 118.469 1342.52 451.293
1107 0 91.0774 13.9991 1275 119.464 1342.44 449.772
1108 0 96.1581 14.6529 1409 116.642 1341.87 449.206
1109 0 100.138 15.1392 1516 115.181 1341.81 445.573
1110 0 100.191 14.7518 1478 118.118 1340.8 442.528
1111 0 105.19 14.336 1508 118.298 1341.23 443.839
1112 0 107.161 14.147 1516 119.632 1341.19 438.208
1113 0 116.103 14.9867 1740 116.541 1341.2 438.34
1114 0 119.273 14.622 1744 117.46 1340.63 438.078
1115 0 125.277 16.0524 2011 112.938 1341.03 434.401
1116 0 129.149 15.7028 2028 114.408 1340.71 429.51
1117 0 132.218 14.3929 1903 118.744 1340.66 426.188
1118 1 144.236 13.9909 2018 116.295 1340.8 427.105
1119 0 146.203 16.0667 2349 113.493 1340.45 422.754
1120 0 150.23 15.0103 2255 115.371 1341.28 421.154
1121 0 154.334 15.0972 2330 115.792 1340.95 417.797
1122 0 160.245 14.7899 2370 115.247 1341.21 414.959
1123 0 167.366 14.8537 2486 115.176 1341.55 409.851
1124 0 170.288 14.3346 2441 116.816 1341.3 403.368
1125 0 181.346 15.7103 2849 112.302 1341.55 401.802
1126 1 88.1173 11.8365 1043 118.056 1342.04 446.299
1127 0 94.2529 13.8457 1305 114.091 1341.7 442.257
1128 0 99.1887 13.1265 1302 115.314 1341.2 439.125
1129 0 100.234 13.4684 1350 116.052 1341.11 438.156
1130 0 102.149 12.981 1326 116.811 1341.2 437.146
1131 0 107.157 13.2982 1425 116.521 1341.77 433.532
1132 0 113.302 13.3626 1514 116.011 1340.97 433.518
1133 0 115.332 13.4221 1548 115.996 1341.35 426.895
1134 0 120.334 13.6953 1648 115.452 1341.72 429.096
1135 0 122.253 13.0958 1601 118.32 1341.93 423.804
1136 0 128.217 14.647 1878 113.668 1341.38 421.721
1137 0 134.258 14.4052 1934 113.113 1341.46 420.58
1138 0 137.152 14.021 1923 114.509 1342.15 415.366
1139 0 145.169 13.5773 1971 114.783 1340.85 414.987
1140 0 148.46 14.7649 2192 111.175 1340.8 413.7
1141 0 153.228 13.7181 2102 114.96 1341.43 411.318
1142 0 156.299 13.583 2123 117.419 1340.17 405.674
1143 0 162.366 14.5473 2362 114.124 1341.06 404.032
1144 0 166.542 13.5461 2256 117.051 1341.19 399.409
1145 0 172.591 13.755 2374 116.631 1340.73 396.324
1146 0 177.338 13.838 2454 116.969 1340 390.206
1147 1 50.2417 7.38431 371 86.5121 1340.02 469.418
1148 0 49.1439 6.45044 317 88.164 1339.03 469.297
1149 0 47.0485 5.84503 275 89.0036 1338.49 468.996
1150 0 51.2434 5.95198 305 87.4033 1338.31 470.97
1151 0 53.2057 6.44668 343 87.5219 1338.82 467.236
1152 1 31.0716 6.24365 194 90.2062 1338.93 471.18
1153 0 34.0913 7.59725 259 86.7374 1338.89 471.313
1154 0 34.1031 7.27207 248 88.1573 1339.18 472.637
1155 1 59.078 6.92305 409 86.709 1343.35 465.381
1156 0 60.1644 6.8479 412 87.2646 1342.4 463.085
1157 0 60.0786 5.94222 357 90.4426 1343.06 460.35
1158 0 60.1303 8.03256 483 84.824 1342.89 469.072
1159 0 58.0953 5.97294 347 111.66 1343.06 464.553
1160 0 58.0577 4.42663 257 95.4669 1342.73 464.747
1161 0 58.0304 6.27257 364 94.7775 1342.99 464.475
1162 0 58.055 6.80389 395 94.3392 1342.32 467.471
1163 0 61.0428 5.3569 327 99.9174 1342.23 462.697
1164 0 60.062 4.59525 276 104.116 1342.46 462.196
1165 0 62.0445 4.30336 267 104.963 1342.63 462.127
1166 0 60.069 4.27841 257 109.86 1342.06 458.066
1167 1 21.0064 7.61673 160 78.5062 1340.96 488.219
1168 0 20.0915 6.22154 125 81.592 1340.58 487.712
1169 0 19.0359 8.56276 163 79.8466 1340.39 489.172
1170 0 20.0245 7.29107 146 82.3288 1340.07 487.603
1171 0 20.0328 6.23975 125 84.024 1340.95 486.92
1172 0 20.0224 7.09207 142 81.9859 1341.5 487.451
1173 0 19.0811 6.86543 131 83.5114 1340.72 487.076
1174 0 19.0073 7.7865 148 82.5608 1341.53 488.176
1175 0 20.0082 5.64769 113 85.6726 1341.3 487.673
1176 0 17.072 5.91613 101 85.9505 1341.35 489.693
1177 0 18.0096 6.44102 116 85.7414 1341.44 488.741
1178 0 17.0342 8.33619 142 82.8732 1341.25 489.303
1179 0 17.0037 8.11589 138 83.8261 1341.64 488.42
1180 0 18.0144 6.99442 126 86.0952 1341.37 488.73
1181 0 17.0037 5.64584 96 86.6667 1340.94 489.729
1182 0 18.0269 6.21295 112 83.5268 1341.83 488.929
1183 0 28.0675 7.6601 215 80.5163 1341.45 485.251
1184 0 30.0505 7.7869 234 80.282 1342.09 484.897
1185 0 39.0746 8.3942 328 75.6921 1341.8 481.863
1186 0 38.0638 8.4332 321 76.7788 1342.02 480.604
1187 1 232.99 9.15062 2132 94.7814 1341.59 382.405
1188 0 234.983 11.8945 2795 88.8712 1342.12 380.917
1189 0 236.111 9.18214 2168 93.5318 1341.75 386.779
1190 1 99.5634 11.219 1117 85.1128 1342.67 448.534
1191 0 100.329 10.0968 1013 88.998 1341.9 444.413
1192 0 105.283 11.5023 1211 86.2444 1342.12 448.013
1193 1 53.2065 9.09663 484 78.9607 1341.87 475.295
1194 0 55.2082 8.31398 459 81.4336 1341.3 471.107
1195 0 56.2806 10.1811 573 79.1885 1341.75 470.935
1196 0 57.2157 8.93111 511 81.7202 1342.24 469.162
1197 0 58.2613 8.22158 479 82.9269 1342.66 470.036
1198 0 59.1983 5.59137 331 86.1813 1342.5 472.574
1199 0 62.2064 10.015 623 81.8058 1341.01 468.886
1200 0 61.1812 7.32252 448 86.8415 1341.56 469.453
1201 0 66.3633 8.9658 595 83.6151 1340.91 470.812
1202 0 68.1279 10.2454 698 83.4599 1341.11 467.328
1203 0 68.2108 9.06014 618 85.6602 1341.97 466.057
1204 0 69.1978 8.00604 554 88.4693 1342.19 461.635
1205 0 74.2455 10.8963 809 83.5439 1341.26 462.077
1206 0 74.2381 10.3316 767 85.455 1341.11 461.179
1207 0 78.1363 10.2897 804 85.352 1341.62 462.817
1208 0 80.1285 10.558 846 86.4764 1340.56 459.414
1209 1 41.134 9.99174 411 84.0097 1342.11 480.601
1210 0 41.3195 9.55965 395 85.4354 1342.36 480.24
1211 0 45.256 9.89924 448 84.8058 1341.88 478.547
1212 0 43.2065 10.2299 442 85.6878 1342.1 477.615
1213 0 46.1259 10.0594 464 86.0711 1341.67 477.791
1214 0 48.3236 9.85026 476 85.25 1342 477.132
1215 0 52.3273 12.0396 630 81.7143 1342.2 473.667
1216 0 51.1118 10.8977 557 83.8402 1341.45 475.248
1217 0 53.1845 11.3567 604 83.6573 1341.69 473.762
1218 0 54.153 11.5229 624 83.9167 1341.88 473.01
1219 0 57.2227 12.1455 695 82.2791 1341.28 472.186
1220 0 58.2289 11.97 697 83.7834 1341.86 472.449
1221 0 58.084 11.7244 681 84.7151 1341.86 470.721
1222 0 58.1247 10.1678 591 87.0457 1341.64 470.763
1223 0 61.2536 11.3463 695 85.5079 1341.79 468.033
1224 0 65.1916 12.9618 845 82.5231 1341.47 466.057
1225 0 64.1636 11.8291 759 85.249 1342.15 466.881
1226 0 66.2042 11.676 773 86.0699 1342.14 465.766
1227 0 70.1654 12.6701 889 84.324 1342.08 466.552
1228 0 71.1783 12.8269 913 84.7777 1341.64 463.396
1229 0 73.0769 12.8221 937 85.1025 1341.82 463.172
1230 0 74.2836 12.3176 915 86.5814 1341.76 462.168
1231 0 76.2862 12.3482 942 87.275 1342.24 461.456
1232 0 77.2269 10.9288 844 90.2666 1342.38 460.428
1233 0 81.2228 12.041 978 88.8415 1341.81 457.429
1234 0 84.1713 10.7638 906 90.7947 1341.82 455.676
1235 0 87.1203 11.8686 1034 89.7108 1341.78 455.084
1236 0 90.1238 12.4495 1122 90.4474 1342.21 450.615
1237 0 93.2816 12.4783 1164 91.1572 1341.68 450.781
1238 1 48.0856 9.54547 459 94.5773 1342.47 474.072
1239 0 49.15 10.6816 525 92.3429 1342.28 472.091
1240 0 51.1788 10.6099 543 91.116 1342.68 471.505
1241 0 51.1291 12.5173 640 84.6109 1343.53 474.641
1242 0 54.196 12.3441 669 84.3692 1342.57 473.218
1243 0 55.1174 10.65 587 86.9659 1343.53 474.37
1244 0 56.1352 11.4011 640 86.8438 1342.64 472.105
1245 0 56.1352 11.4723 644 121.697 1342.64 472.079
1246 0 60.2016 12.5744 757 84.4663 1342.27 468.667
1247 0 61.1822 12.046 737 85.2456 1342.25 469.201
1248 0 62.1313 12.2322 760 82.821 1342.62 467.749
1249 0 66.1837 12.6013 834 81.494 1342.46 467.466
1250 0 67.0599 11.5568 775 83.2452 1342.72 466.24
1251 0 69.1108 10.939 756 84.1997 1342.3 467.242
1252 0 69.1108 11.0547 764 113.478 1341.34 467.22
1253 0 74.178 12.5644 932 83.0204 1342.47 464.223
1254 0 74.1531 10.7885 800 86.2888 1341.91 463.9
1255 0 77.2246 11.745 907 86.0011 1341.92 461.128
1256 0 78.4026 11.1348 873 87.4777 1342.32 459.41
1257 0 83.0855 12.6737 1053 84.7835 1342.01 457.974
1258 0 84.1706 11.6668 982 87.6354 1341.45 456.243
1259 0 85.0927 11.4698 976 88.9385 1342.48 454.384
1260 0 91.1196 11.9952 1093 88.3339 1340.96 453.052
1261 0 92.1555 12.5766 1159 87.5945 1341.21 453.829
1262 0 97.2911 12.5089 1217 88.1717 1341.64 449.608
1263 0 98.2347 12.7552 1253 88.6528 1342.83 445.523
1264 0 100.258 11.2809 1131 92.3784 1341.96 446.138
1265 0 104.174 12.8247 1336 90.4528 1342.04 445.16
1266 0 106.21 12.447 1322 92.8495 1341.92 439.147
1267 1 57.1133 12.2388 699 89.1574 1340.83 463.914
1268 0 54.1492 10.4526 566 92.3534 1340.9 468.465
1269 0 59.2246 11.3973 675 92.317 1340.98 463.437
1270 0 60.1396 11.756 707 92.2532 1341.39 464.577
1271 0 64.1957 12.7267 817 89.306 1341.82 464.673
1272 0 64.0678 11.5815 742 93.2089 1341.72 463.266
1273 0 64.1128 11.9633 767 88.2712 1340.94 465.154
1274 0 66.0888 12.4983 826 88.0351 1341.49 464.183
1275 0 69.1099 12.7478 881 86.9137 1341.93 463.157
1276 0 71.1193 13.0204 926 87.1274 1341.72 462.266
1277 0 73.0491 12.8818 941 87.9214 1341.95 459.267
1278 0 76.2053 14.1329 1077 86.1411 1342.55 457.793
1279 0 78.1456 12.8222 1002 88.7874 1341.77 460.302
1280 0 81.0803 13.0488 1058 88.8705 1341.74 458.249
1281 0 81.3016 12.3368 1003 91.2373 1342.04 457.999
1282 0 83.0829 13.9018 1155 88.787 1341.38 456.991
1283 0 85.1217 12.6877 1080 91.8009 1342.06 455.448
1284 0 86.1502 12.0951 1042 94.2274 1341.14 454.31
1285 0 90.1248 13.9251 1255 90.1857 1342.13 456.13
1286 0 93.1088 12.9096 1202 91.7072 1342.66 455.375
1287 0 96.1887 12.7354 1225 93.178 1342.41 453.347
1288 0 97.3283 13.0383 1269 93.4224 1342.51 450.8
1289 0 102.241 13.2725 1357 93.224 1342.13 447.046
1290 0 104.173 12.6136 1314 94.3394 1342.13 447.721
1291 0 107.08 12.8689 1378 93.6023 1341.91 446.323
1292 0 112.133 13.484 1512 92.3545 1341.92 442.632
1293 0 115.1 13.2494 1525 92.9757 1342.19 441.424
1294 0 117.219 13.7179 1608 92.722 1342.28 436.956
1295 0 122.228 13.2867 1624 93.0074 1342.41 435.754
1296 0 126.26 13.5198 1707 92.7147 1342.54 433.623
1297 0 131.123 14.086 1847 91.2783 1343.44 433.053
1298 0 132.18 11.5221 1523 96.1615 1343.68 434.152
1299 0 139.234 14.3284 1995 90.7865 1343.34 430.925
1300 0 142.116 13.9042 1976 91.6407 1343.32 423.002
1301 0 147.282 14.1429 2083 95.4254 1342.39 418.335
1302 0 149.251 13.7554 2053 96.0097 1342.52 418.163
1303 0 154.368 15.2364 2352 93.2798 1342.37 411.443
1304 0 159.37 13.6036 2168 95.768 1342.67 410.455
1305 0 163.218 13.5953 2219 95.8387 1342.71 410.068
1306 0 168.348 14.672 2470 93.8802 1343.45 408.808
1307 0 172.168 12.9873 2236 97.9906 1342.96 402.555
1308 0 179.378 13.8367 2482 95.6507 1343.16 401.765
1309 0 182.348 14.4504 2635 94.5985 1344.2 398.229
1310 0 186.46 13.3165 2483 97.6323 1343.99 395.147
1311 0 186.46 13.3058 2481 154.67 1342.98 394.908
1312 0 195.363 14.8441 2900 95.6348 1343.09 392.478
1313 0 202.425 13.6396 2761 98.46 1342.66 391.109
1314 0 207.338 13.326 2763 100.581 1343.19 383.992
1315 0 217.735 14.8483 3233 98.1154 1342.55 384.462
1316 0 225.503 14.4388 3256 97.801 1342.75 377.181
1317 0 233.406 15.3766 3589 95.4458 1341.97 370.805
1318 1 183.294 13.0337 2389 98.0724 1341.81 401.675
1319 0 188.326 14.0607 2648 98.4702 1341.68 399.844
1320 1 67.0747 11.4052 765 95.2876 1341.66 454.778
1321 0 68.1201 12.2578 835 91.6946 1341.42 453.247
1322 0 74.0977 12.5645 931 93.9839 1341.3 452.159
1323 0 76.078 12.106 921 96.0608 1340.11 451.606
1324 0 79.1488 13.1019 1037 88.0212 1341.37 455.816
1325 0 77.069 13.196 1017 88.5752 1340.85 457.378
1326 0 82.1909 12.6656 1041 88.0711 1341.89 457.287
1327 0 86.0933 12.893 1110 86.9351 1340.76 456.539
1328 0 88.2636 13.7882 1217 86.1684 1341.39 452.431
1329 0 91.3625 11.2847 1031 90.4452 1341.25 446.637
1330 0 92.1554 10.8512 1000 87.388 1341.78 450.782
1331 1 46.0582 10.8341 499 88.9319 1342.88 465.263
1332 0 46.07 11.0701 510 89.198 1342.85 462.537
1333 0 48.0814 10.3574 498 89.2671 1342.57 464.374
1334 0 49.1105 9.77387 480 91.1688 1341.81 463.238
1335 0 53.0668 10.5716 561 89.5205 1342.01 462.273
1336 0 55.1372 12.6775 699 84.7167 1342.7 462.409
1337 0 56.0483 11.2225 629 87.7838 1341.5 460.653
1338 0 57.0378 10.344 590 89.7678 1342.34 461.756
1339 0 60.2141 12.4057 747 86.3588 1341.63 464.521
1340 0 64.3276 11.7368 755 87.6768 1341.43 465.229
1341 0 63.2426 11.1634 706 89.7691 1341.1 466.061
1342 0 65.1538 12.4014 808 87.3144 1340.69 462.321
1343 0 69.1047 12.3581 854 87.3396 1340.63 461.584
1344 0 67.179 12.9505 870 87.4138 1340.69 458.234
1345 0 70.221 11.7629 826 89.276 1340.43 458.617
1346 0 73.2224 11.5129 843 89.159 1340.21 457.06
1347 0 76.4289 12.0242 919 88.7182 1340.51 455.754
1348 0 76.1058 12.3118 937 85.8399 1340.51 460.467
1349 0 79.0968 12.9082 1021 84.6729 1340.28 458.688
1350 0 83.1369 13.9409 1159 82.6549 1340.59 456.379
1351 0 86.1828 13.3089 1147 83.4211 1340.43 453.19
1352 0 87.2558 13.5578 1183 83.6771 1339.51 451.35
1353 0 87.2452 12.9635 1131 84.6897 1340.92 449.614
1354 0 91.2668 13.0606 1192 83.7114 1340.42 449.45
1355 0 92.2222 13.4783 1243 83.6227 1340.96 447.027
1356 0 95.2035 12.51 1191 84.8077 1340.53 445.78
1357 1 50.0898 9.58278 480 84.9042 1339.71 467.579
1358 0 54.273 10.9631 595 87.4118 1339.77 467.78
1359 0 46.1031 8.84973 408 76.875 1340.38 463.635
1360 0 49.0624 8.74396 429 77.4779 1340.48 463.089
1361 0 51.1441 9.11152 466 78.0172 1340.44 462.026
1362 0 51.0823 8.86804 453 79.0861 1340.27 461.302
1363 0 54.0378 10.8257 585 76.2769 1339.87 460.945
1364 0 57.0647 6.30862 360 80.6806 1339.49 463.617
1365 0 57.0496 9.62321 549 79.714 1339.85 460.053
1366 0 61.0821 11.8365 723 76.527 1339.91 460.568
1367 0 58.0714 10.1255 588 81.8724 1339.82 458.857
1368 0 62.0548 10.2974 639 81.0219 1340.3 460.194
1369 0 67.0435 11.321 759 88.6495 1338.31 463.889
1370 0 71.0589 12.6093 896 86.635 1340.26 462.133
1371 0 72.0953 12.5667 906 87.8841 1338.97 462.034
1372 0 73.145 11.6208 850 90.74 1339.67 459.875
1373 0 77.3692 12.3305 954 88.8071 1339.05 459.931
1374 0 78.1363 11.096 867 91.4833 1340.13 458.369
1375 0 80.1603 11.502 922 91.5824 1339.58 456.669
1376 0 83.1263 12.2464 1018 91.4214 1339.71 454.355
1377 0 84.089 12.6414 1063 91.4431 1339.18 452.599
1378 1 48.1132 10.2259 492 89.8598 1339.46 475.175
1379 0 46.0468 10.2722 473 91.4905 1339.21 475.691
1380 0 50.0943 10.8595 544 88.0772 1340.4 475.487
1381 0 54.082 11.7599 636 87.2657 1340.68 474.459
1382 0 54.0627 10.1734 550 90.2291 1340.13 475.575
1383 0 57.034 10.8181 617 89.752 1339.95 473.323
1384 0 60.069 9.68887 582 89.9416 1340.18 475.148
1385 0 60.0322 10.3278 620 90.3564 1340.85 472.781
1386 0 61.0626 11.2671 688 87.9811 1340.44 473.76
1387 0 63.0398 12.0717 761 86.9369 1340.21 472.206
1388 0 64.0874 11.7496 753 88.5618 1339.56 469.664
1389 0 67.0342 11.6209 779 86.9949 1340.32 471.811
1390 0 67.1101 11.1161 746 88.3807 1340.3 469.16
1391 0 69.1257 11.2983 781 88.2676 1339.43 467.963
1392 0 71.1003 12.0815 859 86.2456 1339.73 466.835
1393 0 71.0765 11.4524 814 85.8231 1340.25 467.468
1394 0 70.0388 10.6655 747 87.4886 1339.74 467.348
1395 0 76.1362 11.6108 884 85.1527 1340.25 463.055
1396 0 77.0546 10.551 813 85.9631 1340.39 464.959
1397 0 80.1039 10.1868 816 85.6066 1339.63 464.039
1398 0 82.0782 11.087 910 84.5516 1339.93 460.659
1399 0 86.2046 11.5655 997 81.4062 1339.45 460.392
1400 0 86.1708 11.0942 956 82.7144 1339.56 459.987
1401 0 90.2343 9.36451 845 85.5041 1339.5 460.714
1402 0 93.231 10.4579 975 85.7056 1339.56 456.278
1403 0 92.129 8.33614 768 89.1341 1339.85 455.454
1404 1 47.1497 10.2228 482 78.6826 1340.37 481.683
1405 0 48.081 9.60879 462 79.5628 1340.36 480.431
1406 0 49.0369 11.6647 572 77.3129 1340.21 478.325
1407 0 53.0174 10.4305 553 76.7631 1340.2 478.676
1408 0 53.0846 10.7941 573 76.63 1340 477.07
1409 0 54.0284 10.1798 550 77.6582 1339.08 475.733
1410 0 56.2206 10.192 573 77.7958 1339.69 476.091
1411 0 56.1491 12.2353 687 74.9723 1340.17 474.68
1412 0 59.1125 10.9114 645 77.1116 1339.41 474.747
1413 0 59.0778 10.9009 644 77.0047 1339.8 472.298
1414 0 61.0933 11.8016 721 75.6144 1339.76 474.055
1415 0 63.0598 11.6239 733 75.3615 1340.25 472.265
1416 0 64.1016 11.591 743 74.3311 1340.38 472.466
1417 0 66.1079 10.9064 721 75.0804 1340 470.526
1418 0 68.1292 11.8011 804 73.7836 1340.48 470.873
1419 0 70.1118 10.9111 765 75.1124 1339.83 469.382
1420 0 72.119 11.0373 796 75.9786 1340.44 468.804
1421 0 74.0706 11.6105 860 73.4081 1340.14 464.308
1422 0 74.1072 9.12192 676 76.3417 1339.77 463.343
1423 0 76.2216 10.8893 830 74.8843 1339.57 462.558
1424 0 79.2337 10.0967 800 76.0825 1339.92 460.442
1425 0 80.3588 10.4656 841 76.5779 1339.19 459.43
1426 0 82.1986 6.59378 542 80.0018 1339.99 467.618
1427 0 89.0764 12.5622 1119 75.5755 1338.6 456.484
1428 0 88.2786 8.23529 727 82.2435 1339.01 450.703
1429 1 48.0848 9.08811 437 74.4989 1338.66 477.43
1430 0 51.1789 12.1925 624 77.6474 1338.48 478.912
1431 0 44.0265 10.4937 462 75.8701 1338.65 469.723
1432 0 50.0884 7.98588 400 78.0125 1339.08 473.742
1433 0 53.2156 9.4897 505 75.9525 1339.48 473
1434 0 49.0791 9.96351 489 77.3129 1338.96 467.057
1435 0 50.0472 9.47105 474 78.4367 1338.49 466.696
1436 0 52.0575 12.3709 644 75.7609 1338.92 468.444
1437 0 58.1411 10.6981 622 81.2701 1338.95 475.055
1438 0 58.0584 9.31821 541 83.0684 1339.04 476.166
1439 0 61.1293 10.8131 661 82.0197 1338.45 472.831
1440 0 62.0618 10.0545 624 84.141 1338.63 473.383
1441 0 66.1014 11.5277 762 82.3727 1337.99 472.411
1442 0 66.3154 10.1786 675 84.92 1339.26 472.844
1443 0 67.0898 10.9555 735 85.6952 1338.63 471.582
1444 0 70.0769 10.0889 707 87.338 1338.33 471.359
1445 0 74.212 12.2891 912 84.7226 1338.36 469.578
1446 0 77.1101 11.8402 913 86.6331 1338.12 467.183
1447 0 78.1682 12.1533 950 88.4853 1339.24 466.3
1448 0 84.128 14.6087 1229 89.5639 1338.37 461.587
1449 0 87.2189 13.598 1186 91.0295 1338.38 462.368
1450 1 46.0865 11.9124 549 87.2295 1338.7 481.51
1451 0 48.1038 10.7684 518 86.5676 1338.31 481.583
1452 0 48.1038 11.0802 533 86.2814 1338.96 480.321
1453 0 51.0828 11.7261 599 82.99 1338.77 481.003
1454 0 53.2245 12.8324 683 81.7936 1338.88 478.123
1455 0 56.0764 12.2155 685 82.381 1339.08 477.829
1456 0 56.0772 12.1975 684 82.9415 1338.81 476.643
1457 0 56.0901 11.2854 633 85.5308 1338.4 475.569
1458 0 58.1632 12.3102 716 85.074 1339.21 475.592
1459 0 60.0762 10.7863 648 86.6111 1339.37 476.736
1460 0 60.1235 11.2768 678 86.8997 1339.16 474.24
1461 0 61.1221 9.88186 604 87.8328 1339.28 474.805
1462 0 64.1687 12.5762 807 84.57 1338.99 472.378
1463 0 66.2765 10.9994 729 86.8573 1338.15 473.435
1464 0 71.0541 9.96424 708 88.5127 1338.8 470.966
1465 0 72.1856 11.4981 830 87.094 1338.37 466.942
1466 0 78.2209 12.3496 966 86.0497 1339.65 465.594
1467 1 37.0664 10.5756 392 85.1964 1339.03 485.319
1468 0 39.0297 10.9148 426 83.9718 1339.29 486.106
1469 0 39.0842 10.5157 411 84.8978 1338.42 484.82
1470 0 42.0559 11.7463 494 84.7024 1338.77 480.326
1471 0 41.0674 11.615 477 84.7547 1338.55 479.39
1472 0 45.1339 12.1195 547 77.7276 1339.24 482.378
1473 0 48.1308 10.4922 505 78.7624 1339.52 482.741
1474 0 48.1574 11.1094 535 78.415 1340.19 481.252
1475 0 48.0589 10.9865 528 78.4337 1339.96 482.841
1476 0 49.1502 11.353 558 79.2903 1338.97 479.778
1477 0 52.0505 13.1027 682 74.9927 1339.97 478.985
1478 0 53.2226 12.2317 651 76.576 1339.23 477.057
1479 0 54.0326 12.474 674 77.092 1339.53 476.898
1480 0 53.1385 10.9337 581 79.7659 1339.14 476.931
1481 0 55.1148 10.1606 560 81.1982 1339.49 477.664
1482 0 57.0418 12.7976 730 77.6877 1340.02 474.345
1483 0 59.1005 11.9965 709 78.2948 1339.32 474.848
1484 0 62.0805 10.5186 653 80.3629 1339.61 476.182
1485 0 63.2148 11.8485 749 79.4526 1339.98 472.808
1486 0 66.2854 11.4505 759 79.4058 1339.65 473.03
1487 0 68.2258 11.5792 790 79.5 1340.21 473.657
1488 0 69.1118 12.1976 843 79.6394 1339.52 469.097
1489 0 72.1548 11.406 823 81.616 1339.04 470.704
