time division length width area intensity CMx CMy
0 0 35.0908 13.4223 471 131.715 1257.5 473.025
1 0 35.0112 13.31 466 130.828 1258.12 473.459
2 0 35.0559 11.4959 403 130.985 1258.39 474.164
3 0 35.0498 11.4123 400 157.11 1259.37 474.152
4 0 35.0498 11.4123 400 156.625 1260.37 474.152
5 0 36.0703 13.2242 477 129.528 1258.47 475.096
6 0 38.0342 13.2775 505 129.485 1258.18 473.717
7 0 38.0573 13.4534 512 128.859 1257.78 474.723
8 0 40.0194 14.0432 562 127.034 1257.96 474.651
9 0 40.095 14.4158 578 128.209 1257.86 473.813
10 0 41.0549 12.8365 527 133.311 1257.5 473.442
11 0 42.043 13.5575 570 131.916 1257.63 473.591
12 0 42.0319 13.0615 549 134.474 1257.28 472.506
13 0 42.0319 13.0853 550 173.76 1257.27 472.535
14 0 46.0663 14.2403 656 130.055 1257.39 472.302
15 0 46.1031 14.3808 663 130.249 1256.95 473.179
16 0 49.1225 14.2908 702 130.006 1257.46 472.215
17 0 48.0399 13.7802 662 133.332 1256.9 472.097
18 0 48.032 13.8241 664 170.896 1255.91 472.027
19 0 52.0353 14.5286 756 128.019 1256.74 471.937
20 0 54.0448 15.0616 814 126.419 1256.85 470.065
21 0 55.1165 14.805 816 126.772 1256.77 470.873
22 0 58.1099 15.2126 884 127.566 1257.3 470.588
23 0 58.1099 15.1953 883 164.753 1257.31 470.582
24 0 58.102 15.2491 886 163.957 1257.28 470.625
25 0 57.1112 15.4961 885 163.701 1257.28 470.594
26 0 65.1139 15.7109 1023 127.826 1256.25 467.587
27 0 67.0434 15.4378 1035 130.241 1256.08 465.884
28 0 70.0587 14.9446 1047 127.397 1255.71 466.69
29 0 71.1069 14.7665 1050 129.298 1256.26 464.144
30 0 75.1247 14.9219 1121 133.25 1256.02 462.29
31 0 78.0641 14.5393 1135 129.032 1255.66 461.459
32 0 81.0815 14.7013 1192 128.934 1255.31 461.83
33 0 81.0815 14.6643 1189 164.501 1254.3 461.812
34 1 43.0785 12.5817 542 134.478 1255.74 478.399
35 0 46.0125 12.9095 594 132.2 1255.75 477.628
36 0 47.0931 14.6731 691 126.065 1255.61 476.766
37 0 46.0504 12.2909 566 133.062 1254.99 477.193
38 0 46.0504 12.3343 568 169.479 1253.98 477.13
39 0 46.0504 12.2475 564 169.504 1252.99 477.057
40 0 54.0299 13.1409 710 125.965 1255.28 474.115
41 0 53.1009 13.4838 716 125.525 1254.77 473.338
42 0 56.0406 13.2939 745 125.234 1254.54 471.838
43 0 56.0406 13.2404 742 156.054 1254.53 471.885
44 0 60.0578 14.1364 849 123.005 1254.52 469.776
45 0 60.0578 14.153 850 149.799 1254.51 469.731
46 0 65.0263 13.533 880 123.253 1254.47 467.798
47 0 67.0607 14.3899 965 120.852 1254.23 466.521
48 0 69.0979 13.9223 962 122.572 1254.54 466.01
49 0 71.1162 13.1475 935 124.74 1254.38 464.399
50 0 72.0294 13.3557 962 124.641 1254.04 463.876
51 0 76.0629 13.6729 1040 123.405 1254.25 462.76
52 0 79.1191 14.1306 1118 122.33 1254.6 460.934
53 0 82.0503 14.0767 1155 122.14 1253.91 459.287
54 0 85.1161 13.6167 1159 123.193 1254.03 459.633
55 0 89.1786 13.871 1237 123.931 1254.55 456.322
56 0 88.1637 13.2141 1165 148.205 1254.52 457.63
57 0 88.161 13.1918 1163 147.769 1254.53 457.627
58 1 64.0305 9.54233 611 126.496 1254.5 475.108
59 0 64.0258 9.52742 610 144.362 1254.52 475.215
60 0 63.0682 10.4807 661 128.548 1254.52 471.865
61 0 63.0722 10.7813 680 153.115 1253.5 471.357
62 0 65.0576 12.6042 820 124.639 1254.23 471.22
63 0 67.0658 13.7179 920 122.812 1254.14 468.177
64 0 70.0674 13.9294 976 123.056 1253.65 468.476
65 0 73.1054 14.4312 1055 120.305 1253.82 466.916
66 0 75.0271 13.3152 999 123.099 1253.32 464.525
67 0 75.0271 13.3818 1004 138.006 1252.32 464.488
68 0 80.1268 13.6284 1092 123.602 1253.69 462.759
69 0 83.0815 13.6011 1130 125.564 1253.38 460.335
70 0 88.1019 13.7795 1214 124.178 1253.56 458.141
71 0 90.1091 13.3061 1199 125.883 1253.67 457.776
72 0 92.258 12.6168 1164 127.409 1253.59 457.079
73 0 97.1552 14.8834 1446 120.732 1253.99 454.689
74 0 97.1552 14.8834 1446 152.423 1254.01 454.635
75 0 104.128 14.2037 1479 121.378 1253.7 451.573
76 0 104.129 14.2324 1482 147.889 1253.69 451.487
77 0 104.102 14.2072 1479 147.495 1253.68 451.509
78 1 114.34 13.5561 1550 124.161 1253.53 444.71
79 0 119.201 14.0687 1677 122.381 1252.96 439.863
80 0 124.256 13.778 1712 122.789 1253.1 438.925
81 0 128.236 14.0132 1797 122.485 1253.06 441.486
82 0 132.21 13.7811 1822 123.529 1252.37 434.962
83 1 68.1586 12.7937 872 120.75 1252.03 466.241
84 0 72.1429 14.7485 1064 117.388 1252.62 464.881
85 0 75.0921 14.4356 1084 114.211 1254.06 466.133
86 0 76.0574 13.1611 1001 118.175 1253.59 466.21
87 0 77.0734 13.4936 1040 118.312 1253.55 463.634
88 0 80.1338 12.7412 1021 120.372 1253.17 461.863
89 0 82.1117 12.5561 1031 121.064 1253.16 462.142
90 0 86.1409 14.3834 1239 117.601 1252.83 459.296
91 0 88.1407 13.8528 1221 119.247 1253.22 459.069
92 0 89.1333 13.6986 1221 144.317 1253.26 459.07
93 0 94.0622 13.7356 1292 122.242 1252.67 455.97
94 0 100.131 14.5909 1461 119.514 1253.69 453.369
95 0 99.0717 13.6467 1352 124.868 1253.22 451.831
96 0 104.098 14.0444 1462 123.448 1253.34 451.508
97 0 107.079 13.4853 1444 125.48 1252.59 447.764
98 0 110.121 14.3024 1575 123.742 1252.22 445.534
99 0 115.224 14.2071 1637 121.757 1253.12 443.066
100 0 118.163 13.4729 1592 124.258 1252.39 439.093
101 0 124.155 13.7812 1711 121.797 1252.13 437.807
102 1 63.0788 11.3509 716 113.779 1253.06 468.489
103 0 66.1225 12.0988 800 117.948 1251.46 469.991
104 0 64.045 11.6481 746 121.157 1251.23 469.029
105 0 69.0697 12.7842 883 117.307 1251.17 468.145
106 0 68.0771 11.6045 790 120.351 1251.34 468.211
107 0 71.0911 11.5767 823 120.166 1251.77 466.858
108 0 76.1024 13.4161 1021 114.265 1252.07 466.312
109 0 76.0392 12.1516 924 118.421 1253.02 464.045
110 0 75.0392 12.3269 925 160.218 1253.02 463.921
111 0 82.0882 12.1698 999 118.274 1252.69 460.653
112 0 84.1539 13.1664 1108 116.75 1252.89 462.048
113 0 88.0589 12.662 1115 119.089 1252.19 458.417
114 0 88.0591 12.7414 1122 158.515 1252.19 458.42
115 0 93.0944 12.7827 1190 121.465 1253.21 455.408
116 0 93.0944 12.815 1193 158.85 1254.19 455.514
117 0 99.08 13.7061 1358 122.957 1252.36 451.553
118 0 103.111 13.6552 1408 122.802 1251.82 449.441
119 0 107.067 14.2808 1529 114.478 1251.75 449.947
120 0 112.121 14.6538 1643 113.752 1250.83 447.138
121 0 114.131 13.5195 1543 117.508 1250.68 446.841
122 1 61.0607 11.6933 714 113.797 1250.91 473.681
123 0 64.2191 12.2705 788 113.184 1253.13 469.299
124 0 66.0337 12.8722 850 110.865 1251.75 470.027
125 0 66.0499 11.6881 772 117.184 1251.67 468.988
126 0 71.0607 11.9616 850 115.979 1250.53 468.849
127 0 73.085 12.8344 938 114.049 1250.87 466.74
128 0 75.0961 13.4095 1007 112.711 1251.1 466.71
129 0 76.0708 12.2518 932 114.24 1251.37 466.024
130 0 80.1202 12.0319 964 112.426 1252 466.839
131 0 79.1193 12.1083 958 157.388 1253.03 466.79
132 0 83.0792 11.6275 966 111.031 1252.45 463.764
133 0 85.0694 11.7551 1000 111.237 1253 461.144
134 0 85.0848 11.7412 999 151.517 1254.02 461.258
135 0 92.088 11.0764 1020 112.049 1252.53 455.815
136 0 96.1431 11.8261 1137 108.94 1252.29 457.747
137 0 98.1069 13.2101 1296 107.692 1252.66 450.943
138 0 98.1069 13.1489 1290 141.271 1253.65 450.841
139 0 98.1069 13.1183 1287 140.934 1254.64 450.731
140 1 44.0442 11.6928 515 105.691 1254.05 477.429
141 0 44.0442 11.6474 513 128.967 1252.05 477.433
142 0 47.0527 10.3713 488 103.875 1251.22 479.555
143 0 47.0649 11.0273 519 102.956 1251.07 477.539
144 0 50.0311 10.7333 537 103.035 1251.57 476.05
145 0 50.0122 9.45769 473 104.3 1251.64 478.725
146 0 55.1655 10.8764 600 102.143 1251.52 474.507
147 0 54.1766 10.8349 587 104.342 1250.42 472.402
148 0 56.0839 11.4293 641 102.128 1251.6 472.735
149 0 58.0778 10.8819 632 103.706 1250.94 471.937
150 0 60.0292 12.0108 721 100.936 1251.37 471.284
151 0 62.1285 11.3635 706 103.225 1251.25 469.465
152 0 63.1478 12.6687 800 100.853 1251.06 470.444
153 0 64.1719 10.8614 697 106.133 1250.95 466.848
154 0 65.1203 10.7186 698 106.926 1250.54 467.097
155 0 70.1188 11.4663 804 105.198 1250.6 466.562
156 0 71.2352 11.3146 806 105.895 1250.66 464.383
157 0 74.1861 12.1856 904 103.51 1251.13 464.54
158 0 76.222 11.4009 869 106.917 1251.06 460.904
159 0 81.2821 12.106 984 105.247 1250.78 461.59
160 0 83.3342 12.1199 1010 106.295 1251.45 457.636
161 0 87.4981 12.7546 1116 107.638 1252.26 454.782
162 1 45.1524 10.077 455 100.209 1251.61 480.277
163 0 46.0533 11.2913 520 99.3481 1251.46 476.233
164 0 47.0481 12.3916 583 98.964 1253.03 477.468
165 0 49.0667 11.7187 575 102.739 1253.12 475.894
166 0 48.0342 11.2004 538 105.708 1253.05 475.405
167 0 52.0618 12.2739 639 101.876 1253.25 474.89
168 0 54.0821 12.0373 651 101.998 1253.39 475.343
169 0 53.0533 11.2717 598 105.833 1253.01 473.918
170 0 57.1174 13.0958 748 100.507 1252.8 473.467
171 0 57.1484 10.7964 617 106.515 1252.44 471.874
172 0 58.0717 11.2275 652 106.316 1253.11 471.207
173 0 58.0717 11.2447 653 137.211 1254.12 471.299
174 0 63.1582 10.925 690 105.348 1252.99 471.423
175 0 66.1386 11.6422 770 103.486 1253.01 470.04
176 0 66.1926 11.5572 765 105.438 1252.63 465.991
177 0 66.1826 11.1661 739 108.505 1252.53 463.12
178 0 70.1074 12.7661 895 105.659 1252.89 463.341
179 0 74.0655 12.0299 891 106.944 1253.32 463.883
180 0 74.1412 11.8423 878 108.841 1252.75 462.72
181 0 78.1203 12.1863 952 108.917 1252.67 461.856
182 0 79.1179 12.1591 962 109.756 1252.45 462.146
183 0 83.0796 13.5292 1124 107.624 1252.26 459.501
184 0 83.0851 13.5042 1122 135.094 1251.25 459.542
185 0 83.0864 13.4559 1118 134.836 1250.25 459.528
186 0 89.1114 13.3092 1186 111.101 1252.21 455.798
187 0 94.108 12.9957 1223 114.129 1252.73 452.603
188 0 95.0671 11.4761 1091 117.056 1253.23 454.767
189 0 99.2884 13.0025 1291 114.834 1252.39 451.499
190 0 102.109 12.9764 1325 115.818 1252.6 448.851
191 0 107.203 12.8915 1382 115.196 1252.88 446.306
192 0 111.123 13.5795 1509 114.248 1252.23 445.205
193 0 114.101 12.2084 1393 116.956 1252.34 442.956
194 0 114.098 12.2438 1397 146.822 1253.35 442.789
195 0 124.088 12.9827 1611 113.114 1252.5 438.747
196 0 124.09 13.0308 1617 154.857 1250.49 438.773
197 1 69.0491 12.0494 832 112.101 1251.4 467.209
198 0 70.0517 10.9776 769 115.272 1251.11 466.809
199 0 75.1852 13.2074 993 108.851 1251.53 464.356
200 0 73.1881 12.7343 932 152.552 1251.55 463.355
201 0 78.129 12.185 952 112.86 1250.35 463.383
202 0 81.1049 11.6392 944 113.423 1250.17 463.442
203 0 82.0693 10.7348 881 115.393 1251.23 460.757
204 0 88.0562 12.6283 1112 109.783 1250.96 459.314
205 0 91.111 13.1049 1194 110.956 1251.39 457.924
206 0 93.1181 11.7378 1093 112.543 1251.9 456.265
207 0 95.1156 11.7121 1114 113.673 1251.8 454.277
208 0 100.091 12.019 1203 111.822 1253.31 453.559
209 0 102.07 12.4033 1266 109.409 1253.79 453.562
210 0 107.187 11.8951 1275 111.975 1253.28 450.456
211 0 111.112 11.9519 1328 110.78 1252.13 444.949
212 0 114.154 12.2642 1400 110.319 1251.39 445.084
213 0 117.062 11.9082 1394 110.339 1252.05 444.018
214 0 122.083 12.5407 1531 109.627 1252.29 440.995
215 0 129.197 10.7665 1391 116.899 1251.37 441.173
216 0 137.133 12.003 1646 113.849 1252.67 437.495
217 1 75.1081 12.6618 951 104.128 1251.15 466.342
218 0 76.1443 11.8328 901 112.017 1251.1 464.224
219 0 78.2755 12.8776 1008 105.258 1252.67 462.551
220 0 81.0993 11.9237 967 105.676 1252.43 461.05
221 0 82.1347 11.9681 983 105.873 1252.69 460.665
222 0 85.1251 13.4625 1146 102.716 1253.2 459.434
223 0 86.1299 12.8527 1107 147.201 1253.25 459.838
224 0 90.2101 13.0806 1180 106.612 1253.11 456.424
225 0 93.2007 12.0385 1122 109.154 1253.02 455.538
226 0 96.2568 12.8303 1235 108.151 1253.54 453.646
227 0 98.1277 12.1271 1190 109.482 1253.15 454.259
228 0 98.1277 12.229 1200 151.762 1252.15 454.363
229 0 103.271 12.7723 1319 114.086 1252.35 447.764
230 0 103.271 12.7723 1319 161.507 1253.36 447.657
231 0 112.112 12.22 1370 114.527 1252.29 443.883
232 0 116.167 12.9383 1503 110.149 1250.76 444.511
233 0 118.261 11.8974 1407 118.262 1251.41 441.484
234 0 125.294 13.5282 1695 114.457 1251.27 438.994
235 0 127.156 13.3144 1693 114.43 1251.38 437.475
236 1 72.1778 10.4326 753 106.652 1253.38 464.296
237 0 75.34 10.1672 766 109.756 1253.44 461.962
238 0 78.1595 12.4105 970 109.641 1250.87 462.33
239 0 79.0772 12.6459 1000 110.281 1250.74 459.692
240 0 83.1439 11.9552 994 112.53 1250.36 459.251
241 0 83.1439 11.9431 993 155.889 1251.35 459.09
242 0 87.24 12.4255 1084 111.526 1250.98 458.4
243 0 90.086 12.0662 1087 112.71 1250.96 458.063
244 0 90.0891 12.0658 1087 147.767 1249.95 458.071
245 0 97.143 12.5176 1216 111.049 1251.74 453.512
246 0 99.1902 12.6928 1259 110.909 1252.03 453.928
247 0 104.207 13.7035 1428 109.952 1252.36 450.061
248 0 104.288 11.9572 1247 116.661 1252.37 448.712
249 1 59.1928 8.80174 521 114.284 1252.22 469.82
250 0 62.1594 10.1031 628 113.823 1252.57 465.758
251 0 61.3121 10.6015 650 109.369 1252.9 461.717
252 0 64.0996 10.1405 650 117.632 1252.77 466.926
253 0 65.0723 11.4027 742 116.248 1252.49 463.93
254 0 69.2315 12.6821 878 111.838 1251.79 464.062
255 0 69.2315 12.5521 869 144.929 1249.82 464.165
256 0 73.1199 12.8693 941 111.029 1251.79 466.169
257 0 69.1178 9.34636 646 117.557 1251.02 463.545
258 0 75.1102 11.5963 871 110.747 1251.12 462.56
259 0 77.0868 11.4416 882 106.94 1252.05 461.159
260 0 77.0889 11.4673 884 129.087 1253.06 461.113
261 0 77.0889 11.4673 884 128.648 1254.05 460.974
262 0 86.0955 12.7649 1099 109.427 1251.45 457.244
263 0 88.1438 11.935 1052 110.444 1250.94 456.877
264 0 88.1969 11.0208 972 113.772 1251.16 455.055
265 0 93.1757 12.0847 1126 110.345 1250.99 454.575
266 1 51.1012 10.5868 541 110.072 1251.18 473.37
267 0 53.0677 10.1945 541 108.917 1252.36 475.039
268 0 52.1981 10.8625 567 108.995 1252.1 473.855
269 0 56.0964 10.0719 565 110.641 1251.85 473.423
270 0 54.0476 10.5277 569 105.921 1253.68 473.355
271 0 55.0968 10.8718 599 105.506 1253.46 470.184
272 0 57.0168 10.1198 577 103.412 1252.99 471.288
273 0 58.1283 10.0983 587 104.383 1252.38 469.77
274 0 63.0992 11.7117 739 103.208 1250.63 470.493
275 0 63.0992 11.791 744 127.796 1251.65 470.544
276 0 63.0992 11.886 750 126.952 1252.66 470.659
277 0 64.0902 9.78309 627 107.673 1250.95 468.032
278 0 68.111 10.5563 719 107.188 1250.9 463.473
279 0 72.1133 12.1891 879 103.487 1251.67 464.919
280 0 72.1411 10.4517 754 106.867 1251.56 465.297
281 0 76.3443 11.3041 863 105.468 1251.47 462.041
282 0 78.1655 12.6526 989 103.05 1251.82 462.457
283 0 79.299 11.1729 886 106.655 1252.38 460.262
284 0 82.3966 11.3961 939 107.271 1252.05 458.009
285 0 82.3966 11.3718 937 142.727 1251.05 457.829
286 0 88.2814 12.2789 1084 107.649 1252.97 454.947
287 0 90.2323 12.7227 1148 106.634 1253.06 450.989
288 0 91.1752 11.1324 1015 110.349 1252.8 448.026
289 0 96.4154 12.5291 1208 106.283 1252.91 448.826
290 1 51.3558 9.1713 471 104.711 1253.26 467.391
291 0 51.2886 10.2362 525 104.097 1252.84 466.088
292 0 56.1932 11.7452 660 94.3121 1251.87 474.011
293 0 55.092 10.8183 596 99.1342 1251.88 476.052
294 0 57.0852 10.5807 604 100.902 1251.78 474.584
295 0 57.0896 12.0688 689 98.508 1251.26 473.107
296 0 60.1425 10.6913 643 101.63 1251.42 472.939
297 0 63.0507 13.3226 840 96.9655 1251.58 472.889
298 0 61.0833 11.6235 710 103.217 1251.89 469.832
299 0 62.1026 11.7225 728 103.066 1251.51 468.532
300 0 68.0725 11.1058 756 103.028 1251.27 469.52
301 0 70.1435 11.9469 838 101.431 1251.08 468.742
302 0 70.1435 11.9184 836 145.925 1251.08 468.665
303 0 76.1503 12.6329 962 100.388 1252.02 466.107
304 0 75.1034 12.2897 923 102.757 1252.41 462.948
305 0 78.1458 11.8496 926 102.436 1252.6 464.18
306 0 82.0915 12.2059 1002 101.556 1251.79 462.836
307 0 83.1401 12.2684 1020 103.353 1252.44 458.498
308 0 88.1514 12.7735 1126 101.845 1251.89 459.028
309 0 90.1372 12.7583 1150 102.919 1251.78 456.959
310 0 93.0953 12.5678 1170 103.417 1251.97 457.141
311 0 94.1972 12.6225 1189 103.816 1253.43 453.561
312 0 98.2789 11.4165 1122 105.858 1253.71 452.681
313 1 54.1038 11.7367 635 101.447 1254.39 471.315
314 0 56.1774 12.8521 722 97.9668 1253.58 471.816
315 0 55.175 10.947 604 103.116 1253 470.99
316 0 60.0763 13.1499 790 97.4278 1254.06 472.215
317 0 61.0391 13.0572 797 96.1731 1251.67 471.099
318 0 61.102 12.4055 758 97.7968 1253.38 468.95
319 0 64.1255 13.3176 854 94.9742 1253.75 469.048
320 0 65.1286 12.1606 792 97.1061 1253.64 469.309
321 0 64.0712 10.8785 697 100.923 1253.92 465.75
322 0 68.1974 12.6544 863 96.9826 1253.59 467.012
323 0 67.2183 12.1098 814 99.5516 1253.63 464.215
324 0 72.2047 12.1045 874 98.6922 1253.52 464.577
325 0 76.1644 12.5255 954 96.8553 1253.5 464.352
326 0 77.256 12.4392 961 101.051 1254 461.807
327 0 80.2188 13.6128 1092 99.1896 1253.23 460.258
328 0 79.2526 9.51389 754 106.223 1253.1 460.983
329 0 84.0908 10.7265 902 104.143 1253.53 459.58
330 0 87.1055 11.7444 1023 101.829 1253.73 455.45
331 0 89.1319 11.2866 1006 102.461 1253.63 454.678
332 1 48.0349 10.7214 515 97.6718 1253.23 477.037
333 0 47.1281 11.5854 546 95.4945 1252.29 477.683
334 0 50.1876 11.4371 574 95.2909 1251.83 476.383
335 0 50.1427 10.53 528 97.9792 1251.51 475.589
336 0 54.0336 12.5662 679 98.651 1254.26 475.427
337 0 55.0208 11.5411 635 99.589 1253.71 477.044
338 0 57.0918 12.0858 690 99.029 1253.68 473.81
339 0 57.0352 12.4835 712 99.8933 1254.43 472.235
340 0 59.0211 12.792 755 98.4199 1254.18 472.377
341 0 59.0988 11.5738 684 102.689 1253.81 471.022
342 0 64.0539 13.7228 879 96.1365 1253.9 470.041
343 0 64.0318 12.2595 785 99.9006 1253.05 471.097
344 0 65.0318 13.7932 897 97.8584 1253.61 468.312
345 0 68.0566 13.3271 907 98.5226 1253.3 468.834
346 0 70.0992 13.4096 940 99.3968 1253.11 466.016
347 0 71.0241 12.0523 856 102.307 1253.89 467.229
348 0 74.0494 13.3424 988 100.654 1253.07 465.228
349 0 75.1468 13.0145 978 103.745 1251.87 462.629
350 0 77.2173 13.1447 1015 103.231 1252.13 462.818
351 0 80.1135 13.5932 1089 102.061 1251.79 462.174
352 0 83.0976 14.1039 1172 97.0981 1252.48 461.076
353 0 85.075 12.3538 1051 100.489 1252.2 460.102
354 0 87.2183 12.6808 1106 101.115 1252.23 458.166
355 0 91.1433 13.9012 1267 99.6417 1252.33 455.391
356 1 47.0611 10.922 514 103.411 1251.58 480.07
357 0 47.044 12.1163 570 102.663 1251.7 476.135
358 0 51.0745 11.3168 578 103.875 1252.2 475.837
359 0 52.0406 12.9514 674 100.004 1252.87 475.763
360 0 53.0772 12.5289 665 98.5188 1252.78 474.262
361 0 57.0342 13.1675 751 95.9734 1253.23 473.683
362 0 57.0519 12.2695 700 98.3229 1252.5 475.271
363 0 58.0674 13.5704 788 97.0774 1252.3 473.883
364 0 63.047 13.6565 861 95.8792 1252.61 472.229
365 0 63.0561 13.1629 830 98.5084 1252.22 470.336
366 0 67.1487 14.3413 963 94.9045 1252.52 470.56
367 0 66.0978 13.1472 869 99.3936 1252.03 469.741
368 0 69.1278 14.6106 1010 97.5119 1252.21 468.259
369 0 72.1673 14.023 1012 98.8626 1251.91 467.449
370 0 74.131 14.4744 1073 99.4809 1252.21 466.579
371 0 79.1102 14.6252 1157 99.0138 1252.26 464.904
372 0 80.1467 14.1241 1132 101.708 1252.46 463.591
373 0 82.0515 14.4178 1183 101.421 1254.2 461.625
374 0 86.0645 15.6046 1343 100.535 1254.16 460.917
375 0 86.131 14.8843 1282 102.886 1254.47 461.487
376 0 90.1508 13.5218 1219 110.327 1254 459.26
377 0 93.1294 13.9161 1296 110.291 1253.91 456.225
378 1 50.0686 11.6241 582 109.165 1254.48 477.797
379 0 51.0979 12.4271 635 106.929 1253.56 476.792
380 0 53.0583 12.7972 679 101.252 1252.85 477.969
381 0 55.0778 13.1632 725 100.446 1252.79 476.646
382 0 56.0642 13.4489 754 101.32 1253.47 475.711
383 0 59.0642 13.6631 807 100.176 1253.6 475.264
384 0 62.0957 12.9961 807 101.789 1253.42 474.361
385 0 61.0903 13.6192 832 102.452 1254.09 471.499
386 0 65.207 14.661 956 98.8211 1254.12 471.207
387 0 65.0963 13.0268 848 103.013 1253.68 472.61
388 0 68.058 12.9448 881 104.579 1253.79 469.797
389 0 71.1447 14.7165 1047 101.292 1253.32 468.848
390 0 73.0892 13.7366 1004 104.496 1252.98 467.384
391 0 72.033 12.8691 927 108.264 1253.59 467.087
392 0 74.0803 13.0804 969 109.163 1253.46 466.258
393 0 79.1431 14.3664 1137 106.45 1253.49 463.701
394 0 80.0861 13.5479 1085 109.393 1254.07 463.382
395 0 84.1299 13.5861 1143 109.489 1253.74 462.441
396 0 84.1299 13.491 1135 155.982 1252.75 462.318
397 0 91.0868 14.6783 1337 108.257 1253.97 458.4
398 0 92.1318 13.8389 1275 110.902 1254 457.169
399 1 49.0657 11.1687 548 111.799 1255.2 478.173
400 0 51.0717 11.7874 602 107.518 1254.67 476.018
401 0 51.0516 11.4198 583 112.015 1254.88 478.075
402 0 54.0574 12.2462 662 111.208 1255.02 475.69
403 0 58.1219 13.2996 773 107.259 1254.44 476.252
404 0 57.119 14.7937 845 148.489 1254.43 475.444
405 0 58.0862 11.965 695 112.491 1254.3 473.683
406 0 60.0976 12.2468 736 111.75 1254.52 472.917
407 0 65.0208 13.0266 847 108.816 1253.19 472.04
408 0 64.0389 13.3825 857 109.589 1253.89 471.876
409 0 70.0367 13.8784 972 106.655 1253.92 470.272
410 0 70.1047 14.5925 1023 108.16 1254.24 467.79
411 0 72.3419 13.0077 941 112.479 1253.64 466.488
412 0 73.1232 12.5678 919 114.82 1253.64 466.738
413 0 77.2115 13.0032 1004 113.394 1253.96 465.499
414 0 79.2339 13.4665 1067 112.714 1253.65 462.781
415 0 83.2074 13.2921 1106 112.594 1253.89 461.584
416 0 86.2355 14.5068 1251 108.842 1254.05 462.479
417 0 87.1332 12.3719 1078 106.884 1254.55 462.529
418 0 89.0627 12.0252 1071 108.437 1254.39 460.56
419 1 49.0144 11.5068 564 103.833 1254.37 479.463
420 0 49.0144 11.5068 564 135.869 1254.36 479.383
421 0 51.0284 10.9547 559 105.784 1253.86 476.628
422 0 54.1768 12.4223 673 102.444 1253.84 475.74
423 0 56.1245 12.3654 694 102.161 1253.96 476.21
424 0 56.1053 12.7617 716 103.426 1253.75 474.992
425 0 59.0343 12.01 709 104.801 1251.9 474.999
426 0 60.0471 11.7075 703 105.226 1252.36 475.132
427 0 63.039 11.3263 714 106.574 1252.02 473.465
428 0 64.0546 11.1467 714 107.276 1252.75 473.464
429 0 64.0651 11.3322 726 108.354 1253.14 471.457
430 0 70.0396 12.8927 903 103.764 1252.31 470.259
431 0 71.0712 12.9307 919 104.312 1253.39 469.743
432 0 73.0324 13.1448 960 105.024 1252.88 466.95
433 0 76.0547 13.0564 993 105.434 1253.21 467.989
434 0 75.0453 10.9934 825 112.11 1253.92 466.918
435 0 82.0719 12.8546 1055 107.074 1254.06 465.294
436 0 85.0643 14.0129 1192 104.686 1254.14 464.061
437 0 88.1027 12.5876 1109 109.325 1254.08 462.64
438 1 44.0218 10.8583 478 112.274 1254.97 481.364
439 0 47.0406 10.374 488 114.422 1251.92 481.539
440 0 49.3985 11.7817 582 111.789 1254.44 478.605
441 0 50.0648 12.6836 635 104.751 1254.87 479.66
442 0 51.0221 13.6803 698 104.049 1254.31 479.762
443 0 53.0343 13.0859 694 105.563 1254.46 478.418
444 0 55.0722 12.6561 697 106.57 1254.62 477.94
445 0 57.0319 13.7818 786 104.445 1254.42 477.107
446 0 57.0187 13.2237 754 107.033 1254.4 476.223
447 0 59.0975 14.2307 841 104.545 1253.85 476.774
448 0 60.1576 13.0491 785 108.214 1254.49 474.152
449 0 62.0435 13.5389 840 107.036 1254.57 474.29
450 0 62.1107 12.6709 787 110.593 1254.63 473.062
451 0 63.0741 12.4457 785 112.166 1254.49 471.394
452 0 66.104 13.4183 887 108.752 1254.46 470.985
453 0 69.0549 13.873 958 108.013 1255.31 469.682
454 0 69.1179 13.1948 912 109.575 1255.03 467.295
455 0 72.1333 13.5444 977 106.916 1255.15 467.665
456 0 74.1277 12.5189 928 109.158 1255.18 465.811
457 0 78.0832 12.9221 1009 108.608 1254.56 465.027
458 0 79.086 12.9353 1023 109.741 1254.5 463.67
459 0 81.1232 13.5103 1096 108.853 1254.11 465.22
460 0 85.0971 12.8559 1094 110.231 1253.9 460.942
461 0 86.0614 12.1193 1043 112.528 1254.55 460.881
462 0 89.0927 11.7518 1047 113.373 1254.41 458.853
463 1 47.048 10.7975 508 112.299 1254.61 477.774
464 0 50.065 12.4438 623 109.14 1253.8 478.236
465 0 52.03 12.0892 629 110.108 1255.46 478.394
466 0 54.0465 12.1377 656 112.093 1254.65 476.308
467 0 53.0253 12.4469 660 112.453 1254.5 474.586
468 0 53.0313 12.5398 665 149.571 1254.51 474.69
469 0 57.0183 13.5395 772 110.5 1254.55 475.137
470 0 59.0548 12.7339 752 113.137 1254.69 473.944
471 0 62.1253 13.0221 809 111.363 1254.69 473.188
472 0 63.0591 12.8768 812 112.739 1254 471.372
473 0 64.0728 12.3921 794 115.168 1255.03 470.88
474 0 66.1237 14.9114 986 104.719 1255.32 470.947
475 0 68.0484 13.8872 945 112.669 1255.75 469.662
476 0 69.0611 12.3803 855 116.518 1255.5 468.296
477 0 74.0709 14.6886 1088 111.173 1254.7 467.381
478 0 76.0741 13.1188 998 115.379 1255.1 465.929
479 0 78.1198 13.6969 1070 114.793 1254.61 465.268
480 0 78.0938 13.8295 1080 115.781 1254.06 464.281
481 0 84.0997 14.8871 1252 112.238 1253.55 462.954
482 0 85.1227 14.297 1217 115.435 1253.68 461.077
483 0 87.1416 14.2527 1242 116.356 1253.99 459.33
484 0 92.0722 14.9231 1374 113.728 1254.01 459.035
485 0 94.1336 14.5963 1374 114.167 1253.33 458.924
486 0 98.1452 13.8774 1362 116.024 1253.03 455.789
487 1 50.1001 10.6187 532 121.91 1254.21 478.344
488 0 55.2409 12.1106 669 118.825 1253 475.12
489 0 57.1889 13.3417 763 114.51 1253.15 473.486
490 0 59.0673 13.1206 775 110.516 1255.4 474.298
491 0 59.0565 13.123 775 134.662 1256.4 474.298
492 0 60.1096 13.5087 812 111.326 1254.4 473.441
493 0 61.1043 12.7651 780 114.008 1254.43 472.131
494 0 65.0545 12.82 834 113.042 1254.5 471.285
495 0 67.0946 14.2635 957 109.583 1254.73 468.78
496 0 71.0704 13.4937 959 110.937 1254.03 469.203
497 0 71.1318 13.3133 947 113.465 1254.36 467.758
498 0 73.1944 12.5146 916 115.794 1254.57 466.855
499 0 74.0557 12.3556 915 117.316 1254.57 464.639
500 0 79.1517 13.5562 1073 118.537 1254.23 464.103
501 0 83.1132 15.0036 1247 116.681 1253.72 461.692
502 0 85.0604 14.0371 1194 121.087 1253.78 459.566
503 0 89.1015 14.3656 1280 119.867 1254 459.123
504 0 90.0692 13.5229 1218 123.092 1254.03 457.434
505 0 90.1292 12.5819 1134 127.414 1254 457.848
506 0 95.1754 13.4594 1281 124.575 1254.02 455.197
507 1 53.0664 9.23372 490 120.498 1254.47 473.888
508 0 53.072 9.06315 481 117.763 1253.13 470.397
509 0 53.072 9.08199 482 135.886 1254.13 470.448
510 0 56.1567 10.6132 596 110.619 1253.45 468.913
511 0 59.0724 11.1727 660 108.076 1253.53 471.02
512 0 61.096 11.6047 709 117.525 1253.59 472.836
513 0 60.1263 11.6422 700 117.23 1252.75 472.741
514 0 64.0837 11.9687 767 116.064 1254.69 473.121
515 0 66.0481 11.3251 748 118.507 1254.31 470.81
516 0 69.1272 13.1352 908 114.098 1253.54 469.251
517 0 72.066 12.6412 911 114.071 1253.94 468.181
518 0 75.1146 12.5941 946 113.518 1254.16 466.264
519 0 78.0902 13.2283 1033 112.408 1254.15 465.469
520 0 79.0906 12.8713 1018 114.952 1254.09 463.546
521 0 83.0903 12.348 1026 116.8 1253.38 461.727
522 0 86.176 13.5188 1165 113.47 1253.56 462.176
523 0 91.107 13.8848 1265 111.217 1254.3 462.653
524 1 48.0649 11.5885 557 116.262 1254.18 481.095
525 0 50.0763 12.5409 628 112.209 1253.98 480.818
526 0 49.0332 13.3379 654 113.355 1253.89 479.177
527 0 53.1009 13.5779 721 110.143 1253.16 477.218
528 0 53.0815 13.3568 709 111.453 1253.82 477.14
529 0 56.0631 13.2886 745 111.54 1253.94 476.328
530 0 55.0581 12.6957 699 114.545 1254.57 475.867
531 0 59.0253 13.9093 821 110.038 1253.95 476.099
532 0 57.0957 12.8206 732 114.925 1253.83 474.475
533 0 62.1095 13.1059 814 112.344 1254.25 475.177
534 0 63.1897 13.3249 842 113.284 1253.94 470.958
535 0 65.1641 14.0722 917 112.071 1254.16 471.232
536 0 67.1626 14.1299 949 112.212 1254.57 469.796
537 0 69.1241 12.4993 864 117.172 1253.79 470.624
538 0 70.1932 13.9615 980 115.103 1253.96 468.063
539 0 74.1038 13.8454 1026 115.64 1253.78 468.214
540 0 76.183 14.3864 1096 116.499 1253.86 465.113
541 0 77.1996 14.8446 1146 115.88 1253.58 464.185
542 0 77.0993 13.5669 1046 122.485 1253.78 463.861
543 0 81.2188 13.9992 1137 120.695 1253.88 463.344
544 0 83.2076 13.7007 1140 122.284 1253.49 463.107
545 0 86.1919 13.876 1196 123.212 1253.93 458.638
546 0 89.0835 14.1104 1257 121.143 1253.5 460.028
547 0 93.2011 14.5277 1354 120.32 1253.49 458.448
548 0 94.1624 14.7617 1390 120.479 1253.58 457.264
549 0 98.214 14.0611 1381 123.144 1253.89 453.668
550 0 103.173 15.915 1642 118.963 1253.74 453.206
551 0 104.084 13.979 1455 127.968 1253.77 450.384
552 0 108.134 14.8519 1606 125.16 1254.23 449.014
553 0 110.156 14.1254 1556 126.33 1253.8 447.852
554 0 114.176 14.2062 1622 126.108 1253.26 445.937
555 0 118.34 14.1372 1673 126.266 1253.2 443.415
556 0 122.249 15.0348 1838 124.473 1253.8 440.189
557 0 128.184 15.0955 1935 121.911 1254 440.628
558 0 130.379 14.6726 1913 124.801 1254.16 434.602
559 0 135.214 14.5103 1962 123.194 1253.87 435.34
560 0 144.216 15.0192 2166 120.69 1255.08 434.286
561 1 74.1758 12.2951 912 121.817 1255.01 464.418
562 0 74.1758 12.3086 913 163.611 1254.02 464.46
563 0 77.1726 12.3489 953 122.671 1254.67 465.13
564 0 79.1226 12.3858 980 124.155 1254.33 462.633
565 0 82.1107 12.0569 990 124.837 1253.72 461.31
566 0 85.145 13.4477 1145 122.066 1254.14 458.932
567 0 89.0733 13.0567 1163 121.586 1254.23 458.191
568 0 90.0768 11.9343 1075 124.66 1253.83 457.42
569 0 94.1104 14.3342 1349 119.417 1253.86 452.271
570 0 95.1001 12.9863 1235 122.116 1254.38 453.08
571 0 98.1347 13.7668 1351 120.859 1254.18 451.318
572 0 100.166 12.7888 1281 124.005 1253.77 444.468
573 0 107.299 14.1195 1515 118.443 1253.55 446.272
574 0 109.215 12.8279 1401 122.027 1253.97 441.7
575 0 115.247 13.5361 1560 118.623 1254.08 438.384
576 1 62.1384 10.7502 668 116.699 1253.31 467.957
577 0 65.0882 12.4447 810 112.453 1252.3 468.169
578 0 67.2377 13.3259 896 108.45 1252.79 470.36
579 0 70.1423 12.3178 864 115.949 1252.87 468.69
580 0 69.2425 13.0989 907 114.466 1252.31 469.305
581 0 72.1137 11.052 797 117.961 1252.19 468.846
582 0 76.2323 12.698 968 113.15 1252.49 465.627
583 0 76.254 12.3403 941 114.756 1252.45 463.803
584 0 80.2317 13.4361 1078 111.594 1253.11 462.029
585 0 82.2103 12.6383 1039 113.467 1252.27 461.686
586 0 84.1986 12.8506 1082 113.627 1252.79 460.122
587 0 86.183 11.9513 1030 115.629 1252.86 455.346
588 0 90.1944 12.5507 1132 112.399 1252.64 456.622
589 0 92.2782 12.1047 1117 112.087 1253.06 455.584
590 0 97.1761 12.75 1239 107.441 1253.13 455.216
591 0 97.126 10.718 1041 112.819 1253.16 450.427
592 0 102.182 11.0294 1127 110.225 1253.16 451.719
593 0 106.168 11.8869 1262 109.361 1253.21 446.499
594 0 108.124 11.2278 1214 110.397 1254.53 445.54
595 0 114.17 12.0609 1377 109.001 1254 444.908
596 1 64.0683 11.8467 759 100.432 1254.98 468.548
597 0 66.0989 10.212 675 100.806 1254.77 465.019
598 0 68.073 9.84238 670 101.376 1255.32 465.812
599 0 72.1214 10.7874 778 101.783 1255.06 465.192
600 0 74.1095 11.6314 862 103.42 1255.63 465.677
601 0 75.1224 10.809 812 107.773 1255.58 463.745
602 0 78.1599 10.9775 858 108.322 1255.23 460.841
603 0 82.0766 11.9157 978 106.722 1254.86 462.985
604 0 85.1631 12.5054 1065 107.066 1255.22 462.11
605 0 87.0853 12.0686 1051 108.993 1255.54 458.68
606 0 89.0652 11.9351 1063 108.444 1254.29 460.772
607 0 93.0661 11.9485 1112 108.658 1254.04 457.371
608 0 94.153 11.3751 1071 109.859 1253.61 458.97
609 0 96.0683 10.5238 1011 112.203 1254.63 453.066
610 1 54.1246 10.6975 579 105.629 1254.73 477.974
611 0 53.2489 10.5918 564 109.869 1254.67 477.8
612 0 55.235 11.3877 629 100.545 1254.16 476.17
613 0 59.2638 12.1322 719 106.428 1253.98 475.86
614 0 59.2638 12.0816 716 132.522 1253.97 475.852
615 0 61.1531 11.2831 690 105.052 1254.2 474.238
616 0 63.1633 10.9241 690 106.793 1254.66 474.201
617 0 67.1831 11.9673 804 105.974 1254.02 471.369
618 0 67.2615 11.6857 786 108.751 1254.07 470.011
619 0 70.1248 10.2817 721 111.53 1253.85 469.705
620 0 74.2047 12.1825 904 106.865 1254.13 469.698
621 0 77.2478 11.4696 886 108.731 1254.1 466.792
622 0 80.3359 11.9996 964 108.415 1252.94 464.516
623 0 83.398 12.842 1071 108.165 1252.64 459.426
624 0 85.283 12.3237 1051 111.14 1252.38 455.054
625 0 88.3277 12.1027 1069 111.536 1252.08 456.949
626 0 89.3854 10.6169 949 117.587 1252.03 453.144
627 0 92.3698 11.3998 1053 114.448 1252.6 453.771
628 1 53.2665 11.2453 599 107.756 1252.34 474.434
629 0 53.3466 10.7598 574 112.817 1252.4 470.798
630 0 57.1457 11.5844 662 109.18 1252.76 473.125
631 0 57.1298 10.765 615 113.571 1253.36 476.306
632 0 57.095 12.0501 688 110.938 1254.53 473.856
633 0 59.0675 12.054 712 111.645 1254.55 472.798
634 0 61.1285 11.6476 712 112.208 1253.7 473.521
635 0 62.0909 11.9663 743 112.297 1253.97 473.464
636 0 65.099 11.3673 740 114.224 1254.04 472.95
637 0 67.1455 12.3463 829 110.926 1255.24 471.965
638 0 71.0983 12.5179 890 110.657 1254.1 470.358
639 0 72.187 12.1767 879 112.683 1255.25 469.332
640 0 72.1212 11.4945 829 116.673 1255.23 466.221
641 0 75.0736 13.1737 989 111.957 1254.54 467.861
642 0 78.1675 12.5244 979 114.314 1253.48 465.632
643 0 80.3662 12.4306 999 115.766 1253.81 464.264
644 0 82.2691 11.6204 956 119.32 1254.25 463.062
645 0 86.1464 11.643 1003 119.874 1253.28 461.622
646 0 89.2169 13.0805 1167 117.434 1253.22 460.044
647 1 49.055 10.6003 520 115.1 1253.64 480.662
648 0 51.0348 11.3256 578 111.981 1253.9 479.137
649 0 50.0722 11.7031 586 116.867 1253.17 479.265
650 0 53.1258 12.6869 674 109.401 1254.13 478.507
651 0 54.2109 11.7504 637 112.634 1254.05 477.316
652 0 58.1556 12.2086 710 109.501 1253.88 476.449
653 0 57.1342 11.4642 655 112.667 1254.5 476.232
654 0 60.1257 11.9916 721 112.039 1254.1 472.569
655 0 61.0966 12.292 751 112.269 1254.12 472.947
656 0 64.0947 12.7468 817 110.929 1254.31 472.187
657 0 67.0906 12.5204 840 112.235 1253.41 471.135
658 0 67.1777 12.6084 847 113.198 1253.22 470.574
659 0 70.1259 12.1638 853 114.154 1253.11 469.24
660 0 72.0987 11.512 830 116.596 1253.03 469.63
661 0 75.1339 11.5926 871 116.416 1253.35 468.827
662 0 77.1402 13.093 1010 114.545 1252.62 465.891
663 0 80.1212 11.8695 951 117.375 1252.82 465.563
664 0 82.0936 11.426 938 118.119 1253.61 465.865
665 0 81.0886 10.951 888 155.304 1254.62 464.761
666 0 88.1766 12.5657 1108 117.338 1251.84 458.16
667 0 92.2258 12.4911 1152 116.325 1251.91 458.963
668 0 95.3097 12.4961 1191 117.83 1252.16 455.234
669 0 96.3314 12.0729 1163 120.295 1252.56 452.66
670 1 53.2884 10.6777 569 115.33 1252.14 474.264
671 0 54.2744 10.539 572 117.778 1252.03 472.205
672 0 57.2491 12.3495 707 111.086 1251.86 473.102
673 0 57.2491 12.2797 703 140.878 1251.85 473.04
674 0 58.0874 9.96773 579 119.313 1253.18 476.454
675 0 62.09 11.9343 741 114.467 1253.9 475.686
676 0 62.1377 11.4262 710 117.031 1253.89 474.668
677 0 64.0959 12.5281 803 113.682 1253.97 473.674
678 0 69.1079 13.3993 926 110.718 1253.92 470.621
679 0 70.1243 12.4921 876 112.401 1254.2 473.266
680 0 71.0855 12.0137 854 114.438 1253.31 469.465
681 0 75.1138 12.075 907 112.84 1252.89 470.738
682 0 76.0802 12.4343 946 115.673 1252.72 465.06
683 0 79.1137 12.4378 984 111.54 1253.51 466.974
684 0 80.0665 12.3273 987 113.143 1253.83 464.278
685 0 83.0874 12.5169 1040 113.57 1253.27 461.127
686 0 88.1142 12.2341 1078 113.694 1253.07 461.007
687 0 89.0744 11.9338 1063 115.351 1253.53 458.837
688 0 95.0868 12.7673 1214 113.544 1253.37 457.315
689 0 98.1495 13.021 1278 112.61 1253.46 456.372
690 0 100.113 12.2961 1231 115.431 1253.84 454.904
691 1 56.1005 11.3903 639 111.596 1253.92 477.973
692 0 59.157 12.2724 726 110.471 1253.59 475.708
693 0 59.1827 13.0612 773 109.184 1254.05 474.595
694 0 61.0459 11.8599 724 114.666 1254.44 474.407
695 0 64.0822 13.4983 865 110.43 1254.46 472.168
696 0 64.095 12.8715 825 113.281 1253.67 470.811
697 0 66.1457 13.5912 899 111.06 1253.9 470.893
698 0 67.1043 14.0975 946 110.813 1254.11 468.242
699 0 70.1009 12.7245 892 112.928 1253.72 469.691
700 0 72.1862 14.6011 1054 109.185 1253.43 467.657
701 0 75.1331 14.1748 1065 109.644 1254.11 467.549
702 0 75.1005 12.197 916 110.552 1254.01 467.52
703 0 78.0857 12.5887 983 109.998 1253.59 465.836
704 0 80.2195 13.2262 1061 109.405 1253.37 464.506
705 0 85.0953 13.432 1143 108.178 1254.2 463.673
706 0 88.1153 13.7207 1209 108.026 1253.29 463.961
707 0 89.1117 12.8827 1148 110.091 1254.1 462.881
708 0 87.1163 11.961 1042 166.221 1254.99 460.788
709 1 50.046 12.1888 610 105.225 1254.64 477.698
710 0 52.0862 12.5561 654 103.972 1254.3 478.217
711 0 53.0297 12.4647 661 109.992 1254.59 477.18
712 0 57.0508 13.8298 789 105.617 1254.12 476.873
713 0 56.0334 12.7781 716 111.077 1253.83 474.331
714 0 60.0331 12.9595 778 109.342 1254.56 475.643
715 0 59.0312 12.6882 749 111.383 1254.64 471.75
716 0 61.024 13.0604 797 109.897 1254.34 472.059
717 0 63.0692 12.1771 768 110.914 1255.14 473.008
718 0 65.0774 13.3687 870 107.164 1254.58 470.902
719 0 66.0498 13.7775 910 107.303 1254.54 470.541
720 0 70.1849 14.0486 986 103.823 1254.37 468.549
721 0 72.1279 13.4899 973 104.739 1254.66 467.261
722 0 74.0893 13.7402 1018 103.798 1254.59 467.217
723 0 75.0929 13.0771 982 105.21 1254.99 465.629
724 0 77.1187 12.6818 978 104.889 1253.98 463.742
725 0 79.2011 11.7423 930 107.067 1253.43 464.201
726 0 85.0987 12.5149 1065 105.399 1253.27 462.385
727 1 46.0614 11.2024 516 105.981 1254.44 480.909
728 0 46.076 12.2407 564 105.349 1252.65 479.975
729 0 45.0136 10.1081 455 95.7143 1253.95 477.69
730 0 48.0267 11.5769 556 92.8273 1253.87 475.124
731 0 49.1482 11.0686 544 94.9669 1253.81 476.517
732 0 53.0471 13.4032 711 96.6414 1254.54 479.274
733 0 52.1845 12.954 676 99.716 1254.51 476.991
734 0 52.1511 11.6776 609 103.895 1254.3 477.332
735 0 57.1506 12.2134 698 101.367 1254.05 476.741
736 0 56.1285 12.026 675 103.153 1253.51 474.604
737 0 57.1366 11.9363 682 101.123 1253.75 474.229
738 0 59.1912 12.4681 738 102.123 1253.55 474.195
739 0 62.1087 12.301 764 102.514 1253.45 473.959
740 0 64.1711 12.3732 794 103.285 1252.75 471.339
741 0 67.0976 13.309 893 101.133 1253.11 470.053
742 0 70.1103 13.2648 930 101.935 1253.12 468.996
743 0 70.0725 13.5146 947 102.823 1252.85 467.871
744 0 73.2041 13.9883 1024 101.925 1253.2 466.644
745 0 78.1328 13.5538 1059 102.288 1253.24 464.69
746 0 79.0913 13.8068 1092 101.957 1252.47 463.184
747 0 82.1949 14.3075 1176 101.564 1252.16 461.928
748 0 83.0978 13.1171 1090 105.58 1253.12 462.888
749 0 85.048 13.9451 1186 104.431 1252.8 459.352
750 0 90.1114 13.5721 1223 104.523 1253.17 459.035
751 0 92.1018 14.5383 1339 102.913 1252.91 455.468
752 0 95.1614 13.8396 1317 104.12 1252.76 453.627
753 1 53.0186 11.8826 630 105.838 1251.7 474.84
754 0 55.0417 12.0454 663 106.332 1252.03 473.958
755 0 56.1743 10.9837 617 96.4489 1253.47 472.707
756 0 59.0115 10.0489 593 106.017 1252.8 475.912
757 0 60.1234 12.6906 763 99.8362 1252.24 474.512
758 0 62.1827 12.2703 763 101.779 1252.07 472.633
759 0 64.0431 11.8045 756 102.696 1252.08 471.751
760 0 65.1771 10.7707 702 104.984 1251.15 472.232
761 0 68.138 12.7388 868 104.706 1251.62 469.796
762 0 68.0369 11.7142 797 108.233 1251.59 468.462
763 0 72.0815 11.1124 801 108.468 1251.48 466.898
764 0 75.0577 11.2447 844 108.687 1251.61 467.1
765 0 79.0515 13.2825 1050 104.49 1251.46 464.729
766 0 81.1874 13.8199 1122 104.966 1251.5 462.289
767 0 82.0886 13.254 1088 107.655 1251.23 460.854
768 0 86.0746 12.4775 1074 109.094 1251.44 460.885
769 0 90.0875 12.6877 1143 109.044 1251.67 458.43
770 0 92.1134 11.3447 1045 112.216 1251.79 458.315
771 0 97.1026 12.5949 1223 110.583 1251.83 456.513
772 0 99.1098 13.4295 1331 108.745 1252.09 457.781
773 0 102.119 12.2798 1254 113.308 1252.64 452.907
774 0 105.091 12.2274 1285 113.196 1252.24 453.089
775 0 109.122 12.6189 1377 113.942 1251.6 448.076
776 0 114.149 12.6939 1449 112.976 1251.36 448.563
777 0 116.205 12.9512 1505 111.734 1251.98 449.753
778 0 120.224 12.4934 1502 114.798 1251.57 442.893
779 0 124.181 14.2776 1773 111.278 1251.64 440.897
780 0 126.19 12.6634 1598 115.182 1251.73 441.183
781 0 131.164 12.0765 1584 116.556 1251.63 441.742
782 0 135.177 13.094 1770 116.059 1251.38 432.561
783 0 142.317 14.1445 2013 113.486 1251.64 431.586
784 0 146.231 14.1762 2073 113.714 1251.6 429.987
785 0 153.191 14.2828 2188 114.012 1251.92 424.854
786 0 157.332 13.8243 2175 115.785 1251.78 422.12
787 0 163.285 14.098 2302 116.294 1251.14 419.927
788 0 168.214 13.9881 2353 116.018 1252.27 420.396
789 0 174.196 15.8098 2754 112.513 1252.85 416.243
790 0 180.219 13.7611 2480 116.438 1252.81 418.625
791 0 185.318 15.1254 2803 114.802 1252.54 410.524
792 0 188.23 13.016 2450 119.669 1251.46 407.887
793 0 194.236 13.4064 2604 119.645 1251.52 400.638
794 0 200.275 13.1719 2638 119.762 1251.67 398.995
795 0 207.304 13.8396 2869 117.779 1252.39 394.684
796 0 212.452 12.7888 2717 116.667 1251.89 390.788
797 0 223.606 14.5032 3243 112.019 1251.71 387.312
798 0 230.509 15.0016 3458 110.981 1251.8 383.221
799 0 239.464 14.2777 3419 113.008 1252.04 378.246
800 1 57.0756 8.77784 501 100.705 1253.56 470.17
801 0 61.0448 10.8281 661 94.938 1253.1 472.549
802 0 61.0583 10.8093 660 122.806 1253.11 472.518
803 0 65.1616 11.6633 760 100.921 1253.83 472.079
804 0 67.1968 12.5155 841 99.918 1253.98 470.779
805 0 69.16 12.9699 897 100.043 1252.77 471.514
806 0 69.0736 11.9583 826 103.277 1251.94 471.045
807 0 73.0614 12.1815 890 102.39 1251.99 470.74
808 0 74.1982 11.4288 848 104.777 1252.93 466.568
809 0 78.1852 11.9972 938 105.174 1253.4 464.205
810 0 78.1758 11.4102 892 107.519 1252.12 463.889
811 0 82.352 13.1509 1083 104.439 1251.53 461.039
812 0 84.4219 12.3072 1039 106.335 1251.43 462.029
813 0 87.2122 13.3353 1163 104.798 1250.52 460.025
814 0 90.3243 12.6765 1145 106.912 1251.43 459.524
815 0 92.3685 13.7709 1272 105.076 1251.63 457.289
816 0 93.3137 12.6562 1181 109.39 1251.97 453.98
817 0 98.4899 14.0014 1379 105.42 1251.52 454.902
818 0 102.332 14.0718 1440 106.109 1250.73 453.306
819 0 105.422 15.4616 1630 103.975 1251.56 450.334
820 1 57.052 9.78055 558 108.858 1251.12 479.461
821 0 60.0512 10.6076 637 107.854 1249.52 478.111
822 0 61.0694 11.6097 709 108.272 1249.85 473.883
823 0 62.0538 11.764 730 108.51 1250.16 475.01
824 0 65.0799 12.8919 839 108.06 1250.06 472.749
825 0 63.0668 12.2886 775 112.502 1250.78 472.588
826 0 66.0993 12.0425 796 113.284 1249.93 472.102
827 0 71.1922 13.3301 949 110.012 1250.23 471.431
828 0 69.2556 12.1579 842 114.615 1251.42 471.653
829 0 70.2464 11.5024 808 117.67 1251.62 469.877
830 0 74.1868 12.3068 913 117.13 1251.19 469.108
831 0 76.1624 14.5741 1110 113.015 1251.6 467.914
832 0 76.2977 12.9886 991 118.42 1251 468.372
833 0 78.2573 14.5034 1135 115.167 1251.85 466.717
834 0 79.2357 13.605 1078 118.702 1251.01 465.147
835 0 82.2009 13.8198 1136 118.449 1251.56 466.048
836 0 84.2181 13.6075 1146 118.04 1251.89 466.575
837 0 87.1811 14.0053 1221 117.076 1251.8 463.902
838 0 88.1178 13.8111 1217 118.896 1251.96 462.776
839 0 90.23 13.2993 1200 121.51 1252.37 462.322
840 0 91.1397 14.1651 1291 120.228 1252.46 461.248
841 0 93.187 13.3388 1243 123.466 1251.95 459.078
842 0 98.2455 13.2729 1304 122.268 1251.85 459.704
843 0 101.12 15.0316 1520 119.629 1251.64 457.326
844 0 107.155 12.0573 1292 126.214 1251.25 455.89
845 0 109.145 14.467 1579 120.044 1251.01 454.997
846 0 110.125 12.5675 1384 125.703 1250.38 453.426
847 0 112.202 14.153 1588 121.563 1251.02 452.077
848 0 116.17 12.8346 1491 118.506 1250.84 445.986
849 0 119.158 13.2849 1583 117.545 1251.12 447.219
850 0 119.171 12.6121 1503 120.638 1252 443.794
851 0 123.204 12.0938 1490 120.427 1251.57 444.922
852 0 128.262 13.1606 1688 119.155 1251.86 441.315
853 0 133.275 12.9506 1726 120.138 1251.56 440.432
854 0 138.248 13.8447 1914 115.972 1251.77 437.573
855 0 138.325 12.1887 1686 120.965 1251.84 439.177
856 1 80.083 13.461 1078 110.506 1252.91 466.609
857 0 83.1079 13.1034 1089 111.439 1251.21 464.138
858 0 83.12 13.1256 1091 113.432 1250.74 460.467
859 0 86.1148 13.2033 1137 113.361 1251.06 461.456
860 0 89.0858 13.5263 1205 113.374 1250.55 460.246
861 0 91.0751 12.616 1149 115.751 1250.69 460.533
862 0 95.0909 13.7237 1305 114.386 1251 457.733
863 0 96.1476 11.9296 1147 119.501 1250.88 457.512
864 0 101.132 14.1004 1426 114.602 1250.99 454.809
865 0 104.147 13.9227 1450 114.6 1251.1 455.954
866 0 107.082 14.2134 1522 112.542 1251.16 451.698
867 0 109.07 13.065 1425 117.79 1251.69 453.698
868 0 113.063 14.0984 1594 115.774 1251.38 449.412
869 1 63.0535 12.307 776 111.562 1252.31 476.28
870 0 62.0556 13.2462 822 111.287 1251.9 475.281
871 0 66.0455 13.5815 897 109.91 1252.53 473.328
872 0 66.1057 12.9187 854 114.588 1251.33 473.615
873 0 67.0867 12.6404 848 116.698 1251.34 472.613
874 0 71.0746 13.0145 925 115.747 1251.66 471.332
875 0 72.1575 13.0825 944 116.708 1251.73 469.95
876 0 75.0925 13.0239 978 118.376 1251.53 466.554
877 0 79.1126 12.6908 1004 118.136 1251.81 467.197
878 0 80.198 13.2672 1064 117.367 1252.13 466.171
879 0 81.152 12.7415 1034 120.361 1251.31 465.297
880 0 85.1265 13.6268 1160 119.233 1251.81 462.456
881 0 88.1277 14.1045 1243 117.809 1251.22 462.461
882 0 91.1593 13.9317 1270 119.246 1250.57 462.079
883 0 91.1591 13.9207 1269 145.805 1250.58 461.792
884 0 96.0928 12.9874 1248 122.5 1250.81 457.229
885 0 99.1143 12.5108 1240 123.433 1250.82 456.366
886 0 104.216 13.2801 1384 122.888 1250.31 451.039
887 0 107.132 13.4413 1440 121.851 1250.25 451.882
888 1 59.052 12.1249 716 115.785 1250.46 476.592
889 0 60.0442 11.8912 714 115.808 1250.06 474.651
890 0 63.0277 12.0741 761 115.034 1251.23 475.089
891 0 64.0658 12.7837 819 113.253 1252.62 473.8
892 0 69.1542 13.9399 964 109.227 1253.38 471.985
893 0 70.1031 12.0251 843 114.689 1252.55 469.2
894 0 72.1444 13.3621 964 119.497 1252.53 468.754
895 0 76.0869 13.4189 1021 117.657 1252.51 468.011
896 0 76.1519 12.6852 966 115.557 1252.6 464.911
897 0 80.141 12.5404 1005 116.03 1252.61 463.21
898 0 81.1139 12.3037 998 117.35 1252.59 460.915
899 0 85.0855 12.035 1024 119.953 1252.15 463.344
900 0 88.1332 13.1279 1157 115.704 1252.43 461.918
901 0 89.1453 12.7769 1139 117.72 1251.37 459.32
902 0 94.2173 12.8745 1213 117.485 1251.44 456.09
903 0 97.3498 13.2923 1294 117.281 1251.67 453.877
904 0 99.1675 14.1074 1399 116.58 1251.58 452.723
905 0 103.362 14.4348 1492 114.649 1251.55 451.694
906 1 55.0945 12.3606 681 111.99 1251.35 476.903
907 0 57.0672 12.494 713 110.377 1251.88 478.954
908 0 61.2779 14.4424 885 107.845 1251.23 473.119
909 0 60.0888 12.7312 765 110.752 1252.17 474.524
910 0 65.0337 13.3777 870 108.161 1252.86 474.734
911 0 65.1389 12.9262 842 110.549 1252.44 472.891
912 0 66.0986 12.9957 859 110.097 1253 471.079
913 0 68.1321 12.74 868 111.26 1252.41 469.25
914 0 73.0893 13.3398 975 109.171 1252.92 468.911
915 0 73.1312 12.5391 917 111.968 1253.34 468.481
916 0 76.1225 13.0842 996 110.603 1253 467.543
917 0 79.104 14.0701 1113 108.217 1252.8 464.646
918 0 83.1224 13.3177 1107 108.948 1252.93 464.587
919 0 84.0835 12.6779 1066 111.114 1252.77 465.178
920 0 89.0875 13.1893 1175 115.117 1251.82 463.089
921 0 93.188 13.9825 1303 113.422 1252.22 459.382
922 0 95.078 13.1997 1255 115.651 1251.99 457.558
923 0 97.1773 12.4926 1214 116.082 1252.21 458.39
924 0 102.119 13.8368 1413 114.038 1251.44 453.459
925 0 105.096 13.7494 1445 113.154 1252 452.956
926 1 57.0698 12.7388 727 110.164 1250.53 476.649
927 0 59.0814 12.1866 720 110.335 1250.48 475.156
928 0 61.0509 13.3331 814 108.984 1250.17 473.763
929 0 63.0476 12.9426 816 106.569 1251.27 473.857
930 0 63.0479 13.6721 862 133.774 1251.25 474.624
931 0 68.0234 14.7743 1005 101.973 1251.45 471.313
932 0 70.0644 13.8016 967 104.827 1251.29 470.041
933 0 73.1285 14.0301 1026 102.758 1250.94 470.091
934 0 73.091 12.6554 925 107.832 1251.4 467.005
935 0 76.0658 13.0676 994 107.554 1251.81 465.234
936 0 80.075 13.6247 1091 106.577 1251.71 462.938
937 0 84.104 14.2324 1197 105.271 1251.47 461.743
938 0 87.1073 14.3501 1250 104.759 1251.07 461.74
939 0 87.1073 14.3501 1250 137.248 1251.05 461.839
940 1 47.1017 11.9953 565 109.681 1250.79 480.731
941 0 51.0925 11.7826 602 110.156 1250.92 477.973
942 0 51.0706 13.0995 669 106.157 1252.26 480.061
943 0 53.1068 13.0492 693 105.69 1253.64 478.251
944 0 55.0882 12.9429 713 106.034 1253.95 476.945
945 0 56.0437 13.7571 771 105.42 1252.89 475.192
946 0 58.1139 13.4735 783 106.215 1253.35 474.67
947 0 59.0463 13.8027 815 105.78 1252.42 475.697
948 0 62.1086 13.0095 808 107.96 1253.18 474.307
949 0 62.0971 13.028 809 109.282 1252.94 471.795
950 0 62.0898 12.949 804 110.971 1253.34 472.108
951 0 65.0793 13.6449 888 110.768 1253.16 471.434
952 0 68.0612 14.1784 965 109.042 1253.56 469.746
953 0 71.0749 14.1963 1009 109.4 1253.31 469.75
954 0 73.0589 15.1111 1104 109.589 1253.55 467.341
955 0 75.0852 13.9442 1047 113.201 1253.26 466.729
956 0 77.0511 14.1205 1088 112.085 1253.52 466.804
957 0 81.0495 14.2506 1155 113.117 1253.41 464.773
958 0 83.1163 14.4376 1200 113.124 1253.62 465.983
959 0 87.0825 15.2958 1332 111.535 1253.43 463.359
960 0 89.1625 14.5128 1294 114.019 1252.85 461.564
961 1 48.045 11.968 575 118.904 1254.1 482.007
962 0 52.0179 13.4377 699 114.687 1254.78 480.07
963 0 53.0345 13.6892 726 114.579 1254.04 478.899
964 0 55.0291 13.8472 762 115.852 1254.33 477.936
965 0 55.0516 13.2785 731 119.285 1254.21 476.751
966 0 57.0412 13.6217 777 117.501 1254 475.921
967 0 59.07 13.6618 807 117.803 1254.5 476.047
968 0 60.108 13.1929 793 119.298 1253.6 475.44
969 0 63.0828 12.9671 818 120.422 1253.09 473.289
970 0 64.0621 14.0801 902 117.251 1253.33 473.659
971 0 65.1978 14.433 941 117.745 1251.89 472.113
972 0 69.1977 14.4514 1000 116.815 1252.53 470.94
973 0 71.1662 14.7682 1051 116.64 1252.36 469.663
974 0 72.0736 13.403 966 120.83 1253.19 467.433
975 0 75.0467 14.0979 1058 118.768 1253.05 467.158
976 0 79.1319 14.7728 1169 115.366 1253.4 466.601
977 0 80.0914 14.6957 1177 116.694 1253.49 465.856
978 0 82.195 13.6626 1123 121.528 1253.35 463.218
979 0 86.1177 14.1783 1221 118.218 1253.15 462.287
980 0 90.1522 14.7085 1326 116.906 1252.98 460.643
981 1 46.0476 11.575 533 119.345 1253.75 480.636
982 0 47.1003 11.2101 528 119.544 1253.78 479.835
983 0 50.101 12.6944 636 114.67 1253.26 477.385
984 0 51.0697 14.2159 726 110.77 1252.01 478.519
985 0 52.0288 12.7814 665 115.293 1250.92 478.55
986 0 54.0638 13.5026 730 112.67 1251.75 477.8
987 0 54.0946 13.6243 737 112.569 1251.99 476.113
988 0 57.064 12.9679 740 113.846 1252.19 476.846
989 0 60.1961 13.7883 830 111.622 1252.45 473.719
990 0 63.1957 13.0389 824 113.024 1252.34 473.926
991 0 64.0296 13.0252 834 113.685 1251.62 474.447
992 0 66.082 14.028 927 111.438 1252.22 471.618
993 0 70.0519 13.7327 962 111.45 1252.35 471.227
994 0 70.0629 12.8171 898 114.726 1252 468.312
995 0 73.0645 13.755 1005 111.585 1252.4 468.408
996 0 77.0549 13.0297 1004 111.58 1252.72 467.813
997 0 79.2055 12.9915 1029 112.09 1252.56 467.309
998 0 81.175 14.1792 1151 109.45 1252.09 464.317
999 0 83.1826 14.1857 1180 109.011 1252.18 464.695
1000 0 85.1504 13.5407 1153 110.815 1252.68 463.357
1001 0 86.2883 13.0145 1123 112.004 1252.57 461.303
1002 0 91.1555 12.9559 1181 112.213 1253.03 458.858
1003 0 93.2987 13.2156 1233 111.83 1253.05 458.189
1004 0 96.2994 13.9876 1347 110.89 1253.28 454.785
1005 0 100.219 13.6601 1369 106.61 1253.13 455.701
1006 0 103.123 13.382 1380 112.97 1252.99 454.686
1007 0 107.219 13.7569 1475 112.277 1252.88 449.741
1008 0 109.148 13.1015 1430 115.08 1253.05 444.784
1009 0 112.336 13.0591 1467 116.095 1253.23 445.564
1010 0 119.326 14.3808 1716 110.913 1252.27 441.777
1011 1 63.1638 12.5863 795 106.731 1252.66 470.008
1012 0 64.1979 11.4646 736 108.261 1252.62 471.883
1013 0 68.0879 12.7629 869 105.158 1252.31 470.666
1014 0 72.1685 12.457 899 105.502 1251.8 468.397
1015 0 75.0797 13.1194 985 103.538 1252.06 468.811
1016 0 76.0504 12.8467 977 106.132 1253.18 465.714
1017 0 79.0977 12.8702 1018 105.526 1253.75 466.168
1018 0 79.0953 11.9729 947 109.295 1252.69 463.604
1019 0 84.1564 13.3323 1122 105.152 1253.28 460.076
1020 0 88.3076 13.7474 1214 103.757 1254.04 457.699
1021 0 89.263 13.533 1208 105.05 1253.71 457.332
1022 0 94.2671 12.8677 1213 105.876 1253.8 454.561
1023 0 96.2771 12.4432 1198 108.171 1253.68 449.02
1024 0 100.366 13.381 1343 105.332 1253.57 450.045
1025 0 104.27 13.0143 1357 106.263 1253.46 446.633
1026 0 105.252 12.3798 1303 108.121 1253.2 449.369
1027 0 111.289 13.2448 1474 106.419 1252.82 446.679
1028 1 56.1158 11.9396 670 100.278 1252.88 476.558
1029 0 55.0404 10.7921 594 105.253 1252.75 474.956
1030 0 61.1206 11.78 720 100.862 1252.57 475.706
1031 0 61.0473 12.0726 737 101.669 1252.6 474.054
1032 0 65.0626 13.7713 896 97.6641 1253.05 474.665
1033 0 66.1351 13.8958 919 97.7247 1252.94 471.606
1034 0 69.1625 12.8538 889 99.8594 1253.03 470.15
1035 0 71.1158 12.4445 885 101.925 1252.75 468.614
1036 0 74.1156 12.9662 961 100.992 1253.11 466.242
1037 0 77.0341 13.7601 1060 99.2075 1253.49 465.755
1038 0 78.0671 13.1169 1024 101.167 1253.48 467.23
1039 0 82.1014 13.8487 1137 100.532 1253.29 462.639
1040 0 83.143 13.8556 1152 101.194 1253.51 464.155
1041 0 86.0849 12.1973 1050 106.333 1253.66 461.411
1042 0 89.2158 13.9101 1241 103.459 1253.89 460.67
1043 0 92.176 13.3549 1231 105.629 1253.92 459.219
1044 0 95.1334 14.2116 1352 105.217 1253.74 455.962
1045 0 97.1396 14.8137 1439 105.324 1254.06 456.281
1046 0 102.196 14.5113 1483 106.287 1253.62 454.892
1047 0 102.314 12.4714 1276 112.868 1253.65 452.8
1048 0 104.356 12.7065 1326 113.778 1253.21 450.038
1049 0 108.297 13.4076 1452 113.1 1252.98 447.953
1050 0 108.383 12.0868 1310 116.422 1253.12 446.459
1051 1 64.0831 11.9688 767 109.75 1252.92 472.061
1052 0 64.0831 12.0469 772 152.518 1251.89 471.961
1053 0 69.0924 12.505 864 107.294 1251.52 469.994
1054 0 72.1323 12.1859 879 103.67 1251.78 466.232
1055 0 75.0655 13.3883 1005 100.283 1251.85 464.245
1056 0 78.067 13.4372 1049 99.5186 1251.93 464.46
1057 0 80.0352 13.0068 1041 101.292 1251.79 463.525
1058 0 82.0769 12.0497 989 103.283 1251.62 461.025
1059 0 85.1664 12.9394 1102 102.056 1251.93 459.568
1060 0 84.0872 11.6546 980 107.069 1251.86 457.645
1061 0 88.1366 13.5812 1197 103.408 1251.43 458.672
1062 0 92.1112 13.7334 1265 103.874 1251.39 457.683
1063 0 94.0973 12.232 1151 107.682 1251.69 452.573
1064 0 95.072 11.5281 1096 108.703 1251.85 452.438
1065 0 100.144 13.121 1314 105.317 1251.75 451.777
1066 0 102.096 12.165 1242 108.758 1251.71 451.572
1067 0 105.135 13.4683 1416 106.494 1252 448.486
1068 0 108.164 14.0528 1520 105.293 1252.68 448.693
1069 0 112.138 13.5101 1515 106.439 1252.36 447.887
1070 0 114.176 12.6471 1444 108.089 1252.08 448.76
1071 0 118.319 12.7537 1509 110.61 1252.51 438.654
1072 0 122.246 12.5975 1540 110.798 1252.34 438.919
1073 0 127.419 13.2006 1682 110.011 1252.04 435.222
1074 0 132.32 12.825 1697 111.681 1251.65 433.068
1075 1 73.177 11.7113 857 108.348 1251.32 465.994
1076 0 75.2223 13.2009 993 110.178 1250.84 466.625
1077 0 77.2214 12.1469 938 113.264 1250.46 465.146
1078 0 78.225 12.7581 998 113.009 1250.97 464.214
1079 0 80.1887 13.1315 1053 113.847 1250.94 463.412
1080 0 85.2179 14.1402 1205 111.144 1251.43 462.555
1081 0 86.1902 12.7857 1102 115.883 1251.38 459.695
1082 0 89.1732 13.0645 1165 114.785 1252.09 459.593
1083 0 93.228 14.1267 1317 113.357 1251.56 459.03
1084 0 95.4023 13.5636 1294 115.483 1251.11 457.005
1085 0 97.2594 14.1374 1375 113.334 1252.28 456.487
1086 0 101.291 14.562 1475 112.262 1252.26 452.437
1087 0 102.148 12.2078 1247 109.296 1252.41 453.653
1088 0 103.212 12.3048 1270 110.637 1252.01 450.914
1089 0 108.129 12.1059 1309 109.837 1253.19 447.472
1090 0 112.129 13.5647 1521 106.522 1253.23 446.511
1091 0 118.113 13.1823 1557 106.383 1252.64 446.978
1092 0 121.3 13.3965 1625 106.852 1251.89 441.669
1093 0 121.3 13.4872 1636 137.727 1251.89 441.683
1094 1 68.1884 10.9403 746 107.237 1251.48 467.378
1095 0 70.2329 13.2132 928 104.111 1250.83 464.976
1096 0 72.0589 12.9061 930 103.151 1252.54 466.944
1097 0 72.0978 12.2473 883 105.652 1253.03 467.459
1098 0 75.0794 13.1328 986 104.353 1253.12 465.368
1099 0 79.1035 14.3104 1132 101.475 1253.03 462.996
1100 0 82.1147 13.6516 1121 102.293 1253.37 463.92
1101 0 83.1378 13.2551 1102 103.631 1253.34 464.415
1102 0 87.1457 13.5864 1184 103.117 1253 461.103
1103 0 88.0559 13.4233 1182 104.268 1252.78 460.046
1104 0 92.1058 14.0382 1293 103.703 1252.78 458.369
1105 0 94.1362 13.2361 1246 105.453 1252.6 456.618
1106 0 97.1125 13.0467 1267 105.232 1252.76 454.714
1107 0 102.07 11.688 1193 106.961 1252.86 452.541
1108 0 104.185 12.9961 1354 105.587 1250.95 450.047
1109 0 109.173 12.8878 1407 105.372 1251.45 450.125
1110 1 60.0159 11.7469 705 102.251 1250.3 470.79
1111 0 59.1109 10.6241 628 102.85 1252.06 469.256
1112 0 63.065 11.4961 725 106.163 1253.18 473.516
1113 0 67.0209 12.4737 836 103.713 1253.75 470.688
1114 0 68.0346 13.2727 903 102.95 1253.23 468.225
1115 0 70.1155 12.1942 855 105.212 1253.32 468.305
1116 0 72.0501 12.991 936 103.481 1252.99 466.621
1117 0 74.0627 11.7198 868 105.961 1253.39 466.691
1118 0 79.0492 14.4973 1146 100.253 1253.66 464.005
1119 0 79.0496 13.5738 1073 103.295 1253.71 463.801
1120 0 80.1037 12.1468 973 107.565 1253.21 462.413
1121 0 84.214 13.1926 1111 104.688 1253.67 460.52
1122 0 88.2974 13.6584 1206 103.739 1253.05 458.175
1123 0 90.1777 13.4069 1209 103.558 1253.39 456.549
1124 0 91.3283 12.3839 1131 105.625 1252.93 456.96
1125 1 52.0519 11.5462 601 101.454 1254.22 479.94
1126 0 53.0498 11.3101 600 101.782 1254.01 478.17
1127 0 54.0274 12.8638 695 100.77 1252.94 476.804
1128 0 57.049 12.761 728 103.842 1250.72 477.15
1129 0 58.0917 14.1156 820 101.639 1250.85 476.413
1130 0 60.0659 13.7849 828 103.533 1250.83 474.899
1131 0 60.0859 12.0494 724 109.383 1250.87 473.946
1132 0 63.1202 12.7693 806 106.809 1250.85 474.334
1133 0 66.0728 14.59 964 103.532 1250.45 470.91
1134 0 68.0922 13.8929 946 106.196 1250.54 471.831
1135 0 69.0437 14.0201 968 106.469 1250.42 469.937
1136 0 72.1051 12.773 921 108.572 1250.97 468.693
1137 0 75.0753 12.7472 957 107.771 1251.89 469.83
1138 0 78.1367 14.0011 1094 106.814 1251.46 466.124
1139 0 79.1418 14.0002 1108 107.029 1250.69 466.353
1140 0 81.1599 13.7999 1120 108.757 1251.38 462.949
1141 0 86.089 14.8335 1277 106.28 1251.39 462.329
1142 0 86.089 14.787 1273 141.488 1252.42 462.161
1143 0 90.0812 14.2316 1282 108.865 1251.17 459.567
1144 0 94.2764 14.0014 1320 109.459 1251.71 458.602
1145 0 96.1709 13.6112 1309 111.337 1251.24 458.154
1146 0 99.1401 15.3318 1520 107.92 1251.14 456.332
1147 0 102.193 13.6898 1399 112.078 1251.36 454.641
1148 0 106.213 14.6498 1556 108.262 1250.97 452.068
1149 1 61.0905 13.1935 806 102.588 1251.05 471.747
1150 0 61.2126 13.3306 816 105.983 1250.84 471.616
1151 0 64.0307 12.4784 799 103.32 1250.09 471.488
1152 0 67.037 14.4845 971 97.689 1250.3 471.806
1153 0 69.0219 13.3581 922 100.607 1249.72 469.61
1154 0 70.0649 12.6311 885 101.621 1249.96 468.286
1155 0 73.049 12.3753 904 103.144 1250.03 467.164
1156 0 76.0922 13.9042 1058 99.6522 1250.56 466.546
1157 0 77.216 12.6269 975 103.132 1250.1 464.491
1158 0 80.0677 13.3262 1067 101.664 1250.73 462.561
1159 0 83.1273 14.0387 1167 100.813 1250.87 462.36
1160 0 88.0697 14.0343 1236 100.508 1250.75 458.722
1161 0 90.105 13.5953 1225 102.861 1250.81 457.8
1162 0 94.1661 13.2957 1252 106.053 1250.52 457.156
1163 0 96.11 13.3597 1284 106.541 1250.95 455.987
1164 0 98.2138 13.2772 1304 106.985 1251 456.432
1165 0 102.105 13.0748 1335 108.108 1251.24 452.963
1166 0 104.11 13.0247 1356 110.29 1250.87 450.913
1167 0 108.093 13.5346 1463 110.8 1251.64 450.079
1168 1 61.0754 12.9185 789 107.269 1251.48 474.921
1169 0 62.0586 13.2617 823 113.527 1250.03 472.512
1170 0 64.0422 14.1157 904 110.873 1250.28 473.167
1171 0 68.0565 13.1802 897 113.115 1251.02 472.304
1172 0 69.1326 14.0455 971 112.016 1251.12 469.611
1173 0 70.0579 12.9893 910 116.032 1250.51 468.107
1174 0 72.106 13.9239 1004 113.149 1250.6 469.027
1175 0 74.1319 13.8807 1029 113.778 1251.04 465.741
1176 0 79.1162 13.7646 1089 113.268 1250.74 466.326
1177 0 81.2578 14.0786 1144 113.684 1250.93 463.178
1178 0 85.2277 14.8074 1262 111.52 1251.21 460.974
1179 0 87.2503 14.5788 1272 112.252 1251.09 461.13
1180 0 89.2174 14.0107 1250 114.719 1251.08 458.891
1181 0 93.2996 12.4759 1164 119.255 1251.69 454.843
1182 0 97.1409 12.662 1230 114.333 1250.9 456.134
1183 0 99.3041 13.8766 1378 111.901 1250.7 455.091
1184 0 103.149 13.6986 1413 112.665 1250.64 451.625
1185 1 56.0984 11.6224 652 113.238 1251.02 472.721
1186 0 61.1037 12.2742 750 102.536 1252.49 475.705
1187 0 59.1119 11.3006 668 107.133 1252.74 474.1
1188 0 63.0855 12.5068 789 103.999 1251.84 473.193
1189 0 65.131 12.2983 801 104.698 1252.53 470.273
1190 0 65.1054 13.3322 868 104.249 1252.27 469.103
1191 0 69.0911 12.4908 863 105.078 1252.16 470.396
1192 0 71.1821 12.4048 883 106.094 1252.16 466.316
1193 0 73.1507 11.3328 829 108.86 1251.99 467.15
1194 0 77.1939 11.5424 891 107.996 1251.96 465.287
1195 0 78.1506 11.7338 917 108.192 1252.44 465.345
1196 0 81.3466 12.3422 1004 108.93 1251.68 462.07
1197 0 86.2144 11.8078 1018 109.342 1252.58 461.868
1198 0 89.2244 12.1716 1086 108.999 1252.45 460.922
1199 0 90.1354 11.871 1070 110.492 1252.66 461.189
1200 0 93.1769 12.0738 1125 112.061 1252.37 456.884
1201 0 98.2048 11.9648 1175 111.788 1252.43 456.683
1202 0 99.3395 11.1537 1108 113.658 1252.61 455.909
1203 0 103.214 12.6436 1305 110.336 1252.32 455.254
1204 0 107.224 12.5439 1345 111.143 1252.73 452.695
1205 1 56.0352 12.1888 683 108.6 1252.88 476.359
1206 0 56.1356 12.2026 685 112.371 1252.3 476.564
1207 0 59.1319 13.2078 781 111.284 1252.79 475.052
1208 0 63.1483 13.9513 881 108.951 1252.56 474.655
1209 0 61.0559 12.5295 765 103.031 1252.38 471.574
1210 0 63.1288 12.6091 796 102.569 1251.69 471.42
1211 0 67.0873 12.4017 832 102.56 1251.89 470.315
1212 0 67.0873 12.3868 831 128.781 1251.93 470.101
1213 0 74.111 12.9536 960 100.662 1252.05 468.131
1214 0 75.0928 12.3447 927 103.071 1251.92 466.177
1215 0 76.0512 12.5705 956 103.85 1251.44 467.541
1216 0 80.0793 13.5241 1083 100.919 1251.73 464.882
1217 0 82.0908 13.6434 1120 101.433 1252.02 462.819
1218 0 84.0634 11.9672 1006 105.418 1252.48 464.223
1219 0 89.0713 13.899 1238 100.726 1251.8 462.913
1220 0 90.1406 13.4124 1209 103.372 1252.16 461.706
1221 0 94.1355 13.9055 1309 102.086 1252.77 459.422
1222 0 95.0382 12.4266 1181 107.057 1252.64 457.222
1223 0 99.1345 12.599 1249 106.141 1252.42 458.495
1224 0 102.177 12.8111 1309 106.738 1251.52 454.864
1225 1 53.1026 11.4872 610 110.12 1251.64 477.539
1226 0 57.0841 14.0494 802 103.814 1251.51 477.732
1227 0 60.0428 14.2232 854 101.915 1251.59 476.388
1228 0 60.0723 12.8845 774 106.671 1252.35 473.481
1229 0 64.0396 13.3823 857 105.049 1252.63 472.82
1230 0 66.0497 12.7631 843 106.801 1251.48 470.24
1231 0 68.0705 13.1334 894 105.093 1251.74 470.293
1232 0 70.1459 12.4027 870 106.709 1251.66 468.985
1233 0 73.157 12.3843 906 107.671 1251.37 469.332
1234 0 75.1083 13.5138 1015 105.483 1251.62 468.322
1235 0 75.1191 12.7531 958 109.397 1251.56 464.108
1236 0 78.1245 13.6321 1065 109.167 1250.69 465.19
1237 0 80.2241 12.8266 1029 112.644 1250.22 462.325
1238 0 82.1121 12.9822 1066 111.782 1250.64 464.942
1239 0 86.2809 11.9725 1033 115.168 1250.85 463.391
1240 0 89.132 14.1139 1258 111.28 1250.56 459.966
1241 0 90.1509 12.6566 1141 116.063 1250.63 458.066
1242 0 96.1198 13.8889 1335 112.411 1251.53 457.732
1243 0 97.1734 12.8945 1253 116.328 1251.2 455.772
1244 0 102.174 13.3498 1364 116.011 1251.29 452.534
1245 1 55.1526 12.1481 670 113.973 1252.08 474.637
1246 0 57.1928 13.7954 789 115.839 1251.81 474.655
1247 0 60.1239 13.6718 822 117.493 1251.49 472.259
1248 0 61.1392 14.0499 859 117.255 1251.5 471.37
1249 0 61.1895 13.6952 838 119.461 1251.16 468.691
1250 0 63.1793 13.7862 871 118.921 1251.03 468.714
1251 0 67.1778 13.2484 890 118.701 1250.29 468.262
1252 0 71.2818 14.4076 1027 115.287 1251.27 468.532
1253 0 72.2007 14.0857 1017 116.485 1251.84 465.41
1254 0 75.1374 14.7596 1109 115.201 1252.03 463.913
1255 0 79.1423 14.455 1144 115.115 1251.86 462.317
1256 0 79.13 12.6753 1003 116.784 1250.7 464.333
1257 0 82.3172 14.2862 1176 112.192 1251.23 459.631
1258 0 84.1449 13.4767 1134 114.795 1251.22 460.69
1259 1 48.1334 13.5249 651 116.73 1251.03 476.152
1260 0 49.0523 12.8638 631 120.092 1250.94 475.265
1261 0 51.0637 13.5713 693 120.121 1249.54 474.149
1262 0 51.1015 13.8352 707 120.706 1249.79 473.307
1263 0 56.0949 15.0816 846 112.154 1250.36 471.715
1264 0 57.0457 15.0756 860 113.183 1250.7 471.294
1265 0 59.3163 14.7009 872 114.705 1250.25 469.493
1266 0 60.1065 15.6056 938 113.291 1250.73 469.634
1267 0 60.2216 15.0278 905 116.646 1250.8 468.575
1268 0 62.0831 14.2229 883 119.128 1250.7 467.174
1269 0 65.1591 14.856 968 116.615 1250.03 466.33
1270 0 65.0984 14.7623 961 118.399 1249.94 465.693
1271 0 68.2197 15.5527 1061 115.937 1249.72 463.538
1272 0 70.194 15.0013 1053 117.787 1250.41 463.309
1273 0 72.1488 14.4562 1043 119.916 1250.4 463.091
1274 0 74.0788 14.4576 1071 120.686 1250.61 462.025
1275 0 77.1199 15.3268 1182 116.805 1250.39 461.849
1276 0 79.0806 13.5431 1071 123.04 1250.36 458.204
1277 0 84.309 15.4551 1303 117.033 1250.1 456.057
1278 0 87.135 15.3211 1335 117.687 1250.17 455.593
1279 0 89.0996 15.6454 1394 117.568 1250.37 452.024
1280 0 93.3053 15.0688 1406 118.804 1250.13 451.939
1281 0 95.2054 14.4425 1375 120.54 1250.08 450.689
1282 0 99.1389 13.8493 1373 122.175 1250.55 449.592
1283 1 54.1827 14.285 774 123.875 1251.39 469.379
1284 0 55.1413 13.7465 758 126.108 1250.75 468.422
1285 0 59.132 14.4084 852 123.401 1251.23 466.749
1286 0 61.0618 14.5099 886 123.272 1251.25 465.772
1287 0 62.0851 14.7056 913 123.301 1251.05 465.562
1288 0 66.1252 14.9414 988 121.261 1251.29 463.133
1289 0 65.2872 13.9537 911 127.261 1250.65 462.231
1290 0 67.0943 14.2635 957 127.052 1251.25 461.053
1291 0 73.1785 14.5398 1064 123.882 1251.21 459.701
1292 0 74.2878 15.6419 1162 123.183 1250.96 458.479
1293 0 75.1897 13.712 1031 130.215 1251.04 458.091
1294 0 79.0999 15.4235 1220 125.302 1251.03 455.135
1295 0 82.348 14.378 1184 128.523 1250.88 453.815
1296 0 83.1584 14.4664 1203 129.737 1250.29 453.199
1297 0 87.1506 13.9299 1214 131.555 1250.04 450.677
1298 0 87.1253 13.406 1168 135.109 1249.79 448.051
1299 0 94.2103 15.4336 1454 126.664 1250.46 448.358
1300 0 95.0859 14.2818 1358 131.261 1250.31 446.616
1301 0 99.0829 14.6645 1453 130.23 1250.64 443.715
1302 0 102.111 14.3765 1468 130.611 1250.86 444.386
1303 0 106.17 15.0324 1596 129.068 1250.08 443.234
1304 0 108.244 13.4788 1459 134.44 1250.64 439.58
1305 0 113.102 14.2703 1614 131.234 1250.26 437.57
1306 0 117.195 15.8198 1854 127.2 1250.79 435.122
1307 0 122.112 15.2482 1862 128.138 1250.97 433.158
1308 0 124.115 14.9378 1854 130.506 1250.75 432.471
1309 0 128.13 15.6013 1999 130.184 1250.32 429.085
1310 0 131.142 14.4729 1898 135.009 1250.55 425.605
1311 0 140.299 15.2104 2134 131.074 1250.55 424.523
1312 0 144.256 14.1208 2037 132.568 1250.39 422.531
1313 0 148.297 14.2215 2109 133.261 1250.35 420.274
1314 0 156.315 15.4303 2412 129.48 1250.19 416.709
1315 0 161.527 14.7777 2387 132.766 1250.24 411.839
1316 0 167.473 14.4859 2426 132.755 1250.51 412.758
1317 1 82.2281 12.0518 991 129.706 1250.69 452.057
1318 0 83.1895 12.6458 1052 130.661 1250.37 450.727
1319 0 87.1935 13.7166 1196 125.291 1250.25 447.66
1320 0 89.2801 12.5 1116 128.933 1250.31 444.89
1321 0 90.2817 12.317 1112 151.923 1250.33 445.126
1322 0 97.1774 13.5217 1314 125.44 1250.55 441.775
1323 0 101.185 13.3222 1348 125.386 1250.8 442.291
1324 0 104.169 14.3132 1491 123.403 1250.29 438.551
1325 0 107.367 13.2163 1419 125.717 1249.52 438.771
1326 0 114.575 12.3238 1412 128.251 1249.96 435.389
1327 0 114.581 12.3145 1411 155.303 1249.97 435.231
1328 1 57.1207 8.29822 474 115.764 1250.93 463.354
1329 0 61.139 9.38844 574 114.035 1252.19 467.233
1330 0 63.1778 10.7475 679 111.723 1250.98 469.24
1331 0 64.1949 10.2812 660 112.095 1250.52 468.715
1332 0 66.2342 10.7497 712 114.274 1250.49 463.556
1333 0 68.3624 10.4736 716 114.714 1250.06 460.039
1334 0 69.2965 10.5056 728 115.423 1249.87 459.018
1335 0 72.5365 10.3121 748 116.373 1249.45 457.509
1336 0 72.6674 10.3623 753 140.582 1248.46 457.684
1337 0 77.539 10.8848 844 117.346 1250.26 455.04
1338 0 77.4487 11.5302 893 117.34 1250.1 455.94
1339 0 83.376 12.9654 1081 114.099 1249.42 451.477
1340 0 84.352 11.9499 1008 117.2 1250.52 453.663
1341 0 85.3579 12.0786 1031 117.945 1250.69 450.414
1342 0 88.5482 11.8015 1045 119.473 1250.4 450.001
1343 0 93.5776 11.4023 1067 121.067 1250.78 448.204
1344 0 95.3423 12.2611 1169 119.85 1250.7 447.116
1345 0 98.3838 13.9759 1375 117.058 1250.73 442.85
1346 0 100.412 10.8453 1089 124.43 1250.85 442.489
1347 0 100.412 10.7457 1079 151.674 1250.84 442.514
1348 0 110.449 12.9471 1430 117.88 1250.32 436.391
1349 1 65.1914 10.0167 653 117.409 1251.62 457.525
1350 0 62.2283 10.8954 678 118.485 1251.48 454.791
1351 0 67.3359 11.6728 786 113.476 1251.68 460.88
1352 0 69.1458 11.3962 788 113.202 1252.02 461.32
1353 0 70.124 11.1945 785 113.791 1251.44 457.592
1354 0 74.2592 12.4833 927 110.254 1251.46 453.59
1355 0 76.0628 12.5291 953 110.439 1251.27 453.126
1356 0 78.1302 12.172 951 111.023 1251.07 452.437
1357 0 79.146 10.588 838 114.453 1251.33 451.101
1358 0 80.1443 10.7057 858 113.997 1251.36 451.219
1359 0 83.1736 11.3377 943 113.039 1251.48 447.182
1360 0 86.0813 11.675 1005 111.161 1251.19 447.711
1361 0 90.1413 11.5485 1041 110.269 1251.36 446.291
1362 0 90.2108 12.1493 1096 109.711 1251.53 443.128
1363 0 95.2027 10.9346 1041 109.988 1251.35 445.08
1364 0 95.2027 10.882 1036 142.106 1252.37 445.232
1365 0 99.2153 11.8127 1172 108.656 1251.13 439.498
1366 0 102.088 12.6851 1295 106.257 1251.69 439.012
1367 0 100.068 12.5114 1252 137.158 1251.71 438.333
1368 0 111.236 13.0353 1450 105.534 1251.99 433.365
1369 0 109.24 13.5756 1483 128.089 1253.01 434.207
1370 0 117.154 12.7268 1491 106.629 1252.04 429.814
1371 0 117.18 11.4695 1344 108.496 1251.88 428.011
1372 0 125.233 12.872 1612 105.048 1251.08 425.468
1373 0 132.197 13.0638 1727 103.306 1251.3 425.845
1374 1 71.0941 10.5072 747 106.155 1251.28 451.845
1375 0 74.1285 10.7381 796 106.986 1250.69 450.305
1376 0 73.1955 11.804 864 105.508 1250.79 448.623
1377 0 79.2311 12.3689 980 103.524 1251.5 448.951
1378 0 83.104 12.4904 1038 101.978 1249.9 449.179
1379 0 81.2759 13.2758 1079 101.617 1250.18 447.126
1380 0 85.1627 12.9634 1104 102.444 1250.34 445.946
1381 0 87.1026 10.8493 945 106.204 1250.41 447.04
1382 0 94.0524 12.2804 1155 102.281 1250.4 446.64
1383 0 91.1544 12.6269 1151 104.569 1250.56 442.962
1384 0 93.2363 12.1841 1136 105.404 1250.41 441.849
1385 0 94.1489 11.8111 1112 107.461 1250.33 440.031
1386 0 99.0824 11.5661 1146 107.784 1250.46 437.541
1387 0 104.095 11.4799 1195 107.653 1249.93 435.794
1388 0 104.1 12.1806 1268 106.361 1250.83 434.962
1389 0 110.144 12.293 1354 105.389 1251.23 434.1
1390 0 119.191 12.7191 1516 104.184 1251.15 429.7
1391 0 124.207 14.1377 1756 100.974 1250.49 427.869
1392 0 124.251 12.8208 1593 106.065 1250.49 425
1393 0 130.211 12.28 1599 106.661 1250.26 423.994
1394 1 61.0728 9.39862 574 111.503 1249.66 453.962
1395 0 70.0826 10.6731 748 103.139 1249.06 454.416
1396 0 75.4946 12.1201 915 105.09 1250.74 461.087
1397 0 75.1127 12.8873 968 102.489 1251.34 456.242
1398 0 75.2738 12.2619 923 105.301 1251.23 453.616
1399 0 79.2739 12.173 965 104.963 1250.93 454.069
1400 0 82.3763 13.9482 1149 99.9417 1251.34 454.826
1401 0 80.4079 12.5734 1011 105.472 1250.59 451.925
1402 0 83.3733 12.3901 1033 106.869 1250.75 446.993
1403 0 85.2431 12.9864 1107 105.216 1250.83 447.755
1404 0 89.3333 13.1194 1172 104.945 1250.37 446.498
1405 0 91.333 12.6132 1152 106.681 1250.3 446.347
1406 0 92.3755 12.2435 1131 108.379 1250.29 442.966
1407 0 96.5623 12.6033 1217 106.934 1250.15 443.265
1408 0 97.4107 13.5611 1321 105.881 1250.42 440.267
1409 0 101.4 13.2643 1345 107.436 1250.08 439.463
1410 0 101.4 12.6825 1286 151.165 1249.1 439.788
1411 0 104.455 12.2158 1276 112.251 1250.01 432.816
1412 0 111.475 12.1283 1352 110.912 1250.92 434.204
1413 0 110.445 10.8832 1202 116.158 1250.27 429.591
1414 0 116.422 11.7504 1368 112.83 1250.25 430.18
1415 0 125.56 11.7872 1480 112.448 1250.83 424.551
1416 0 127.464 11.2895 1439 113.346 1250.97 425.395
1417 0 135.59 12.0289 1631 110.775 1250.63 424.5
1418 1 75.3671 8.88982 670 107.772 1250.21 452.29
1419 0 77.652 10.4183 809 105.082 1249.4 452
1420 0 81.5624 11.0958 905 102.07 1250.13 453.097
1421 0 83.3554 11.7929 983 103.408 1250.05 448.477
1422 0 85.4551 11.0584 945 106.093 1249.94 449.146
1423 0 82.4192 11.1988 923 110.146 1249.81 442.523
1424 0 89.4182 13.0287 1165 103.006 1249.48 443.498
1425 0 89.4182 12.9951 1162 135.495 1249.49 443.571
1426 0 94.3219 13.931 1314 101.757 1250.65 442.211
1427 0 95.5572 11.637 1112 109.253 1251.15 439.073
1428 0 96.5203 10.3191 996 114.116 1251.2 436.447
1429 0 99.3825 10.7464 1068 114.037 1250.59 434.501
1430 0 103.69 11.9298 1237 110.383 1250.82 435.429
1431 0 108.418 13.0513 1415 107.882 1250.77 433.623
1432 0 111.594 12.6978 1417 109.798 1250.55 428.638
1433 1 67.3103 9.68648 652 100.071 1250.84 458.969
1434 0 67.304 9.64281 649 133.918 1250.86 459.057
1435 0 70.3527 10.4474 735 99.6109 1252.26 462.139
1436 0 72.2363 10.7564 777 99.9537 1252.04 457.158
1437 0 77.2766 11.5559 893 97.7021 1252.13 458.892
1438 0 76.1649 10.9631 835 100.101 1252.01 458.576
1439 0 76.1649 10.9762 836 127.773 1252.02 458.734
1440 0 81.1749 11.2227 911 101.78 1252.27 454.473
1441 0 83.2146 10.8635 904 103.148 1251.6 454.942
1442 0 85.2626 9.6408 822 107.116 1251.15 451.043
1443 0 88.2018 11.4737 1012 103.219 1252.09 452.289
1444 0 88.2103 10.2256 902 106.565 1251.09 452.095
1445 0 91.1542 11.135 1015 107.073 1250.2 447.884
1446 0 92.1414 10.4839 966 109.008 1250.15 447.698
1447 0 98.1528 10.3308 1014 108.753 1250.12 447.828
1448 0 98.1942 10.0821 990 111.306 1250.05 441.808
1449 0 106.33 12.339 1312 104.737 1249.88 442.114
1450 0 104.262 9.879 1030 110.969 1249.91 444.396
1451 0 110.207 11.1154 1225 109.306 1249.76 441.446
1452 1 62.0556 10.6356 660 102.409 1248.79 463.297
1453 0 62.0518 9.31479 578 104.145 1249 463.189
1454 0 66.2984 11.3427 752 101.688 1249.93 463.368
1455 0 66.262 10.9414 725 102.589 1250.41 466.357
1456 0 68.1333 11.8885 810 101.427 1250.32 460.99
1457 0 71.1489 10.8083 769 103.155 1250.31 464.375
1458 0 73.1886 12.4336 910 100.681 1250.33 462.338
1459 0 76.2229 12.5422 956 99.6444 1249.99 461.75
1460 0 77.1687 11.6109 896 103.089 1249.55 460.124
1461 0 79.135 12.4092 982 101.343 1250.06 461.292
1462 0 76.2114 9.57862 730 104.249 1251 461.545
1463 0 81.1358 10.1435 823 101.493 1250.47 461.181
1464 0 82.0782 9.49095 779 103.865 1249.88 458.46
1465 0 85.2175 11.0893 945 101.728 1249.34 456.771
1466 0 87.2181 10.7203 935 102.312 1249.71 457.376
1467 0 88.1226 11.0074 970 102.29 1250.37 457.239
1468 0 90.1673 10.4029 938 103.673 1250.87 453.034
1469 0 97.1483 10.7156 1041 101.077 1250.83 452.823
1470 0 98.1885 9.16605 900 103.589 1251.25 449.698
1471 0 101.143 9.14548 925 103.712 1251.18 450.305
1472 0 103.201 8.65306 893 105.353 1251.73 449.262
1473 0 103.192 8.66349 894 133.841 1252.73 449.588
1474 1 58.1126 10.342 601 97.5191 1252.38 469.098
1475 0 63.0948 12.2356 772 97.2681 1251.94 469.718
1476 0 63.1014 12.2818 775 122.428 1250.92 469.907
1477 0 61.0957 11.5065 703 125.139 1250.02 471.505
1478 0 65.1645 11.9697 780 100.946 1251.79 467.963
1479 0 67.2619 11.314 761 107.029 1251.67 469.703
1480 0 69.3012 12.3519 856 106.86 1251.01 464.994
1481 0 69.3012 12.525 868 135.537 1250.04 465.171
1482 0 74.1817 12.4424 923 106.521 1251.66 463.343
1483 0 76.3809 11.4296 873 108.383 1251.85 463.426
1484 0 76.2801 11.5889 884 108.454 1251.89 461.748
1485 0 80.2537 11.3889 914 105.525 1251.25 462.641
1486 0 82.1643 11.2823 927 105.625 1251.15 458.221
1487 0 85.2634 12.6901 1082 102.939 1251.16 456.666
1488 0 89.1854 11.1677 996 105.574 1250.39 457.141
1489 0 93.3819 12.9147 1206 105.325 1251.37 455.237
1490 0 95.2685 12.659 1206 106.728 1251.49 452.625
1491 0 97.2497 12.4422 1210 107.575 1251.6 450.261
1492 0 97.2681 12.4296 1209 135.735 1251.58 450.132
1493 1 57.0326 10.5554 602 109.111 1252.01 470.216
1494 0 61.0747 11.052 675 107.837 1252.3 470.827
1495 0 63.2382 11.5278 729 107.779 1251.37 469.996
1496 0 62.2811 12.0582 751 108.021 1251.13 467.188
1497 0 64.3247 11.0999 714 110.772 1250.88 466.868
1498 0 68.2372 12.7936 873 106.505 1250.89 466.892
1499 0 70.2547 13.024 915 105.885 1250.95 467.322
1500 0 71.3536 12.7954 913 107.031 1251.04 465.344
1501 0 74.1079 12.9946 963 105.391 1251.32 463.746
1502 0 77.0416 13.9016 1071 102.007 1251.91 463.379
1503 0 77.0416 13.9535 1075 129.257 1251.93 463.332
1504 0 80.0338 13.082 1047 99.0735 1252.57 459.164
1505 0 83.0762 12.302 1022 101.73 1251.52 459.424
1506 0 83.1142 12.3204 1024 105.598 1251.42 459.092
1507 0 81.1099 11.8358 960 108.044 1251.61 457.851
1508 0 84.1551 10.7302 903 109.226 1252.07 460.55
1509 0 85.0328 11.9483 1016 109.538 1251.88 456.651
1510 0 85.0481 10.7821 917 114.579 1251.67 457.26
1511 0 87.0432 11.1784 973 112.2 1251.5 454.617
1512 0 91.161 11.8252 1078 109.01 1252.35 455.019
1513 0 93.0981 12.2129 1137 107.255 1252.23 452.043
1514 0 99.1088 13.8131 1369 101.362 1251.56 452.172
1515 0 100.104 12.7667 1278 102.495 1251.37 455.091
1516 0 105.144 12.4592 1310 102.701 1251.19 450.005
1517 0 106.161 12.1419 1289 102.691 1251.39 449.312
1518 0 106.161 12.1608 1291 139.252 1251.37 449.334
1519 0 110.106 12.0338 1325 101.347 1250.46 445.112
1520 0 114.179 12.6731 1447 100.511 1250.5 444.527
1521 0 115.215 10.7798 1242 106.728 1249.95 441.172
1522 0 121.242 11.8029 1431 103.91 1250.38 439.606
1523 0 123.233 11.5067 1418 106.439 1250.54 435.202
1524 0 127.244 11.1833 1423 107.748 1250.92 435.561
1525 0 132.194 11.6117 1535 108.457 1250.5 434.313
1526 1 74.2008 9.71688 721 102.778 1250.41 465.042
1527 0 77.2478 10.8094 835 101.442 1250.85 463.764
1528 0 79.1911 9.8117 777 102.421 1251.12 465.154
1529 0 80.1092 9.51202 762 103.951 1250.65 466.102
1530 0 81.0835 10.2364 830 104.492 1251.11 461.599
1531 0 83.104 10.7215 891 103.397 1250.83 463.73
1532 0 85.1556 10.334 880 104.759 1250.6 462.627
1533 0 90.1436 10.7273 967 104.817 1250.69 460.915
1534 0 90.3479 9.96149 900 107.993 1250.3 458.967
1535 0 92.1438 10.0821 929 111.045 1249.63 451.674
1536 0 96.2654 10.1802 980 110.972 1250.15 452.265
1537 0 101.269 12.1853 1234 109.296 1250.07 446.579
1538 0 105.295 12.2703 1292 109.271 1250.33 446.796
1539 1 60.2318 10.2438 617 103.241 1251.16 473.791
1540 0 60.1641 11.3523 683 103.06 1251.11 471.391
1541 0 62.226 11.185 696 102.263 1250.93 472.616
1542 0 63.2345 10.2159 646 105.952 1249.91 471.059
1543 0 63.1322 11.1354 703 104.148 1250.19 470.858
1544 0 66.127 9.93543 657 106.479 1251.3 471.714
1545 0 67.1744 10.4206 700 106.276 1250.71 468.726
1546 0 71.2899 11.1096 792 103.918 1250.05 467.351
1547 0 73.1325 11.1989 819 104.269 1249.67 466.227
1548 0 74.092 11.6477 863 103.651 1249.42 464.285
1549 0 76.1027 11.1166 846 104.095 1249.66 465.417
1550 0 79.1977 10.9347 866 103.905 1249.53 464.727
1551 0 81.179 9.941 807 106.56 1249.61 463
1552 0 85.1692 12.1758 1037 102.75 1249.09 460.147
1553 0 87.1848 11.3896 993 103.727 1249.18 460.301
1554 0 90.114 11.7518 1059 103.498 1249.33 458.362
1555 0 95.1452 11.5403 1098 103.546 1249 456.812
1556 0 98.2238 11.5552 1135 103.42 1249.02 453.554
1557 0 100.141 11.7634 1178 103.956 1249.25 452.519
1558 0 105.111 11.5592 1215 104.016 1249.25 453.754
1559 0 107.121 13.172 1411 101.354 1249.36 450.919
1560 1 62.0385 10.7514 667 101.111 1249.75 473.424
1561 0 64.0686 11.3472 727 102.252 1249.45 469.975
1562 0 65.1959 11.013 718 101.174 1249.69 471.412
1563 0 69.1365 12.8297 887 96.7982 1249.27 471.024
1564 0 72.1472 13.2645 957 95.9906 1248.79 469.261
1565 0 72.2083 13.9873 1010 95.1911 1249.12 467.452
1566 0 73.1362 11.5675 846 100.621 1249.13 464.439
1567 0 73.1332 11.5679 846 135.874 1249.11 464.411
1568 0 78.2011 11.7134 916 99.8483 1248.89 464.862
1569 0 82.1314 13.4297 1103 96.864 1247.73 463.029
1570 0 83.1045 12.8393 1067 98.9157 1247.66 463.024
1571 0 86.1199 12.9935 1119 97.8794 1248.12 464.505
1572 0 87.1169 12.6841 1105 99.7321 1247.61 460.986
1573 0 91.1823 11.8334 1079 101.741 1247.99 459.773
1574 0 94.1159 12.3146 1159 99.396 1247.76 459.413
1575 0 96.1166 12.1519 1168 102.106 1247.89 456.133
1576 0 98.1439 11.7888 1157 104.223 1248.53 455.122
1577 0 101.076 13.6235 1377 101.704 1250.16 453.424
1578 0 104.065 12.915 1344 103.344 1249.7 451.355
1579 0 106.135 12.8987 1369 103.577 1249.84 453.494
1580 0 109.21 12.7003 1387 105.485 1248.83 448.297
1581 0 114.213 11.8988 1359 105.741 1249.85 447.193
1582 0 118.189 13.0977 1548 103.468 1249.42 447.722
1583 1 67.1409 11.4535 769 98.4265 1249.43 474.826
1584 0 70.0641 11.8035 827 100.493 1248.59 471.334
1585 0 70.1153 12.6791 889 100.692 1248.53 469.839
1586 0 73.0714 12.8094 936 99.5513 1248.36 469.608
1587 0 75.088 12.2123 917 102.133 1248.24 467.34
1588 0 79.0863 13.4537 1064 98.8562 1247.43 466.661
1589 0 81.1144 13.7583 1116 99.586 1247.49 464.211
1590 0 82.1469 12.8915 1059 101.93 1247.47 464.687
1591 0 86.0785 12.6512 1089 102.631 1247.49 462.797
1592 0 89.14 13.1815 1175 102.421 1248.21 462.157
1593 0 91.1623 13.5363 1234 101.308 1248.6 461.357
1594 0 93.1549 12.6349 1177 103.951 1248.35 457.104
1595 0 97.3341 12.0924 1177 104.885 1248.98 457.302
1596 0 97.35 12.1109 1179 146.925 1249.99 457.321
1597 0 101.122 12.4306 1257 107.178 1248.19 452.989
1598 0 106.198 12.8345 1363 107.699 1248.88 452.811
1599 0 109.265 13.7738 1505 106.332 1249.53 449.956
1600 0 112.273 13.1466 1476 108.062 1249.07 448.707
1601 0 117.263 13.4825 1581 106.679 1249.06 446.529
1602 0 121.253 13.0636 1584 107.698 1248.95 444.522
1603 0 123.412 13.0619 1612 108.258 1248.47 441.079
1604 0 123.421 13.0529 1611 138.536 1248.46 441.263
1605 1 71.2752 13.3847 954 100.736 1248.61 470.309
1606 0 73.1381 12.0867 884 103.59 1249.64 466.186
1607 0 78.3013 12.9883 1017 101.444 1248.75 465.352
1608 0 78.1364 12.427 971 104.023 1249.32 461.85
1609 0 78.1463 12.3998 969 131.889 1249.34 461.839
1610 0 84.1878 12.2346 1030 105.797 1248.34 461.859
1611 0 84.1839 12.2114 1028 144.77 1247.35 461.767
1612 0 91.1265 12.7515 1162 104.67 1249.56 459.812
1613 0 94.1601 12.7336 1199 105.082 1248.97 456.467
1614 0 96.2613 12.3518 1189 106.335 1248.78 454.336
1615 0 100.267 12.5665 1260 105.719 1249.72 452.217
1616 0 103.226 12.4969 1290 105.653 1249.02 451.118
1617 0 105.239 12.3813 1303 107.356 1249 448.5
1618 0 110.199 12.6861 1398 106.121 1249.6 448.358
1619 0 112.297 12.5738 1412 105.715 1249.73 449.147
1620 0 116.241 12.2677 1426 107.224 1249.42 445.548
1621 0 118.324 12.2883 1454 107.327 1249.3 443.88
1622 0 121.155 12.2075 1479 108.264 1249.66 443.538
1623 0 127.271 13.9388 1774 104.815 1249.47 440.905
1624 0 132.143 13.4248 1774 106.759 1249.11 436.286
1625 0 136.264 13.4372 1831 105.161 1248.48 440.348
1626 0 136.265 13.4664 1835 147.381 1248.48 440.363
1627 1 163.301 8.37718 1368 114.154 1248.45 435.344
1628 0 164.288 10.2807 1689 112.98 1247.79 432.288
1629 1 81.1735 11.4323 928 150.433 1247.3 464.269
1630 0 87.1359 13.7716 1200 100.608 1248.3 460.201
1631 0 90.2077 12.9146 1165 103.952 1247.75 456.992
1632 0 94.2357 12.8189 1208 101.263 1248.56 458.056
1633 0 94.1792 12.6992 1196 103.543 1248.56 455.735
1634 0 99.3183 13.0993 1301 103.028 1248.51 455.704
1635 0 101.104 12.1756 1231 106.432 1248.44 454.343
1636 0 102.172 12.5573 1283 107.809 1248.52 450.924
1637 0 109.224 14.0262 1532 103.918 1248.4 449.203
1638 0 111.197 13.0579 1452 106.008 1248.93 449.103
1639 0 115.248 12.599 1452 107.287 1249 444.739
1640 0 116.249 12.4045 1442 108.022 1248.17 446.189
1641 0 122.301 13.017 1592 106.07 1248.72 445.77
1642 0 126.305 13.5149 1707 105.669 1248.05 440.472
1643 0 132.256 12.9975 1719 106.083 1248.9 436.958
1644 1 74.2218 12.2606 910 98.1396 1248.14 468.874
1645 0 77.1989 12.7592 985 97.0396 1248.41 466.584
1646 0 80.2384 12.8118 1028 94.7286 1248.64 465.15
1647 0 81.234 12.9625 1053 96.773 1248.47 463.741
1648 0 84.2246 12.0392 1014 98.8077 1248.57 461.133
1649 0 85.1836 11.4693 977 100.439 1248.83 461.361
1650 0 85.1836 11.352 967 142.549 1248.83 461.399
1651 0 94.2249 12.64 1191 97.3795 1249.2 457.507
1652 0 96.1742 14.193 1365 94.748 1248.87 456.14
1653 0 97.2157 12.7654 1241 99.7454 1248.68 453.676
1654 0 101.251 12.2171 1237 101.732 1248.7 454.407
1655 0 104.184 11.6908 1218 103.329 1247.91 452.892
1656 1 57.116 11.5904 662 100.008 1249.23 475.116
1657 0 58.1542 11.5039 669 100.904 1249.13 472.809
1658 0 61.1067 13.5337 827 97.4172 1248.9 471.883
1659 0 62.0714 13.3717 830 101.067 1247.31 473.936
1660 0 63.0672 14.8255 935 99.5166 1246.88 472.441
1661 0 64.0601 13.7059 878 103.923 1247.37 471.536
1662 0 66.1755 12.4215 822 106.602 1247.4 470.775
1663 0 69.1249 13.4394 929 104.012 1247.38 470.862
1664 0 70.1309 13.4035 940 105.179 1247.43 470.711
1665 0 70.1309 13.5033 947 148.239 1247.46 470.641
1666 0 75.2124 12.7772 961 107.454 1247.91 466.522
1667 0 77.1026 14.1759 1093 104.575 1247.9 465.398
1668 0 78.3374 12.7653 1000 108.234 1247.31 464.266
1669 0 80.1419 11.9912 961 110.337 1246.92 461.862
1670 0 81.1995 12.5617 1020 109.84 1247.13 461.566
1671 0 84.2018 12.2088 1028 110.8 1246.76 457.825
1672 0 87.0729 12.702 1106 109.418 1246.92 460.051
1673 0 89.0824 12.8196 1142 109.937 1247.32 458.633
1674 0 89.0909 12.8745 1147 137.588 1248.34 458.697
1675 0 96.3594 13.6987 1320 108.466 1247.25 452.079
1676 0 99.1125 13.4897 1337 108.499 1246.96 453.625
1677 0 100.203 12.2252 1225 106.744 1247.89 443.9
1678 0 106.254 12.9125 1372 104.16 1248.61 447.361
1679 1 59.109 10.5906 626 102.423 1249.35 470.655
1680 0 62.0545 10.2007 633 104.711 1248.44 468.915
1681 0 64.0962 12.6061 808 99.7092 1248.81 467.822
1682 0 66.0789 10.548 697 103.194 1248.3 466.145
1683 0 69.124 11.9061 823 100.988 1248.49 464.005
1684 0 69.1275 11.8332 818 129.721 1248.48 463.847
1685 0 73.0776 12.5073 914 101.84 1248.29 459.213
1686 0 76.0453 12.7161 967 101.017 1247.86 456.43
1687 0 79.0212 11.9715 946 103.252 1247.46 456.002
1688 0 81.0885 11.9746 971 103.139 1247.91 454.598
1689 0 84.0489 12.2548 1030 103.785 1248.3 451.94
1690 0 89.0633 14.2034 1265 99.1146 1248.22 450.905
1691 0 91.1919 12.0625 1100 104.145 1247.77 450.919
1692 0 95.1938 12.7319 1212 103.324 1248.25 448.968
1693 0 98.1325 13.2984 1305 102.542 1247.91 448.568
1694 0 101.11 13.4211 1357 103.415 1247.97 446.56
1695 0 103.105 12.0557 1243 107.755 1248.86 442.476
1696 0 107.088 12.5971 1349 105.815 1248.3 443.805
1697 0 109.153 12.313 1344 107.754 1248.61 442.685
1698 0 114.138 13.5801 1550 104.623 1248.99 442.699
1699 0 117.108 12.6465 1481 106.961 1249.26 442.658
1700 0 119.153 13.2099 1574 106.788 1248.89 441.217
1701 0 126.126 12.7809 1612 106.711 1249.32 439.775
1702 0 129.095 13.1299 1695 106.104 1249.41 437.569
1703 0 132.201 12.4508 1646 108.968 1248.61 432.866
1704 0 138.192 13.1484 1817 105.144 1247.54 432.205
1705 0 142.137 13.9795 1987 103.43 1247.98 428.959
1706 0 146.176 12.9501 1893 106.531 1248.42 426.621
1707 0 147.273 12.8401 1891 108.631 1248.55 418.055
1708 0 156.275 13.2011 2063 107.8 1248.55 422.486
1709 0 161.41 13.2829 2144 108.04 1247.62 421.363
1710 0 166.256 13.1484 2186 109.457 1248.19 415.139
1711 0 171.347 13.4756 2309 109.747 1248.51 413.275
1712 0 175.515 11.7938 2070 113.864 1248.45 412.126
1713 0 182.486 14.0066 2556 109.548 1248.67 405.046
1714 0 187.528 13.6353 2557 111.902 1249.02 400.054
1715 1 89.1645 11.9666 1067 113.73 1247.68 451.463
1716 0 90.1348 11.9599 1078 115.173 1248.26 448.558
1717 0 95.2008 13.0356 1241 113.893 1247.91 446.7
1718 0 100.202 13.3032 1333 112.461 1247.98 445.843
1719 0 104.136 12.5893 1311 113.821 1247.87 446.302
1720 0 104.191 13.0626 1361 113.882 1248.06 444.889
1721 0 104.196 13.0619 1361 145.699 1248.06 444.857
1722 0 113.134 12.7018 1437 108.834 1248.36 442.798
1723 0 116.306 12.2006 1419 107.973 1249.06 439.072
1724 0 121.322 12.5616 1524 106.56 1248.67 439.121
1725 0 126.213 12.4472 1571 107.36 1248.69 435.994
1726 0 131.28 13.2313 1737 107.577 1248.41 430.087
1727 0 136.262 13.7529 1874 111.432 1248.2 423.984
1728 0 141.405 13.3729 1891 111.717 1248.17 424.642
1729 1 68.2273 11.5057 785 104.991 1249.43 462.931
1730 0 72.1371 13.4327 969 100.654 1249.68 460.825
1731 0 74.4171 13.2631 987 100.857 1249.16 458.445
1732 0 75.4061 11.8956 897 105.498 1248.74 459.786
1733 0 79.4706 12.4071 986 104.586 1248.87 456.982
1734 0 79.4706 12.319 979 148.56 1247.83 457.057
1735 0 83.3061 11.5958 966 103.94 1247.84 457.425
1736 0 84.2045 11.959 1007 103.237 1247.57 456.856
1737 0 87.2888 12.5331 1094 101.305 1247.81 457.122
1738 0 90.4107 12.3658 1118 101.648 1248.12 454.791
1739 0 90.2898 11.9947 1083 104.373 1248.2 452.024
1740 0 90.2898 12.0501 1088 145.899 1248.21 452.042
1741 0 99.4451 12.8915 1282 101.167 1248.08 448.585
1742 0 101.412 12.4739 1265 102.601 1248.58 446.796
1743 0 107.32 12.8028 1374 101.987 1248.74 444.729
1744 0 110.487 12.0829 1335 102.334 1248.01 443.646
1745 0 111.503 12.2418 1365 103.008 1247.78 439.949
1746 1 61.4071 10.6828 656 104.05 1247.04 465.338
1747 0 63.3514 11.1758 708 103.76 1247.24 461.1
1748 0 64.1249 12.2885 788 99.6523 1246.55 465.44
1749 0 67.2267 12.3314 829 99.1423 1246.6 463.897
1750 0 69.1895 11.7503 813 101.631 1245.82 460.994
1751 0 70.0986 11.5266 808 101.754 1245.73 459.532
1752 0 70.1535 12.3586 867 100.337 1246.97 459.208
1753 0 76.2217 12.726 970 96.3247 1247 456.259
1754 0 78.3779 12.5673 985 96.9563 1247.11 456.086
1755 0 79.4314 13.2693 1054 96.9023 1247.56 452.264
1756 0 81.3056 12.0164 977 99.0604 1247.84 452.536
1757 0 83.2318 11.7864 981 101.016 1248.15 451.852
1758 0 86.1724 12.3473 1064 100.792 1247.85 449.912
1759 0 90.2645 12.9951 1173 99.5874 1247.87 445.581
1760 0 91.3291 11.9349 1090 103.119 1247.97 444.075
1761 0 95.2995 12.9696 1236 101.065 1247.39 444.763
1762 0 99.357 13.9899 1390 98.8619 1247.69 444.035
1763 0 102.393 12.4423 1274 102.509 1248.01 441.984
1764 0 102.393 12.413 1271 144.766 1249 441.727
1765 0 109.451 12.3891 1356 104.338 1247.58 438.246
1766 0 110.455 12.3127 1360 105.093 1247.96 438.988
1767 0 113.617 11.4067 1296 107.732 1247.84 438.961
1768 0 116.418 12.1202 1411 107.743 1247.65 434.685
1769 0 116.435 12.8741 1499 142.245 1247.68 433.956
1770 0 125.477 13.2614 1664 105.958 1248.36 431.022
1771 0 129.687 13.2627 1720 106.156 1248.28 429.948
1772 0 133.554 13.3279 1780 105.913 1248.27 427.592
1773 0 138.612 12.6035 1747 107.601 1249.04 426.31
1774 0 138.612 12.5386 1738 167.105 1250.03 426.303
1775 0 147.481 13.6153 2008 108.312 1248.46 421
1776 0 153.604 13.1182 2015 109.148 1248.67 419.892
1777 0 156.475 13.165 2060 110.898 1247.64 414.564
1778 0 162.571 14.16 2302 108.849 1247.63 414.484
1779 0 167.637 13.559 2273 110.524 1248.4 413.844
1780 0 172.463 13.1506 2268 112.13 1248.49 412.833
1781 0 180.627 14.0289 2534 110.378 1248.94 411.223
1782 0 186.476 14.4362 2692 109.759 1248.8 408.866
1783 0 190.387 14.0398 2673 112.761 1249.04 402.223
1784 0 197.467 14.5695 2877 112.113 1248.78 400.712
1785 0 203.482 14.6696 2985 112.251 1248.58 399.219
1786 0 208.438 14.599 3043 113.347 1249.26 395.428
1787 1 162.368 12.6749 2058 114.533 1249.9 419.603
1788 0 167.327 11.594 1940 118.503 1248.56 415.602
1789 0 175.329 13.7798 2416 110.976 1248.61 415.351
1790 0 175.329 13.7798 2416 160.03 1248.61 415.174
1791 0 185.421 13.5529 2513 111.464 1248.66 409.748
1792 0 192.43 12.8878 2480 114.041 1248.21 405.538
1793 0 198.503 13.622 2704 112.591 1248.88 400.21
1794 0 201.336 12.1886 2454 117.183 1248.3 396.837
1795 0 212.293 15.4739 3285 109.261 1248.56 396.028
1796 0 216.606 14.2009 3076 112.477 1248.55 393.321
1797 0 223.401 12.4619 2784 118.155 1248.91 384.92
1798 0 232.477 14.2078 3303 113.361 1248.91 380.178
1799 0 240.416 13.7345 3302 114.081 1249.29 379.446
1800 0 248.448 13.4032 3330 115.565 1249.42 370.319
1801 0 256.447 13.032 3342 116.963 1248.61 367.215
1802 0 255.436 13.017 3325 157.644 1249.62 367.11
1803 0 255.326 9.07469 2317 119.692 1249.19 395.212
1804 0 255.401 9.64366 2463 116.6 1248.61 401.376
1805 0 255.384 9.68739 2474 156.964 1248.61 401.418
1806 1 273.365 7.55766 2066 120.307 1247.69 403.169
1807 0 271.518 9.3327 2534 122.704 1247.86 376.795
1808 0 273.382 9.68975 2649 119.392 1247.66 389.929
1809 0 272.551 10.5668 2880 119.134 1247.92 380.634
1810 0 274.594 14.5924 4007 113.401 1247.77 365.884
1811 0 281.593 13.9137 3918 115.484 1248.08 360.214
1812 0 281.577 13.9891 3939 153.649 1249.09 360.153
1813 1 299.627 13.9473 4179 118.518 1247.88 344.453
1814 0 310.696 16.9522 5267 111.371 1248.06 333.618
1815 0 319.707 15.5549 4973 115.761 1247.74 325.907
1816 0 328.916 15.8673 5219 114.599 1247.77 325.739
1817 0 338.834 16.2469 5505 113.537 1247.91 317.151
1818 0 348.707 15.698 5474 116.475 1247.84 317.403
1819 0 356.932 15.2326 5437 118.189 1247.54 310.871
1820 0 368.928 16.1359 5953 115.195 1248.06 304.607
1821 0 367.988 15.65 5759 138.102 1249.07 302.415
1822 0 391.807 15.7169 6158 115.362 1248.43 303.077
1823 0 391.807 15.6531 6133 146.5 1247.42 302.906
1824 0 379.898 13.6431 5183 122.159 1248.93 285.258
1825 0 390.835 14.3385 5604 120.418 1248.47 281.065
1826 0 400.115 13.3162 5328 124.066 1248.67 270.766
1827 0 410.863 14.4087 5920 121.936 1247.87 273.954
1828 0 333.464 16.0317 5346 156.899 1246.58 252.151
1829 1 59.2619 12.9088 765 88.285 1251.12 474.366
1830 0 55.1163 13.535 746 89.8579 1249.89 473.188
1831 0 50.1076 12.8923 646 98.5588 1249.82 475.48
1832 0 47.1058 13.9686 658 100.161 1250.05 476.973
1833 0 48.1391 12.7547 614 103.052 1249.46 476.889
1834 0 47.0945 11.9759 564 109.92 1249.55 476.41
1835 0 48.0613 10.5906 509 113.631 1248.73 481.263
1836 0 47.054 11.3487 534 113.056 1249.24 481.89
1837 0 47.078 10.7694 507 114.089 1249.43 482.974
1838 0 48.1437 12.068 581 113.42 1248.93 481.119
1839 0 47.0607 10.5608 497 117.555 1249.97 481.276
1840 0 48.1016 11.2262 540 114.25 1249.83 479.606
1841 0 50.0361 12.1113 606 110.62 1249.72 478.002
1842 0 49.1212 14.393 707 102.157 1249.98 479.867
1843 0 50.0762 14.8374 743 104.908 1251.36 477.769
1844 0 51.1236 15.4919 792 103.49 1250.78 477.61
1845 0 50.0795 14.2573 714 107.648 1249.94 476.898
1846 0 51.0549 16.257 830 101.269 1250.43 478.023
1847 0 49.1186 13.783 677 110.306 1250.07 477.854
1848 0 49.0965 14.7872 726 107.689 1249.58 478.039
1849 0 50.0987 14.8307 743 106.12 1250.3 477.863
1850 0 49.1089 15.3536 754 106.424 1250.56 477.503
1851 0 50.2926 16.2251 816 107.63 1248.84 476.402
1852 0 51.4001 15.5642 800 109.988 1248.56 476.388
1853 0 51.312 15.8247 812 109.049 1249.12 475.92
1854 0 51.1216 14.7491 754 112.545 1247.32 478.954
1855 0 50.0977 14.4318 723 114.083 1247.37 478.472
1856 0 52.0796 14.9195 777 110.954 1247.06 477.358
1857 0 51.1371 16.5047 844 108.269 1247.14 477.203
1858 0 51.0895 15.8741 811 109.488 1246.77 477.454
1859 0 51.1289 16.2922 833 107.902 1246.8 477.897
1860 0 52.0627 15.7695 821 108.962 1246.22 472.789
1861 0 53.1163 14.9107 792 109.857 1246.58 473.818
1862 0 51.0661 15.0785 770 111.296 1247.19 477.462
1863 0 51.1099 14.8699 760 111.239 1247.43 477.764
1864 0 53.1195 16.0205 851 106.579 1247.83 476.96
1865 0 53.1195 16.1711 859 150.042 1247.86 476.981
1866 0 53.088 16.5386 878 104.293 1248.25 477.887
1867 0 52.152 15.2056 793 108.977 1247.65 477.111
1868 0 51.2062 14.2365 729 111.811 1248.76 475.139
1869 0 53.145 16.3891 871 104.053 1249.36 475.947
1870 0 53.1135 14.6667 779 109.072 1247.95 476.445
1871 0 52.0594 15.1173 787 108.647 1247.45 476.94
1872 0 53.0193 14.3533 761 108.264 1246.82 476.389
1873 0 54.1245 15.6122 845 103.051 1247.14 477.538
1874 0 54.1258 16.1661 875 101.917 1246.9 476.175
1875 0 54.102 16.321 883 102.182 1247.02 477.398
1876 0 54.0962 15.7312 851 103.599 1247.01 477.061
1877 0 54.0522 16.0215 866 103.676 1246.87 477.582
1878 0 54.0522 16.1695 874 149.116 1246.86 477.516
1879 0 55.0892 16.1012 887 103.426 1247.03 475.247
1880 0 55.1109 15.6049 860 104.459 1246.5 476.749
1881 0 54.0956 15.9347 862 104.614 1247.15 475.296
1882 0 56.1414 16.2803 914 101.817 1247.47 475.741
1883 0 54.0557 15.9465 862 103.638 1247.07 475.339
1884 0 54.032 16.5087 892 102.098 1247.13 476.692
1885 0 54.0844 16.2524 879 102.262 1247.32 476.098
1886 0 55.0299 17.2815 951 98.9474 1246.56 475.254
1887 0 55.0299 17.2452 949 144.753 1246.58 475.258
1888 0 55.0446 17.0226 937 99.174 1246.5 475.184
1889 0 55.0265 15.3744 846 102.456 1247.04 475.429
1890 0 56.0402 14.7573 827 103.63 1246.52 474.329
1891 0 56.0402 14.7573 827 158.157 1246.52 474.329
1892 0 55.0381 16.0798 885 100.669 1246.95 475.602
1893 0 56.1277 16.7475 940 98.4149 1246.34 474.118
1894 0 55.0795 14.7423 812 103.894 1246.38 474.106
1895 0 56.0785 15.3891 863 101.009 1246.68 473.293
1896 0 55.1505 16.3371 901 99.04 1246.43 474.105
1897 0 56.0815 16.1194 904 98.8838 1246.33 474.352
1898 0 56.0767 15.4788 868 99.6901 1247.08 474.021
1899 0 56.1309 15.3213 860 99.9244 1246.91 475.39
1900 0 57.0583 16.7898 958 96.2954 1247.04 475.136
1901 0 57.0559 14.7049 839 100.924 1246.89 473.604
1902 0 56.0967 15.2059 853 100.61 1247.47 473.763
1903 0 56.1201 15.7163 882 99.4195 1247.11 475.12
1904 0 57.109 17.2477 985 94.531 1247.75 474.461
1905 0 57.0856 16.992 970 95.3619 1247.72 473.994
1906 0 56.0623 16.1249 904 97.3805 1247.36 474.062
1907 0 58.0971 15.87 922 96.692 1247.48 473.168
1908 0 57.0766 15.1901 867 99.2907 1247.25 473.872
1909 0 57.0635 15.141 864 98.5301 1247.88 473.396
1910 0 58.1209 16.6033 965 94.5461 1247.31 474.291
1911 0 57.0353 16.8843 963 94.4881 1248.34 474.956
1912 0 57.0967 16.5684 946 95.223 1247.84 474.298
1913 0 59.1047 16.6992 987 93.4083 1247.44 474.238
1914 0 59.1312 16.7763 992 92.5333 1247.05 474.673
1915 0 57.072 16.5756 946 94.7611 1246.59 474.132
1916 0 58.1117 15.8832 923 95.6587 1247.21 473.646
1917 0 58.1117 15.9692 928 157.767 1247.17 473.605
1918 0 57.084 16.1516 922 95.077 1247.47 473.275
1919 0 57.1305 15.0007 857 97.7701 1247.86 472.998
1920 0 59.2748 16.3982 972 92.6553 1248.14 474.177
1921 0 60.1083 17.169 1032 91.1957 1247.79 474.118
1922 0 57.1688 15.533 888 96.2624 1247.95 472.407
1923 0 59.1042 17.0039 1005 91.991 1247.79 473.22
1924 0 58.0998 15.4389 897 95.8941 1247.51 474.148
1925 0 59.1749 16.2569 962 92.7994 1247.62 473.306
1926 0 56.1352 14.8392 833 97.5726 1248 473.317
1927 0 58.083 16.3903 952 93.1523 1247.36 472.709
1928 0 59.1457 16.1973 958 92.8111 1247.4 473.838
1929 0 58.0603 15.9489 926 93.6469 1247.68 473.882
1930 0 59.0962 15.534 918 94.061 1248.27 472.83
1931 0 61.0867 18.4983 1130 88.1257 1248.02 473.763
1932 0 60.1856 15.6516 942 95.62 1247.77 472.935
1933 0 58.1829 15.6919 913 97.2935 1247.42 473.904
1934 0 58.0979 16.0419 932 97.2918 1247.26 473.683
1935 0 60.0785 17.6269 1059 92.7177 1247.14 474.979
1936 0 59.1494 16.3823 969 95.7616 1247.37 474.101
1937 0 58.1124 16.5369 961 95.3496 1247.35 474.194
1938 0 58.1243 15.9314 926 97.4244 1247.38 472.973
1939 0 60.0932 18.5379 1114 90.5251 1247.53 473.717
1940 0 60.0842 16.4935 991 94.8214 1247.07 475.241
1941 0 58.1389 17.7678 1033 93.3417 1246.73 474.884
1942 0 59.0597 16.3225 964 95.1317 1246.76 473.194
1943 0 59.0672 15.7956 933 97.284 1247.23 474.147
1944 0 59.0935 17.3961 1028 94.3774 1247.53 473.247
1945 0 59.0935 17.4469 1031 153.051 1247.56 473.302
1946 0 58.2561 16.3416 952 98.2994 1248.24 474.55
1947 0 58.0517 16.3475 949 98.9842 1248.33 474.285
1948 0 58.0889 16.5264 960 97.8479 1248.26 476.286
1949 0 57.1211 16.4388 939 99.099 1248.52 475.282
1950 0 56.2247 14.8333 834 103.239 1248.07 475.356
1951 0 59.1784 17.1515 1015 95.1498 1247.73 472.424
1952 0 57.1419 14.6477 837 101.682 1247.47 474.295
1953 0 58.2598 17.4048 1014 95.8087 1247.44 475.791
1954 0 57.2175 16.7257 957 97.0167 1248.41 473.059
1955 0 56.1795 15.4149 866 100.358 1247.12 474.007
1956 0 57.1307 17.0836 976 95.9395 1247.22 473.643
1957 0 56.1476 15.014 843 101.546 1247.2 473.82
1958 0 59.3189 17.8021 1056 92.3229 1247.91 474.086
1959 0 57.1016 14.4829 827 100.254 1248.07 474.255
1960 0 57.1016 14.4829 827 159.942 1248.07 474.255
1961 0 58.1031 16.1093 936 96.1731 1248.13 474.746
1962 0 58.0753 16.7541 973 94.6043 1248.01 474.373
1963 0 56.1451 16.5642 930 95.9914 1247.82 473.747
1964 0 57.1269 16.1045 920 96.8163 1248.08 474.363
1965 0 59.1502 16.923 1001 93.2507 1247.59 474.07
1966 0 58.1358 16.1174 937 95.6649 1247.85 473.367
1967 0 59.1411 16.486 975 94.0021 1247.26 472.81
1968 0 57.1119 15.4434 882 97.5 1248.14 474.071
1969 0 58.1434 15.6337 909 96.2651 1247.78 473.735
1970 0 59.1914 16.5733 981 92.7635 1248.34 474.984
1971 0 58.1311 16.3424 950 94.3168 1247.98 472.647
1972 0 58.1203 15.1754 882 96.737 1247.93 474.756
1973 0 58.1728 16.451 957 93.512 1248.34 473.689
1974 0 59.1969 16.1495 956 92.6255 1248.47 474.969
1975 0 57.0686 15.0521 859 97.6228 1247.32 473.688
1976 0 58.1188 15.606 907 95.2701 1248.05 473.976
1977 0 57.173 15.8291 905 95.0287 1248.18 472.282
1978 0 59.182 17.556 1039 89.9413 1248.15 474.065
1979 0 58.1141 15.177 882 95.6735 1248 473.922
1980 0 59.1693 17.5091 1036 90.0376 1247.47 472.132
1981 0 57.1263 15.8071 903 94.6058 1248.15 472.035
1982 0 60.1431 16.8598 1014 90.4921 1247.79 474.864
1983 0 57.1083 16.6701 952 92.6239 1247.84 473.021
1984 0 59.1623 17.1224 1013 89.1984 1248.06 470.25
1985 0 57.214 15.4508 884 93.7715 1248.25 471.732
1986 0 59.1107 17.6279 1042 88.3205 1247.35 472.21
1987 0 60.1879 17.6281 1061 87.196 1248.42 471.884
1988 0 58.1065 16.7623 974 89.8275 1247.99 474.176
1989 0 59.1988 16.4024 971 89.9217 1247.71 473.656
1990 0 60.12 16.5835 997 89.1966 1247.9 474.109
1991 0 60.12 16.7166 1005 153.264 1247.93 474.069
1992 0 60.109 18.4664 1110 85.1793 1248.58 474.563
1993 0 59.098 16.9718 1003 88.2164 1247.88 472.531
1994 0 56.1615 15.0459 845 94.3515 1248.1 471.511
1995 0 60.2368 17.7964 1072 86.2229 1248.24 471.164
1996 0 60.2531 18.2065 1097 85.5907 1249.13 472.644
1997 0 60.2531 18.1899 1096 146.894 1249.15 472.561
1998 0 58.2918 15.8856 926 91.1609 1247.93 473.329
1999 0 58.1652 16.1265 938 91.419 1247.54 472.119
2000 0 60.0791 16.5282 993 89.6103 1247.08 472.183
2001 0 58.3791 15.4507 902 92.0155 1248.42 471.987
2002 0 58.3345 16.8682 984 89.0366 1248.53 472.809
2003 0 58.2537 15.0548 877 92.6956 1248.77 471.932
2004 0 59.2395 15.6315 926 90.3153 1248.42 472.917
2005 0 59.2288 17.5252 1038 86.7611 1248.34 472.953
2006 0 60.2948 16.8506 1016 87.6535 1248.52 473.409
2007 0 57.3012 14.8513 851 92.7673 1248.19 472.945
2008 0 57.2685 15.9075 911 91.1921 1247.58 470.308
2009 0 57.2948 16.3366 936 89.9028 1248.06 471.565
2010 0 59.2504 16.1349 956 89.6412 1248.19 471.165
2011 0 58.2388 15.5566 906 90.9227 1247.85 470.748
2012 0 59.0794 17.0279 1006 87.2863 1247.83 473.219
2013 0 59.4157 17.6553 1049 85.408 1247.82 472.397
2014 0 60.1302 16.6306 1000 87.554 1247.12 470.782
2015 0 60.3067 17.3613 1047 86.2092 1247.74 471.939
2016 0 60.3158 16.8281 1015 86.8246 1247.8 472.876
2017 0 62.3369 17.261 1076 84.9898 1247.21 470.962
2018 0 59.2092 17.3959 1030 86.1709 1247.67 473.17
2019 0 59.2092 17.2946 1024 147.031 1247.65 473.084
2020 0 60.133 19.0744 1147 82.449 1247.25 473.227
2021 0 60.1051 18.3013 1100 84.0464 1246.78 472.434
2022 0 59.1123 16.3925 969 87.4954 1246.71 473.517
2023 0 60.1489 16.6088 999 86.8749 1247.05 472.831
2024 0 59.0853 14.8091 875 90.7143 1246.63 473.655
2025 0 60.1785 16.1686 973 87.0247 1247.38 472.304
2026 0 61.1521 16.2219 992 85.9859 1247.35 471.182
2027 0 60.1594 16.9716 1021 84.5103 1248.48 473.121
2028 0 58.1215 15.502 901 87.0877 1247.03 474.07
2029 0 58.0386 15.6965 911 86.7673 1247.43 472.507
2030 0 61.1264 17.2102 1052 82.1663 1247.48 473.171
2031 0 59.0658 15.9991 945 85.6265 1248.35 473.861
2032 0 60.0988 17.022 1023 83.1681 1247.84 471.658
2033 0 60.103 16.0225 963 84.6802 1247.49 473.357
2034 0 58.058 14.4855 841 88.7503 1247.5 474.272
2035 0 61.1185 17.6706 1080 81.7463 1246.83 472.974
2036 0 60.154 18.3197 1102 80.471 1246.93 472.24
2037 0 60.1778 16.6839 1004 83.2341 1247.82 473.928
2038 0 58.0975 15.6289 908 86.152 1247.16 473.38
2039 0 60.0947 16.241 976 84.041 1247.49 472.542
2040 0 59.044 18.9689 1120 80.4812 1246.8 475.094
2041 0 60.0942 17.4892 1051 82.3597 1247.65 474.807
2042 0 59.0424 15.599 921 85.9131 1248.16 473.837
2043 0 59.0738 15.4044 910 86.4429 1248.34 474.125
2044 0 61.0929 18.3818 1123 80.358 1247.68 472.722
2045 0 60.1014 17.9863 1081 81.506 1247.77 473.704
2046 0 61.1554 17.431 1066 81.8396 1247.51 472.045
2047 0 58.1073 15.2304 885 86.922 1247.83 472.096
2048 0 61.0567 16.1981 989 83.3933 1248.25 472.925
2049 0 60.1314 16.9462 1019 83.1816 1247.6 472.804
2050 0 60.0469 15.9875 960 84.6844 1248 471.933
2051 0 62.0505 17.3568 1077 81.1764 1247.23 471.85
2052 0 59.1363 15.6249 924 85.7587 1247.55 470.385
2053 0 62.0881 17.2497 1071 81.3035 1247.6 471.852
2054 0 62.0881 17.2175 1069 153.399 1247.59 471.769
2055 0 59.1619 15.1956 899 86.5539 1247.24 471.249
2056 0 60.0618 16.4497 988 83.7419 1247.1 471.517
2057 0 59.0994 16.0915 951 84.7529 1247.23 471.324
2058 0 59.0671 16.1173 952 84.8855 1247.42 470.813
2059 0 62.0881 17.6201 1094 80.7587 1247.21 471.823
2060 0 60.0876 15.5939 937 84.5806 1247.58 472.894
2061 0 61.1012 16.6445 1017 82.4356 1247.13 473.145
2062 0 58.0366 15.0422 873 87.4582 1247.28 473.493
2063 0 61.0869 16.632 1016 82.1555 1247.88 473.562
2064 0 61.0946 17.4811 1068 80.5365 1247.14 472.687
2065 0 61.0946 17.4811 1068 154.86 1247.14 472.687
2066 0 60.1622 15.907 957 83.7973 1247.95 473.693
2067 0 61.0809 16.0279 979 82.6496 1248.39 474.333
2068 0 61.049 16.6096 1014 82.0049 1248.07 472.637
2069 0 59.0879 16.5516 978 83.2301 1247.39 473.253
2070 0 61.048 16.8556 1029 81.6424 1247.94 472.794
2071 0 60.1277 17.4795 1051 81.0228 1248.34 473.127
2072 0 60.0936 17.8887 1075 80.72 1247.33 472.011
2073 0 61.0606 16.1479 986 83.1187 1247.87 473.002
2074 0 61.1467 16.3051 997 82.1525 1248.35 473.912
2075 0 60.0762 17.045 1024 81.7314 1246.81 472.054
2076 0 59.0915 14.7906 874 86.3501 1247.37 472.768
2077 0 60.1577 15.6921 944 83.7648 1248 473.337
2078 0 59.0702 15.7778 932 84.22 1247.29 472.99
2079 0 61.0553 18.6225 1137 78.1856 1247.26 473.018
2080 0 59.0478 17.1048 1010 81.1436 1246.91 472.584
2081 0 60.0629 15.7668 947 83.0243 1247.11 472.048
2082 0 61.0515 15.708 959 82.4599 1246.74 472.168
2083 0 61.0768 14.8829 909 84.1496 1246.84 473.161
2084 0 61.2228 16.3665 1002 81.0609 1246.71 473.242
2085 0 61.0324 17.4006 1062 79.871 1246.95 470.664
2086 0 59.0518 15.3763 908 83.3392 1247.15 470.28
2087 0 61.064 16.1142 984 81.2896 1247.39 474.516
2088 0 60.1462 16.6095 999 80.9029 1247.03 472.483
2089 0 58.179 15.6414 910 83.5527 1247.26 472.968
2090 0 59.1058 16.0052 946 82.4334 1247.14 473.133
2091 0 60.0178 16.3618 982 80.6782 1246.53 473.307
2092 0 60.0513 16.2861 978 81.0266 1246.97 473.291
2093 0 60.0773 16.845 1012 79.7905 1247.22 474.058
2094 0 59.0808 15.9104 940 81.9702 1246.4 472.746
2095 0 60.1054 16.105 968 80.6705 1246.66 472.912
