time division length width area intensity CMx CMy
0 0 76.1026 13.784 1049 76.7731 1345.23 461.044
1 0 75.0533 13.8435 1039 78.77 1344.67 462.544
2 0 76.0954 12.4449 947 82.9525 1344.98 458.536
3 0 77.1018 11.634 897 86.0279 1344.36 453.097
4 0 80.1307 12.3798 992 82.8125 1344.82 459.795
5 0 84.0874 11.0005 925 84.7557 1344.22 462.359
6 0 86.0735 11.2578 969 84.6873 1344.7 458.899
7 0 89.1364 11.0393 984 85.9045 1344.82 456.13
8 0 93.202 10.1393 945 88.3767 1345.47 456.029
9 0 98.106 9.67321 949 87.7766 1345.41 458.52
10 1 52.1354 9.95485 519 79.1657 1344.77 481.32
11 0 54.0928 9.31733 504 80.0694 1345.32 477.302
12 0 53.1323 6.26737 333 83.5856 1347.14 475.228
13 0 56.0858 8.02343 450 81.8711 1346.95 473.413
14 0 58.0334 9.11544 529 79.6692 1347.31 475.8
15 0 61.052 10.1225 618 78.5631 1347.27 473.369
16 0 65.0208 10.2583 667 78.8786 1346.34 473.489
17 0 66.042 10.2208 675 80.563 1346.68 469.104
18 0 68.1003 9.10422 620 82.0919 1346.4 466.948
19 0 71.0636 10.6665 758 80.9486 1346.3 468.727
20 0 76.0735 10.6082 807 81.9665 1345.84 466.932
21 0 82.076 13.0976 1075 76.2195 1346.36 458.345
22 0 87.1266 14.1174 1230 74.6732 1346.24 458.47
23 0 90.1084 16.6577 1501 71.8128 1346.08 452.379
24 0 90.0667 14.8446 1337 77.3844 1345.72 455.782
25 0 93.1262 15.4414 1438 76.7559 1346.63 455.569
26 0 97.1154 14.1172 1371 78.8133 1346.7 454.164
27 0 101.139 14.4652 1463 79.7375 1345.46 452.033
28 0 99.1841 11.887 1179 86.2909 1346.71 451.483
29 1 52.1279 9.97546 520 87.3019 1346.35 474.079
30 0 57.1895 12.5897 720 84.8847 1345.98 471.432
31 0 57.2273 12.1795 697 86.7963 1345.99 470.963
32 0 59.0531 13.3101 786 84.3639 1346.42 470.966
33 0 61.059 12.6271 771 85.5772 1345.89 471.166
34 0 62.0554 11.4253 709 87.8505 1346.64 468.433
35 0 63.1459 13.0016 821 84.0999 1346.8 468.513
36 0 66.0589 12.2467 809 86.6737 1345.51 467.889
37 0 67.0841 11.2694 756 88.6614 1346.17 466.602
38 0 70.0872 12.0564 845 87.0793 1345.86 464.922
39 0 71.045 13.1466 934 85.8019 1345.62 466.522
40 0 73.1177 11.8439 866 88.2933 1345.8 463.431
41 0 75.1516 11.7496 883 88.7271 1346.11 461.151
42 0 84.1276 14.6207 1230 80.1496 1346.88 457.037
43 0 79.0952 13.2751 1050 87.001 1346.31 455.566
44 0 80.142 11.5794 928 89.3912 1346.83 457.349
45 0 87.0787 13.7806 1200 85.6833 1346.06 454.81
46 0 89.1761 13.2883 1185 86.3899 1346.44 450.971
47 0 92.174 12.1726 1122 90.1417 1345.77 452.706
48 0 94.1377 12.2905 1157 97.7986 1345.53 446.884
49 0 99.2353 13.3017 1320 96.0667 1345.7 442.944
50 0 103.199 12.597 1300 96.4415 1345.96 444.662
51 1 52.0789 9.12078 475 98.9053 1346.01 466.533
52 0 58.126 11.4235 664 94.8012 1345.96 464.526
53 0 60.1042 10.9643 659 95.4947 1346.03 465.757
54 0 60.0827 13.032 783 92.0971 1346.69 464.405
55 0 62.1353 12.2796 763 93.3447 1346.38 464.19
56 0 66.1196 13.0219 861 90.3287 1346.42 463.225
57 0 67.1619 12.3433 829 93.1242 1345.68 462.088
58 0 72.0452 12.6171 909 86.6865 1345.92 463.059
59 0 70.255 13.4083 942 85.811 1346.04 464.16
60 0 73.1494 12.1942 892 89.6973 1345.51 459.621
61 0 75.0863 14.237 1069 86.8335 1345.44 457.167
62 0 77.0896 11.0391 851 92.3102 1345.49 458.089
63 0 81.0872 13.2697 1076 88.3346 1344.89 456.158
64 0 81.0869 9.75497 791 91.9343 1346.07 452.535
65 1 96.1831 15.0962 1452 78.9821 1347.08 444.541
66 0 97.154 14.4822 1407 82.7541 1346.42 439.216
67 0 99.2272 16.558 1643 79.4796 1346.73 438.189
68 0 102.274 17.3259 1772 78.8076 1346.1 438.361
69 0 100.187 16.1398 1617 82.3278 1346.46 441.776
70 1 51.0441 11.1864 571 90.9229 1346.72 468.033
71 0 55.156 10.7513 593 89.6425 1346.91 469.007
72 0 53.0815 11.0396 586 91.6075 1346.04 465.355
73 0 60.0473 13.0564 784 86.2832 1345.78 468.532
74 0 58.0873 13.8757 806 86.5298 1345.46 465.38
75 0 64.0802 11.3451 727 89.3342 1345.92 465.146
76 0 63.0644 12.4159 783 88.3206 1345.78 464.805
77 0 65.1508 12.9239 842 87.0641 1346.16 458.026
78 0 64.0675 12.5024 801 89.7154 1345.67 457.762
79 0 69.0508 14.4676 999 85.5556 1345.41 453.49
80 0 74.1101 13.7633 1020 85.9873 1345.31 454.835
81 0 75.051 13.8572 1040 86.901 1345.58 452.881
82 0 79.0855 13.8711 1097 86.4439 1345.38 455.418
83 0 82.1558 13.6448 1121 87.0883 1345.49 451.268
84 0 84.1212 14.8952 1253 84.9002 1345.58 452.235
85 0 85.1396 14.2119 1210 86.6537 1345.72 450.472
86 0 87.3156 13.308 1162 88.9776 1346.14 447.292
87 0 88.0704 12.2743 1081 91.6096 1345.58 446.015
88 0 89.0675 13.0912 1166 90.4588 1345.69 444.378
89 0 95.0848 14.0296 1334 88.3246 1345.68 441.371
90 0 99.1916 13.4084 1330 88.7466 1345.99 441.512
91 0 101.211 13.6547 1382 88.3111 1345.66 439.029
92 0 105.16 13.5127 1421 88.6193 1346.25 432.468
93 0 112.124 15.2242 1707 83.092 1346.49 433.427
94 0 119.145 14.2012 1692 84.8972 1345.19 430.184
95 1 57.1782 10.476 599 79.2387 1346.45 460.142
96 0 60.0846 11.1676 671 76.6945 1345.79 459.466
97 0 69.2276 10.2127 707 77.1556 1345.64 462.819
98 0 74.112 11.4691 850 75.2294 1345.27 465.184
99 0 72.1401 10.438 753 74.1607 1345.2 458.963
100 0 75.107 10.545 792 71.1944 1345.33 462.937
101 0 78.1079 8.96197 700 73.7829 1345.13 461.864
102 0 79.201 8.43423 668 75.7844 1344.78 458.352
103 0 83.1054 10.3002 856 74.1659 1345.68 456.159
104 0 86.1473 9.5534 823 76.0899 1345 452.03
105 0 88.0557 8.188 721 78.025 1345.51 450.731
106 0 91.0567 10.6417 969 75.774 1344.93 449.332
107 0 96.085 11.8541 1139 74.2177 1345.19 451.45
108 1 52.038 9.10873 474 71.8312 1346.08 473.816
109 0 53.0361 9.03159 479 72.7307 1345.85 471.658
110 0 58.1172 12.0446 700 71.4229 1343.74 465.98
111 0 59.0769 11.1042 656 70.2302 1345.32 470.262
112 0 59.0789 9.90202 585 72.3043 1344.6 472.52
113 0 65.0561 11.5131 749 70.5207 1344.89 471.617
114 0 67.0585 10.9606 735 71.8612 1343.98 468.635
115 0 68.0366 11.92 811 70.7127 1344.59 468.306
116 0 72.1083 13.2162 953 69.3851 1344.37 467.984
117 0 73.0651 11.3734 831 72.438 1344.15 467.939
118 0 73.0585 10.4574 764 74.1793 1344.32 466.988
119 0 77.0414 12.5776 969 70.8875 1344.69 467.64
120 0 79.08 12.6075 997 71.3852 1344.67 464.203
121 0 80.1451 12.0531 966 73.176 1344.23 464.651
122 0 84.1612 13.3197 1121 71.6949 1344.97 461.037
123 0 84.1121 10.9972 925 76.5935 1344.78 459.337
124 0 87.1111 11.9158 1038 77.3189 1344.97 458.323
125 0 90.071 12.3014 1108 77.7978 1344.19 457.542
126 0 91.0788 11.5285 1050 78.8038 1344.19 459.441
127 0 95.1448 10.8782 1035 79.2899 1344.96 455.148
128 0 96.1554 9.82784 945 80.836 1344.72 454.064
129 0 103.213 11.4229 1179 77.6836 1345 452.289
130 0 108.356 12.5974 1365 76.8264 1344.47 446.422
131 0 111.187 12.0338 1338 78.3842 1344.69 446.128
132 0 116.398 12.0964 1408 78.1321 1343.66 443.114
133 0 109.149 12.6524 1381 76.6307 1344.43 430.044
134 1 64.1435 9.16694 588 82.4711 1344.7 468.189
135 0 67.1127 10.2365 687 81.1528 1344.71 466.833
136 0 66.0541 12.0961 799 79.4919 1344.96 462.451
137 0 70.091 13.4111 940 77.6989 1344.38 463.945
138 0 69.15 9.84816 681 83.5374 1343.86 460.847
139 0 70.1508 10.6913 750 82.2787 1344.8 458.447
140 0 78.2374 13.6891 1071 77.0402 1343.76 459.861
141 0 80.0974 12.4474 997 80.1053 1344.69 459.432
142 0 83.1642 12.6857 1055 79.5156 1344.44 460.417
143 0 86.2877 13.5245 1167 79.3205 1344.63 455.737
144 0 87.1606 13.1137 1143 79.4751 1344.12 456.243
145 0 88.0768 13.4996 1189 77.8629 1344.98 459.024
146 0 91.2638 13.3569 1219 79.6563 1344.28 455.813
147 0 94.2444 13.7621 1297 78.9198 1344.62 452.436
148 0 98.242 14.4948 1424 78.4284 1344.28 448.885
149 0 101.342 13.1831 1336 80.5681 1344.13 448.189
150 0 102.192 13.0441 1333 80.4546 1343.97 446.444
151 0 104.236 13.2009 1376 78.6584 1345.39 447.613
152 0 105.181 10.23 1076 82.1022 1343.79 447.297
153 1 57.0651 9.97107 569 79.5817 1343.76 465.61
154 0 60.1123 12.46 749 67.9413 1345.34 464.304
155 0 62.0589 10.49 651 70.7819 1345.01 463.823
156 0 63.1217 11.2006 707 70.9929 1344.35 463.564
157 0 66.0637 11.8976 786 69.9631 1344.33 462.421
158 0 67.2017 12.7229 855 70.0819 1344.65 458.552
159 0 74.1063 11.7534 871 69.992 1344.21 461.042
160 0 71.1048 12.5308 891 71.9989 1343.98 458.47
161 0 75.1104 12.5548 943 72.4677 1343.58 455.098
162 0 78.214 11.2768 882 74.5204 1344.52 455.991
163 0 79.1533 11.4461 906 75.0397 1344.49 454.568
164 0 84.165 13.0102 1095 74.2557 1343.4 454.883
165 0 85.2684 11.2938 963 77.9159 1344.01 451.169
166 0 87.1036 12.7549 1111 76.9163 1343.93 452.079
167 0 90.1705 12.3987 1118 79.1404 1342.72 448.675
168 0 93.1492 13.0973 1220 78.5352 1344.02 449.149
169 0 90.1269 11.8722 1070 82.6673 1343.98 448.986
170 0 97.1751 13.0692 1270 80.1583 1344.21 448.203
171 0 104.121 15.6933 1634 75.6848 1344.07 445.272
172 0 104.182 14.7818 1540 79.8656 1344.88 444.644
173 0 108.186 14.207 1537 80.7092 1344.17 437.379
174 0 112.284 14.3386 1610 81.5497 1343.76 436.905
175 0 116.281 12.8396 1493 84.4997 1343.55 434.82
176 0 124.29 12.8249 1594 86.579 1343.53 427.065
177 0 127.253 13.5321 1722 89.234 1343.25 413.661
178 0 132.221 13.9615 1846 89.9485 1344.13 391.718
179 1 67.0965 13.2347 888 86.7635 1343.76 424.587
180 0 69.145 13.7537 951 86.2145 1344.41 417.266
181 0 71.1303 12.4841 888 88.3795 1344.64 416.293
182 0 75.0692 13.4942 1013 87.0128 1344.27 406.706
183 0 78.184 13.9031 1087 86.218 1344.81 407.942
184 0 80.1377 12.6907 1017 88.5339 1344.85 409.71
185 0 81.1924 13.4372 1091 87.9285 1344.74 406.608
186 0 83.18 12.9358 1076 89.4071 1344.73 404.881
187 0 86.1159 13.0754 1126 88.6341 1344.19 399.925
188 0 92.151 12.7617 1176 88.54 1344.29 397.815
189 0 96.2272 14.736 1418 84.9993 1343.67 392.453
190 0 94.1503 12.7137 1197 89.9323 1344.51 393.119
191 0 100.176 13.4064 1343 87.4892 1343.73 396.915
192 0 104.208 13.1659 1372 87.7682 1344.11 395.635
193 1 55.0343 11.2657 620 82.1855 1343.57 424.855
194 0 56.1984 12.7584 717 80.9149 1343.12 423.53
195 0 56.1092 10.8538 609 87.7635 1342.87 429.453
196 0 58.2087 12.3693 720 84.7556 1343.89 435.718
197 0 57.0632 10.0765 575 88.3722 1343.29 439.579
198 0 64.238 12.5782 808 81.9827 1343.58 441.083
199 0 68.0612 13.3997 912 85.4956 1343.54 437.845
200 0 69.2003 12.7456 882 86.9093 1342.89 439.173
201 0 71.1177 12.88 916 87.5262 1343.99 438.045
202 0 75.1418 13.1219 986 86.3509 1342.94 439.173
203 0 77.1783 14.175 1094 84.659 1343.43 437.994
204 0 78.1417 12.6565 989 87.2498 1343.23 438.909
205 0 82.2529 13.3004 1094 85.9031 1343.07 438.611
206 0 83.1776 13.1406 1093 83.0485 1343.33 433.048
207 0 80.1221 11.7945 945 87.49 1343.2 427.785
208 0 86.2058 14.3262 1235 82.0154 1344.17 430.973
209 0 89.0901 13.9297 1241 82.6551 1342.89 432.035
210 0 92.1114 13.8528 1276 81.7978 1344.15 432.656
211 0 96.267 14.7818 1423 79.61 1343.46 436.981
212 0 95.1951 12.091 1151 84.7593 1343.58 434.351
213 0 101.232 12.6838 1284 82.9525 1343.36 435.275
214 1 56.2743 12.2258 688 80.7951 1344.08 457.238
215 0 59.1496 12.1049 716 81.6145 1345.78 452.468
216 0 60.1636 11.8676 714 82.2283 1344.67 448.599
217 0 62.0693 12.5505 779 81.2619 1345.28 448.689
218 0 62.1694 11.3561 706 84.5368 1344.08 448.269
219 0 67.1637 12.7152 854 81.5304 1344.47 447.561
220 0 70.1223 12.849 901 81.1676 1344.32 446.967
221 0 71.1506 12.6211 898 83.0212 1344.46 442.702
222 0 74.2125 13.5422 1005 81.4677 1344.54 444.111
223 0 78.2117 13.4251 1050 81.6771 1344.81 442.484
224 0 81.2663 14.2248 1156 79.865 1344.1 445.142
225 0 81.1031 14.1548 1148 80.7822 1343.13 439.373
226 0 84.1665 12.6891 1068 83.0749 1343.56 438.48
227 0 86.1512 13.4415 1158 82.1917 1344.53 441.995
228 0 89.2429 13.5473 1209 80.4971 1344.86 448.085
229 0 91.1602 13.6792 1247 81.3617 1344.33 446.197
230 0 96.1916 14.5231 1397 79.3579 1344.65 446.946
231 0 95.3394 12.7859 1219 83.8007 1343.53 443.813
232 0 100.209 13.1026 1313 82.9467 1344.02 443.64
233 0 102.229 12.1199 1239 83.4657 1344.72 441.835
234 0 107.181 12.7541 1367 82.4162 1344.8 435.849
235 0 117.16 13.2213 1549 80.0788 1344.66 442.102
236 0 120.259 11.7663 1415 85.3463 1343.83 443.44
237 1 61.0398 11.6809 713 74.9439 1344.42 472.828
238 0 65.0543 11.7748 766 75.2872 1345.08 470.973
239 0 65.052 11.6061 755 76.2344 1344.79 469.305
240 0 68.0866 11.0595 753 77.4369 1344.53 469.946
241 0 70.0412 10.6937 749 77.6302 1344.65 463.979
242 0 74.2386 12.6215 937 76.2775 1344.39 461.994
243 0 76.2094 13.6072 1037 75.0974 1344.91 460.873
244 0 79.2284 12.4072 983 77.2584 1343.71 460.679
245 0 81.1139 12.7598 1035 78.2899 1344.4 460.446
246 0 83.1176 11.0927 922 81.0553 1343.89 459.815
247 1 109.264 18.1396 1982 64.1125 1343.75 444.037
248 0 105.272 20.7272 2182 63.1535 1343.71 442.088
249 0 102.209 18.5698 1898 68.6201 1344.27 449.305
250 0 100.312 13.7372 1378 79.3026 1343.02 444.967
251 0 100.337 13.8832 1393 80.0926 1343.14 448.851
252 0 103.142 13.2633 1368 83.0183 1344.25 442.517
253 0 109.07 13.5693 1480 81.75 1343.85 436.426
254 0 116.246 14.7016 1709 79.7022 1344.1 439.388
255 1 60.1575 13.2153 795 78.4931 1343.67 470.717
256 0 62.0862 13.1269 815 75.8454 1343.25 469.761
257 0 64.1247 13.3646 857 76.979 1342.72 463.839
258 0 66.2269 13.9369 923 74.3727 1344.09 467.196
259 0 68.3043 11.8733 811 77.9975 1344.07 465.346
260 0 71.2098 13.397 954 76.1667 1343.73 463.526
261 0 73.1326 13.4824 986 76.0619 1343.57 465.075
262 0 75.1934 12.674 953 77.6642 1343.43 463.908
263 0 76.2563 12.694 968 80.6033 1343.79 453.791
264 0 80.1038 13.2952 1065 78.7324 1344.15 456.035
265 0 82.0654 12.9774 1065 80.9549 1342.7 453.037
266 0 83.1252 12.427 1033 81.7928 1344.47 452.997
267 0 86.1744 12.4631 1074 82.2095 1343.96 452.357
268 0 91.2502 13.6767 1248 80.1931 1343.73 455.882
269 0 93.2047 13.6366 1271 80.4296 1344.31 454.381
270 0 98.2812 13.8785 1364 82.9032 1343.72 452.694
271 0 103.24 14.7521 1523 85.7203 1342.82 436.781
272 1 55.0895 11.6901 644 85.6056 1343.77 462.203
273 0 57.1912 11.8025 675 86.4667 1344.11 456.916
274 0 60.1524 13.9479 839 83.7128 1343.65 451.135
275 0 60.1923 13.5233 814 84.3231 1344.18 454.356
276 0 60.1342 11.8734 714 88.8417 1344.48 452.895
277 0 65.4021 12.5684 822 86.9015 1343.76 454.057
278 0 65.1721 12.3826 807 88.2131 1344.5 454.86
279 0 69.2293 14.4881 1003 85.2353 1344.53 452.164
280 0 70.302 12.7877 899 88.8788 1344.3 453.232
281 0 72.1278 12.5333 904 90.479 1344.81 453.545
282 0 76.1649 13.1294 1000 90.422 1344.72 452.908
283 0 77.1174 14.1732 1093 89.0357 1344.26 452.399
284 0 79.1751 12.8702 1019 90.7615 1344.98 454.797
285 0 84.1875 13.3155 1121 90.1731 1343.87 452.787
286 0 90.1489 15.1305 1364 84.0777 1344.47 454.911
287 0 95.1742 17.6098 1676 78.4809 1345.1 447.729
288 0 98.2278 17.9583 1764 77.9484 1344.1 444.493
289 0 102.213 17.8646 1826 78.8795 1344.58 446.005
290 0 99.3645 14.2908 1420 88.6232 1344.68 447.274
291 0 101.201 13.488 1365 92.3399 1344.03 449.265
292 0 105.214 12.7455 1341 94.2491 1344.33 447.259
293 0 108.27 12.7182 1377 94.7422 1345.19 445.551
294 0 112.126 13.3065 1492 93.5838 1345.19 446.013
295 1 77.0868 8.76934 676 87.5651 1344.93 474.235
296 0 66.1239 15.1231 1000 78.714 1345.56 468.283
297 0 80.3291 14.59 1172 75.7329 1344.99 462.222
298 0 78.2986 13.6401 1068 79.0506 1345.35 461.816
299 0 78.0756 15.754 1230 76.9715 1344.97 460.511
300 0 75.17 14.5271 1092 81.1154 1345.37 461.709
301 0 84.1305 16.415 1381 75.3432 1344.83 455.638
302 0 85.142 14.9398 1272 79.2594 1345.13 458.056
303 0 84.2425 15.2061 1281 79.171 1345.7 459.276
304 0 84.1213 15.763 1326 80.0437 1345.35 457.405
305 0 84.1572 11.9895 1009 88.7641 1345.12 457.383
306 0 88.2592 12.6672 1118 88.5519 1344.74 455.635
307 0 90.1728 12.4317 1121 89.719 1344.21 453.659
308 0 94.1676 12.6052 1187 89.7009 1344.23 451.963
309 1 104.286 17.0205 1775 79.4851 1343.66 446.196
310 0 104.294 17.2109 1795 80.2674 1344.36 442.482
311 0 109.189 15.7708 1722 82.7381 1343.53 441.683
312 0 111.294 15.7241 1750 83.2834 1344.37 442.593
313 0 119.359 16.2954 1945 80.8355 1343.22 435.861
314 0 116.332 15.4214 1794 85.0412 1344.11 439.386
315 0 121.255 17.2776 2095 81.2272 1345.29 434.837
316 0 121.265 14.7858 1793 88.3854 1344.28 439.1
317 0 122.159 12.934 1580 93.0949 1344.49 438.951
318 0 129.24 15.6994 2029 87.4677 1344.42 435.201
319 0 130.191 12.8811 1677 94.0978 1344.46 436.575
320 1 70.0696 12.1308 850 86.4235 1345.51 460.828
321 0 70.0487 11.5348 808 88.7648 1345.35 455.467
322 0 76.0452 11.0987 844 88.8732 1344.15 453.791
323 0 83.1223 15.2546 1268 79.582 1345.38 452.756
324 0 83.1047 12.3459 1026 89.0068 1344.83 441.545
325 0 87.1016 10.1605 885 91.0644 1343.91 446.245
326 0 91.1316 12.1363 1106 87.0796 1344.8 451.664
327 0 91.1222 10.9413 997 91.652 1345.32 445.682
328 0 98.0875 12.6418 1240 87.8032 1345.02 451.169
329 0 97.0715 10.7756 1046 91.6061 1345.56 449.699
330 0 101.078 11.1894 1131 92.4651 1344.18 448.906
331 0 103.087 12.6108 1300 88.6654 1345.48 449.396
332 0 108.135 13.7976 1492 86.8914 1345.68 444.94
333 0 111.078 12.2617 1362 90.3392 1345.43 443.243
334 0 120.377 12.5107 1506 89.4117 1345.38 439.619
335 1 68.0383 10.2589 698 88.1318 1344.54 467.715
336 0 70.0606 12.1038 848 86.9599 1344.91 463.828
337 0 75.0957 13.3563 1003 86.7488 1344.18 459.557
338 0 76.0612 12.4636 948 89.9262 1344.46 451.199
339 0 78.26 12.0496 943 90.5461 1344.32 454.354
340 0 80.0707 13.1509 1053 89.9506 1344.37 454.851
341 0 82.0904 12.2304 1004 91.1464 1344.68 457.258
342 0 87.101 12.962 1129 88.9035 1344.6 458.036
343 0 89.0872 11.8872 1059 90.5581 1345.13 458.852
344 0 89.1897 12.5239 1117 90.8845 1344.23 458.015
345 0 94.1478 12.9584 1220 90.6025 1344.31 457.738
346 0 97.1368 11.8184 1148 93.7282 1344.68 453.345
347 0 99.1615 13.4931 1338 91.1644 1344.73 454.096
348 0 103.231 12.8256 1324 93.2795 1345.02 450.394
349 0 106.166 13.1398 1395 92.9075 1344.88 449.713
350 0 109.15 13.6692 1492 92.6676 1345.22 448.586
351 0 111.263 14.0118 1559 92.7832 1344.21 445.014
352 0 112.121 11.7641 1319 97.8984 1345.22 439.361
353 0 116.129 12.9339 1502 98.488 1344.72 435.68
354 0 117.095 12.9382 1515 98.6964 1345.06 431.533
355 0 117.095 12.8443 1504 161.594 1345.05 431.326
356 0 129.164 12.8364 1658 97.5193 1345.1 425.185
357 0 129.08 12.4109 1602 98.6586 1345.64 422.217
358 1 63.0913 7.46537 471 99.0276 1344.92 447.45
359 0 74.1929 10.9444 812 88.3498 1345.01 450.484
360 0 69.1816 10.3929 719 93.452 1343.87 443.999
361 0 72.1502 10.395 750 92.4027 1345.46 445.515
362 0 73.0799 7.90915 578 98.8149 1344.43 442.543
363 0 85.17 10.1562 865 91.3283 1344.94 437.534
364 0 85.1188 9.48087 807 92.9789 1344.6 440.012
365 0 87.1963 11.2046 977 88.7062 1344.99 444.611
366 0 92.1448 10.1362 934 92.6435 1344.01 437.745
367 0 98.1489 11.2278 1102 91.5898 1344.72 444.092
368 0 102.202 11.5555 1181 91.2447 1343.68 444.83
369 0 105.23 12.2779 1292 89.3359 1344.63 441.369
370 0 104.32 9.57626 999 95.2302 1344.65 436.757
371 0 112.286 12.8333 1441 87.7502 1343.7 440.455
372 0 112.176 10.2517 1150 92.6896 1344.79 431.203
373 0 117.188 10.4021 1219 91.4619 1344.39 429.623
374 0 120.199 9.34286 1123 94.2894 1344.74 427.166
375 0 125.181 9.99351 1251 92.2302 1344.41 431.472
376 0 130.169 11.8769 1546 88.9334 1344.62 429.705
377 1 21.0231 3.04427 64 70.7344 1345.42 492.766
378 0 20.0089 6.14727 123 69.7317 1345.84 488.659
379 0 24.0373 7.77957 187 67.9037 1346.26 488.053
380 0 22.0163 6.85854 151 69.543 1344.68 491.536
381 0 22.018 4.63258 102 70.1176 1345.92 492.274
382 0 21.0027 6.85626 144 68.5347 1346.08 491.701
383 0 22.0108 7.63263 168 68.256 1345.7 492.28
384 0 21.0162 4.09209 86 75.0116 1345.01 490.884
385 0 20.0089 7.99643 160 70.2938 1344.74 490.281
386 0 21.0058 3.9513 83 73.9277 1345.13 491.386
387 1 188.39 13.4243 2529 91.4579 1343.75 411.531
388 0 191.436 12.4585 2385 95.761 1344.46 401.174
389 0 198.226 13.1466 2606 94.8776 1344.23 396.904
390 0 200.304 11.9968 2403 98.3712 1344.44 394.695
391 0 210.524 12.9011 2716 95.933 1344.51 394.021
392 0 217.275 12.5141 2719 96.8385 1344.44 396.258
393 0 223.309 12.9014 2881 96.9976 1343.68 387.148
394 1 161.217 11.4814 1851 98.1702 1344.21 414.542
395 0 167.259 12.1129 2026 97.003 1343.43 417.389
396 0 172.363 11.3772 1961 98.2789 1344.35 414.18
397 0 181.31 12.1008 2194 97.8783 1344 405.438
398 0 184.278 10.7609 1983 100.69 1344.82 404.377
399 0 191.434 12.4377 2381 98.6308 1343.98 395.354
400 0 196.343 12.2286 2401 99.0021 1344.62 392.709
401 0 204.284 12.9232 2640 97.861 1344.14 390.313
402 0 211.351 13.6929 2894 96.8179 1343.37 385.907
403 0 220.368 12.7423 2808 98.6189 1343.17 387.197
404 1 20.0089 5.84739 117 76.0855 1343.14 489.436
405 0 18.0089 5.66387 102 75.6569 1342.73 490.471
406 0 20.0043 2.99936 60 79.1833 1343.92 488.4
407 0 20.0105 4.04787 81 74.4444 1343.7 490.58
408 0 21.007 5.47436 115 73.6696 1344 490.791
409 0 21.0211 5.2804 111 74.5045 1343.66 492.712
410 0 19.0036 6.99869 133 73.3459 1344.16 492.015
411 0 12.0025 3.33263 40 70.975 1344.78 486.725
412 0 11.0003 1.81813 20 67.8 1344.65 493.5
413 0 0 0 0 -nan -nan -nan
414 0 0 0 0 -nan -nan -nan
415 0 9.00239 3.66569 33 68.4848 1344.55 487.091
416 1 158.233 10.3961 1645 94.7283 1343.84 406.401
417 0 150.22 11.7561 1766 96.9456 1343.48 398.299
418 0 154.324 11.7675 1816 91.0215 1344.2 404.105
419 0 157.275 11.038 1736 92.2465 1344.28 401.934
420 0 163.288 11.7094 1912 91.7495 1344.03 394.494
421 0 170.238 11.2079 1908 92.4817 1343.71 390.042
422 0 171.225 10.1095 1731 94.4512 1344.03 390.448
423 0 179.387 11.1212 1995 92.2391 1343.41 384.888
424 0 182.226 10.6461 1940 93.3964 1343.57 385.142
425 1 281.627 12.1615 3425 94.6634 1343.14 337.728
426 0 287.484 13.0407 3749 93.4414 1343.53 335.862
427 0 289.518 9.26366 2682 99.3628 1342.68 341.57
428 1 227.409 12.8623 2925 88.1504 1343.53 370.899
429 0 228.444 12.5764 2873 90.0581 1343.27 362.144
430 0 238.484 12.2063 2911 90.73 1342.18 363.312
431 0 245.479 11.3411 2784 91.6218 1342.57 363.591
432 0 256.65 13.0567 3351 90.5953 1342.45 360.483
433 0 246.577 14.3282 3533 91.0348 1342.96 353.256
434 0 250.613 10.5342 2640 97.4049 1342.81 363.006
435 0 257.42 10.815 2784 96.1024 1343.34 363.748
436 0 261.541 8.54934 2236 95.0353 1343.48 387.026
437 1 249.416 10.0916 2517 97.6404 1343.1 367.736
438 0 238.417 12.151 2897 94.1139 1343.92 362.851
439 0 241.454 14.6736 3543 89.9918 1342.57 360.393
440 0 237.432 12.711 3018 95.4294 1343.44 352.504
441 1 292.523 6.5841 1926 100.169 1342.62 376.525
442 0 288.46 6.75309 1948 100.568 1343.22 369.45
443 0 285.338 6.71134 1915 99.0449 1343.36 378.799
444 0 276.476 12.8004 3539 95.6804 1343.46 335.236
445 0 280.455 12.8969 3617 94.9665 1342.78 327.74
446 0 292.638 12.5308 3667 93.5942 1343.36 324.908
447 0 300.593 11.79 3544 94.2249 1341.55 324.57
448 0 313.735 17.4319 5469 84.1415 1342.33 315.231
449 0 334.626 14.7568 4938 88.5407 1342.6 304.379
450 0 331.696 14.8449 4924 90.0244 1343.02 301.584
451 0 350.788 16.004 5614 87.7337 1342.77 300.884
452 0 364.787 16.4315 5994 87.1718 1342.35 293.726
453 0 367.733 15.8267 5820 88.5117 1342.87 286.337
454 0 378.829 8.24119 3122 97.9094 1342.87 317.525
455 0 381.613 7.6491 2919 93.4008 1343.39 350.513
456 0 382.821 6.37374 2440 94.9963 1343.38 356.801
457 0 196.442 9.97748 1960 85.6985 1343.2 396.017
458 0 204.462 12.6478 2586 79.263 1343.97 399.749
459 0 210.469 12.2393 2576 79.8793 1342.83 390.466
460 0 217.375 11.9609 2600 82.0565 1343.54 389.613
461 0 225.467 11.6735 2632 83.1474 1343.58 380.786
462 0 406.385 13.0344 5297 78.2888 1343.75 298.494
463 0 239.677 15.3499 3679 77.3395 1343.19 370.286
464 0 247.764 15.0546 3730 78.0812 1343.27 369.677
465 0 253.555 13.7564 3488 80.3288 1343.2 366.942
466 0 260.686 14.4887 3777 79.8875 1342.43 355.595
467 0 266.67 14.591 3891 79.9211 1343.28 355.706
468 0 275.684 14.1249 3894 81.1228 1343.41 352.992
469 0 283.824 14.0721 3994 81.7536 1343.56 343.31
470 0 292.65 14.7685 4322 81.4278 1342.87 337.754
471 0 298.716 14.2744 4264 83.3105 1343.17 330.963
472 0 313.039 16.1162 5045 80.8478 1343.21 329.797
473 0 320.763 14.4437 4633 83.6708 1343.88 329.381
474 0 331.683 15.2796 5068 81.0618 1343.4 320.298
475 0 340.787 14.7424 5024 82.2966 1343.8 313.68
476 1 281.647 11.763 3313 86.1228 1343.23 355.698
477 0 287.666 11.1101 3196 88.8192 1344.41 343.763
478 0 313.033 20.8093 6514 71.8425 1343.3 313.129
479 0 314.391 19.2944 6066 75.4243 1343.81 316.474
480 0 322.681 16.7131 5393 81.1938 1343.29 315.65
481 1 12.0005 0.749968 9 66.2222 1345 478.222
482 0 11.003 6.45277 71 56.1268 1344.7 481.634
483 0 14.0278 5.13268 72 55.6111 1343.82 481.944
484 0 8.00092 3.12464 25 57.32 1342.88 481.96
485 0 15.0049 1.66612 25 62.2 1342.08 479.68
486 0 12.0104 3.99655 48 55.1667 1343.71 485.75
487 0 0 0 0 -nan -nan -nan
488 0 16.0064 5.99759 96 57.3646 1344.8 488.344
489 0 22.0124 4.40661 97 64.2784 1344.84 492.67
490 0 23.062 6.80775 157 63.9045 1344.5 489.045
491 0 394.767 8.89891 3513 85.4836 1343.41 337.541
492 0 378.692 5.1493 1950 52.8697 1343.02 374.551
493 0 91.2755 21.9774 2006 50.2617 1343.61 458.439
494 0 95.217 22.2544 2119 50.2676 1343.18 456.672
495 0 98.2256 20.5649 2020 51.7639 1343.48 456.948
496 0 101.195 21.5525 2181 51.4351 1343.03 458.23
497 0 100.127 18.3767 1840 54.1706 1344.54 461.036
498 0 99.2241 14.2405 1413 59.4862 1345.24 456.797
499 0 102.087 15.2518 1557 59.0141 1344.18 456.675
500 0 102.162 13.3905 1368 62.212 1345.43 454.527
501 0 107.205 16.2679 1744 59.6525 1344.79 455.537
502 0 109.245 17.2457 1884 59.3912 1344.54 450.881
503 0 109.187 14.8369 1620 63.316 1344.26 450.619
504 0 112.196 18.4409 2069 58.8884 1344.22 450.147
505 0 114.186 18.172 2075 59.8848 1344.01 448.656
506 0 118.231 20.976 2480 57.8427 1343.12 447.64
507 0 117.178 16.2146 1900 62.879 1344.12 449.583
508 0 120.222 18.0832 2174 61.6509 1343.29 444.697
509 0 123.168 15.3043 1885 65.6769 1344.04 433.227
510 0 126.197 15.2856 1929 66.9114 1343.84 424.924
511 0 129.191 15.3881 1988 67.8365 1342.84 423.434
512 0 129.219 14.8043 1913 70.9462 1344.02 419.696
513 0 135.234 18.516 2504 66.9369 1343.05 425.34
514 0 136.196 16.5937 2260 69.9996 1343.4 421.382
515 0 138.249 14.8428 2052 72.789 1343.21 419.786
516 0 141.408 15.0487 2128 71.579 1344.24 421.461
517 0 144.408 15.5254 2242 71.054 1343.23 419.418
518 0 147.308 15.3487 2261 70.8563 1343.32 418.408
519 0 148.215 14.85 2201 72.5134 1343.33 421.101
520 0 154.328 16.8213 2596 69.1418 1342.86 421.725
521 0 157.259 17.5189 2755 68.1706 1343.24 415.981
522 0 162.375 16.7144 2714 69.8622 1342.64 411.109
523 0 166.501 15.0149 2500 72.5152 1342.61 410.976
524 0 172.429 15.6644 2701 71.8193 1343.01 410.658
525 0 177.331 18.2033 3228 69.356 1342.87 411.03
526 1 98.2367 11.0448 1085 71.7594 1343.19 456.547
527 0 99.149 11.8105 1171 70.5218 1343.91 450.12
528 0 100.255 10.9521 1098 70.1284 1344.09 446.247
529 0 104.284 10.8933 1136 69.4032 1344.24 451.25
530 0 104.134 10.0927 1051 65.8078 1344.62 452.91
531 0 109.229 11.9931 1310 64.429 1343.64 449.808
532 0 113.211 10.5555 1195 65.7607 1344.12 449.539
533 0 111.14 10.0684 1119 67.6497 1343.8 442.256
534 0 117.224 11.9941 1406 66.2504 1343.75 440.32
535 0 121.131 12.1026 1466 65.6658 1343.48 444.833
536 0 125.272 11.3832 1426 67.7966 1342.82 436.829
537 0 128.229 11.9474 1532 67.6808 1343.18 434.341
538 0 132.178 11.0987 1467 68.3531 1344.12 439.354
539 0 135.098 16.0105 2163 63.9644 1343.62 435.708
540 0 140.299 13.3002 1866 67.0188 1343.74 435.024
541 0 142.186 11.485 1633 70.4036 1343.5 432.451
542 0 148.184 11.0133 1632 73.9381 1342.84 432.691
543 0 150.125 12.1099 1818 74.3009 1342.73 423.116
544 0 158.205 13.9313 2204 71.5272 1344.04 421.466
545 0 161.165 11.5038 1854 75.5814 1342.28 420.964
546 0 164.179 10.0439 1649 77.4063 1342.89 412.881
547 0 171.274 12.3428 2114 74.9484 1343.11 411.569
548 0 176.266 12.8726 2269 73.3777 1343.58 417.267
549 0 178.364 12.7099 2267 74.1544 1343.01 405.893
550 0 183.402 11.6901 2144 76.4949 1343.99 404.718
551 0 188.301 13.197 2485 75.6121 1342.43 401.674
552 0 196.314 12.2813 2411 76.5591 1342.64 401.953
553 0 199.307 13.1606 2623 75.5783 1342.95 395.319
554 0 206.235 13.0337 2688 75.76 1342.89 397.618
555 0 212.474 12.9475 2751 74.8986 1343.06 389.694
556 1 158.139 10.9271 1728 75.456 1344.35 419.463
557 0 164.223 12.5317 2058 74.8557 1343.63 420.143
558 0 167.342 11.6587 1951 71.6397 1342.76 419.58
559 0 168.286 11.6706 1964 73.5087 1343.43 415.994
560 0 165.248 11.2861 1865 75.6172 1343.54 412.721
561 0 165.197 10.1515 1677 78.5027 1343.87 410.088
562 0 170.211 11.7442 1999 76.3572 1342.79 415.851
563 0 170.219 10.6686 1816 79.4328 1342.65 415.075
564 0 173.237 12.3992 2148 76.554 1342.47 414.656
565 0 174.113 10.0796 1755 79.9385 1342.57 413.945
566 0 181.271 11.0222 1998 77.9159 1343.27 410.326
567 0 187.133 11.9273 2232 75.6998 1342.42 407.177
568 0 195.246 11.6725 2279 75.2286 1343.34 410.257
569 0 199.233 9.44123 1881 77.3349 1342.45 403.835
570 0 205.347 12.2427 2514 74.0772 1342.91 392.672
571 0 213.339 11.5544 2465 74.0028 1342.58 391.256
572 1 150.278 11.6118 1745 70.6596 1342.78 427.791
573 0 155.17 13.4368 2085 69.6154 1342.04 425.853
574 0 158.233 12.2667 1941 70.0186 1342.86 422.013
575 0 160.243 11.2142 1797 74.5081 1342.89 413.284
576 0 165.182 13.9845 2310 74.5152 1343.2 411.011
577 0 168.305 10.8018 1818 75.28 1342.44 415.536
578 0 170.19 6.76892 1152 78.3325 1343.08 422.169
579 0 175.198 9.78321 1714 78.0257 1342.14 412.85
580 0 176.159 10.6835 1882 82.9947 1341.95 395.15
581 0 185.36 10.6118 1967 80.6457 1341.59 409.152
582 1 141.25 10.6691 1507 80.6496 1342.68 427.666
583 0 146.154 10.3384 1511 80.4474 1342.37 423.491
584 0 147.162 10.9879 1617 79.9196 1343.44 423.404
585 0 150.242 10.7427 1614 81.9331 1342.63 424.279
586 0 154.216 10.0898 1556 83.5675 1342.72 418.171
587 0 156.308 10.1402 1585 85.048 1342.53 416.575
588 0 155.154 10.4606 1623 90.3118 1343.59 403.973
589 0 166.282 10.9693 1824 91.8701 1343.06 408.282
590 0 176.224 12.5919 2219 93.1568 1343.1 412.792
591 0 180.374 12.5295 2260 89.1035 1342.91 411.693
592 0 184.226 11.3882 2098 91.2712 1343.41 407.876
593 1 130.13 8.6913 1131 90.3245 1343.12 432.676
594 0 138.225 10.4322 1442 89.1512 1343.2 437.078
595 0 140.24 10.8743 1525 93.0177 1342.54 428.024
596 0 143.37 11.7947 1691 95.9894 1342.91 428.124
597 0 149.386 12.2903 1836 96.0152 1342.7 424.92
598 0 152.43 11.3167 1725 97.629 1342.33 424.642
599 0 159.496 12.5395 2000 95.4515 1343.09 420.06
600 0 163.482 12.6497 2068 96.6117 1341.91 413.62
601 0 167.336 12.197 2041 97.9045 1343 413.582
602 1 178.305 11.0092 1963 98.6679 1342.42 417.725
603 0 177.147 11.5328 2043 99.9824 1342.14 410.428
604 0 184.335 13.1446 2423 97.2559 1341.34 407.358
605 0 189.213 12.0605 2282 99.1652 1342.09 406.785
606 0 192.144 12.7769 2455 100.496 1341.5 395.583
607 0 200.232 12.935 2590 99.5031 1341.94 397.537
608 0 204.23 12.0747 2466 101.177 1342.19 391.899
609 0 210.28 12.0221 2528 101.494 1342.25 391.404
610 0 217.208 11.4544 2488 103.358 1342.05 382.877
611 1 157.222 10.7873 1696 91.5631 1342.03 423.672
612 0 159.159 11.1398 1773 96.0953 1341.78 417.808
613 0 166.263 11.157 1855 96.0852 1342 412.57
614 0 171.277 10.3166 1767 97.9378 1341.71 412.498
615 0 176.214 10.6972 1885 98.4944 1342.15 408.371
616 0 182.276 10.4402 1903 101.073 1341.82 404.418
617 0 189.379 11.7647 2228 99.1881 1342.34 403.441
618 0 196.262 11.3828 2234 101.384 1342.4 400.641
619 0 201.366 11.4418 2304 102.038 1341.32 397.649
620 0 209.327 11.9621 2504 100.392 1343.1 391.503
621 0 212.425 11.7218 2490 101.799 1342.88 382.892
622 0 220.353 11.2456 2478 102.617 1341.94 384.011
623 0 224.405 10.49 2354 104.274 1341.89 378.593
624 0 236.437 11.6564 2756 101.649 1342.23 379.374
625 0 243.434 11.5267 2806 100.966 1342.23 371.682
626 0 249.445 10.9483 2731 102.528 1340.56 368.915
627 0 259.663 12.6626 3288 97.8428 1341.09 372.339
628 0 266.559 11.2508 2999 101.677 1340.51 360.542
629 0 275.465 13.283 3659 96.4132 1341.25 357.99
630 0 284.658 12.5695 3578 99.2524 1341.38 353.2
631 0 289.626 11.6599 3377 101.046 1341.22 339.777
632 0 300.706 12.3576 3716 98.5056 1340.95 343.224
633 0 306.394 11.6256 3562 99.3543 1342.35 332.704
634 1 241.382 11.517 2780 97.0047 1341.64 375.333
635 0 248.367 11.4025 2832 96.9604 1342.4 367.819
636 0 256.388 11.5723 2967 95.9781 1341.53 370.168
637 1 19.0012 4.05238 77 68.7273 1342.66 493.727
638 0 15.0064 1.66596 25 70.88 1342.08 495.48
639 0 18.0336 3.65984 66 68.2121 1342.94 491.242
640 0 16.0179 3.99552 64 68.6875 1341.33 492.766
641 0 17.0215 5.58119 95 64.421 1342.91 490.505
642 0 18.0049 6.22054 112 60.8571 1343.88 491.232
643 0 18.0217 5.71533 103 65.7864 1342.98 485.971
644 0 10.0013 4.39944 44 65.2727 1342.61 486.25
645 0 0 0 2.1222e-313 -nan 1.2732e-313 8.51533e-317
646 0 0 0 0 -nan -nan -nan
647 1 17.0121 3.29177 56 71.0357 1343.7 489.589
648 0 11.0017 1.81789 20 71.2 1343.85 489.1
649 0 12.0018 1.91638 23 65.9565 1343.13 482.435
650 1 310.624 11.2419 3492 91.9711 1342.49 322.162
651 0 311.389 12.7975 3985 91.4258 1342.06 314.505
652 0 347.978 16.0815 5596 85.797 1342.94 262.203
654 0 325.938 14.828 4833 88.9971 1343.69 244.158
655 0 331.111 15.5024 5133 87.0503 1342.2 251.757
656 0 332.549 15.8082 5257 86.9559 1342.14 253.434
657 0 327.671 15.308 5016 85.2323 1341.39 263.08
658 0 336.799 14.3557 4835 86.7191 1342.3 289.371
659 0 349.74 17.2585 6036 82.5138 1342.76 296.618
660 0 357.832 14.1212 5053 88.0467 1342.92 290.404
661 0 372.92 14.9255 5566 87.9502 1342 286.934
662 0 382.034 14.2396 5440 90.5886 1342.18 287.201
663 0 395.887 15.4135 6102 89.0685 1342.32 283.559
664 0 202.827 9.60915 1949 86.5413 1341.93 397.398
665 0 208.509 10.46 2181 80.591 1341.87 390.616
666 0 216.376 12.2379 2648 83.2662 1342.2 393.647
667 0 225.486 14.5552 3282 79.2742 1341.91 383.716
668 0 231.48 14.9775 3467 76.1834 1342.06 378.07
669 0 234.507 14.3109 3356 77.2589 1343.17 377.954
670 0 242.361 13.9173 3373 77.724 1342.74 373.546
671 0 250.409 14.5961 3655 76.7748 1342.98 375.712
672 0 260.456 15.9989 4167 75.1054 1343.1 365.565
673 0 268.641 16.7994 4513 74.9368 1342.36 369.445
674 0 276.549 14.3736 3975 79.3386 1342 359.308
675 0 287.61 18.2087 5237 74.0947 1341.97 358.369
676 0 297.554 15.1266 4501 78.5983 1343.25 349.644
677 0 305.671 15.0391 4597 81.1268 1341.93 342.368
678 1 135.551 9.33966 1266 78.0932 1343.48 433.727
679 0 142.449 10.1932 1452 76.8953 1343.15 431.78
680 0 148.413 11.8251 1755 75.9031 1342.94 428.94
681 0 152.562 11.864 1810 76.3707 1342.87 428.657
682 0 154.527 11.5708 1788 77.9614 1343.31 419.653
683 0 160.349 11.7057 1877 78.8087 1343.23 416.533
684 0 165.636 10.0824 1670 81.7994 1343.26 416.13
685 0 170.794 11.0894 1894 80.368 1341.84 412.54
686 0 181.752 16.9902 3088 69.694 1342.82 398.752
687 1 109.498 11.7354 1285 72.1315 1343.08 447.96
688 0 114.323 10.0767 1152 71.8464 1343.97 447.326
689 0 113.335 8.67341 983 73.3652 1342.77 445.912
690 0 116.224 9.16338 1065 73.8066 1343.19 435.049
691 0 122.265 8.45703 1034 76.1586 1343.12 435.797
692 0 125.212 8.82506 1105 76.5448 1342.96 437.408
693 0 127.345 9.51746 1212 77.5718 1343.42 431.348
694 0 132.241 9.18777 1215 83.1325 1342.99 428.015
695 0 138.363 10.7326 1485 78.835 1343.36 433.526
696 0 143.777 11.4552 1647 80.2611 1342.62 429.539
697 0 148.598 13.2572 1970 79.3812 1342.97 429.904
698 0 149.288 12.6199 1884 81.9724 1343.62 425.835
699 0 145.24 12.4965 1815 85.6264 1343.79 419.92
700 0 148.225 10.9496 1623 89.9458 1343.23 415.753
701 1 90.2293 10.3403 933 86.9003 1342.6 442.538
702 0 97.2216 9.29834 904 87.5708 1343.93 442.726
703 0 97.1305 12.8487 1248 81.5064 1344.33 441.883
704 0 101.264 12.8377 1300 81.7985 1343.58 439.415
705 0 100.196 10.9885 1101 84.4886 1342.56 441.579
706 0 103.112 10.6001 1093 83.1016 1344.13 434.942
707 0 106.2 10.1318 1076 84.3513 1343.72 435.19
708 0 108.168 11.1678 1208 83.9156 1342.95 433.905
709 0 110.111 10.4985 1156 87.0138 1343.69 428.763
710 0 112.18 11.0894 1244 87.7476 1343.37 426.031
711 0 114.17 11.3253 1293 87.0271 1343.93 428.964
712 0 116.181 11.7919 1370 88.1993 1343.54 423.793
713 0 124.299 11.6815 1452 86.9008 1343.85 423.539
714 0 123.207 11.8987 1466 87.7149 1343.96 422.812
715 0 124.164 10.317 1281 92.4621 1343.87 415.258
716 0 124.243 11.0831 1377 91.8824 1343.69 413.248
717 0 129.144 13.4191 1733 87.5724 1344.1 415.07
718 0 132.212 12.8127 1694 90.1535 1343.12 410.012
719 0 142.275 12.2228 1739 89.663 1343.94 408.724
720 0 141.348 13.5127 1910 87.9293 1343.52 406.548
721 0 149.255 13.7282 2049 86.2977 1343.97 405.352
722 0 149.214 11.4802 1713 91.4495 1343.89 395.983
723 0 166.305 12.3628 2056 87.9985 1344.1 399.617
724 0 158.18 12.8841 2038 90.0913 1343.17 392.282
725 0 166.175 13.0886 2175 89.6142 1343.46 393.358
726 1 194.424 9.60789 1868 91.387 1343.04 399.706
727 0 187.301 8.76665 1642 96.93 1342.53 383.225
728 0 185.267 12.1932 2259 92.6507 1343.8 379.471
729 0 191.322 14.6246 2798 88.8106 1342.88 378.082
730 0 195.212 13.1191 2561 92.51 1343.08 371.547
731 0 205.324 12.8334 2635 91.7818 1342.85 373.689
732 1 2 2.5 5 59.4 1345 489.2
733 0 4 3.75 15 58.8667 1345.33 490.6
734 0 8.00039 3.37483 27 59.2593 1344.93 485
735 0 7 1.42857 10 63.2 1345.6 488.6
736 1 186.216 11.4437 2131 88.1553 1342.48 396.107
737 0 196.375 12.7715 2508 85.0734 1344 402.476
738 0 201.306 9.23965 1860 90.2247 1343.22 385.845
739 0 210.444 10.2973 2167 87.5279 1343.02 389.401
740 0 218.218 10.8699 2372 87.6324 1342.85 382.669
741 0 224.251 10.9342 2452 88.7814 1342.96 379.078
742 0 231.419 11.356 2628 88.6686 1343.19 373.244
743 0 239.511 11.0517 2647 90.2644 1342.19 369.102
744 0 247.462 11.8564 2934 89.3773 1343.11 371.907
745 0 254.41 12.0593 3068 91.1877 1342.11 365.817
746 0 263.503 12.2617 3231 91.1328 1342.77 359.396
747 0 265.317 12.5473 3329 92.1066 1342.84 351.658
748 0 269.305 6.78414 1827 102.155 1342.76 349.805
749 1 252.507 5.32659 1345 92.8164 1342.67 402.194
750 0 251.272 6.45515 1622 96.4038 1343.7 381.3
751 0 252.315 8.42993 2127 94.661 1342.7 378.212
752 0 253.352 9.70588 2459 93.4595 1343.44 377.044
753 0 252.469 12.2431 3091 90.9867 1342.44 364.727
754 0 257.709 11.1793 2881 93.8865 1342.89 353.141
755 0 268.585 11.4414 3073 93.2382 1342.18 346.026
756 1 279.675 11.9889 3353 91.7468 1343 351.741
757 0 288.613 11.1048 3205 94.6515 1342.23 345.726
758 0 359.849 18.9691 6826 73.6524 1340.89 314.281
759 0 305.71 15.2072 4649 88.051 1341.81 329.037
760 1 75.1256 11.4209 858 75.0874 1344.76 468.974
761 0 75.0916 10.3873 780 78.0641 1344.62 466.146
762 0 74.1783 7.99426 593 81.4604 1344.62 465.307
763 0 77.2272 9.16775 708 84.3206 1341.99 463.267
764 0 81.1352 10.1436 823 84.2041 1341.34 464.977
765 0 82.1752 10.2342 841 83.6457 1342.01 464.407
766 0 82.1617 10.7714 885 81.9695 1342.77 462.951
767 0 84.1629 9.54103 803 84.3151 1341.94 460.365
768 0 87.2186 9.42459 822 83.9428 1341.7 463.768
769 1 15.0031 5.46553 82 70.3537 1342.76 496.451
770 0 8 0.875 7 76.7143 1344.57 501.286
771 1 96.1246 11.0898 1066 81.742 1341.83 457.182
772 0 97.1675 11.3001 1098 82.4463 1342.19 455.968
773 0 101.277 10.2294 1036 83.5647 1341.64 452.783
774 0 102.087 11.3825 1162 75.3184 1342.65 455.355
775 0 413.048 14.744 6090 84.8647 1340.92 275.751
776 0 148.76 11.616 1728 68.7442 1343.1 442.284
777 0 153.889 22.6981 3493 55.0249 1341.92 422.828
778 0 147.504 15.586 2299 65.3636 1343.13 439.137
779 0 138.335 21.5781 2985 60.1856 1341.71 424.084
780 0 132.257 16.0521 2123 72.0843 1341.94 436.843
781 1 77.1502 10.3694 800 76.19 1342.29 466.704
782 0 79.1568 9.02007 714 78.0406 1341.87 468.929
783 0 78.2244 9.76678 764 78.9058 1341.62 466.031
784 0 83.1147 10.9126 907 77.667 1342.15 463.126
785 0 86.135 11.6677 1005 79.1393 1340.99 462.354
786 0 91.2433 11.8146 1078 89.5213 1343.61 437.57
787 0 95.2435 12.6938 1209 86.7452 1343.68 438.739
788 0 95.291 13.1387 1252 87.5184 1344.38 436.688
789 0 96.3237 12.2607 1181 89.6368 1343.72 441.558
790 0 103.208 12.4893 1289 86.9403 1343.32 447.247
791 0 104.139 12.2432 1275 87.5749 1343.72 443.822
792 0 108.182 14.2723 1544 84.7584 1343.65 441.459
793 0 110.176 13.9142 1533 86.2935 1343.68 443.98
794 0 108.19 13.3469 1444 89.6496 1343.75 446.598
795 0 113.191 12.8633 1456 91.8832 1342.32 445.087
796 0 116.207 12.8306 1491 92.2066 1342.84 447.862
797 0 119.198 14.3039 1705 92.3525 1341.4 449.48
798 0 122.13 13.8623 1693 88.671 1341.67 448.126
799 0 125.169 12.9266 1618 89.8986 1341.79 442.857
800 0 129.218 14.8509 1919 90.2298 1342.02 443.945
801 1 74.0743 8.23497 610 90.5344 1342.41 459.177
802 0 70.0528 9.53566 668 89.8608 1341.91 458.271
803 0 74.2287 12.0708 896 78.3315 1341.97 460.141
804 0 81.1515 9.67326 785 82.656 1340.73 457.841
805 0 78.0266 12.3291 962 80.8524 1341.61 453.733
806 0 82.067 10.857 891 84.1571 1341.67 452.273
807 0 84.2264 10.5905 892 89.1043 1341.31 449.45
808 0 90.1699 11.5227 1039 86.6862 1341.12 449.99
809 0 90.1045 11.298 1018 87.7976 1341.27 447.313
810 0 96.1614 11.4391 1100 87.0527 1341.58 450.846
811 0 104.196 12.2269 1274 94.3179 1340.89 455.378
812 0 107.151 12.2164 1309 94.0672 1341.27 453.133
813 0 112.165 12.33 1383 93.632 1341.32 450.333
814 0 113.225 12.5326 1419 92.8457 1340.11 446.876
815 0 117.144 12.045 1411 92.4514 1341.83 445.089
816 0 121.179 12.9726 1572 89.0744 1341.43 447.396
817 0 125.269 13.7065 1717 86.4304 1340.69 445.436
818 0 128.204 12.7531 1635 87.3236 1340.84 441.911
819 0 131.159 11.8635 1556 88.6125 1341.38 438.851
820 0 134.278 11.1634 1499 89.9159 1341.35 434.797
821 0 140.17 12.1424 1702 87.8813 1340.85 432.865
822 1 84.1075 10.7125 901 81.606 1341.38 465.275
823 0 85.0916 13.1623 1120 81.1384 1340.75 464.692
824 0 88.07 11.7861 1038 81.0347 1341.58 459.934
825 0 91.1534 11.6507 1062 81.0386 1342.34 458.976
826 0 94.1276 13.3223 1254 80.7847 1342.23 458.398
827 0 97.0949 11.9471 1160 83.7302 1342.04 458.624
828 0 98.0889 10.8779 1067 86.2446 1342.7 453.854
829 0 102.053 12.6405 1290 83.7643 1342.21 455.198
830 0 105.103 12.483 1312 85.298 1342.77 449.037
831 0 111.115 13.9855 1554 82.0676 1342.05 448.055
832 0 115.236 14.44 1664 81.0956 1342.34 449.647
833 0 116.214 12.6319 1468 85.4196 1341.67 445.791
834 0 117.144 11.2767 1321 88.6404 1341.37 437.812
835 0 126.284 12.8362 1621 90.2178 1341.34 439.461
836 0 131.245 13.0824 1717 91.1893 1340.95 439.052
837 0 134.279 12.7868 1717 90.3075 1341.9 436.39
838 0 136.242 11.7438 1600 93.3444 1341.23 430.921
839 0 139.285 12.1908 1698 88.9888 1341.68 426.286
840 1 76.3342 10.8077 825 89.9539 1341.4 455.366
841 0 82.1389 13.3311 1095 84.6073 1341.76 456.556
842 0 86.0561 11.4228 983 86.7569 1341.53 459.5
843 0 87.066 12.9787 1130 84.2327 1342.92 453.487
844 0 87.1113 13.0293 1135 85.7797 1342.08 451.949
845 0 87.0673 10.4861 913 88.1117 1343.2 450.771
846 0 94.275 13.3015 1254 83.1116 1342.9 453.839
847 0 96.0638 12.4292 1194 85.4028 1342.07 449.04
848 0 100.041 12.5749 1258 85.2583 1343.29 451.25
849 0 99.0988 12.7247 1261 86.023 1343.08 445.385
850 0 105.158 11.7633 1237 87.1609 1342.4 445.618
851 0 110.142 12.2841 1353 85.6948 1342.48 443.327
852 0 111.105 10.7375 1193 88.9153 1342.68 441.968
853 0 116.166 12.7576 1482 85.5587 1342.51 440.033
854 0 124.181 12.6106 1566 85.5013 1342.47 438.703
855 0 125.154 12.2169 1529 86.6233 1343.02 435.307
856 0 132.248 10.4803 1386 89.5267 1341.73 433.227
857 1 74.0918 10.4195 772 88.3614 1343.1 457.728
858 0 79.1482 12.167 963 84.3198 1342.67 459.549
859 0 81.1079 12.3909 1005 84.0358 1342.12 458.606
860 0 86.1734 13.1363 1132 82.4452 1341.32 457.988
861 0 88.1086 11.7128 1032 85.499 1341.59 455.17
862 0 89.2191 13.394 1195 83.2837 1341.78 451.861
863 0 95.1404 13.1175 1248 83.222 1341.48 453.127
864 0 97.1773 15.2299 1480 79.7892 1341 454.341
865 0 95.1661 12.2312 1164 85.7818 1341.62 451.155
866 0 102.24 14.0846 1440 81.9431 1341.48 450.05
867 0 100.125 12.4044 1242 85.0161 1342.28 446.341
868 0 104.1 12.6033 1312 86.1311 1341.92 446.838
869 0 108.14 14.4534 1563 83.4728 1341.36 441.505
870 0 113.186 14.3658 1626 83.2183 1342.21 442.872
871 0 118.071 12.7466 1505 85.6472 1342.04 444.138
872 0 123.382 14.7833 1824 83.7083 1341.68 434.261
873 0 128.285 13.7428 1763 85.3097 1341.86 433.736
874 0 132.333 12.7103 1682 88.2235 1341.64 426.863
875 1 76.0913 11.4336 870 86.5149 1341.99 461.229
876 0 76.1047 10.906 830 87.9964 1340.75 461.933
877 0 82.0634 12.3929 1017 83.4779 1342.05 463.411
878 0 84.0628 12.0981 1017 84.7886 1341.1 459.194
879 0 87.1104 14.0282 1222 83.1514 1341.23 457.515
880 0 89.0899 11.4042 1016 87.9183 1341.75 456.507
881 0 90.1098 12.507 1127 87.055 1342.4 456.092
882 0 96.1147 14.2122 1366 82.8111 1342.65 455.34
883 0 98.1786 13.6282 1338 84.6644 1341.49 452.578
884 0 101.19 13.3314 1349 85.9266 1341.93 449.892
885 0 104.151 13.0292 1357 85.9086 1342.46 447.056
886 0 108.094 12.5723 1359 86.6946 1342.39 448.792
887 0 110.189 11.689 1288 88.7104 1342.7 441.746
888 0 115.263 14.5494 1677 83.7961 1342.73 441.569
889 0 117.213 13.531 1586 85.7333 1342.77 440.84
890 0 126.311 13.8389 1748 84.0097 1342.11 437.437
891 0 128.155 13.8972 1781 84.0994 1342.66 431.72
892 0 132.171 14.3147 1892 84.3319 1342.32 431.212
893 0 137.326 14.4401 1983 83.8714 1342.19 424.703
894 0 138.171 12.0214 1661 88.4503 1341.72 427.281
895 0 145.118 10.55 1531 89.3449 1342.72 427.522
896 0 149.176 12.1467 1812 87.8725 1342.96 418.318
897 0 155.333 12.5408 1948 86.1812 1342.35 422.412
898 1 87.1643 10.6351 927 84.1446 1341.78 452.711
899 0 93.0491 10.6718 993 84.0131 1342.27 448.476
900 0 100.277 13.1237 1316 85.9278 1341.63 453.022
901 0 103.126 13.1877 1360 84.9603 1342.05 450.016
902 0 108.095 14.3023 1546 79.8926 1341.72 451.639
903 0 110.093 14.4151 1587 80.7448 1341.71 451.645
904 0 113.202 13.2418 1499 83.9726 1341.93 444.458
905 0 118.129 15.6692 1851 80.9735 1342.43 443.121
906 0 119.115 13.0546 1555 85.7318 1341.02 441.188
907 0 124.151 14.0152 1740 82.7736 1342.14 442.467
908 0 129.127 14.6291 1889 81.6263 1341.73 436.201
909 0 132.222 13.4622 1780 83.3551 1342.07 432.51
910 0 131.112 13.5381 1775 83.7037 1341.9 432.494
911 0 136.209 13.0975 1784 82.8447 1341.88 428.137
912 0 144.3 13.2779 1916 83.2218 1341.67 423.825
913 0 148.322 13.9224 2065 81.1235 1342.72 422.78
914 0 151.267 12.5606 1900 83.84 1342.21 421.378
915 0 161.372 12.2574 1978 84.1375 1341.85 417.506
916 0 169.332 13.4529 2278 81.3494 1342.26 418.206
917 0 176.227 13.1705 2321 82.5373 1341.75 406.724
918 1 188.429 14.7111 2772 79.368 1341.47 407.907
919 0 192.525 14.0709 2709 81.0447 1341.11 400.678
920 0 198.587 13.8579 2752 81.6955 1341.96 398.707
921 0 207.296 14.4913 3004 81.1222 1341.63 394.448
922 0 215.245 14.2396 3065 82.325 1341.09 396.638
923 0 223.481 14.3189 3200 83.1716 1341.13 386.712
924 0 231.587 14.0681 3258 82.834 1341.23 382.878
925 1 181.285 13.9394 2527 83.9442 1342.08 408.853
926 0 188.372 14.1476 2665 84.066 1342.37 404.486
927 0 195.324 15.5639 3040 82.4105 1341.35 401.098
928 0 202.326 15.0747 3050 83.199 1341.35 400.022
929 0 210.228 14.1893 2983 84.702 1341.7 395.883
930 0 214.294 14.8394 3180 84.5456 1341.79 394.638
931 1 244.36 11.0043 2689 89.4868 1341.69 392.508
932 0 237.356 10.4021 2469 91.8032 1341.7 380.378
933 0 244.343 14.6065 3569 85.3135 1342.5 380.012
934 0 251.43 14.167 3562 86.6325 1342.15 377.035
935 0 260.386 14.6398 3812 87.0231 1341.7 376.684
936 0 269.454 14.83 3996 87.991 1342.09 363.862
937 1 326.577 13.8038 4508 89.9503 1341 347.074
938 1 361.909 26.1198 9453 69.5309 1340.11 286.601
939 1 341.56 12.8674 4395 90.2874 1341.61 355.191
940 0 341.665 10.2937 3517 93.3364 1341.54 366.777
941 1 85.1068 12.2434 1042 77.928 1342.63 463.464
942 0 87.1042 10.8606 946 80.4408 1342.36 462.842
943 0 87.1042 10.8376 944 130.319 1342.35 462.709
944 0 97.1681 14.9741 1455 80.545 1341.55 459.237
945 0 101.142 13.5256 1368 82.0665 1342.31 457.48
946 0 103.152 12.3022 1269 86.2734 1341.41 451.855
947 0 108.136 12.6137 1364 85.7705 1341.81 450.842
948 0 111.154 11.4165 1269 87.7518 1341.55 450.214
949 0 116.126 13.27 1541 84.8462 1342.46 449.635
950 0 119.14 12.3552 1472 86.8784 1342.27 442.961
951 0 122.172 12.286 1501 87.4157 1342.47 440.524
952 1 71.1996 11.222 799 86.607 1341.95 467.208
953 0 72.0934 12.5532 905 84.4784 1342.34 465.339
954 0 75.2439 11.8814 894 84.4608 1342.03 466.007
955 0 80.2014 13.4038 1075 88.507 1342.8 468.062
956 0 82.2848 12.6512 1041 91.7339 1341.82 463.701
957 0 87.2323 14.7079 1283 87.3094 1342.37 463.952
958 0 87.2614 13.1788 1150 91.6417 1341.95 461.217
959 0 89.1766 13.0864 1167 92.0343 1342.25 460.888
960 0 92.4053 13.2676 1226 91.907 1341.02 460.29
961 0 96.2391 14.7965 1424 87.4522 1342.59 457.657
962 0 97.2499 13.7584 1338 93.4933 1341.5 453.824
963 0 100.32 12.8089 1285 94.8467 1342.18 456.541
964 0 103.282 13.6713 1412 95.5446 1342.07 449.648
965 0 108.364 14.0636 1524 92.9626 1342.53 454.041
966 0 111.14 13.9643 1552 93.1153 1341.92 450.231
967 0 115.157 13.4425 1548 94.2881 1341.35 447.947
968 0 118.314 14.0728 1665 93.4547 1341.49 447.706
969 0 121.408 14.1754 1721 95.2231 1341.85 445.49
970 0 126.307 14.6785 1854 92.3781 1341.41 445.224
971 0 127.224 13.8889 1767 95.296 1341.23 441.792
972 0 132.314 14.0348 1857 94.8804 1341.65 440.918
973 0 138.183 15.038 2078 92.3754 1342.64 437.81
974 0 141.329 14.3849 2033 94.666 1341.62 435.649
975 0 147.127 14.5996 2148 93.6606 1342.62 435.671
976 1 82.1934 13.7481 1130 95.7168 1342.09 463.202
977 0 83.1048 13.7657 1144 95.8182 1341.79 463.479
978 0 88.2574 14.6503 1293 93.7417 1342.37 460.455
979 0 88.2574 14.5823 1287 155.185 1343.38 460.433
980 0 92.2147 13.4469 1240 97.8379 1341.65 459.6
981 0 96.1377 14.3024 1375 95.8305 1341.37 457.844
982 0 100.145 15.238 1526 93.3696 1341.61 457.272
983 0 103.197 15.4849 1598 93.5063 1341.44 454.734
984 0 105.161 13.9595 1468 97.4012 1342.21 452.14
985 0 111.15 13.9091 1546 97.1947 1342.13 451.686
986 0 114.24 15.5286 1774 95.1404 1341.65 447.961
987 0 117.183 14.3109 1677 98.056 1341.98 445.786
988 0 124.185 15.1789 1885 94.7088 1342.44 446.333
989 0 128.181 15.6264 2003 95.4703 1341.3 440.089
990 0 131.208 15.1897 1993 96.2449 1342.48 440.144
991 0 136.227 14.8355 2021 96.902 1341.85 439.619
992 0 142.255 14.2139 2022 97.8502 1342.13 438.348
993 0 146.204 14.0763 2058 99.2959 1341.53 433.525
994 0 154.148 14.0255 2162 99.012 1342.27 431.6
995 0 160.183 15.9755 2559 94.8101 1341.78 429.437
996 0 166.206 15.4447 2567 96.4098 1341.49 425.402
997 0 173.348 15.3103 2654 95.691 1341.9 420.753
998 0 178.111 14.8391 2643 95.1759 1342.61 419.617
999 0 184.164 14.2644 2627 96.1355 1342.6 416.625
1000 0 190.289 15.839 3014 93.493 1341.63 412.241
1001 0 197.294 14.7394 2908 95.6836 1342.14 408.679
1002 0 206.318 15.0884 3113 94.2583 1342.54 405.062
1003 0 212.21 14.6883 3117 95.5865 1342.58 401.57
1004 1 222.13 15.4009 3421 94.3271 1342.51 396.524
1005 0 232.502 15.0838 3507 95.1141 1342.2 392.931
1006 0 240.281 15.9605 3835 93.9142 1342.61 387.013
1007 1 52.0486 11.3356 590 92.0085 1342.51 478.858
1008 0 55.0671 13.0205 717 88.6918 1343.26 477.736
1009 0 59.0564 13.6988 809 92.1805 1342.83 475.931
1010 0 61.0903 13.5537 828 93.4879 1342.82 473.787
1011 0 63.1155 14.4655 913 92.3505 1343.33 472.301
1012 0 66.0973 14.1458 935 93.0973 1343.51 471.652
1013 0 67.1176 12.5004 839 97.5209 1343.19 471.163
1014 0 71.2224 14.9812 1067 92.5305 1343.01 470.961
1015 0 74.1384 14.8776 1103 93.9112 1343.23 468.795
1016 0 75.221 13.919 1047 96.0821 1342.64 469.693
1017 0 77.0687 14.792 1140 96.0518 1342.75 467.54
1018 0 80.1265 14.2899 1145 96.8507 1342.67 468.048
1019 0 84.1211 15.8343 1332 94.301 1343.65 464.553
1020 0 86.1002 15.5284 1337 97.1137 1342.95 461.875
1021 0 89.1115 13.9713 1245 100.163 1342.82 461.197
1022 0 93.1425 14.4188 1343 100.036 1343.17 460.632
1023 1 110.557 22.7485 2515 78.0159 1342.41 446.212
1024 0 111.425 21.9431 2445 80.8127 1342.76 444.127
1025 0 108.123 18.2292 1971 91.169 1343.57 450.338
1026 0 110.235 16.5375 1823 96.1854 1343.05 450.21
1027 0 112.129 15.5891 1748 98.2071 1342.73 450.697
1028 1 63.0252 15.0257 947 99.8458 1342.75 475.289
1029 0 67.1186 15.927 1069 97.8419 1342.61 472.935
1030 0 67.1693 14.3667 965 103.116 1342.28 471.762
1031 0 72.0693 15.2076 1096 99.4179 1343.58 470.255
1032 0 74.0954 16.4518 1219 97.808 1343.38 466.415
1033 0 76.1285 14.9616 1139 102.441 1342.2 465.249
1034 0 85.0827 20.2039 1719 87.7004 1343.86 461.218
1035 0 86.2028 16.8788 1455 96.0674 1342.97 460.33
1036 1 103.075 21.9549 2263 78.8939 1342.33 449.752
1037 0 113.856 18.5761 2115 83.6095 1342.25 452.579
1038 0 111.636 24.6516 2752 75.8696 1342.21 447.667
1039 0 107.507 21.8497 2349 83.4142 1342.77 448.128
1040 0 111.223 20.8859 2323 86.3276 1342.31 449.982
1041 0 110.229 27.4972 3031 77.1801 1342.07 440.5
1042 0 110.143 19.4838 2146 93.5019 1342.8 451.243
1043 0 110.173 18.9157 2084 97.0398 1343.24 450.507
1044 0 111.204 15.9796 1777 105.118 1343.18 451.634
1045 0 113.121 15.8591 1794 107.386 1342.64 450.452
1046 0 118.314 17.3774 2056 104.231 1342.21 450.121
1047 0 121.212 16.3103 1977 108.306 1342.16 446.078
1048 0 124.13 15.8624 1969 110.488 1342.74 444.351
1049 0 128.129 16.2492 2082 109.958 1342.3 443.381
1050 0 133.326 17.0635 2275 107.544 1342.74 440.899
1051 0 138.131 16.8608 2329 108.654 1342.16 437.94
1052 0 144.113 16.7022 2407 108.626 1342.77 436.439
1053 0 147.263 15.8356 2332 111.312 1342.76 435.035
1054 0 153.262 15.4703 2371 112.077 1343.14 432.706
1055 0 161.285 17.1188 2761 107.983 1343.13 429.102
1056 0 165.13 16.1933 2674 110.968 1342.88 424.866
1057 0 172.206 15.406 2653 112.423 1342.85 422.449
1058 0 179.311 16.9649 3042 108.601 1343.04 418.59
1059 1 75.1913 13.4856 1014 113.647 1342.95 469.227
1060 0 80.0888 15.1831 1216 110.808 1342.51 466.474
1061 0 82.1116 14.7239 1209 113.296 1343.36 463.257
1062 0 84.0481 14.1942 1193 113.5 1343.77 462.707
1063 0 90.0875 15.385 1386 110.057 1343.9 461.585
1064 0 95.174 16.0233 1525 108.695 1342.99 458.8
1065 0 99.1444 15.0992 1497 109.036 1343.47 456.895
1066 0 103.087 14.8322 1529 109.006 1342.63 453.881
1067 0 103.087 14.8322 1529 171.428 1341.62 453.914
1068 1 50.0443 13.7079 686 105.128 1343.67 480.468
1069 0 49.0594 14.1461 694 103.915 1344.03 480.628
1070 0 51.0362 14.6367 747 104.629 1342.9 478.353
1071 0 54.0499 14.0241 758 105.268 1343.39 477.252
1072 0 56.0517 13.8979 779 104.858 1343.48 478.295
1073 0 56.0417 15.2565 855 104.51 1342.99 475.339
1074 0 56.0576 14.3245 803 108.239 1343.26 474.244
1075 0 60.1707 14.891 896 107.109 1342.94 474.077
1076 0 59.04 13.8889 820 111.998 1342.96 473.479
1077 0 62.1163 13.5874 844 112.479 1343.08 473.22
1078 0 64.046 16.3632 1048 107.801 1342.93 471.21
1079 0 66.1499 15.4044 1019 109.661 1343.48 471.282
1080 0 65.0837 14.7349 959 114.366 1342.92 470.507
1081 0 66.0858 14.8595 982 114.69 1343.44 468.991
1082 0 71.0464 16.1584 1148 111.276 1343.05 468.098
1083 0 73.0919 16.5955 1213 111.007 1343 466.814
1084 0 77.1507 15.3855 1187 113.596 1343.24 464.924
1085 0 77.0562 15.1318 1166 116.043 1343.93 461.671
1086 0 81.1856 15.286 1241 113.633 1344.54 463.126
1087 1 28.0049 10.9267 306 83.8431 1343.58 486.003
1088 0 27.0127 8.58854 232 86.7672 1343.34 488.272
1089 0 30.0144 7.46308 224 89.0848 1343.67 486.549
1090 0 29.1065 8.10815 236 88.7542 1343.88 487.085
1091 0 31.0047 7.77302 241 89.0788 1344.22 488.054
1092 0 29.0147 8.68526 252 90.9722 1342.64 487.698
1093 0 30.0237 9.0595 272 90.3235 1344.14 485.893
1094 0 32.0314 10.4273 334 89.4581 1343.2 485.937
1095 0 32.0433 10.9539 351 89.5356 1343.22 485.259
1096 0 31.0734 11.8107 367 89.5995 1342.93 485.03
1097 0 33.0608 9.5884 317 91.7886 1342.93 486.334
1098 0 32.02 9.80638 314 93.8026 1343.24 485.248
1099 0 32.0082 10.0287 321 91.5919 1343.17 487.816
1100 0 32.0082 10.1849 326 120.669 1343.17 487.699
1101 0 29.0167 8.68464 252 97.0873 1343.58 486.857
1102 0 35.0071 8.68396 304 95.6184 1342.44 487.201
1103 0 33.1324 8.57167 284 95.3416 1343.37 485.732
1104 0 34.0324 9.16773 312 94.6378 1343.7 484.776
1105 0 34.0382 9.87127 336 93.5714 1343.68 486.113
1106 0 33.0107 9.20915 304 96.0428 1343.4 485.125
1107 0 36.037 9.71225 350 94.9629 1343.11 485.303
1108 0 39.0881 9.82396 384 93.6667 1343.48 484.174
1109 0 36.0642 9.56627 345 95.2725 1343.57 484.232
1110 0 37.062 11.2784 418 91.6746 1343.61 484.445
1111 0 33.0251 10.0833 333 92.0691 1344.25 486.787
1112 0 36.1078 8.66848 313 94.5751 1343.69 486.042
1113 1 122.11 12.1775 1487 114.489 1343.55 436.715
1114 0 125.271 13.0118 1630 111.522 1342.63 438.599
1115 1 32.0262 11.8965 381 90.2362 1343.65 486.155
1116 0 29.0223 8.54516 248 97.7903 1342.8 486.399
1117 0 29.0622 10.8044 314 94.3503 1342.54 485.554
1118 0 30.0701 10.7083 322 94.1863 1342.27 486.283
1119 0 33.0117 10.5114 347 92.389 1342.73 485.499
1120 0 31.0392 10.374 322 92.9876 1342.66 487.146
1121 0 31.1155 10.7985 336 92.4256 1343.46 485.414
1122 0 31.0284 9.99084 310 94.7355 1342.82 485.471
1123 0 29.0588 9.80771 285 94.5404 1343.37 486.063
1124 0 28.0236 10.6696 299 93.3779 1343.9 484.308
1125 0 28.0681 10.4389 293 94.6041 1343.12 485.85
1126 0 28.0171 9.70835 272 94.4963 1343.62 485.279
1127 0 30.0073 10.6641 320 93.4812 1342.56 485.944
1128 0 31.0482 10.4354 324 92.2253 1343.3 485.327
1129 0 30.0459 10.484 315 92.0952 1343 485.94
1130 0 32.0184 9.90057 317 91.4953 1343.46 485.962
1131 0 30.0228 9.69264 291 92.7904 1342.99 485.942
1132 0 30.013 11.2618 338 90.0917 1343.22 485.254
1133 0 31.054 11.9469 371 87.9218 1342.46 484.491
1134 0 31.2345 10.1811 318 90.1981 1342.46 485.189
1135 0 30.0513 10.0828 303 91.2541 1343.34 485.142
1136 0 30.1133 9.66352 291 91.8797 1342.89 485.694
1137 0 34.0101 9.64418 328 90.8018 1342.56 485.576
1138 0 33.0808 10.3988 344 89.2355 1342.87 486.369
1139 0 34.0135 8.34963 284 92.8416 1342.64 483.303
1140 0 31.0445 10.1145 314 91.0191 1342.2 485.79
1141 0 32.0379 10.6436 341 89.0909 1343.32 484.765
1142 0 32.0141 11.6511 373 87.8472 1342.46 485.528
1143 0 32.0248 11.0539 354 87.709 1343.57 485.573
1144 0 31.0677 9.36665 291 91.5842 1342.49 486.395
1145 0 33.1078 10.4809 347 88.5447 1342.74 485.052
1146 0 30.0419 10.8848 327 90.1284 1342.71 485.315
1147 0 31.0658 9.62474 299 90.699 1343.28 486.555
1148 0 32.0818 10.9719 352 88.2301 1343.18 485.273
1149 0 31.0534 9.88619 307 88.8306 1343.04 486.645
1150 0 32.062 10.7916 346 87.8642 1342.83 484.321
1151 0 33.0403 10.2602 339 88.236 1342.69 483.177
1152 0 33.0409 12.7115 420 82.9214 1343.67 485.369
1153 0 32.0234 10.8046 346 85.1763 1344.08 485.685
1154 0 31.0362 7.95845 247 90.1903 1342.49 487.628
1155 0 30.0426 9.71954 292 88.6884 1343.9 483.777
1156 0 29.0263 10.4044 302 87.5232 1343.37 484.394
1157 0 31.0597 9.33685 290 87.1586 1343.34 486.459
1158 0 30.0826 8.97529 270 87.637 1343.33 486.841
1159 0 31.0174 11.4129 354 84.8305 1343.19 484.754
1160 0 31.0848 10.7126 333 85.8348 1343.11 485.465
1161 0 32.0291 10.8339 347 86.1182 1342.29 484.844
1162 0 32.045 9.98595 320 85.2938 1343 486.138
1163 0 32.0674 10.2908 330 85.7788 1342.05 484.676
1164 0 31.0349 9.18321 285 87.6 1343.08 484.312
1165 0 33.0797 11.6688 386 83.1503 1342.9 484.87
1166 0 32.1438 9.17752 295 87.3729 1342.85 484.881
1167 0 29.1024 8.24674 240 63.5 1341.9 482.642
1168 0 31.0236 9.76677 303 86.8449 1342.44 485.327
1169 0 31.0795 9.20222 286 87.4126 1341.96 484.762
1170 0 32.0301 9.45985 303 86.2013 1342.58 483.498
