time division length width area intensity CMx CMy
957 0 50.0578 14.0837 705 139.389 1098.06 438.265
958 0 54.0404 15.0998 816 135.252 1098.69 437.317
959 0 57.018 14.6796 837 134.568 1097.89 435.959
960 0 56.0391 13.7404 770 138.683 1097.52 435.534
961 0 58.0717 14.6543 851 135.678 1097.93 434.993
962 0 62.0482 14.2631 885 135.433 1098.12 433.122
963 0 62.0184 15.0278 932 133.482 1098.01 431.696
964 0 67.0688 14.7162 987 131.119 1097.75 430.519
965 0 69.1435 13.0887 905 134.866 1097.8 429.319
966 0 71.0597 13.1861 937 133.744 1097.49 428.014
967 0 73.0855 13.8742 1014 130.854 1097.55 426.189
968 0 77.12 14.9767 1155 125.971 1097.37 424.35
969 0 79.0645 14.2036 1123 127.144 1097.08 423.626
970 0 82.0364 15.1152 1240 123.631 1096.94 419.202
971 0 85.1164 13.0057 1107 128.387 1096.68 418.331
972 0 91.0724 12.803 1166 127.395 1096.96 417.552
973 1 47.0402 11.5433 543 127.278 1097.1 437.637
974 0 48.1025 11.8705 571 126.121 1097.37 436.571
975 0 51.0203 11.7404 599 124.813 1097.49 435.721
976 0 52.0203 12.3798 644 122.898 1096.95 435.18
977 0 51.0377 12.0891 617 125.173 1097.82 431.574
978 0 54.024 11.6615 630 126.273 1097.3 429.667
979 0 56.0554 13.3975 751 121.682 1097.53 429.569
980 0 61.0635 12.6753 774 122.211 1097.32 428.12
981 0 61.0558 12.4313 759 123.191 1098.14 426.194
982 0 65.0491 12.7596 830 121.386 1097.82 427.38
983 0 68.0569 12.7246 866 122.349 1097.55 425.227
984 1 28.8062 5.06835 146 71.4384 1092.04 489.034
985 0 28.5438 6.79658 194 63.433 1090.71 484.938
986 0 26.869 4.8755 131 67.7405 1089.7 485.214
987 0 28.6228 7.33682 210 60.2095 1089.67 483.943
988 0 26.2994 4.41075 116 75.2069 1092.25 489.284
989 0 31.5264 6.21702 196 63.3265 1091 485.209
990 0 33.8226 6.06104 205 60.322 1091.94 485.224
991 0 31.5831 4.84436 153 65.4118 1091.11 482.235
992 0 30.8448 6.38681 197 58.7208 1089.7 484.193
993 0 30.8448 6.45165 199 57.9698 1089.7 484.211
994 0 24.0824 10.9624 264 57.7386 1093.66 487.098
995 0 28.7308 4.69879 135 65.1556 1089.7 486.956
996 0 26.2632 7.19638 189 56.2487 1093.34 482.852
997 0 26.6019 4.62372 123 65.7642 1090.24 486.756
998 0 27.246 5.61551 153 67.7386 1092.58 488.824
999 0 23.2671 5.15751 120 72.7333 1092.18 490.917
1000 0 25.419 5.19298 132 72.2273 1093.13 491.03
1001 0 23.0417 5.98913 138 71.5725 1092.5 491.572
1002 0 23.0493 5.07607 117 73.1111 1092.74 491.094
1003 0 25.4206 5.7827 147 69.0408 1092.97 489.673
1004 0 24.8844 5.14379 128 70.5938 1091.95 490.391
1005 0 25.1606 6.87582 173 60.2023 1092.69 484.844
1006 0 24.611 4.87587 120 72.6083 1092.62 490.717
1007 0 10.0004 7.4997 75 81.6533 1092.4 492.16
1008 0 27.0233 3.51548 95 71.9368 1092.93 490.326
1009 1 80.103 12.6213 1011 118.898 1096.89 419.595
1010 1 42.0324 11.4911 483 112.025 1097.3 439.555
1011 0 42.0435 11.1076 467 115.48 1096.85 439.212
1012 0 43.0351 11.2466 484 114.783 1096.74 437.837
1013 0 44.0611 11.416 503 117.026 1097.19 436.976
1014 0 47.0356 12.0547 567 113.995 1096.85 436.527
1015 0 46.1154 12.0133 554 116.998 1096.64 434.868
1016 0 47.1243 11.162 526 118.352 1096.7 435.732
1017 0 48.0513 12.5075 601 116.16 1096.69 434.504
1018 0 52.0307 12.3965 645 115.259 1096.58 434.468
1019 0 53.1164 13.0092 691 114.744 1096.14 432.773
1020 0 54.1808 11.923 646 118.102 1097.22 432.084
1021 0 55.0739 12.7284 701 117.389 1096.94 429.546
1022 0 55.1293 12.5705 693 118.257 1096.82 429.278
1023 0 59.0623 12.1228 716 119.479 1097.79 428.934
1024 0 61.1201 12.8763 787 117.706 1097.47 427.341
1025 0 62.0736 11.9858 744 120.344 1097.55 426.802
1026 0 63.2814 11.4568 725 122.317 1097.61 426.157
1027 0 64.0563 11.2401 720 124.758 1097.45 423.901
1028 0 66.127 11.2662 745 124.693 1097.19 424.694
1029 0 71.1745 12.2235 870 121.74 1097.33 423.101
1030 0 73.1367 12.3467 903 121.566 1097.53 421.65
1031 0 76.1154 12.1526 925 120.871 1097.35 417.335
1032 1 40.1334 9.61792 386 115.477 1098.34 439.935
1033 0 40.0699 9.33369 374 114.465 1097.67 438.626
1034 0 40.06 9.81028 393 113.878 1098.16 438.061
1035 0 45.0436 10.9227 492 110.297 1097.98 437.374
1036 0 45.0584 11.363 512 119.27 1098.23 438.348
1037 0 44.0607 11.0983 489 122.065 1098.46 437.544
1038 0 45.146 12.227 552 118.408 1098.45 437.078
1039 0 46.1635 10.5928 489 123 1099.06 438.031
1040 0 51.1052 12.0927 618 118.547 1098.38 434.505
1041 0 52.1194 11.7614 613 115.026 1098.09 430.861
1042 0 54.0495 12.7661 690 112.83 1097.82 430.749
1043 0 56.1208 11.5643 649 115.25 1097.48 431.917
1044 0 56.0222 12.0131 673 116.233 1098.15 430.316
1045 0 60.0444 13.007 781 113.124 1097.78 428.453
1046 0 63.0419 12.7534 804 113.598 1097.5 427.592
1047 0 62.0648 13.1314 815 114.612 1097.65 425.005
1048 0 65.0566 12.7428 829 115.69 1097.38 426.411
1049 0 69.1871 13.702 948 112.576 1096.76 425.408
1050 0 70.0914 14.2814 1001 113.412 1097.26 425.224
1051 0 71.0736 12.8318 912 116.654 1097.48 423.693
1052 0 73.1359 11.923 872 119.51 1097.06 421.106
1053 0 77.0803 12.5973 971 117.587 1097.15 420.817
1054 0 80.1605 12.9365 1037 116.939 1098.21 419.158
1055 0 82.1247 12.6758 1041 117.288 1097.5 417.777
1056 0 86.0741 13.3025 1145 114.658 1097.33 416.516
1057 0 86.3289 12.325 1064 119.803 1097.48 415.114
1058 1 45.1386 9.83636 444 120.32 1097.6 435.169
1059 0 46.0907 11.7377 541 116.706 1097.65 435.872
1060 0 49.0562 12.6182 619 110.249 1096.39 434.076
1061 0 49.0364 10.9918 539 115.221 1096.32 433.879
1062 0 51.0655 10.9467 559 114.302 1096.28 434.102
1063 0 53.0802 12.1703 646 111.966 1096.75 432.543
1064 0 54.0375 12.7874 691 111.548 1097.24 429.849
1065 0 54.0953 11.3688 615 116.593 1096.78 428.579
1066 0 57.075 12.3171 703 113.44 1096.91 429.087
1067 0 58.0384 11.0444 641 117.02 1097.09 427.134
1068 0 61.1673 11.395 697 116.294 1096.96 426.017
1069 0 66.047 12.2791 811 112.175 1096.69 426.226
1070 0 66.0949 12.2854 812 114.222 1096.9 424.802
1071 0 68.0409 11.9928 816 115.575 1097.34 423.95
1072 0 70.0224 12.0819 846 116.911 1097.18 423.163
1073 0 73.0705 12.1116 885 118.259 1097.53 421.321
1074 0 76.0685 12.87 979 118.092 1097.43 419.535
1075 0 79.0613 12.5978 996 120.161 1096.82 417.851
1076 0 80.0722 12.3514 989 122.254 1097.45 418.46
1077 0 83.051 13.0883 1087 122.052 1097.51 415.591
1078 0 85.0453 12.7814 1087 123.413 1097.37 415.354
1079 0 90.0796 13.0329 1174 124.256 1097.33 413.588
1080 1 46.0553 10.6177 489 123.217 1096.84 435.949
1081 0 48.0176 11.9331 573 122.702 1096.85 434.74
1082 0 50.0202 11.3754 569 116.258 1097.51 434.22
1083 0 52.0365 11.5688 602 117.721 1097.22 432.565
1084 0 51.0273 10.5826 540 122.011 1096.89 432.831
1085 0 55.056 11.5156 634 117.584 1097.24 432.364
1086 0 55.0585 10.8067 595 121.066 1096.81 431.008
1087 0 59.077 11.7305 693 117.541 1096.45 429.28
1088 0 60.0424 11.875 713 117.403 1096.72 430.229
1089 0 62.0299 11.9136 739 119.327 1096.56 426.873
1090 0 63.0634 11.1158 701 122.348 1097.37 427.284
1091 0 67.0425 12.425 833 118.957 1097.06 426.078
1092 0 67.0423 12.425 833 121.573 1097.11 424.365
1093 0 68.0272 11.6718 794 125.346 1096.84 422.073
1094 0 71.0815 11.8878 845 125.36 1097.14 424.315
1095 0 74.0836 12.3779 917 125.101 1096.4 421.044
1096 0 77.0626 12.5612 968 124.79 1096.74 421.876
1097 0 78.0292 12.7901 998 127.088 1096.58 420.311
1098 0 80.0169 13.0472 1044 128.135 1096.06 417.907
1099 0 83.069 12.9772 1078 129.075 1096.09 418.003
1100 0 86.0789 12.1633 1047 130.2 1096.45 418.01
1101 0 87.0236 12.6058 1097 132.233 1096.75 414.521
1102 0 90.0807 12.8329 1156 131.785 1096.44 413.816
1103 1 47.0361 11.0766 521 129.964 1096.05 434.923
1104 0 51.0298 10.8956 556 130.351 1096.55 434.45
1105 0 53.0682 11.5135 611 130.54 1096.82 432.718
1106 0 53.0922 11.2823 599 123.664 1096.49 431.633
1107 0 54.0633 11.2276 607 122.147 1097.14 431.222
1108 0 57.062 10.3396 590 123.136 1096.84 431.244
1109 0 58.0324 11.4591 665 120.626 1096.8 429.789
1110 0 62.112 12.5419 779 116.444 1096.12 428.067
1111 0 63.0324 11.6448 734 118.452 1096.69 428.037
1112 0 63.0579 11.9731 755 118.711 1096.48 427.045
1113 0 66.0457 11.2498 743 119.502 1096.01 426.466
1114 0 69.0704 13.2329 914 113.858 1096.3 424.518
1115 0 71.0135 12.5047 888 115.902 1096.18 424.586
1116 0 73.0481 13.3747 977 113.663 1096.27 423.176
1117 0 76.0773 12.5924 958 116.295 1096.51 422.104
1118 0 76.0571 11.8069 898 120.246 1096.42 418.468
1119 0 78.1123 11.5731 904 121.16 1096.59 419.72
1120 0 84.0443 13.2073 1110 115.549 1096.72 417.382
1121 0 82.0317 11.4468 939 122.215 1096.98 415.538
1122 0 84.1232 11.5069 968 123.075 1097.05 415.164
1123 0 90.0364 12.0396 1084 120.675 1096.49 415.513
1124 0 90.0626 12.1693 1096 121.923 1096.69 410.435
1125 0 95.0563 13.1817 1253 118.552 1097.28 410.86
1126 0 95.0689 11.9598 1137 122.799 1097.01 406.961
1127 0 98.1328 12.3099 1208 121.256 1096.52 408.127
1128 0 103.097 13.56 1398 117.607 1096.59 404.152
1129 0 107.071 12.9447 1386 118.929 1096.33 403.583
1130 1 54.0341 10.3268 558 121.394 1096.17 428.88
1131 0 56.0494 10.9546 614 119.48 1096.42 429.028
1132 0 61.0233 12.7165 776 116.795 1096.14 427.923
1133 0 63.0388 11.6912 737 115.303 1096.26 427.521
1134 0 62.0174 12.1901 756 114.476 1096.39 425.57
1135 0 65.0513 12.3134 801 114.697 1097.02 424.496
1136 0 68.0356 12.9197 879 111.686 1096.58 423.617
1137 0 69.0819 12.1305 838 115.216 1097.29 423.113
1138 0 72.2636 11.9977 867 115.501 1097.62 420.985
1139 0 74.0239 12.7256 942 113.801 1097.36 419.177
1140 0 76.0436 11.9537 909 117.536 1096.54 417.272
1141 0 79.0448 12.5878 995 116.106 1096.87 418.575
1142 0 81.0662 13.4088 1087 114.152 1097.08 417.316
1143 0 83.0263 12.2491 1017 118.678 1096.55 412.973
1144 0 86.0354 12.9365 1113 117.198 1096.26 414.848
1145 0 89.1428 12.4407 1109 119.156 1097.2 411.22
1146 0 91.0653 12.782 1164 118.519 1096.94 410.944
1147 0 93.1269 12.1555 1132 120.098 1095.43 409.517
1148 0 99.069 13.9903 1386 114.312 1096.04 407.73
1149 0 102.106 13.5251 1381 116.858 1095.04 405.152
1150 0 104.087 14.094 1467 115.277 1095.28 404.171
1151 0 106.17 12.8285 1362 120.101 1095.79 403.284
1152 0 112.099 14.728 1651 115.604 1095.79 400.3
1153 1 56.0696 11.1825 627 115.77 1096.25 429.026
1154 0 59.0336 11.756 694 114.856 1095.9 426.553
1155 0 60.0601 11.7715 707 112.895 1095.33 425.713
1156 0 63.1224 12.658 799 107.924 1095.44 426.809
1157 0 64.033 11.9626 766 110.538 1095.97 426.05
1158 0 65.1116 12.1944 794 108.982 1095.64 423.535
1159 0 67.0852 12.0742 810 109.674 1096.36 423.28
1160 0 71.0766 12.3669 879 110.217 1096.34 421.463
1161 0 73.0686 12.7141 929 109.869 1096.46 421.456
1162 0 74.0771 12.406 919 112.566 1096.71 417.266
1163 0 75.0557 12.111 909 113.886 1097.21 418.161
1164 0 82.0731 13.1956 1083 110.442 1096.73 415.623
1165 0 81.0877 12.69 1029 113.153 1097.35 415.239
1166 0 86.1236 13.0162 1121 111.621 1097.15 416.331
1167 0 88.1707 10.7178 945 121.997 1095.87 413.332
1168 0 92.0793 13.206 1216 115.027 1096.14 411.988
1169 0 94.0623 12.5768 1183 117.37 1095.98 409.857
1170 0 97.1134 12.5832 1222 117.985 1095.78 408.853
1171 0 101.053 12.4983 1263 117.609 1095.34 408.416
1172 1 51.0277 10.2297 522 112.021 1096.1 431.282
1173 0 53.0487 11.0464 586 114.299 1095.69 431.867
1174 0 53.0353 11.4829 609 112.069 1096.13 427.923
1175 0 57.0211 11.031 629 110.323 1096.32 430.2
1176 0 60.0543 12.2889 738 107.603 1096.49 428.668
1177 0 61.0393 12.6148 770 109.46 1096.49 426.431
1178 0 64.0506 12.4589 798 108.961 1096.62 426.12
1179 0 64.0673 11.9093 763 111.944 1095.8 424.33
1180 0 66.0772 12.4703 824 140.973 1095.74 425.589
1181 0 70.0388 12.5502 879 111.766 1096.36 421.824
1182 0 71.0884 11.971 851 114.066 1096.32 421.855
1183 0 74.0586 12.2876 910 114.848 1095.94 420.449
1184 0 76.1287 12.492 951 114.722 1095.79 419.079
1185 0 78.034 12.4177 969 117.408 1096.43 418.379
1186 0 80.1314 12.804 1026 116.322 1096.58 417.788
1187 0 84.1807 13.2928 1119 115.557 1096.61 415.285
1188 0 84.1006 11.9975 1009 121.472 1095.77 414.401
1189 0 88.0981 12.7585 1124 118.926 1095.92 411.307
1190 0 91.1191 12.2477 1116 121.22 1096.46 411.137
1191 0 94.1578 12.6596 1192 121.982 1096.33 409.327
1192 0 97.1342 12.4158 1206 122.037 1096.68 409.102
1193 0 100.109 12.5763 1259 121.035 1096.02 406.488
1194 1 52.0259 9.49526 494 117.004 1096.11 433.107
1195 0 55.0936 11.9252 657 114.046 1096.69 428.279
1196 0 55.1444 11.3883 628 112.833 1096.91 423.954
1197 0 58.0537 11.4377 664 112.758 1096.52 427.425
1198 0 58.0811 11.174 649 114.202 1096.86 426.495
1199 0 61.0807 11.8695 725 110.723 1097.41 426.301
1200 0 64.0952 11.4985 737 110.218 1097.02 425.996
1201 0 65.0347 11.9167 775 109.746 1096.91 424.283
1202 0 68.1033 11.1302 758 111.078 1096.97 424.377
1203 0 69.0265 11.271 778 111.599 1096.82 421.177
1204 0 72.0476 12.1309 874 109.587 1096.65 418.093
1205 0 75.0423 12.6995 953 107.827 1096.37 418.752
1206 0 74.1387 10.912 809 113.96 1097.01 415.826
1207 0 79.06 11.8265 935 110.801 1096.24 416.828
1208 0 84.0974 11.2845 949 111.414 1096.24 411.874
1209 0 87.1129 11.5941 1010 110.725 1096.54 409.977
1210 0 89.0633 11.722 1044 110.742 1096.17 408.464
1211 0 91.1151 10.5142 958 113.474 1096.16 407.165
1212 1 49.0427 10.0933 495 110.253 1095.56 430.18
1213 0 50.0242 9.83525 492 117.106 1095.94 428.99
1214 0 51.0174 9.80057 500 108.244 1095.8 429.178
1215 0 54.016 11.4966 621 103.337 1096.04 427.726
1216 0 57.0636 11.0228 629 102.979 1095.93 427.251
1217 0 59.0669 10.141 599 103.002 1096.2 429.224
1218 0 59.0431 10.0435 593 105.319 1095.89 424.99
1219 0 62.0733 11.5831 719 102.191 1096.21 424.28
1220 0 64.0757 11.4864 736 102.586 1096.41 423.739
1221 0 65.0434 10.1317 659 106.51 1096.41 422.745
1222 0 67.1493 11.1394 748 103.816 1096.34 422.511
1223 0 71.0386 12.2187 868 101.75 1096.63 421.088
1224 0 72.1483 11.0328 796 105.608 1096.37 418.245
1225 0 76.1693 11.9339 909 104.442 1096.12 417.442
1226 0 80.1464 11.6786 936 104.064 1096.97 417.363
1227 0 82.1514 13.0369 1071 100.862 1096.72 415.331
1228 0 84.1016 12.0806 1016 103.973 1096.25 413.395
1229 0 88.153 10.391 916 107.479 1096.35 412.857
1230 1 45.0619 10.1638 458 103.895 1096.12 431.886
1231 0 49.0675 10.883 534 101.339 1095.97 432.921
1232 0 50.1083 11.2357 563 100.863 1095.83 431.041
1233 0 49.0343 9.23843 453 106.797 1095.94 431.055
1234 0 53.0821 12.3205 654 99.1239 1095.97 430.439
1235 0 54.1207 10.5135 569 105.248 1096.17 428.418
1236 0 55.0658 10.2423 564 104.752 1095.88 430.131
1237 0 57.093 12.1731 695 101.478 1095.91 426.447
1238 0 59.0655 11.2587 665 103.85 1095.5 427.926
1239 0 60.1033 10.5984 637 106.185 1096.07 427.579
1240 0 62.0778 11.84 735 103.45 1095.67 426.989
1241 0 65.1364 12.7118 828 102.31 1095.53 424.089
1242 0 65.0435 11.2079 729 106.609 1095.7 424.019
1243 0 67.1198 11.2336 754 108.603 1096.01 420.923
1244 0 69.1818 11.8384 819 106.261 1095.43 420.73
1245 0 72.1202 12.1603 877 105.848 1095.51 420.252
1246 0 75.0826 11.5473 867 106.939 1095.62 420.739
1247 0 76.1041 12.2858 935 106.963 1096.14 418.717
1248 0 79.0952 11.6948 925 108.668 1095.83 417.745
1249 0 79.0847 11.4561 906 110.563 1096.11 414.629
1250 0 83.2099 10.0709 838 113.087 1095.88 416.587
1251 0 86.1054 11.5904 998 111.068 1094.78 413.4
1252 1 44.0431 11.1482 491 102.018 1095.05 436.391
1253 0 48.0293 11.9094 572 99.514 1095.61 434.834
1254 0 48.0575 11.736 564 103.06 1095.5 432.656
1255 0 51.1734 12.3893 634 102.844 1095.95 430.576
1256 0 53.1003 12.0715 641 101.939 1095.96 432.142
1257 0 53.1144 12.1436 645 102.119 1096.13 431.901
1258 0 56.0548 12.684 711 101.075 1095.96 430.021
1259 0 58.0724 12.6738 736 101.921 1095.45 428.368
1260 0 58.1839 11.9621 696 104.323 1096.29 428.519
1261 0 57.0789 11.4403 653 108.012 1095.9 427.24
1262 0 60.1261 12.3574 743 105.577 1095.18 428.159
1263 0 61.0895 12.7518 779 106.797 1095.47 424.27
1264 0 63.0747 11.3358 715 109.524 1095.45 424.923
1265 0 65.0131 12.013 781 108.859 1095.39 424.106
1266 0 67.0336 12.5907 844 107.871 1095.41 421.639
1267 0 69.0465 12.3974 856 109.07 1096.6 421.897
1268 0 70.1465 12.5167 878 109.838 1095.94 421.542
1269 0 72.1069 12.7727 921 109.509 1096.22 420.629
1270 0 76.0915 13.1421 1000 109.205 1095.77 418.931
1271 0 79.0357 12.9182 1021 109.401 1095.81 417.458
1272 0 82.081 13.7425 1128 108.463 1095.71 415.612
1273 0 83.0739 12.4347 1033 113.386 1095.55 415.018
1274 0 85.1029 12.385 1054 114.96 1095.89 412.849
1275 0 88.1063 12.2466 1079 115.233 1096.08 413.309
1276 0 90.1597 12.855 1159 115.118 1095.63 409.493
1277 0 94.1066 12.6984 1195 115.037 1096.48 408.777
1278 0 97.1183 13.1489 1277 115.464 1095.85 404.921
1279 1 50.0816 10.5428 528 116.036 1095.44 430.066
1280 0 53.0304 11.7103 621 113.527 1095.98 427.622
1281 0 56.0947 11.2488 631 112.897 1096.08 426.403
1282 0 58.0328 12.1828 707 109.973 1095.79 425.638
1283 0 58.0321 11.8383 687 110.859 1095.95 428.378
1284 0 60.0376 12.259 736 110.285 1096.72 428.495
1286 0 62.0434 11.8627 736 111.762 1096.61 425.421
1287 0 63.0921 11.5545 729 112.952 1096.72 425.743
1288 0 63.1196 11.1693 705 115.766 1096.26 423.827
1289 0 68.0437 13.1239 893 109.45 1096.18 420.167
1290 0 70.0612 13.1314 920 110.87 1096.61 421.518
1291 0 72.0698 13.6118 981 110.2 1095.85 420.792
1292 0 79.0883 12.7452 1008 112.312 1096.44 417.779
1293 0 79.0559 12.8643 1017 113.848 1096.33 417.272
1294 0 83.0974 14.0438 1167 111.408 1096.23 415.312
1295 0 87.049 14.0381 1222 111.711 1096.17 413.567
1296 0 90.0577 14.8349 1336 110.092 1096.71 412.522
1297 0 92.1209 13.4389 1238 115.397 1095.99 407.879
1298 0 94.0769 13.4464 1265 114.041 1096.42 411.485
1299 0 96.147 13.4482 1293 114.994 1096.38 405.577
1300 0 101.054 13.4879 1363 113.175 1096.1 408.309
1301 0 104.064 14.0491 1462 112.574 1096.1 404.657
1302 1 57.0231 11.0832 632 115.155 1096.23 427.644
1303 0 58.0427 11.6466 676 115.188 1096.34 427.046
1304 0 60.1019 13.1277 789 111.776 1095.65 420.127
1305 0 59.0639 11.9701 707 110.393 1096.19 418.508
1306 0 62.068 12.6957 788 107.157 1096.14 420.482
1307 0 64.1407 13.2053 847 107.116 1096.01 418.818
1308 0 66.0294 13.5394 894 107.172 1096.33 414.743
1309 0 68.0125 13.424 913 107.586 1096.41 416.188
1310 0 72.0608 13.3082 959 109.58 1096.18 409.626
1311 0 73.0308 12.8302 937 112.176 1095.92 409.784
1312 0 78.0584 14.8094 1156 105.275 1095.58 411.195
1313 0 79.3026 15.712 1246 103.083 1095.76 408.559
1314 0 80.0627 13.3146 1066 109.73 1095.44 408.49
1315 0 84.1471 14.0349 1181 107.787 1096.55 409.616
1316 0 87.1104 14.5907 1271 105.322 1096.61 408.009
1317 0 91.1603 13.6353 1243 107.513 1096.19 408.245
1318 0 94.1215 13.2807 1250 108.88 1096.13 406.432
1319 0 97.1214 14.209 1380 107.428 1096.19 402.671
1320 0 102.177 13.9757 1428 106.898 1096.02 400.833
1321 0 105.122 13.0325 1370 108.323 1095.97 402.731
1322 0 108.103 13.9497 1508 105.827 1096.13 401.539
1323 1 57.0462 10.8508 619 103.535 1095.83 421.544
1324 0 60.054 10.2241 614 103.252 1096.08 420.604
1325 0 62.0401 11.4442 710 99.838 1096.22 414.389
1326 0 65.0985 11.1216 724 100.558 1096.54 418.098
1327 0 67.0425 11.1422 747 99.9665 1095.72 415.622
1328 0 71.1358 11.7522 836 97.6902 1096.02 412.157
1329 0 72.0883 11.4859 828 98.6715 1096.17 410.976
1330 0 75.0595 11.2311 843 99.6014 1096.7 410.013
1331 0 78.1241 11.4049 891 98.5758 1096.12 412.893
1332 0 79.0443 12.0186 950 97.7074 1095.38 417.331
1333 0 83.1004 11.9013 989 98.8008 1095.86 408.306
1334 0 83.0663 11.6413 967 99.8159 1095.51 406.088
1335 0 87.0302 11.8005 1027 100.016 1095.94 405.409
1336 0 90.1313 12.4485 1122 98.7219 1095.5 405.675
1337 0 94.0587 12.6836 1193 97.9958 1095.83 401.375
1338 0 97.2139 12.6114 1226 98.9054 1095.21 398.688
1339 0 98.1435 12.4104 1218 100.434 1095.35 395.562
1340 0 103.229 11.3825 1175 102.027 1096.19 395.051
1341 0 107.16 12.6447 1355 98.3277 1096.21 398.153
1342 0 109.163 12.1836 1330 100.12 1096.25 399.925
1343 0 116.124 12.633 1467 99.212 1096.2 396.849
1344 1 61.0942 9.18254 561 97.8788 1096.23 423.61
1345 0 64.1353 11.6629 748 98.9385 1095.96 420.543
1346 0 64.0388 10.9465 701 96.428 1095.27 416.444
1347 0 66.0823 11.8035 780 93.5974 1096.16 412.964
1348 0 70.1136 11.0963 778 94.7455 1095.85 412.871
1349 0 73.0766 11.4811 839 93.3302 1096.34 417.244
1350 0 74.0785 12.4193 920 93.5565 1096.18 409.603
1351 0 78.0827 13.2424 1034 91.8066 1096.44 407.541
1352 0 80.0601 13.1027 1049 92.0229 1096.28 410.806
1353 0 84.22 12.7167 1071 93.747 1096.03 407.31
1354 0 85.1196 11.5955 987 96.9615 1095.27 406.311
1355 0 90.0486 11.1606 1005 97.8587 1095.4 407.564
1356 0 92.0807 12.9777 1195 94.913 1095.76 401.047
1357 0 95.088 11.4105 1085 98.9419 1095.8 399.826
1358 0 99.1538 13.4438 1333 94.946 1096.27 400.636
1359 0 101.228 12.3385 1249 98.7886 1096.29 397.942
1360 0 105.062 13.4016 1408 97.0696 1096.14 395.177
1361 0 108.099 12.6366 1366 99.4129 1095.62 396.169
1362 1 58.0523 11.0073 639 95.3662 1095.97 426.958
1363 0 59.0863 9.00378 532 99.9154 1096.43 424.863
1364 0 60.0934 10.051 604 101.002 1096.19 421.879
1365 0 63.0608 11.814 745 93.8564 1095.69 423.682
1366 0 66.1149 10.0129 662 102.625 1095.06 422.05
1367 0 66.0479 11.9307 788 94.3109 1096.44 414.044
1368 0 72.0711 10.6284 766 96.2598 1096.32 415.551
1369 0 74.1147 11.6846 866 94.3695 1095.98 411.654
1370 0 75.0583 10.6983 803 98.9963 1096.38 411.433
1371 0 78.0355 11.7511 917 96.4275 1097.33 413.103
1372 0 76.0714 10.385 790 102.442 1096.95 407.165
1373 0 80.1497 11.0917 889 101.575 1096.67 405.955
1374 0 83.0906 11.2046 931 101.959 1096.97 405.197
1375 0 87.0634 11.6007 1010 102.496 1096.11 404.747
1376 0 88.0601 11.1969 986 105.08 1096.01 402.636
1377 0 90.0462 11.6607 1050 105.432 1096.2 400.436
1378 0 93.1252 11.5865 1079 107.002 1096.29 394.568
1379 0 98.1143 12.4753 1224 105.674 1095.63 396.002
1380 0 99.1133 11.6231 1152 109.979 1096.19 392.203
1381 1 52.0184 10.6308 553 102.076 1095.58 423.222
1382 0 51.0543 9.96977 509 106.289 1096.12 425.619
1383 0 57.1494 11.3037 646 111.05 1095.05 422.003
1384 0 58.0388 12.7845 742 108.739 1094.43 418.337
1385 0 59.0842 12.9307 764 108.817 1095.21 416.95
1386 0 62.1166 13.1044 814 108.812 1095.38 417.83
1387 0 62.1355 13.2613 824 109.853 1094.66 417.149
1388 0 63.1004 12.0284 759 114.407 1095.03 415.032
1389 0 66.0806 12.2275 808 114.306 1095.45 413.512
1390 0 70.077 12.8288 899 111.804 1095.63 414.69
1391 0 70.1285 13.2471 929 111.361 1095.9 415.374
1392 0 72.1068 13.0224 939 112.72 1095.63 413.651
1393 0 75.1271 13.5237 1016 111.268 1095.22 411.05
1394 0 77.0753 13.3895 1032 111.868 1094.54 411.91
1395 0 78.1161 12.9551 1012 114.386 1094.86 408.42
1396 0 84.0716 13.774 1158 110.816 1093.75 407.538
1397 0 85.195 13.2519 1129 112.881 1094.47 405.912
1398 0 85.1941 13.2873 1132 150.518 1094.46 405.864
1399 0 91.1773 12.7554 1163 113.763 1094.2 410.659
1400 1 48.0485 9.21986 443 108.481 1094.42 434.205
1401 0 49.0361 9.82949 482 108.01 1095.1 430.261
1402 0 52.01 11.3824 592 105.475 1094.88 430.22
1403 0 54.0411 11.3432 613 106.411 1095.19 429.15
1404 0 55.082 11.1652 615 107.075 1095.64 428.257
1405 0 55.1276 11.3192 624 112.816 1095.87 428.817
1406 0 56.0664 11.6647 654 111.323 1095.48 428.005
1407 0 60.0716 12.1688 731 103.925 1095.37 425.979
1408 0 60.0551 12.1722 731 103.692 1095.09 426.862
1409 0 61.0366 11.96 730 105.066 1095.31 420.896
1410 0 63.0708 11.7487 741 105.641 1095.33 417.973
1411 0 64.0839 11.2353 720 107.774 1095.27 416.593
1412 0 67.0775 11.1215 746 108.613 1096.07 412.084
1413 0 70.0792 11.9436 837 106.749 1096.29 412.202
1414 0 73.0564 12.8805 941 104.624 1095.52 411.336
1415 0 75.2128 12.9233 972 104.969 1095.55 410.348
1416 0 76.0937 12.3006 936 107.328 1095.95 411.3
1417 0 79.1157 11.8055 934 108.901 1095.17 408.488
1418 0 81.0462 12.3016 997 108.819 1094.87 405.326
1419 0 85.0539 12.6155 1073 108.573 1095.8 402.38
1420 0 87.0623 12.8529 1119 108.126 1095.56 403.759
1421 0 90.118 12.4281 1120 110.778 1095.1 401.112
1422 0 93.143 12.0138 1119 113.524 1095.18 397.987
1423 0 96.0518 11.5354 1108 117.478 1095.21 394.694
1424 1 50.0122 10.2975 515 112.006 1095.18 422.992
1425 0 50.0514 11.9677 599 112.28 1096.18 420.975
1426 0 52.044 10.2029 531 109.55 1096.23 420.363
1427 0 52.0345 11.0311 574 109.167 1097.16 419.983
1428 0 56.0462 11.9187 668 106.359 1097.04 414.985
1429 0 57.0355 11.3263 646 108.618 1097.23 413.845
1430 0 59.044 11.5507 682 109.031 1096.85 411.185
1431 0 60.0402 11.6255 698 109.996 1096.29 411.443
1432 0 62.0311 12.2842 762 108.996 1097.11 409.479
1433 0 64.0388 11.1807 716 112.777 1095.82 409.566
1434 0 67.0401 11.8287 793 112.052 1095.84 408.665
1435 0 68.0543 12.2402 833 112.042 1096.42 407.839
1436 0 69.0814 10.683 738 117.081 1096.15 406.588
1437 0 72.1401 12.2955 887 113.699 1095.91 406.163
1438 0 73.0818 11.9866 876 116.405 1096.43 404.91
1439 0 77.0612 12.6004 971 114.499 1095.92 401.545
1440 0 79.0717 11.85 937 117.057 1096.44 401.47
1441 0 80.1204 12.294 985 116.98 1095.32 403.723
1442 0 85.1093 13.23 1126 115.425 1095.87 405.529
1443 0 88.0435 13.7318 1209 117.618 1095.71 404.365
1444 0 92.0987 14.3867 1325 115.903 1095.99 404.903
1445 0 94.1915 13.4089 1263 119.469 1095.57 404.676
1446 0 97.151 14.1429 1374 116.431 1095.78 400.907
1447 1 54.0609 11.7645 636 116.903 1095.8 423.119
1448 0 56.1439 11.0431 620 118.565 1096.91 426.537
1449 0 57.0753 11.5111 657 117.543 1097.01 427.572
1450 0 58.0587 11.1094 645 119.019 1096.11 423.433
1451 0 62.1305 11.6046 721 117.533 1096.27 424.465
1452 0 64.0354 12.5243 802 114.783 1096.54 417.913
1453 0 65.021 12.8881 838 115.475 1095.75 413.178
1454 0 67.0763 14.1779 951 112.478 1096.12 412.306
1455 0 70.2237 13.7703 967 113.46 1095.78 411.235
1456 0 70.0676 13.2586 929 115.991 1096.44 411.117
1457 0 72.033 13.4244 967 115.422 1096.78 411.623
1458 0 76.0631 12.7131 967 117.653 1096.07 410.006
1459 0 78.0887 13.1645 1028 118.426 1095.6 405.902
1460 0 82.0868 14.2532 1170 115.344 1096.19 405.538
1461 0 83.0595 13.5806 1128 118.15 1096.3 407.449
1462 0 88.0929 13.2928 1171 118.413 1095.83 405.926
1463 0 90.0993 12.575 1133 121.251 1096.25 407.142
1464 0 95.1203 14.7603 1404 115.337 1096.12 399.741
1465 0 98.1483 13.9075 1365 116.421 1096.66 405.141
1466 0 100.082 14.3082 1432 118.654 1096.53 398.052
1467 1 54.1539 12.2983 666 115.075 1096.53 425.165
1468 0 54.0374 11.8807 642 118.045 1096.07 425.958
1469 0 56.0296 12.422 696 118.162 1096.46 419.379
1470 0 59.0382 13.3642 789 115.155 1096.27 420.768
1471 0 60.0409 14.1404 849 113.987 1096.05 418.763
1472 0 63.0289 14.0253 884 114.338 1095.87 418.253
1473 0 66.0219 14.7678 975 111.758 1096.3 416.64
1474 0 66.0511 13.7015 905 115.819 1095.81 417.13
1475 0 68.0167 12.9674 882 118.557 1095.96 415.294
1476 0 71.0287 14.0084 995 115.328 1096.99 414.803
1477 0 73.0552 14.4548 1056 113.448 1096.7 413.518
1478 0 75.0616 13.8553 1040 115.298 1095.92 413.668
1479 0 78.0463 14.0942 1100 115.109 1095.47 411.895
1480 0 81.0392 13.9686 1132 114.831 1096.04 414.195
1481 0 83.0393 13.1624 1093 118.035 1095.56 414.545
1482 0 87.1185 14.2564 1242 114.695 1095.55 406.868
1483 0 89.1537 13.0673 1165 118.827 1095.76 402.894
1484 1 49.0194 10.2816 504 118.065 1095.68 425.502
1485 0 51.04 11.6967 597 116.523 1096.11 425.531
1486 0 53.0814 13.5076 717 113.086 1095.67 422.289
1487 0 55.0509 13.2968 732 112.773 1096.01 421.631
1488 0 53.0381 12.293 652 117.583 1095.89 422.304
1489 0 58.065 12.6066 732 114.112 1096.26 421.992
1490 0 58.016 13.186 765 114.201 1095.84 419.345
1491 0 61.0453 13.3835 817 110.649 1096.81 422.049
1492 0 62.1203 12.2826 763 114.689 1097.06 419.902
1493 0 62.1106 12.7193 790 117.18 1097.35 416.452
1494 0 64.0528 12.8956 826 117.303 1097.33 416.16
1495 0 67.087 13.1918 885 115.624 1096.96 417.783
1496 0 71.1308 13.3838 952 113.538 1096.52 417.309
1497 0 71.1185 12.6128 897 116.042 1096.77 417.035
1498 0 74.0698 13.0013 963 114.725 1097.19 412.3
1499 0 79.0739 13.127 1038 113.196 1096.17 411.033
1500 0 78.1095 13.289 1038 114.152 1096.51 410.644
1501 0 82.1477 12.368 1016 116.128 1096.68 407.12
1502 0 84.1144 12.8397 1080 114.987 1096.42 405.022
1503 0 84.1196 12.8389 1080 153.098 1096.42 405.091
1504 0 93.1487 15.8671 1478 99.1874 1096.99 401.16
1505 0 95.133 17.4703 1662 97.0752 1097.21 400.195
1506 0 95.1322 16.0093 1523 104.032 1097.02 399.003
1507 0 97.0831 16.2438 1577 103.808 1097.41 395.063
1508 1 48.0493 11.4674 551 111.423 1097.13 423.666
1509 0 49.0996 10.0408 493 111.499 1096.7 424.408
1510 0 51.0825 11.2367 574 108.854 1096.65 424.791
1511 0 53.073 11.6632 619 107.359 1096.8 423.294
1512 0 54.0439 12.5824 680 104.603 1096.48 422.182
1513 0 55.1043 12.1225 668 104.153 1097.24 421.335
1514 0 58.0172 11.8241 686 104.103 1097.15 419.741
1515 0 60.0965 11.831 711 102.792 1097.04 419.602
1516 0 60.0713 11.2533 676 104.543 1096.61 418.111
1517 0 63.045 12.1976 769 101.788 1097.12 418.715
1518 0 65.0544 12.8662 837 101.689 1096.82 414.876
1519 0 66.1089 12.2071 807 104.318 1096.34 415.54
1520 0 69.0653 12.9588 895 103.886 1096.29 413.677
1521 0 70.1521 11.8172 829 108.441 1096.61 411.281
1522 0 72.1217 12.0491 869 109.033 1095.98 410.062
1523 0 75.1262 12.7918 961 108.594 1096.15 409.026
1524 0 80.1467 12.839 1029 108.487 1096.24 409.67
1525 0 83.1083 13.2237 1099 107.831 1096.52 410.31
1526 1 44.1098 11.086 489 107.814 1096.76 430.202
1527 0 44.0365 10.8319 477 109.753 1096.69 433.193
1528 0 45.0895 12.2645 553 107.06 1096.93 432.841
1529 0 46.0599 11.2896 520 113.917 1096.15 436.287
1530 0 47.0483 11.7539 553 111.465 1095.92 436.452
1531 0 49.0804 11.1857 549 115.253 1095.8 433.738
1532 0 49.1224 10.9115 536 117.642 1096.02 433.136
1533 0 53.064 11.684 620 114.544 1095.56 429.548
1534 0 53.1835 12.6919 675 112.781 1096.32 433.444
1535 0 54.0551 11.9323 645 116.205 1096.72 430.822
1536 0 55.0886 12.3256 679 117.489 1095.91 427.776
1537 0 53.1144 10.0914 536 124.276 1095.96 427.653
1538 0 59.1169 11.9255 705 117.294 1096.09 425.671
1539 0 62.0943 11.6436 723 117.804 1096.18 425.822
1540 0 65.121 12.0852 787 117.49 1095.33 424.619
1541 0 66.0903 11.9685 791 118.465 1095.12 422.828
1542 0 67.1743 10.9566 736 121.647 1095.66 423.17
1543 0 70.0678 12.0312 843 118.008 1095.14 420.631
1544 0 71.0698 11.0033 782 121.376 1095.21 419.367
1545 0 76.0829 12.6967 966 117.44 1094.67 416.816
1546 0 76.0946 11.9457 909 121.311 1094.44 413.43
1547 0 80.2676 11.5613 928 123.162 1094.2 412.556
1548 0 84.0907 12.4984 1051 121.656 1094.38 410.798
1549 1 44.0828 11.9094 525 116.8 1094.18 431.196
1550 0 46.1296 12.2915 567 117.182 1094.61 428.312
1551 0 49.0813 11.919 585 116.59 1094.69 433.427
1552 0 49.0179 12.4648 611 118.025 1094.94 428.951
1553 0 52.0594 12.6778 660 115.612 1094.44 428.408
1554 0 51.0674 12.1996 623 118.236 1093.91 427.042
1555 0 56.1841 13.082 735 113.605 1093.98 427.941
1556 0 56.034 13.6524 765 114.417 1093.95 426.588
1557 0 56.0401 13.0799 733 117.458 1094.05 426.625
1558 0 58.1181 13.9027 808 117.309 1093.26 422.161
1559 0 60.117 14.0227 843 116.205 1094.28 422.282
1560 0 62.0719 13.9194 864 116.367 1094.08 425.713
1561 0 64.1639 13.559 870 117.624 1093.85 423.03
1562 0 67.0607 13.8829 931 116.526 1093.51 420.74
1563 0 68.1088 12.5388 854 119.411 1093.59 420.247
1564 0 73.1949 13.7988 1010 116.136 1093.19 418.236
1565 0 76.1597 14.4565 1101 113.918 1093.82 419.177
1566 0 77.1558 14.4124 1112 115.415 1093.92 416.753
1567 0 79.2429 14.1085 1118 115.382 1094.21 417.24
1568 0 81.1671 13.0841 1062 118.349 1094.17 416.398
1569 0 86.24 13.0218 1123 117.278 1094.47 415.513
1570 0 91.2687 13.9588 1274 113.432 1093.84 409.988
1571 0 95.1618 15.626 1487 109.167 1093.93 408.9
1572 0 98.1327 15.3364 1505 109.265 1093.76 406.749
1573 0 99.1498 15.7943 1566 109.321 1093.51 405.946
1574 1 51.1897 12.6783 649 114.908 1093.94 430.307
1575 0 52.2269 14.3221 748 110.575 1094.52 431.144
1576 0 51.2448 14.5576 746 136.434 1094.52 430.987
1577 0 55.101 13.7747 759 112.258 1095.25 428.884
1578 0 55.0812 15.1413 834 110.382 1094.77 427.59
1579 0 58.1333 13.555 788 112.185 1094.77 428.174
1580 0 59.0783 12.7797 755 114.423 1094.83 426.668
1581 0 62.0802 14.3524 891 109.929 1094.85 426.383
1582 0 64.2956 14.9466 961 108.969 1094.75 423.761
1583 0 65.2031 12.7755 833 114.723 1094.97 422.401
1584 0 69.2608 14.1927 983 109.957 1094.21 423.702
1585 0 70.2833 13.4314 944 112.365 1094.35 422.02
1586 0 72.3416 13.9754 1011 111.045 1094.83 421.61
1587 0 73.2631 14.1681 1038 110.857 1095.01 420.252
1588 0 76.3748 13.7873 1053 110.969 1093.82 420.257
1589 0 80.2719 13.8405 1111 109.939 1094.09 418.635
1590 0 82.3399 13.0435 1074 110.775 1094.56 420.269
1591 0 87.3883 16.9474 1481 101.237 1094.47 412.202
1592 0 91.281 16.137 1473 102.464 1094.12 412.632
1593 0 92.2302 14.9951 1383 105.987 1094.34 412.492
1594 1 48.0438 13.5501 651 106.928 1095.19 434.152
1595 0 47.0399 12.6913 597 110.317 1095.54 434.43
1596 0 50.0555 13.7048 686 106.671 1095.46 431.034
1597 0 51.0492 12.4782 637 110.231 1095.15 429.548
1598 0 51.0938 13.0936 669 108.903 1094.56 430.004
1599 0 54.1427 13.3721 724 106.771 1094.81 429.588
1600 0 56.0688 14.0185 786 105.295 1095.75 428.176
1601 0 56.1485 12.0039 674 110.558 1094.59 429.297
1602 0 59.0252 11.6899 690 110.149 1094.51 428.742
1603 0 62.1652 14.928 928 104.224 1094.14 425.055
1604 0 67.0491 15.7646 1057 100.667 1094.15 423.026
1605 0 70.0826 15.4104 1080 101.438 1094.3 423.052
1606 0 69.0678 15.3907 1063 103.751 1094 419.935
1607 0 72.0792 14.4979 1045 106.21 1094.47 421.995
1608 0 73.1322 13.7422 1005 109.151 1094.97 420.687
1609 0 77.0848 15.1651 1169 106.554 1094.63 418.579
1610 0 79.086 14.1239 1117 108.614 1095.21 417.67
1611 0 84.0507 14.5388 1222 107.97 1095.04 416.044
1612 0 86.0987 14.5647 1254 108.898 1094.43 413.89
1613 0 89.1137 14.9584 1333 108.728 1094.76 413.507
1614 0 91.0735 13.9009 1266 112.592 1094.57 410.092
1615 0 93.197 14.0133 1306 112.93 1094.35 410.077
1616 0 96.1594 13.2384 1273 114.949 1094.91 407.825
1617 0 101.223 12.586 1274 114.859 1094.62 408.211
1618 0 106.205 14.8863 1581 110.736 1095.13 403.215
1619 0 110.224 14.9332 1646 110.903 1094.47 401.339
1620 1 60.052 12.6391 759 109.733 1094.16 425.281
1621 0 62.0722 13.2104 820 108.371 1094.76 426.384
1622 0 64.1262 13.0836 839 109.677 1094.42 425.867
1623 0 66.2018 13.1416 870 110.316 1094.95 424.23
1624 0 69.1375 12.627 873 109.866 1094.96 425.351
1625 0 72.1687 12.8726 929 109.488 1094.73 423.475
1626 0 74.1469 12.9742 962 110.588 1094.94 421.075
1627 0 78.2478 13.764 1077 108.419 1094.82 420.379
1628 0 82.1974 12.8228 1054 111.124 1094.48 419.552
1629 0 83.2341 12.8673 1071 112.417 1094.32 417.331
1630 0 87.1966 14.8859 1298 108.378 1094.47 414.951
1631 0 89.2811 13.1719 1176 113.173 1094.64 413.404
1632 0 93.1715 13.62 1269 110.87 1093.89 410.45
1633 0 96.134 12.8363 1234 112.099 1094.01 409.956
1634 0 101.074 13.3071 1345 110.765 1094.14 408.258
1635 1 52.0603 12.1974 635 104.876 1094.39 434.879
1636 0 53.0354 11.4075 605 107.661 1094.47 428.555
1637 0 57.096 12.6454 722 102.299 1095.81 432.14
1638 0 58.0382 11.7336 681 104.637 1095.51 428.495
1639 0 62.1698 12.2085 759 97.3123 1094.32 426.663
1640 0 64.1428 11.0847 711 100.277 1094.96 426.426
1641 0 65.0729 12.5398 816 98.6164 1094.28 422.341
1642 0 68.1161 11.73 799 99.9837 1094.3 421.009
1643 0 70.1329 12.348 866 100.062 1093.8 420.013
1644 0 73.1999 12.6366 925 98.8627 1093.91 420.81
1645 0 76.2035 11.863 904 100.595 1093.21 418.787
1646 0 75.1642 11.854 891 103.356 1094.3 416.055
1647 0 78.1349 11.7361 917 105.16 1094 414.626
1648 0 82.1373 12.4791 1025 102.936 1093.91 415.2
1649 0 84.0988 13.0085 1094 103.522 1094.33 412.973
1650 0 86.1307 12.2604 1056 106.165 1094 411.016
1651 1 44.1387 10.8748 480 105.358 1093.62 430.667
1652 0 47.1088 11.8662 559 103.877 1094.55 430.39
1653 0 51.1183 11.4636 586 101.143 1093.9 430.022
1654 0 50.0462 12.0289 602 99.9186 1094.04 429.937
1655 0 53.1575 12.0021 638 99.9483 1094.08 429.259
1656 0 52.0524 10.0091 521 106.234 1094.61 427.75
1657 0 53.1306 13.0057 691 98.958 1094.16 422.637
1658 0 57.1237 12.1491 694 99.8876 1094.16 422.797
1659 0 58.0964 12.2727 713 101.265 1094.37 419.165
1660 0 61.0655 13.0024 794 98.9446 1094.47 418.178
1661 0 61.0577 11.8249 722 102.547 1094.12 420.992
1662 0 64.1432 12.1291 778 101.636 1093.98 424.613
1663 0 64.088 12.4984 801 102.604 1093.96 427.627
1664 0 67.159 11.7631 790 105.071 1094.34 426.739
1665 0 68.1351 12.8862 878 105.109 1093.79 419.618
1666 0 71.1603 12.3664 880 107.186 1093.95 421.026
1667 0 73.0968 12.2167 893 110.272 1094.46 420.532
1668 0 76.2576 12.5758 959 109.781 1094.21 421.683
1669 0 78.2003 13.0562 1021 106.868 1094.12 416.894
1670 0 81.1453 11.9292 968 110.949 1094.48 419.764
1671 0 82.2169 12.2116 1004 113.228 1093.69 417.157
1672 0 87.2558 12.641 1103 111.32 1094.34 416.437
1673 0 89.1618 12.7745 1139 112.615 1094.39 413.02
1674 0 92.1987 13.0913 1207 111.504 1094.25 413.616
1675 0 94.1836 12.4332 1171 115.098 1094.28 408.114
1676 0 99.2012 14.0321 1392 111.545 1093.86 405.65
1677 0 100.064 13.2816 1329 112.856 1094.1 398.531
1678 1 55.0616 11.242 619 108.553 1094.29 427.742
1679 0 55.0836 11.6187 640 103.872 1094.06 423.895
1680 0 59.024 10.9786 648 104.863 1094.64 421.028
1681 0 60.0307 11.5608 694 103.988 1094.47 420.184
1682 0 62.0349 11.0905 688 105.561 1093.91 416.626
1683 0 63.0922 12.2044 770 103.275 1093.94 417.374
1684 0 67.0375 11.7397 787 103.437 1093.8 416.362
1685 0 68.0666 10.5632 719 106.43 1093.47 415.089
1686 0 72.0456 12.8669 927 101.324 1093.33 413.374
1687 0 74.0553 12.8958 955 100.829 1093.42 414.925
1688 0 77.0624 12.4964 963 102.721 1094 413.893
1689 0 77.0307 12.0082 925 105.364 1093.48 413.604
1690 0 82.0426 13.7246 1126 101.534 1093.62 409.404
1691 0 83.097 12.1424 1009 105.54 1094.3 406.277
1692 0 85.1302 11.3473 966 109.158 1094.19 403.562
1693 0 90.1525 11.6137 1047 106.985 1094.01 401.5
1694 0 92.1697 12.4987 1152 106.567 1093.58 398.416
1695 0 97.1369 12.8993 1253 104.829 1093.91 399.831
1696 1 53.1048 11.6185 617 102.363 1094.6 420.72
1697 0 53.1801 10.3046 548 112.604 1094.05 418.628
1698 0 55.0989 11.0166 607 103.237 1095.28 415.745
1699 0 59.0533 10.9731 648 102.461 1094.88 417.4
1700 0 58.0696 10.4702 608 125.235 1094.84 418.11
1701 0 62.0538 11.909 739 101.465 1095.04 417.422
1702 0 62.0801 11.7751 731 101.971 1094.49 412.632
1703 0 66.1938 10.862 719 103.744 1093.87 408.576
1704 0 67.1228 11.248 755 100.335 1094.14 407.564
1705 0 72.1379 11.4364 825 98.6776 1093.82 407.312
1706 0 75.076 11.9745 899 97.2481 1093.85 408.858
1707 0 76.1287 10.1144 770 102.632 1093.91 403.588
1708 0 78.1652 10.9512 856 101.402 1093.79 405.152
1709 0 81.1758 11.8015 958 99.5251 1093.7 408.638
1710 0 83.0761 10.6408 884 102.412 1093.77 401.719
1711 0 85.171 11.4006 971 101.819 1093.21 403.013
1712 0 90.1151 12.0513 1086 100.88 1093.4 401.116
1713 0 92.1459 11.0802 1021 103.122 1094 399.522
1714 0 97.051 11.4579 1112 101.345 1093.81 401.165
1715 1 53.0651 10.7604 571 91.5884 1094.37 423.881
1716 0 52.0757 9.88944 515 94.8621 1094.19 419.734
1717 0 54.1135 11.4389 619 91.7141 1094.05 420.142
1718 0 54.0814 11.2978 611 93.0442 1093.74 417.43
1719 0 56.0462 8.49299 476 96.479 1093.41 422.662
1720 0 57.0631 9.79617 559 95.0555 1093.49 422.324
1721 0 60.1135 10.2306 615 94.3496 1094 417.221
1722 0 61.0139 10.8336 661 93.4629 1093.77 415.301
1723 0 64.1063 11.013 706 93.6629 1093.92 417.229
1724 0 64.0525 10.9285 700 94.3286 1094.04 415.023
1725 0 67.0521 11.6626 782 93.0716 1093.92 415.702
1726 0 69.0696 12.0603 833 92.5522 1093.63 412.707
1727 0 72.0632 11.6981 843 93.5101 1093.78 411.689
1728 0 71.0828 11.0857 788 96.9734 1094.05 413.44
1729 0 76.0857 12.2494 932 94.0161 1094.68 412.303
1730 0 77.0318 12.4884 962 94.3482 1093.94 413.286
1731 0 77.0333 12.579 969 115.57 1092.94 413.135
1732 0 81.0549 11.1159 901 97.98 1094.15 406.417
1733 0 84.1299 11.922 1003 96.6411 1094.66 406.655
1734 0 86.0683 12.827 1104 95.6504 1093.95 406.617
1735 0 89.0893 12.089 1077 97.5766 1094.43 406.51
1736 0 94.0613 11.737 1104 97.9411 1093.94 404.764
1737 0 97.1225 12.7983 1243 96.4988 1094.31 404.286
1738 0 98.0612 12.6044 1236 97.1683 1093.64 406.271
1739 1 49.1016 10.1219 497 94.9396 1094.4 433.28
1740 0 50.037 10.3124 516 98.4981 1094.15 429.045
1741 0 52.0855 10.694 557 94.7074 1094.41 426.406
1742 0 55.1375 12.1514 670 92.6224 1094.59 422.2
1743 0 56.0869 11.6248 652 94.6181 1094.23 420.911
1744 0 58.1466 11.2818 656 94.843 1093.67 425.288
1745 0 59.0528 12.0231 710 93.9775 1093.48 423.696
1746 0 64.0927 12.0919 775 92.8194 1093.97 423.787
1747 0 64.107 12.4011 795 93.9208 1093.57 418.594
1748 0 67.0634 12.0036 805 94.5155 1093.57 415.697
1749 0 69.155 11.8285 818 94.7311 1093.77 416.779
1750 0 71.1096 11.9393 849 96.5324 1093.33 412.963
1751 0 74.2274 12.6368 938 95.4851 1092.78 412.397
1752 0 75.1256 13.1646 989 96.1426 1093.57 406.109
1753 0 79.2738 12.9677 1028 96.8161 1093.67 406.766
1754 0 81.1844 13.1676 1069 98.0917 1093.37 408.224
1755 0 86.2327 14.2753 1231 95.4785 1093.68 414.492
1756 0 88.2273 13.1932 1164 99.1486 1093.28 412.355
1757 0 90.3736 13.8315 1250 100.869 1093.34 411.163
1758 0 93.3212 13.1696 1229 103.631 1093.56 409.122
1759 1 48.2765 9.4663 457 104.221 1093.27 431.829
1760 0 53.1153 12.7647 678 96.382 1093.85 429.414
1761 0 52.2462 11.1013 580 98.631 1094.43 431.105
1762 0 54.0551 11.4328 618 99.3091 1094.27 422.094
1763 0 54.1084 11.2367 608 100.974 1093.63 422.161
1764 0 56.1222 10.8335 608 101.673 1094.24 421.349
1765 0 59.1516 12.6624 749 97.028 1094.34 422.407
1766 0 61.0933 10.9177 667 101.727 1094.03 421.432
1767 0 64.0622 13.1591 843 96.8055 1093.57 419.507
1768 0 67.1017 11.6838 784 98.9426 1094.25 420.196
1769 0 68.1769 11.7195 799 100.427 1093.3 420.443
1770 0 70.1573 11.688 820 100.52 1093.75 414.201
1771 0 72.22 11.5619 835 101.029 1094.36 413.319
1772 0 75.1959 13.0991 985 98.0284 1094.01 412.646
1773 0 77.194 11.4387 883 101.775 1093.71 414.98
1774 0 79.0967 12.137 960 101.118 1094.46 408.261
1775 0 82.1723 12.2791 1009 100.834 1094.74 409.611
1776 0 85.2094 12.0996 1031 101.276 1094.37 411.135
1777 0 88.1935 9.842 868 109.499 1094.37 413.434
1778 0 92.1616 10.8071 996 103.578 1094.73 411.239
1779 0 96.1251 11.7139 1126 102.746 1094.46 402.842
1780 0 99.1952 11.4824 1139 103.011 1094.18 400.941
1781 1 51.0648 10.2615 524 101.989 1094.95 426.08
1782 0 53.0927 10.7548 571 98.1349 1095.05 423.965
1783 0 54.0262 10.2913 556 99.5629 1094.2 425.531
1784 0 55.0178 10.9237 601 99.0383 1093.81 424.872
1785 0 58.0302 11.6319 675 97.1244 1094.25 421.858
1786 0 58.0306 11.1493 647 99.051 1093.53 418.756
1787 0 64.0703 12.6424 810 94.3519 1093.86 421.167
1788 0 66.1044 12.2231 808 95.2686 1094.31 419.594
1789 0 63.1328 11.1036 701 98.5578 1093.96 416.191
1790 0 69.1087 11.9088 823 95.7424 1093.76 414.876
1791 0 71.0796 12.479 887 94.9684 1094.76 413.693
1792 0 73.0552 10.6495 778 98.6054 1093.76 414.015
1793 0 75.1384 11.5121 865 97.0173 1093.7 409.935
1794 0 77.1193 11.6962 902 97.3603 1093.78 409.315
1795 0 80.2017 11.8825 953 97.1973 1093.8 408.258
1796 0 83.1781 11.1448 927 98.4962 1093.73 409.655
1797 0 88.1455 12.105 1067 95.7067 1094.38 410.517
1798 0 89.1062 11.9408 1064 97.1212 1094.22 408.33
1799 1 47.0438 11.096 522 91.0096 1094.48 431.586
1800 0 46.1005 10.5205 485 96.6247 1094.24 429.86
1801 0 47.0572 10.3916 489 94.7444 1094.97 422.538
1802 0 49.0597 11.2924 554 93.2726 1094.46 422.989
1803 0 51.0849 9.61146 491 96.3768 1094.61 423.147
1804 0 54.0437 11.3427 613 93.46 1094.5 423.284
1805 0 57.0769 12.4218 709 90.2948 1094.09 418.791
1806 0 54.0762 10.966 593 96.7234 1093.32 417.535
1807 0 56.1259 11.8484 665 95.6586 1093.87 416.988
1808 0 60.0511 11.4069 685 96.1562 1094.52 416.031
1809 0 61.0935 10.8359 662 97.2462 1094.48 419.231
1810 0 63.0796 11.4617 723 96.0512 1094.53 422.484
1811 0 63.1199 11.7871 744 97.3522 1094.14 419.207
1812 0 67.1454 12.1229 814 96.3771 1094.71 417.41
1813 0 67.0377 11.9187 799 97.9387 1094.58 418.284
1814 0 69.1069 12.43 859 97.5169 1094.46 417.86
1815 0 71.0245 11.6016 824 99.9053 1094.75 416.448
1816 0 75.1024 12.3032 924 98.9394 1094.55 418.596
1817 0 78.0944 12.3952 968 99.311 1094.21 417.549
1818 0 78.0585 12.3241 962 99.9345 1094.76 414.895
1819 0 82.143 12.9043 1060 98.5321 1094.55 413.275
1820 0 82.0794 10.5508 866 105.277 1094.59 409.768
1821 0 88.0818 11.7959 1039 102.127 1094.47 411.209
1822 0 91.0703 11.826 1077 103.45 1094.13 411.406
1823 0 92.1393 11.3632 1047 103.604 1095.2 410.1
1824 1 47.196 9.59828 453 98.1435 1094.9 430.868
1825 0 50.0992 10.8784 545 99.7853 1094.35 427.246
1826 0 51.0783 11.1006 567 96.6596 1094.44 421.843
1827 0 51.0394 11.5009 587 96.7053 1094.27 422.133
1828 0 54.0725 11.1887 605 96.8198 1094.33 421.417
1829 0 55.043 10.5191 579 100.071 1094.62 419.446
1830 0 57.1027 11.8383 676 97.5858 1094.76 420.287
1831 0 60.0752 11.9184 716 97.1006 1093.96 421.754
1832 0 61.0922 12.3911 757 97.0885 1093.95 421.03
1833 0 62.0718 12.1472 754 99.0027 1093.92 421.257
1834 0 65.0417 11.5772 753 100.822 1094.21 420.388
1835 0 68.084 11.7796 802 101.398 1093.66 419.418
1836 0 68.1109 12.1273 826 102.571 1094.12 417.975
1837 0 72.1644 13.9681 1008 99.121 1094.17 418.42
1838 0 73.0801 12.2879 898 104.704 1094.58 416.212
1839 0 73.1551 11.4278 836 109.337 1094.37 412.634
1840 0 73.1536 11.4417 837 137.548 1093.36 412.429
1841 0 79.0619 12.7622 1009 109.333 1095.21 405.996
1842 0 84.131 12.5043 1052 110.43 1094.75 408.98
1843 0 85.1189 12.5354 1067 111.473 1094.47 410.817
1844 0 88.1859 14.7756 1303 107.645 1094.96 410.14
1845 0 93.0972 13.255 1234 109.769 1094.89 406.959
1846 1 48.0326 11.284 542 106.943 1094.87 424.596
1847 0 51.0518 10.8713 555 106.836 1094.31 424.677
1848 0 52.0367 12.2029 635 101.113 1094.27 426.512
1849 0 53.1377 10.5763 562 105.292 1093.96 425.404
1850 0 56.0543 11.8992 667 101.529 1093.58 425.996
1851 0 58.0838 11.5695 672 102.237 1093.76 422.128
1852 0 59.0981 10.9987 650 104.448 1094.32 418.117
1853 0 63.22 13.3186 842 98.3979 1094.25 419.353
1854 0 60.2459 10.7227 646 106.166 1094.5 419.147
1855 0 66.2043 12.401 821 101.82 1094.29 419.639
1856 0 66.1404 11.3546 751 104.933 1094.17 415.73
1857 0 69.1412 12.1057 837 103.674 1094.4 417.792
1858 0 70.3021 10.7394 755 106.834 1094.6 416.095
1859 0 74.2152 11.022 818 105.269 1093.96 417.73
1860 0 78.2604 11.679 914 104.133 1093.89 415.163
1861 0 82.1597 12.0862 993 103.247 1094.07 410.824
1862 0 84.1258 11.8394 996 106.048 1094.15 401.603
1863 0 87.2014 11.7773 1027 105.826 1094.04 404.647
1864 0 90.2045 13.3696 1206 105.142 1094.23 405.695
1865 1 49.1152 11.7072 575 106.106 1094.61 427.506
1866 0 51.0621 11.0454 564 108.833 1093.8 424.284
1867 0 54.0881 12.1099 655 105.957 1093.58 422.678
1868 0 52.0399 11.0492 575 106.515 1093.89 428.264
1869 0 53.0462 12.3289 654 103.014 1093.78 424.321
1870 0 56.057 11.9343 669 103.049 1093.69 421.429
1871 0 57.0751 12.7726 729 102.07 1094.19 416.968
1872 0 62.0571 12.9558 804 98.7973 1094.15 416.203
1873 0 60.1048 11.7295 705 103.784 1093.7 417.827
1874 0 63.1175 11.74 741 103.397 1093.62 418.136
1875 0 64.0926 12.5912 807 101.779 1094.14 420.743
1876 0 66.0281 13.4791 890 100.898 1093.48 418.142
1877 0 66.079 12.2429 809 104.066 1093.67 416.855
1878 0 69.076 12.3921 856 104.472 1093.95 419.929
1879 0 71.1876 13.3029 947 103.702 1093.64 419.329
1880 0 76.1528 13.3022 1013 102.832 1092.91 413.377
1881 0 76.0698 13.2247 1006 105.005 1093.55 408.738
1882 0 81.0638 14.7908 1199 100.711 1093.19 406.575
1883 0 81.1094 13.6729 1109 104.756 1093.27 405.96
1884 0 86.108 12.6585 1090 105.81 1093.31 409.827
1885 0 87.0843 14.3769 1252 102.199 1093.44 410.782
1886 0 91.0662 15.1538 1380 101.612 1093.42 407.086
1887 0 92.0587 12.3725 1139 107.955 1093.7 402.872
1888 0 93.0881 11.9886 1116 109.775 1093.72 401.657
1889 1 53.0574 10.385 551 103.862 1094.28 427.167
1890 0 56.0429 11.9908 672 103.417 1094.06 424.518
1891 0 55.0204 11.2685 620 102.405 1093.34 421.765
1892 0 59.0534 11.9891 708 99.4746 1093.89 418.275
1893 0 60.0456 10.9916 660 101.82 1093.69 416.571
1894 0 63.0183 11.933 752 98.8112 1093.71 417.62
1895 0 66.1391 13.774 911 95.5971 1093.47 417.033
1896 0 65.0815 11.7391 764 101.552 1093.63 418.808
1897 0 68.134 12.901 879 98.1217 1093.68 418.515
1898 0 72.0821 12.7077 916 97.988 1094.13 420.329
1899 0 74.1646 13.497 1001 96.3277 1094.25 418.651
1900 0 77.1463 12.7939 987 98.5461 1094.01 415.723
1901 0 78.1056 12.7904 999 99.3744 1094.34 415.167
1902 0 80.1757 12.5474 1006 101.235 1095.03 406.766
1903 0 83.1192 12.2715 1020 102.219 1093.96 404.923
1904 0 87.123 12.9817 1131 98.8691 1094.56 407.215
1905 0 91.0679 13.5943 1238 97.9338 1094.36 403.863
1906 0 92.1279 11.3863 1049 102.566 1094.58 405.911
1907 1 49.0169 11.6082 569 102.271 1093.27 429.438
1908 0 47.1278 10.8216 510 108.092 1093.67 424.998
1909 0 52.0819 10.4259 543 98.4125 1094.22 431.319
1910 0 54.1248 12.2864 665 95.9128 1094.16 428.774
1911 0 54.0504 11.2673 609 98.7422 1094.1 424.34
1912 0 58.027 12.2184 709 95.6347 1094.31 424.412
1913 0 59.0608 11.8014 697 97.3931 1094.21 422.359
1914 0 61.0673 13.1822 805 94.0584 1094.2 421.867
1915 0 63.0549 12.5922 794 95.4899 1094.3 420.724
1916 0 64.1049 13.1503 843 94.4887 1094.46 420.696
1917 0 65.0668 11.2346 731 99.5732 1094.29 421.346
1918 0 68.0988 13.7888 939 94.1022 1093.95 421.814
1919 0 72.0692 12.6268 910 96.3253 1094.08 420.254
1920 0 75.0841 14.2374 1069 91.9364 1094.61 416.135
1921 0 81.1768 15.4108 1251 89.4636 1094.46 415.855
1922 0 80.2287 14.7329 1182 92.8832 1094.26 414.019
1923 0 80.1989 12.9927 1042 98.7869 1094.7 412.403
1924 0 83.093 12.8531 1068 100.394 1093.93 411.995
1925 0 84.2286 11.445 964 103.815 1093.78 412.011
1926 0 88.1475 11.5261 1016 105.423 1094.32 409.019
1927 1 46.0607 9.85656 454 100.782 1094.15 433.835
1928 0 48.1006 10.7275 516 98.7519 1094.27 428.453
1929 0 48.0879 10.1273 487 101.667 1094.13 425.571
1930 0 51.0399 11.9122 608 97.1464 1094.11 424.439
1931 0 51.0399 11.971 611 123.028 1094.11 424.38
1932 0 52.0282 11.7628 612 102.709 1093.64 425.848
1933 0 55.0706 12.1662 670 102.104 1093.98 427.715
1934 0 54.0597 10.9694 593 107.686 1094.35 421.902
1935 0 59.0256 11.8423 699 105.66 1093.93 418.956
1936 0 59.095 11.9976 709 105.889 1094.28 418.082
1937 0 61.0254 10.8971 665 109.505 1093.82 417.495
1938 0 64.0388 12.4143 795 106.994 1093.78 410.853
1939 0 65.0576 11.8357 770 110.36 1094.46 410.21
1940 0 67.07 12.0173 806 110.138 1094.54 408.926
1941 0 69.0474 12.5276 865 110.354 1093.79 406.467
1942 0 72.1103 12.7166 917 110.308 1093.77 406.409
1943 0 75.0505 12.0719 906 112.172 1094.2 406.74
1944 0 77.0917 11.8171 911 114.4 1094.28 404.312
1945 0 80.0459 12.7302 1019 111.144 1094.21 404.754
1946 0 84.1137 12.3286 1037 111.6 1094.46 411.661
1947 0 87.1285 13.3366 1162 109.873 1094.89 406.045
1948 1 46.0327 9.49326 437 112.311 1095.22 431.89
1949 0 47.0797 10.153 478 113.605 1094.45 433.23
1950 0 50.0984 10.5592 529 113.344 1094.26 431.023
1951 0 51.0646 10.3986 531 113.015 1094.34 428.557
1952 0 52.0292 11.1668 581 111.991 1094.46 425.129
1953 0 54.059 10.1926 551 114.973 1093.98 424.539
1954 0 56.0638 12.2004 684 109.804 1094.16 420.959
1955 0 56.0726 11.5386 647 111.887 1094.5 419.566
1956 0 59.0609 11.4119 674 110.047 1093.16 420.864
1957 0 61.1427 11.0397 675 112.145 1094.25 419.193
1958 0 61.1484 11.513 704 111.554 1093.96 417.612
1959 0 65.1118 11.6876 761 109.057 1093.76 420.982
1960 0 64.0281 11.0108 705 112.448 1094.31 420.197
1961 0 67.1328 11.589 778 109.094 1094.01 418.26
1962 0 72.0623 12.8361 925 105.321 1094.44 416.604
1963 0 73.0799 13.7521 1005 104.606 1094.16 410.746
1964 0 75.1287 11.8064 887 108.607 1094.31 410.156
1965 0 77.0159 11.5301 888 108.976 1094.24 409.586
1966 0 78.0322 11.9182 930 108.462 1093.93 407.655
1967 0 83.1091 10.7569 894 110.745 1094 409.938
1968 0 85.125 11.1601 950 109.315 1093.92 408.437
1969 1 42.084 8.79195 370 103.592 1095.06 433.884
1970 0 44.1263 10.1074 446 104.836 1094.19 430.529
1971 0 48.13 11.5728 557 103.903 1094.18 427.384
1972 0 49.0833 12.9372 635 101.874 1093.38 427.187
1973 0 48.105 10.9968 529 106.917 1093.89 428.809
1974 0 52.1049 12.3213 642 102.986 1093.9 425.994
1975 0 51.1728 12.9952 665 103.645 1093.69 423.361
1976 0 53.0859 12.6776 673 104.114 1094.19 423.897
1977 0 54.1124 12.3262 667 105.757 1093.81 424.657
1978 0 56.0721 12.3412 692 105.428 1093.68 421.601
1979 0 58.1766 12.5996 733 103.73 1093.89 425.109
1980 0 60.0416 12.558 754 105.053 1093.29 420.952
1981 0 62.1114 13.9588 867 103.119 1093.18 418.033
1982 0 63.0583 13.432 847 104.808 1093.78 417.897
1983 0 67.1063 13.8139 927 103.167 1093.74 419.658
1984 0 69.0941 14.1257 976 102.481 1093.98 416.335
1985 0 70.0859 12.1851 854 108.616 1093.71 415.21
1986 0 73.2098 13.4681 986 104.966 1093.93 415.275
1987 0 76.0388 13.3485 1015 106.911 1094.79 412.727
1988 0 78.0466 13.0179 1016 108.933 1093.31 413.166
1989 0 81.1157 12.7595 1035 109.937 1094.15 407.838
1990 0 84.1619 12.3096 1036 111.655 1094.44 409.666
1991 1 45.089 12.3755 558 108.452 1093.56 431.335
1992 0 47.0473 11.4353 538 111.099 1092.99 428.771
1993 0 49.0567 12.5365 615 107.761 1093.02 428.268
1994 0 50.112 11.7936 591 108.778 1093.28 427.504
1995 0 49.0671 12.595 618 108.905 1093.5 426.312
1996 0 51.0395 13.2446 676 107.093 1093.98 425.435
1997 0 55.0435 13.2804 731 106.393 1093.66 425.903
1998 0 55.0265 12.8302 706 108.552 1092.78 426.653
1999 0 54.0728 13.0565 706 110.021 1093.06 425.069
2000 0 59.0844 14.437 853 104.416 1093.01 423.05
2001 0 59.1166 12.6361 747 110.149 1092.54 421.017
2002 0 62.0653 13.4697 836 108.147 1092.66 421.545
2003 0 63.0839 13.2998 839 110.243 1092.89 420.303
2004 0 65.0766 14.1218 919 107.953 1092.84 417.461
2005 0 68.0324 14.4196 981 107.218 1093.14 416.277
2006 0 68.0694 13.8241 941 110.69 1093.31 417.498
2007 0 70.0824 13.2986 932 112.381 1093.5 416.236
2008 0 73.0859 13.19 964 114.494 1093.76 411.483
2009 0 75.0731 14.1595 1063 112.714 1093.36 409.409
2010 0 78.0739 14.3198 1118 112.826 1093.34 409.023
2011 0 82.1499 15.2891 1256 109.624 1093.66 409.232
2012 0 82.0869 13.6928 1124 115.634 1093.33 402.818
2013 0 85.1758 14.1002 1201 114.553 1093.29 403.602
2014 0 89.3097 14.4777 1293 114.104 1093.02 408.708
2015 0 91.2539 14.4871 1322 115.592 1092.58 404.116
2016 1 48.029 10.7019 514 117.305 1092.51 424.636
2017 0 51.1607 11.6496 596 115.044 1093.5 424.483
2018 0 54.0557 12.5056 676 108.315 1094.17 425.602
2019 0 52.0287 12.3393 642 108.656 1093.92 424.829
2020 0 56.1678 11.6793 656 109.439 1093.56 425.553
2021 0 57.0526 11.9714 683 109.663 1093.85 423.593
2022 0 57.0163 11.8738 677 111.263 1094 419.533
2023 0 59.0877 12.2361 723 110.66 1093.92 419.452
2024 0 63.1088 13.2153 834 108.126 1094.03 419.571
2025 0 64.039 12.305 788 111.239 1094.06 419.528
2026 0 64.0759 12.3759 793 111.233 1094 419.327
2027 0 68.0286 12.7887 870 108.374 1094.42 420.978
2028 0 69.1254 12.8751 890 109.499 1094.24 414.58
2029 0 71.0621 11.3141 804 113.463 1093.63 414.689
2030 0 75.0569 12.9502 972 109.088 1094.1 413.325
2031 0 75.0987 12.1041 909 112.958 1094.69 410.981
2032 0 80.0864 13.011 1042 110.189 1094.51 412.049
2033 0 81.0985 12.3553 1002 112.383 1094.48 410.508
2034 0 87.0986 12.8245 1117 109.881 1094.15 410.195
2035 0 88.0791 12.0573 1062 113.269 1093.72 406.467
2036 0 91.1476 12.4523 1135 111.873 1093.59 405.539
2037 1 47.0502 10.8395 510 108.235 1093.95 428.606
2038 0 48.0979 10.9568 527 110.065 1094.65 422.668
2039 0 51.1464 12.4153 635 105.055 1093.85 424.472
2040 0 51.1464 12.3762 633 130.291 1092.86 424.472
2041 0 52.1118 12.9145 673 105.88 1094.18 422.875
2042 0 54.043 11.7129 633 108.667 1094.34 423.965
2043 0 56.1022 12.1386 681 107.722 1094.38 427.651
2044 0 60.1347 13.3534 803 103.984 1094 424.274
2045 0 60.0361 13.0255 782 104.963 1094.18 426.166
2046 0 62.0838 12.8214 796 106.758 1093.77 423.531
2047 0 63.0461 11.9595 754 109.976 1093.39 423.016
2048 0 65.0628 12.6647 824 109.175 1093.66 419.507
2049 0 68.0798 13.352 909 107.964 1093.43 417.46
2050 0 70.1407 12.3038 863 110.204 1093.54 417.718
2051 0 73.1895 13.8681 1015 107.969 1094.31 416.034
2052 0 76.0661 13.015 990 111.223 1093.84 415.025
2053 0 79.1513 13.6195 1078 111.547 1093.96 414.619
2054 0 83.257 13.7886 1148 111.879 1093.77 412.342
2055 0 82.1068 13.251 1088 115.783 1093.46 409.387
2056 1 44.0513 11.4185 503 119.6 1093.72 429.602
2057 0 47.0304 13.0979 616 115.93 1093.39 427.768
2058 0 47.0745 12.4696 587 121.598 1093.79 428.228
2059 0 50.0643 12.9234 647 120.909 1092.69 428.921
2060 0 52.0748 13.7494 716 118.887 1092.86 425.517
2061 0 53.0529 13.0624 693 122.518 1093.01 425.945
2062 0 55.0524 14.4771 797 120.107 1093.2 425.205
2063 0 57.0444 12.3237 703 125.626 1093.23 425.181
2064 0 60.0566 14.0701 845 120.034 1093.57 423.349
2065 0 58.0611 13.813 802 124.217 1093.61 421.946
2066 0 63.042 13.5624 855 124.601 1093.41 420.688
2067 0 64.0677 12.5336 803 123.951 1094.81 425.945
2068 0 66.0405 13.7643 909 120.939 1094.29 414.975
2069 0 68.0495 13.7841 938 122.7 1094.52 412.277
2070 0 69.0625 12.829 886 126.274 1093.89 410.699
2071 0 73.1024 13.4742 985 124.795 1094.21 411.81
2072 0 74.0757 14.1342 1047 126.331 1094.64 409.613
2073 0 76.0371 12.6123 959 129.765 1094.11 411.259
2074 0 81.1152 13.524 1097 127.131 1093.91 408.016
2075 0 82.1703 13.3625 1098 128.854 1094.28 407.802
2076 0 86.0262 14.0422 1208 126.655 1094.08 402.49
2077 0 89.0893 13.0768 1165 132.257 1093.83 404.052
2078 1 44.0344 11.9679 527 128.237 1093.61 428.378
2079 0 45.0746 13.0007 586 125.91 1094.08 428.002
2080 0 49.0163 12.8325 629 122.795 1094 426.39
2081 0 47.0541 11.7099 551 130.786 1093.46 425.544
2082 0 50.0742 13.1205 657 125.782 1093.91 424.81
2083 0 51.0349 12.3641 631 127.827 1093.66 424.298
2084 0 54.0465 12.8778 696 124.622 1094.24 423.351
2085 0 55.0171 12.7779 703 125.997 1094.33 423.373
2086 0 57.0429 12.6922 724 124.206 1094.45 424.602
2087 0 58.0408 12.5946 731 126.261 1094.41 423.564
2088 0 60.0792 13.5987 817 122.568 1094.5 423.333
2089 0 61.0978 12.2918 751 129.124 1094.23 418.354
2090 0 62.0803 13.5309 840 126.025 1094.12 417.798
2091 0 65.0494 13.6973 891 125.58 1094.01 415.189
2092 0 69.0943 14.1835 980 123.411 1094.35 410.753
2093 0 71.0668 13.4803 958 126.122 1094.08 412.084
2094 0 77.1746 16.0415 1238 116.3 1094.03 409.931
2095 0 77.0675 15.7784 1216 119.911 1094.61 406.713
2096 0 79.1583 14.5531 1152 124.859 1094.47 405.194
2097 0 80.2344 14.0339 1126 127.723 1094.35 402.797
2098 0 85.0837 14.4093 1226 126.281 1094.31 398.764
2099 1 46.0173 12.2345 563 134.597 1094.69 416.979
2100 0 47.0325 13.3099 626 131.784 1093.33 415.54
2101 0 49.1301 12.8434 631 132.513 1093.82 414.534
2102 0 51.0293 12.6986 648 128.619 1093.27 416.397
2103 0 52.0471 14.3524 747 123.845 1093.68 417.407
2104 0 52.0593 12.7547 664 132.345 1093.89 416.694
2105 0 55.0814 14.5603 802 125.266 1093.55 418.287
2106 0 57.0884 14.2586 814 126.158 1092.67 415.855
2107 0 60.0861 14.862 893 124.063 1093.11 418.859
2108 0 61.0708 14.606 892 125.748 1093.64 417.673
2109 0 61.0905 14.634 894 152.602 1093.65 417.633
2110 0 64.0745 15.3727 985 125.186 1093.72 419.096
2111 0 68.1268 15.0308 1024 125.13 1093.89 418.998
2112 0 70.1667 14.5796 1023 127.245 1093.73 418.858
2113 0 73.1624 15.6228 1143 123.139 1093.63 415.378
2114 0 75.0934 14.4753 1087 126.029 1094.29 413.371
2115 0 76.0937 14.8238 1128 126.872 1094.07 409.902
2116 0 78.0701 13.5135 1055 131.641 1093.87 408.844
2117 0 81.1358 14.0875 1143 129.997 1093.34 407.187
2118 0 85.0603 14.2605 1213 128.453 1092.97 407.194
2119 0 88.0464 13.9813 1231 127.965 1093.43 410.292
2120 0 92.1997 15.0434 1387 125.211 1093.47 402.476
2121 0 94.1228 13.833 1302 130.726 1093.42 399.376
2122 1 49.116 12.1142 595 131.708 1093.39 424.104
2123 0 50.0857 12.5385 628 131.04 1093.5 424.392
2124 0 52.0386 12.0295 626 132.644 1092.69 420.588
2125 0 54.0115 12.4048 670 131.446 1093.08 420.706
2126 0 57.0193 14.0829 803 127.08 1092.96 417.125
2127 0 64.07 17.1063 1096 111.622 1093.08 405.402
2128 0 64.0759 17.4012 1115 113.698 1092.71 404.136
2129 0 66.0282 18.2649 1206 111.37 1092.19 405.195
2130 0 67.0447 15.3032 1026 121.712 1092.68 407.029
2131 0 67.0578 14.1072 946 127.749 1093.05 404.729
2132 0 69.0648 14.7108 1016 127.536 1092.5 407.372
2133 0 71.0583 13.9041 988 130.211 1092.43 405.769
2134 0 73.019 14.7496 1077 127.335 1093.48 403.941
2135 0 75.0283 13.5149 1014 133.108 1092.62 399.863
2136 0 77.0404 13.2658 1022 131.004 1092.61 398.335
2137 0 80.049 13.5667 1086 130.961 1092.34 398.186
2138 0 84.084 15.6272 1314 126.258 1092.54 391.361
2139 0 86.1021 14.448 1244 131.6 1092.11 386.828
2140 0 90.0439 15.1371 1363 130.773 1092.21 383.729
2141 1 46.0888 11.8901 548 132.142 1092.9 409.473
2142 0 46.0383 11.4687 528 133.519 1093.08 410.445
2143 0 48.0466 12.7793 614 129.533 1093.21 408.936
2144 0 51.0523 12.1444 620 131.261 1092.52 407.769
2145 0 52.0365 13.0678 680 129.841 1091.9 404.984
2146 0 55.0627 13.1123 722 127.892 1092.51 403.823
2147 0 56.0505 14.2728 800 124.894 1092.37 406.574
2148 0 57.0758 13.7887 787 124.784 1091.91 399.906
2149 0 57.0758 13.7712 786 155.555 1089.91 399.826
2150 0 62.0425 14.3611 891 123.708 1092.22 394.716
2151 0 63.0469 13.26 836 127.542 1092.65 396.475
2152 0 66.0384 12.9167 853 127.642 1093.01 395.502
2153 0 67.0373 13.4701 903 127.083 1092.51 393.143
2154 0 68.0451 13.1824 897 128.536 1092.31 396.594
2155 0 73.068 13.8364 1011 124.181 1092.28 393.579
2156 0 74.0975 14.157 1049 123.614 1093.23 395.275
2157 0 79.0941 14.2236 1125 121.235 1092.45 392.677
2158 0 80.1031 14.0819 1128 122.848 1092.84 391.704
2159 0 83.1003 13.3814 1112 125.694 1092.84 392.248
2160 0 86.095 13.8452 1192 126.333 1093.42 385.734
2161 0 89.0697 14.7076 1310 122.859 1092.79 384.53
2162 0 93.1061 13.9196 1296 122.66 1093.5 384.688
2163 0 96.2426 15.1908 1462 118.741 1093.37 387.582
2164 1 48.1155 12.1167 583 122.509 1092.79 408.187
2165 0 50.0965 12.0967 606 121.208 1093.52 410.517
2166 0 53.0748 12.0773 641 120.365 1093.13 407.48
2167 0 54.0665 12.0592 652 115.752 1092.93 407.351
2168 0 53.0758 10.6263 564 120.674 1092.74 409.085
2169 0 56.0732 12.02 674 117.165 1093 406.461
2170 0 58.0316 12.8034 743 116.191 1092.92 406.252
2171 0 59.0247 12.4355 734 117.019 1092.5 406.455
2172 0 63.0569 11.9574 754 118.064 1092.89 405.95
2173 0 64.086 13.5287 867 115.767 1093.82 404.504
2174 0 66.0402 12.3713 817 119.756 1093.16 404.222
2175 0 69.1663 12.9977 899 117.659 1092.89 404.152
2176 0 70.0546 12.4046 869 120.748 1093.92 399.888
2177 0 71.0133 13.1666 935 122.247 1093.57 394.613
2178 0 75.1787 13.1154 986 121.413 1092.75 393.387
2179 0 79.0992 13.502 1068 120.429 1093.15 391.779
2180 0 81.0685 13.7908 1118 120.132 1093.17 393.29
2181 0 83.0821 13.2881 1104 122.353 1093.25 394.025
2182 0 85.1145 13.7579 1171 121.403 1092.79 394.222
2183 0 87.082 14.2854 1244 119.846 1092.81 392.498
2184 0 92.2101 14.0115 1292 119.925 1092.9 390.207
2185 0 94.0702 14.1915 1335 120.648 1092.95 390.058
2186 1 50.0542 11.6274 582 120.89 1092.74 413.27
2187 0 53.0656 12.0982 642 120.702 1092.66 408.059
2188 0 54.0285 12.2343 661 120.57 1092.53 408.543
2189 0 56.0802 12.3573 693 122.088 1092.78 402.58
2190 0 57.0554 13.2152 754 121.269 1093.12 403.732
2191 0 57.0569 11.8478 676 126.225 1093.17 405.055
2192 0 60.0665 12.9024 775 124.45 1092.93 404.76
2193 0 61.055 13.5615 828 122.721 1093.09 404.167
2194 0 63.0537 13.0841 825 124.119 1093.58 402.6
2195 0 65.0291 12.6097 820 125.502 1093.7 402.156
2196 0 68.051 14.0777 958 121.622 1093.54 401.766
2197 0 69.0631 13.1329 907 125.16 1093.61 400.953
2198 0 73.0922 13.955 1020 121.064 1093.83 401.256
2199 0 73.0793 12.9996 950 124.419 1093.09 404.892
2200 0 76.0448 14.2022 1080 122.121 1093.74 399.119
2201 0 80.0491 13.2918 1064 125.189 1093.25 395.225
2202 0 82.1149 13.8952 1141 123.872 1092.04 391.067
2203 0 84.0907 14.1871 1193 123.025 1092.8 392.053
2204 0 88.1734 15.1406 1335 120.331 1093.46 386.403
2205 0 90.1199 13.6929 1234 124.844 1093.84 384.423
2206 0 93.1093 13.6936 1275 124.833 1093.4 382.284
2207 0 96.0626 14.2824 1372 122.325 1093.75 383.947
2208 0 99.1334 14.7579 1463 122.234 1094.08 382.694
2209 1 56.1697 12.3198 692 119.231 1092.89 408.448
2210 0 55.1855 13.6811 755 120.646 1093.26 405.597
2211 0 56.0331 12.1892 683 120.703 1093.37 401.334
2212 0 60.0719 12.2853 738 119.264 1092.86 405.663
2213 0 60.0421 12.5079 751 118.607 1092.85 405.827
2214 0 62.0692 11.1972 695 121.653 1092.24 403.958
2215 0 65.065 12.9102 840 118.87 1092.48 401.63
2216 0 69.1185 13.6288 942 115.372 1092.3 402.789
2217 0 70.1191 13.4771 945 116.415 1092.32 402.931
2218 0 73.0915 12.8196 937 118.839 1093.15 400.3
2219 0 76.221 13.5396 1032 117.645 1092.58 402.604
2220 0 79.121 14.8128 1172 114.632 1092.86 399.544
2221 0 81.162 12.5921 1022 119.707 1092.37 404.08
2222 0 83.2034 13.9417 1160 117.275 1093.46 404.162
2223 0 86.2363 12.8136 1105 119.644 1092.41 408.357
2224 0 91.1703 13.8203 1260 116.583 1093.08 409.022
2225 0 93.211 12.1981 1137 120.944 1093.61 407.653
2226 0 95.369 12.3101 1174 121.082 1093.81 405.922
2227 1 48.0302 11.9925 576 115.453 1093.54 428.786
2228 0 46.1327 10.86 501 121.188 1093.43 427.042
2229 0 51.0798 13.1559 672 112.464 1093.25 425.176
2230 0 53.1957 13.1589 700 112.683 1093.06 420.521
2231 0 53.0525 12.4217 659 111.619 1093.13 416.721
2232 0 56.0591 12.6474 709 110.853 1093.49 415.457
2233 0 57.0783 12.2814 701 112.966 1093.5 406.94
2234 0 59.2034 12.6513 749 111.41 1094.08 408.749
2235 0 61.1349 13.2658 811 111.049 1093.65 405.296
2236 0 63.1372 14.128 892 109.739 1093.73 404.611
2237 0 65.1681 13.8411 902 111.277 1093.83 404.905
2238 0 69.0491 14.4245 996 110.122 1093.95 404.041
2239 0 70.0861 13.2551 929 114.402 1094.09 405.028
2240 0 71.1416 13.0444 928 113.886 1093.83 406.053
2241 0 74.1417 13.4337 996 115.283 1092.96 402.818
2242 0 76.0837 13.4063 1020 115.022 1093.22 400.283
2243 0 79.1244 12.8026 1013 116.833 1093.63 398.533
2244 0 85.0439 15.2627 1298 109.124 1093.06 391.375
2245 0 85.0439 16.0505 1365 137.345 1092.06 390.284
2246 0 89.0807 15.6824 1397 109.069 1093.21 393.072
2247 0 91.145 14.3178 1305 115.648 1092.79 389.74
2248 0 91.1017 12.8977 1175 119.569 1092.82 391.191
2249 1 48.0479 11.6758 561 115.898 1093.05 415.97
2250 0 50.0565 13.1651 659 113.042 1093.46 412.703
2251 0 52.0468 13.5071 703 108.279 1092.84 412.088
2252 0 52.0214 12.0719 628 111.435 1093.55 410.849
2253 0 53.0422 11.6134 616 112.692 1093.92 412.308
2254 0 56.0751 12.7329 714 108.464 1093.9 415.511
2255 0 58.0489 13.0579 758 107.84 1093.7 414.065
2256 0 59.0946 12.3869 732 109.296 1093.54 416.275
2257 0 63.0486 13.0534 823 106.977 1093.62 413.623
2258 0 65.0222 13.3493 868 106.657 1093.28 412.45
2259 0 65.0275 12.5793 818 109.35 1093.48 410.813
2260 0 68.0596 14.2081 967 105.617 1094.12 409.952
2261 0 70.0617 13.3454 935 107.528 1093.13 414.044
2262 0 70.0617 13.3026 932 134.107 1092.14 414.039
2263 0 75.1258 13.4042 1007 108.006 1092.27 410.188
2264 0 78.0632 13.6812 1068 108.713 1092.5 410.154
2265 0 81.0418 12.7588 1034 110.712 1091.6 409.99
2266 0 81.0418 12.7342 1032 133.357 1090.6 410.001
2267 0 85.0725 12.7538 1085 111.914 1091.55 410.005
2268 0 91.107 13.4787 1228 109.708 1090.95 407.001
2269 0 92.1272 12.613 1162 112.707 1090.74 407.808
2270 0 94.1017 13.0603 1229 113.272 1091.04 406.599
2271 0 98.2567 13.7395 1350 112.007 1090.43 404.373
2272 0 104.176 15.5122 1616 107.795 1090.89 399.976
2273 1 53.0298 10.2018 541 111.847 1090.8 424.556
2274 0 55.0357 11.9559 658 109.559 1090.87 421.968
2275 0 58.0162 12.4448 722 108.785 1090.43 417.238
2276 0 59.0429 11.534 681 111.599 1090.18 416.178
2277 0 61.0755 11.2156 685 113.06 1089.42 410.131
2278 0 64.0533 11.0845 710 112.685 1089.37 409.32
2279 0 66.069 11.7756 778 111.131 1088.98 412.355
2280 0 69.0456 13.2666 916 108.812 1088.45 409.526
2281 0 70.0182 11.9255 835 110.971 1088.48 412.207
2282 0 73.1384 12.073 883 110.066 1088.53 412.862
2283 0 77.1174 12.9802 1001 107.974 1088.01 413.052
2284 0 77.0837 11.7535 906 110.826 1087.45 411.472
2285 0 82.0883 12.5597 1031 109.249 1087.58 409.468
2286 0 84.0325 12.2334 1028 110.834 1087.2 413.377
2287 0 89.0321 12.6022 1122 108.802 1087.64 409.417
2288 0 87.1332 11.3734 991 115.51 1087.29 397.495
2289 0 94.0442 13.1321 1235 111.354 1086.53 396.698
2290 0 96.0967 12.2273 1175 113.094 1086.99 395.547
2291 0 100.207 12.3245 1235 112.794 1087.43 401.1
2292 1 54.0618 9.69262 524 110.353 1087.85 423.33
2293 0 56.0086 10.6591 597 108.469 1086.83 418.836
2294 0 59.0718 11.4098 674 106.969 1088.1 421.574
2295 0 61.1336 12.2519 749 103.984 1087.98 421.834
2296 0 62.0283 11.527 715 106.692 1088.19 421.86
2297 0 65.0532 11.6213 756 106.037 1088.36 421.3
2298 0 66.1283 12.1884 806 105.922 1087.59 419.089
2299 0 70.0948 13.1822 924 103.438 1087.55 417.883
2300 0 71.1074 12.3897 881 106.356 1087.82 417.083
2301 0 74.193 11.4297 848 108.887 1088.74 413.795
2302 0 75.1272 11.6203 873 111.054 1088.25 412.1
2303 0 77.1624 13.2059 1019 108.078 1088.05 414.882
2304 0 81.2558 12.4299 1010 109.776 1087.93 413.631
2305 0 84.2136 11.7558 990 111.343 1088.63 413.374
2306 0 84.1865 11.2963 951 114.559 1087.99 407.066
2307 0 88.2714 11.2381 992 114.765 1087.7 405.793
2308 0 92.1398 12.5244 1154 111.311 1087.89 405.192
2309 0 94.0804 12.0429 1133 113.382 1087.45 403.418
2310 0 98.1199 13.351 1310 110.466 1087.49 404.262
2311 0 101.092 13.9477 1410 110.285 1086.51 398.932
2312 0 105.124 13.7171 1442 110.135 1087.04 396.49
2313 0 109.238 13.9237 1521 108.33 1087.18 400.518
2314 1 57.1233 11.9916 685 105.191 1087.65 428.869
2315 0 59.0478 10.9572 647 106.257 1088.36 430.495
2316 0 60.0798 11.7344 705 105.711 1088.45 431.773
2317 0 62.1736 12.5777 782 103.54 1088.33 418.332
2318 0 66.1123 13.2048 873 101.179 1088.62 419.816
2319 0 69.115 12.2983 850 103.421 1088.42 418.174
2320 0 71.1322 13.2429 942 102.4 1088.01 417.631
2321 0 72.1443 13.071 943 103.318 1088.58 415.852
2322 0 75.1073 13.5673 1019 102.421 1088.51 412.093
2323 0 78.13 12.9656 1013 103.749 1088.99 412.935
2324 0 81.2583 13.1433 1068 104.076 1088.15 409.615
2325 0 81.2164 11.968 972 108.373 1088.8 410.893
2326 0 86.1842 14.7939 1275 101.679 1088.39 406.123
2327 0 87.1618 12.3678 1078 108.494 1088.59 404.231
2328 0 91.1854 13.3245 1215 106.283 1088.43 404.186
2329 0 92.121 13.6777 1260 106.937 1088.24 399.348
2330 0 96.1918 13.4835 1297 107.286 1088.3 402.26
2331 0 100.209 13.0129 1304 108.577 1088.44 401.243
2332 0 104.2 14.0692 1466 107.788 1088.22 400.058
2333 1 50.2391 9.35526 470 111.057 1089.75 426.066
2334 0 51.1562 11.5333 590 109.493 1088.94 422.381
2335 0 56.0724 13.3042 746 104.548 1088.91 422.993
2336 0 58.1143 12.4582 724 105.421 1089.33 422.12
2337 0 60.1873 13.1257 790 104.248 1089.57 419.724
2338 0 60.1286 11.675 702 109.496 1089.18 419.229
2339 0 61.1197 12.0256 735 109.845 1089.55 417.128
2340 0 66.1626 12.1368 803 108.064 1089.77 416.783
2341 0 66.163 12.4692 825 110.168 1089.47 412.436
2342 0 71.1701 13.6715 973 105.817 1089.42 414.733
2343 0 71.1255 12.9208 919 110.836 1089.44 411.087
2344 0 75.135 13.6421 1025 109.35 1089.61 411.316
2345 0 77.1631 13.9186 1074 109.711 1089.02 407.33
2346 0 79.1105 13.3863 1059 111.589 1089.76 405.966
2347 0 81.1441 13.1864 1070 113.61 1089.2 400.288
2348 0 84.1342 12.3137 1036 114.913 1089.51 398.18
2349 0 86.1889 12.0897 1042 117.079 1090.29 395.609
2350 0 90.1155 13.749 1239 112.677 1090.21 396.208
2351 0 90.1155 13.8156 1245 147.863 1090.21 396.21
2352 1 54.0545 13.1534 711 110.385 1090.33 409.64
2353 0 55.0842 12.0906 666 112.281 1090.37 411.149
2354 0 54.1485 11.8747 643 116.086 1090.46 399.359
2355 0 58.1328 11.835 688 112.346 1090.46 391.746
2356 0 59.1705 12.2189 723 110.855 1090.63 391.174
2357 0 62.1421 13.1956 820 109.044 1090.61 383.805
2358 0 64.1046 13.2908 852 109.112 1090.99 381.036
2359 0 65.1403 14.3229 933 107.21 1091.91 379.554
2360 0 67.0919 12.9077 866 110.355 1091.39 377.911
2361 0 69.1477 13.0012 899 110.022 1092.03 377.507
2362 0 71.0787 12.5495 892 110.996 1091.45 378.752
2363 0 74.1664 14.009 1039 105.731 1091.54 377.49
2364 0 77.2726 14.4294 1115 105.478 1091.95 373.944
2365 0 80.1471 12.7765 1024 110.107 1091.96 372.608
2366 0 83.2019 13.0406 1085 110.236 1091.64 365.915
2367 0 83.1252 13.5819 1129 110.601 1091.31 359.655
2368 0 87.1903 11.9509 1042 116.032 1090.68 357.998
2369 0 90.211 13.2135 1192 113.133 1090.74 360.695
2370 0 94.179 11.7754 1109 117.203 1091.5 360.013
2371 1 51.1639 12.372 633 105.932 1092.5 389.694
2372 0 52.1648 12.8247 669 105.111 1092.58 390.93
2373 0 52.2077 13.0824 683 106.883 1092.14 378.376
2374 0 56.0488 13.4526 754 104.769 1092.82 373.097
2375 0 53.0677 11.2309 596 113.168 1092.25 375.379
2376 0 57.0635 14.0545 802 105.359 1092.46 373.348
2377 0 59.1641 12.8963 763 108.878 1092.1 371.121
2378 0 60.1181 12.6251 759 109.698 1093.03 373.743
2379 0 61.0488 13.1862 805 109.553 1092.35 373.497
2380 0 65.1455 13.1859 859 108.593 1091.97 374.213
2381 0 67.1066 13.5456 909 108.585 1092.47 371.809
2382 0 68.0582 13.0917 891 110.036 1092.24 374.165
2383 0 69.0938 12.8955 891 111.501 1091.95 371.366
2384 0 70.111 12.523 878 113.353 1092.39 370.787
2385 0 72.1157 12.6879 915 113.216 1092.46 365.428
2386 0 75.1268 12.246 920 113.952 1092.15 358.33
2387 0 77.1957 12.5525 969 113.953 1091.64 357.348
2388 0 83.1649 14.5735 1212 108.031 1091.72 355.114
2389 0 85.1528 12.4482 1060 114.158 1091.52 352.167
2390 0 87.2326 12.0368 1050 114.46 1092.06 358.913
2391 1 44.1253 11.2181 495 114.859 1092.7 381.729
2392 0 48.0295 12.1176 582 113.88 1093.15 380.127
2393 0 50.0485 13.5469 678 110.749 1092.51 378.842
2394 0 50.1063 12.8527 644 112.641 1092.89 373.342
2395 0 54.0786 13.5913 735 109.424 1092.17 376.122
2396 0 54.0678 13.8345 748 110.071 1092.65 375.561
2397 0 54.0949 13.2915 719 112.651 1092.33 375.52
2398 0 57.0397 13.3942 764 111.512 1092.93 377.626
2399 0 56.0354 13.1881 739 113.464 1092.2 376.384
2400 0 57.0628 12.3198 703 116.407 1092.47 376.643
2401 0 61.0722 14.0489 858 111.084 1092.46 377.944
2402 0 62.0459 13.5222 839 112.199 1092.58 380.082
2403 0 65.0523 13.8965 904 111.219 1092.83 383.4
2404 0 65.0462 12.8985 839 114.412 1092.31 384.315
2405 0 68.0724 13.9998 953 111.107 1093.01 383.897
2406 0 73.0491 14.4697 1057 109.139 1092.95 385.812
2407 0 73.166 13.5309 990 113.574 1092.71 384.922
2408 0 76.1498 14.3795 1095 111.304 1092.93 381.407
2409 0 77.0771 14.1028 1087 113.89 1093.28 374.079
2410 0 79.1316 15.2783 1209 112.267 1093.63 370.533
2411 0 84.1236 14.5857 1227 113.028 1093.01 372.232
2412 0 86.0399 14.8536 1278 113.972 1092.38 369.984
2413 0 90.1222 15.8895 1432 110.693 1092.99 371.03
2414 0 93.1077 14.6604 1365 114.459 1092.89 365.763
2415 0 96.1087 14.2963 1374 116.608 1092.74 361.635
2416 1 51.0444 11.6369 594 116.507 1093.94 384.551
2417 0 52.1203 13.1235 684 112.529 1092.59 377.241
2418 0 54.1044 13.2522 717 110.695 1092.86 371.967
2419 0 55.1146 13.8802 765 109.716 1093.15 372.942
2420 0 59.1635 14.5529 861 106.848 1093.43 374.99
2421 0 59.0575 13.1736 778 111.839 1092.95 375.825
2422 0 56.076 13.0537 732 115.395 1092.73 377.801
2423 0 62.1151 14.6019 907 109.075 1093.46 380.476
2424 0 61.1673 13.7655 842 113.082 1092.76 380.293
2425 0 64.2259 13.2034 848 113.69 1092.97 381.429
2426 0 65.0965 13.6106 886 113.605 1093.58 380.062
2427 0 68.2003 14.3841 981 111.423 1093.48 381.083
2428 0 70.1885 15.6436 1098 108.867 1093.01 380.444
2429 0 71.1454 14.3649 1022 112.253 1092.85 381.504
2430 0 73.107 14.9644 1094 110.71 1092.94 382.827
2431 0 75.1541 13.479 1013 115.373 1092.95 378.307
2432 0 77.1932 14.224 1098 114.131 1093.12 374.264
2433 0 79.1036 14.4873 1146 113.715 1092.63 372.883
2434 0 82.1171 14.0288 1152 114.525 1092.38 372.581
2435 0 84.0948 15.0426 1265 112.692 1092.51 369.48
2436 0 83.0838 14.1544 1176 140.885 1093.42 367.806
2437 0 86.1186 12.8079 1103 119.165 1092.71 374.794
2438 0 93.1569 14.2233 1325 113.555 1092.56 376.624
2439 0 94.0888 13.1046 1233 117.67 1092.99 373.101
2440 0 99.1435 15.2204 1509 112.662 1092.61 367.631
2441 0 100.162 14.3268 1435 115.969 1092.98 365.874
2442 0 104.102 13.0929 1363 119.367 1093.22 363.299
2443 0 106.118 13.6923 1453 117.836 1093.51 368.541
2444 1 55.0488 11.3899 627 114.418 1093.42 392.067
2445 0 59.0735 11.8327 699 112.023 1093.3 390.432
2446 0 59.046 11.9398 705 108.871 1093.09 387.884
2447 0 61.0407 10.4521 638 112.721 1093.38 389.232
2448 0 62.0472 11.3462 704 111.631 1093.18 388.53
2449 0 65.0575 12.389 806 108.336 1092.69 392.713
2450 0 67.0782 12.8507 862 108.637 1092.6 391.991
2451 0 67.0322 11.0246 739 113.011 1092.36 391.348
2452 0 69.0675 11.8724 820 112.687 1091.56 389.761
2453 0 71.1192 11.08 788 114.768 1092.17 391.67
2454 0 74.0717 11.7319 869 113.366 1092.35 386.19
2455 0 79.1304 13.522 1070 108.631 1093.23 377.965
2456 0 78.0559 12.0555 941 113.159 1092.58 385.153
2457 0 83.1307 10.4895 872 115.615 1092.68 391.306
2458 0 87.1467 12.0716 1052 111.894 1093.24 398.188
2459 0 87.0944 13.3418 1162 109.555 1092.38 402.806
2460 0 92.0902 12.9981 1197 110.846 1091.8 406.241
2461 0 93.1264 12.424 1157 114.248 1091.65 411.077
2462 0 98.0628 12.6551 1241 113.604 1092.25 404.317
2463 0 99.1953 12.4502 1235 115.301 1092.71 397.835
2464 0 103.231 12.2056 1260 116.559 1092.15 397.299
2465 0 108.175 14.079 1523 112.499 1091.78 395.896
2466 0 113.287 13.8145 1565 117.048 1092.57 385.627
2467 0 117.249 15.5396 1822 112.163 1092.3 383.722
2468 1 63.0503 10.4996 662 114.787 1091.98 414.44
2469 0 65.0965 11.2448 732 107.964 1093.62 413.156
2470 0 64.0513 10.5228 674 110.518 1092.92 418.961
2471 0 67.0468 10.6791 716 111.39 1092.47 414.944
2472 0 72.1423 12.1427 876 106.736 1092.78 404.868
2473 0 74.1327 12.1943 904 107.688 1092.88 403.519
2474 0 75.1445 11.2583 846 109.844 1092.57 404.78
2475 0 77.0795 11.7022 902 110.605 1092.52 401.557
2476 0 80.0564 13.1907 1056 106.94 1092.97 403.438
2477 0 82.1276 12.4684 1024 109.368 1093.34 403.414
2478 0 84.0959 11.9625 1006 110.277 1093.17 407.3
2479 0 87.0722 12.8399 1118 108.182 1093.01 409.678
2480 0 90.082 13.299 1198 108.252 1092.87 400.749
2481 0 93.0508 12.4126 1155 111.426 1092.8 398.73
2482 0 94.1666 12.085 1138 112.27 1092.95 405.649
2483 0 99.2207 11.7314 1164 112.83 1093.05 396.527
2484 0 101.195 12.5698 1272 112.06 1092.69 394.956
2485 0 106.217 13.077 1389 109.59 1093.02 394.439
2486 0 108.133 13.2337 1431 109.707 1092.71 394.145
2487 0 109.11 11.9512 1304 114.968 1092.6 388.642
2488 0 115.221 12.68 1461 112.89 1092.78 387.277
2489 0 119.15 14.0411 1673 110.466 1092.81 382.246
2490 0 122.226 12.9596 1584 114.559 1093.06 381.061
2491 0 125.167 12.3675 1548 117.428 1093.53 379.537
2492 0 130.215 12.6713 1650 119.44 1093.54 379.119
2493 0 138.272 15.8311 2189 110.265 1093.45 369.781
2494 0 145.225 17.5452 2548 104.325 1093.18 366.873
2495 0 149.27 17.9876 2685 104.474 1092.77 364.262
2496 0 152.238 17.3216 2637 107.33 1092.76 361.215
2497 0 160.249 21.0485 3373 99.2393 1092.66 364.8
2498 1 170.345 16.9656 2890 107.525 1092.36 356.201
2499 0 178.39 17.9102 3195 105.124 1092.11 352.188
2500 0 179.416 20.5946 3695 101.319 1092.37 351.462
2501 0 180.421 19.9811 3605 103.659 1092.57 346.094
2502 0 182.308 17.2345 3142 113.085 1092.11 346.249
2503 0 188.241 18.216 3429 111.623 1092.26 346.362
2504 0 192.273 16.6846 3208 116.403 1092.24 347.171
2505 0 195.22 16.2944 3181 119.653 1092.16 344.989
2506 0 198.251 13.4274 2662 128.487 1092.13 348.173
2507 0 205.393 14.3481 2947 126.265 1091.88 345.083
2508 0 212.405 14.8443 3153 124.283 1092.4 337.995
2509 0 214.404 13.5258 2900 127.022 1092.74 345.683
2510 0 214.311 11.082 2375 131.916 1092.47 355.132
2511 1 163.236 12.1726 1987 130.713 1092.69 368.42
2512 0 168.464 12.4952 2105 132.684 1092.38 366.057
2513 0 175.215 13.9201 2439 129.713 1091.84 358.188
2514 0 182.464 13.526 2468 131.575 1092.17 359.564
2515 0 188.309 15.533 2925 127.761 1092.4 354.263
2516 0 194.294 14.4883 2815 130.809 1091.96 351.968
2517 0 198.275 14.5757 2890 131.502 1091.58 348.099
2518 0 204.35 14.5779 2979 130.643 1092 346.03
2519 1 260.506 17.0015 4429 111.352 1092.56 331.628
2520 0 261.456 14.4919 3789 121.388 1092.41 334.86
2521 0 260.287 14.5493 3787 123.844 1092.68 329.878
2522 0 260.364 17.6176 4587 116.009 1092.49 322.658
2523 0 261.529 20.4413 5346 109.388 1093.33 310.987
2524 0 265.425 22.0552 5854 107.132 1092.64 302.624
2525 0 257.461 17.6726 4550 122.953 1092.19 313.992
2526 1 69.315 11.6569 808 109.834 1093.43 416.311
2527 0 68.1707 10.7377 732 113.964 1093.22 414.288
2528 0 71.2105 11.1922 797 111.435 1093.95 413.558
2529 0 72.1322 11.8671 856 110.125 1094.3 410.873
2530 0 78.1222 12.7365 995 107.674 1094.63 400.731
2531 0 78.1852 12.0867 945 110.625 1094.12 398.837
2532 0 82.165 14.337 1178 104.351 1094.44 399.659
2533 0 85.1769 14.5814 1242 103.481 1095.01 400.582
2534 0 85.1521 15.1259 1288 103.162 1094.36 402.292
2535 0 89.1002 16.7452 1492 98.4343 1094.31 403.661
2536 0 91.1868 15.0241 1370 103.501 1095.1 401.585
2537 0 91.1691 16.6175 1515 101.514 1094.75 400.583
2538 0 93.0887 16.0707 1496 104.019 1094.52 401.578
2539 1 54.1469 10.8409 587 117.499 1095.09 422.787
2540 0 55.0297 11.4665 631 116.564 1094.5 422.42
2541 0 57.1221 11.8518 677 117.908 1094.57 420.126
2542 0 60.0354 12.4593 748 115.699 1094.57 420.029
2543 0 60.066 12.736 765 115.991 1094.3 416.697
2544 0 62.0433 13.0232 808 114.814 1094.52 418.309
2545 0 64.0398 12.3048 788 115.618 1094.69 416.326
2546 0 65.0329 12.1477 790 117.305 1094.61 416.104
2547 0 69.0427 13.3106 919 115.098 1094.24 415.086
2548 0 68.0821 12.529 853 117.792 1094.44 414.538
2549 0 71.0151 13.8281 982 114.85 1094.23 415.175
2550 0 73.1416 13.7541 1006 116.207 1093.12 413.184
2551 0 74.0674 14.5678 1079 115.124 1092.77 413.463
2552 0 75.0821 13.5318 1016 119.228 1093.37 411.89
2553 0 76.055 13.3587 1016 115.715 1093.83 412.16
2554 0 79.1821 14.1699 1122 113.914 1093.74 409.531
2555 0 83.1298 13.2443 1101 115.533 1093.38 387.301
2556 0 85.188 13.5582 1155 116.326 1093.64 377.702
2557 0 85.188 13.5582 1155 158.14 1094.64 377.826
2558 0 88.1707 14.4152 1271 114.741 1093.41 378.638
2559 0 92.2934 14.3347 1323 114.406 1093.89 380.404
2560 0 93.268 13.7989 1287 116.965 1094.09 384.48
2561 0 98.1527 14.6608 1439 116.3 1094.82 387.434
2562 0 102.12 15.1096 1543 113.329 1094.25 389.544
2563 0 104.137 14.2024 1479 114.799 1093.9 392.473
2564 0 106.071 13.4062 1422 116.987 1094.07 392.297
2565 0 110.169 14.4687 1594 114.542 1093.76 393.681
2566 0 114.291 14.6818 1678 114.31 1092.97 389.57
2567 0 118.18 13.6825 1617 113.764 1093.21 390.754
2568 1 66.1889 11.0895 734 109.638 1093.25 418.217
2569 0 71.0747 13.0426 927 107.442 1092.98 412.006
2570 0 74.0767 12.2306 906 103.64 1093.4 415.679
2571 0 74.096 12.6727 939 105.736 1093.29 414.311
2572 0 77.123 13.9258 1074 102.291 1093.66 410.222
2573 0 80.0968 12.2602 982 106.443 1094.1 410.333
2574 0 81.0954 12.5778 1020 106.993 1093.93 403.639
2575 0 84.0917 11.4756 965 107.909 1093.86 406.584
2576 0 88.0568 12.9008 1136 103.898 1093.98 405.437
2577 0 91.1628 13.1852 1202 103.369 1093.9 403.273
2578 0 92.0791 12.6522 1165 105.433 1093.5 403.833
2579 0 96.1277 13.3468 1283 105.163 1093.69 401.429
2580 0 99.2013 12.651 1255 107.012 1093.19 400.167
2581 0 102.127 13.3951 1368 106.709 1093.54 397.91
2582 0 108.155 13.9244 1506 106.109 1092.66 394.298
2583 0 108.155 13.8597 1499 145.151 1091.67 394.293
2584 0 114.154 13.4993 1541 107.25 1093.57 391.22
2585 1 63.1202 12.801 808 99.8119 1092.81 418.822
2586 0 64.0978 10.9676 703 104.667 1092.84 415.457
2587 0 67.1009 12.7569 856 95.4801 1093.66 417.194
2588 0 69.0764 11.5959 801 99.4469 1093.91 418.93
2589 0 71.0396 10.5997 753 104.377 1093.82 413.586
2590 0 74.1459 11.302 838 103.498 1093.95 408.469
2591 0 74.0638 9.81586 727 108.029 1093.87 413.311
2592 0 79.0785 11.8237 935 103.851 1093.11 413.656
2593 0 80.1438 11.941 957 105.171 1093.8 409.936
2594 0 82.1079 10.9734 901 108.346 1093.15 409.685
2595 0 84.1173 11.8168 994 107.751 1093.53 407.106
2596 0 89.2007 12.0515 1075 107.527 1093.29 405.483
2597 0 93.1899 12.5014 1165 105.827 1093.59 405.574
2598 0 97.3112 12.9379 1259 105.365 1093.55 403.359
2599 0 99.1311 13.0232 1291 105.962 1094.13 401.135
2600 0 102.201 11.7905 1205 109.212 1093.97 400.337
2601 0 106.143 12.0026 1274 109.269 1094.37 395.583
2602 1 59.0957 12.0313 711 101.059 1092.73 420.871
2603 0 61.0753 12.3454 754 101.993 1093.39 419.585
2604 0 62.0622 10.2317 635 101.376 1094.4 421.165
2605 0 63.0534 10.5942 668 101.889 1094.82 419.762
2606 0 66.0741 11.7747 778 100.114 1094.32 418.761
2607 0 69.095 11.6217 803 100.213 1094.66 419.435
2608 0 71.0946 11.6183 826 100.88 1094.54 418.039
2609 0 71.151 10.9626 780 103.708 1094.96 416.708
2610 0 77.1352 12.4846 963 99.6116 1095.25 415.278
2611 0 76.1318 11.5458 879 103.885 1094.95 412.457
2612 0 78.2786 11.804 924 104.206 1094.42 413.459
2613 0 80.1998 10.611 851 107.267 1095.01 409.248
2614 0 85.2132 12.4159 1058 103.248 1095.08 408.58
2615 0 88.1596 11.638 1026 104.778 1094.79 409.997
2616 0 90.1394 11.0606 997 108.224 1094.97 407.227
2617 0 94.1052 11.9866 1128 106.366 1095.17 405.69
2618 1 46.0209 9.90854 456 103.564 1095.34 426.445
2619 0 49.0507 10.0712 494 104.476 1095.38 426.166
2620 0 50.0279 11.8134 591 102.311 1095.15 425.039
2621 0 51.0935 9.96214 509 103.91 1093.98 429.358
2622 0 53.0854 11.0765 588 99.4677 1094.08 429.636
2623 0 55.1305 10.2303 564 99.6206 1093.76 428.385
2624 0 56.2121 12.0793 679 96.5523 1094.06 425.619
2625 0 58.0815 10.2442 595 99.9866 1094.09 424.198
2626 0 59.2159 9.54136 565 101.113 1093.85 422.977
2627 0 61.1144 10.4885 641 99.6615 1094.19 422.278
2628 0 62.1121 10.3523 643 100.271 1094.02 423.734
2629 0 66.1567 10.9437 724 98.4682 1093.77 421.941
2630 0 68.1392 12.313 839 95.7426 1093.89 421.383
2631 0 72.1338 12.2827 886 96.3352 1093.57 419.725
2632 0 72.1952 11.0949 801 99.8527 1093.21 418.608
2633 0 74.1742 12.5111 928 96.8761 1093.09 420.536
2634 0 76.1464 11.7143 892 100.272 1093.09 415.214
2635 0 78.203 11.598 907 101.114 1092.61 415.66
2636 0 82.1573 13.0725 1074 99.7858 1092.47 416.27
2637 0 85.1557 11.8489 1009 102.685 1091.99 414.265
2638 0 84.1962 12.2808 1034 103.714 1091.72 411.006
2639 0 89.192 12.5235 1117 102.917 1091.74 410.44
2640 0 91.1911 11.8104 1077 104.911 1092.23 409.818
2641 0 94.1665 13.285 1251 103.193 1092.06 404.462
2642 0 96.164 12.2707 1180 105.431 1092.63 402.885
2643 0 95.1634 11.1177 1058 108.673 1091.55 402.275
2644 0 100.253 12.8075 1284 105.582 1091.75 400.359
2645 0 103.231 13.2906 1372 104.638 1092.11 397.773
2646 0 106.335 12.7051 1351 106.378 1091.73 399.297
2647 0 109.145 12.9919 1418 105.891 1091.9 397.331
2648 0 113.26 11.8577 1343 109.924 1091.66 398.361
2649 0 117.229 14.2201 1667 106.597 1091.71 382.233
2650 0 121.358 12.2447 1486 110.404 1091.56 383.098
2651 0 122.311 13.2367 1619 110.636 1091.9 378.882
2652 0 126.256 13.0133 1643 114.719 1091.86 376.986
2653 0 132.354 12.9652 1716 114.187 1090.77 381.788
2654 0 138.442 13.9481 1931 113.682 1091.08 375.905
2655 0 141.212 12.3006 1737 115.351 1091.99 377.511
2656 0 146.124 13.5364 1978 112.527 1091.3 375.858
2657 0 151.176 14.4401 2183 112.331 1090.86 358.71
2658 0 156.121 13.3486 2084 115.546 1091.58 358.65
2659 0 162.185 13.3983 2173 115.019 1091.2 362.769
2660 0 166.206 12.5928 2093 116.889 1091.16 362.858
2661 0 168.268 11.4935 1934 119.567 1090.92 363.754
2662 0 176.187 13.3665 2355 116.44 1091.42 363.01
2663 0 183.278 13.3676 2450 116.669 1092.01 363.026
2664 0 189.143 14.0053 2649 117.455 1091.45 357.184
2665 0 195.287 14.0664 2747 117.669 1090.94 353.892
2666 0 202.265 14.0212 2836 117.855 1090.84 354.502
2667 0 211.272 14.6872 3103 116.594 1090.74 348.302
2668 0 221.271 16.0301 3547 112.984 1091.21 345.669
2669 1 62.0521 9.3631 581 109.079 1090.96 422.916
2670 0 67.0371 10.5613 708 107.771 1091.66 419.839
2671 0 70.0635 12.3031 862 101.705 1091.52 418.059
2672 0 75.0964 10.4133 782 100.18 1091.38 419.193
2673 0 76.0701 9.7936 745 101.048 1091.76 419.719
2674 0 81.0494 11.6966 948 97.52 1091.41 414.628
2675 0 84.0916 11.321 952 97.7353 1091.33 414.203
2676 0 86.0848 10.1412 873 100.056 1091.62 413.387
2677 1 45.0679 9.18613 414 93.2705 1091.98 432.336
2678 0 47.021 11.2077 527 89.9564 1091.06 430.75
2679 0 48.0095 9.68559 465 90.828 1091.2 430.355
2680 0 49.0284 10.3817 509 91.5344 1091.42 426.238
2681 0 50.072 9.54625 478 93.0167 1091.55 426.387
2682 0 53.0321 9.9751 529 91.7221 1091.49 426.236
2683 0 55.0775 9.24152 509 92.831 1091.41 424.028
2684 0 58.0356 10.5797 614 89.7345 1091.75 425.507
2685 0 59.0782 9.3097 550 92.02 1091.06 424.991
2686 0 62.0814 10.8567 674 89.0564 1091.58 422.72
2687 0 63.1501 9.10528 575 92.6852 1091.39 422.353
2688 0 64.0629 9.99017 640 91.7656 1091.47 420.953
2689 0 67.0794 10.3609 695 90.6921 1091.54 419.787
2690 0 69.0836 10.3353 714 90.8249 1091.73 416.814
2691 1 102.075 7.48471 764 89.3508 1091.6 416.521
2692 0 103.373 16.368 1692 66.1046 1092.45 396.383
2693 1 41.0148 8.75293 359 84.4958 1091.6 434.708
2694 0 42.0959 9.73966 410 82.8927 1091.89 436.776
2695 0 42.1887 10.5478 445 82.827 1091.57 436.706
2696 0 45.0148 9.81899 442 83.2376 1091.59 434.643
2697 0 46.0399 10.9905 506 81.8103 1092.12 434.255
2698 0 48.0565 9.32237 448 85.3348 1091.77 433.77
2699 0 48.0671 10.3189 496 85.1069 1092.16 432.544
2700 0 51.0626 11.4174 583 84.0069 1092.35 431.422
2701 0 53.0364 12.2934 652 81.8972 1091.54 428.546
2702 0 56.025 13.7617 771 79.3982 1091.8 426.371
2703 0 56.0394 11.9202 668 84.8668 1091.93 427.102
2704 0 55.0859 12.1628 670 86.6582 1091.8 428.696
2705 0 55.1074 10.4523 576 90.7917 1091.89 427.793
2706 0 57.0501 11.0955 633 89.3839 1091.62 427.72
2707 0 58.093 10.5348 612 90.9248 1091.95 426.145
2708 0 60.0568 12.4049 745 88.2752 1091.55 424.365
2709 0 64.0584 12.8945 826 87.3499 1091.56 423.912
2710 0 65.1184 11.5943 755 89.702 1091.65 424.009
2711 0 64.1878 11.4819 737 91.2849 1092.12 424.775
2712 0 66.0947 10.1067 668 93.6347 1092.15 422.701
2713 0 70.1169 12.4934 876 89.137 1091.97 421.336
2714 0 72.0818 11.4731 827 91.4522 1091.75 418.723
2715 0 74.1297 12.2758 910 90.0549 1091.82 419.274
2716 0 76.1667 11.0678 843 92.9715 1092.28 415.419
2717 0 77.0994 11.0636 853 93.3048 1092.43 416.828
2718 0 82.1984 11.2168 922 91.7918 1092.19 416.38
2719 1 40.1433 7.67251 308 97.5974 1092.74 434.903
2720 0 41.0123 9.99701 410 98.3415 1093.1 429.405
2721 0 42.0805 8.98278 378 94.6534 1092.42 434.854
2722 0 45.1266 9.7725 441 93.424 1092.1 433.401
2723 0 45.0719 9.60688 433 94.4873 1092.89 431.575
2724 0 46.0959 10.3697 478 93.8368 1093.02 430.544
2725 0 48.1274 8.66451 417 97.0144 1093.19 429.096
2726 0 49.0914 8.86102 435 96.5517 1092.16 431.269
2727 0 52.073 9.5827 499 94.988 1092.22 430.507
2728 0 51.0946 9.47262 484 96.3223 1092.21 427.818
2729 0 54.0493 9.82436 531 96.0847 1092.51 425.166
2730 0 56.0472 10.0629 564 94.8121 1093.43 426.397
2731 0 59.0254 10.9106 644 94.0357 1093.74 423.519
2732 0 62.1155 11.6718 725 92.9848 1093.08 421.812
2733 0 63.0764 11.0025 694 95.4553 1093.15 421.157
2734 0 64.0324 9.77631 626 97.5559 1093.27 421.666
2735 0 68.1037 10.3812 707 96.2362 1092.85 420.171
2736 0 69.0353 11.2841 779 96.733 1093.09 415.768
2737 0 71.1124 8.74671 622 100.751 1092.82 418.674
2738 0 72.0638 9.3112 671 102.194 1093.11 415.97
2739 1 38.0084 9.31373 354 97.2966 1093.17 434.387
2740 0 41.0064 10.9007 447 96.481 1093.48 434.904
2741 0 44.014 12.7914 563 92.389 1093.29 429.663
2742 0 43.0528 11.0097 474 97.4367 1092.79 431.416
2743 0 45.1858 11.6187 525 96.4324 1093.23 433.048
2744 0 46.0544 10.3573 477 100.711 1093.38 431.57
2745 0 49.1866 11.7512 578 97.6246 1093.93 431.09
2746 0 50.0663 12.0041 601 98.2662 1093.81 430.725
2747 0 52.0449 11.7591 612 99.3529 1093.49 430.013
2748 0 54.0572 12.3018 665 99.2707 1094.01 429.392
2749 0 53.0387 12.2175 648 101.682 1094 429.951
2750 0 54.0588 11.247 608 105.028 1093.94 426.872
2751 0 58.068 12.6748 736 101.689 1093.84 427
2752 0 60.0807 12.6497 760 101.813 1094.49 427.107
2753 0 60.0643 13.3857 804 101.68 1093.63 427.075
2754 0 61.0894 11.9824 732 105.993 1094.13 424.664
2755 0 63.0734 12.0653 761 106.65 1094.04 424.524
2756 0 65.0529 12.4514 810 105.69 1093.54 424.196
2757 0 68.0633 14.4571 984 101.839 1093.59 420.253
2758 0 69.0404 13.8759 958 103.954 1094.09 422.364
2759 0 72.0916 13.4967 973 104.502 1093.88 420.994
2760 0 73.0714 12.5083 914 108.693 1092.71 419.604
2761 0 76.1328 13.818 1052 105.107 1092.89 418.368
2762 0 79.2242 12.837 1017 107.354 1093.31 417.266
2763 0 82.0737 13.2564 1088 106.644 1093.19 416.341
2764 0 82.0225 14.7521 1210 105.715 1092.95 414.494
2765 0 87.0849 13.8371 1205 108.589 1093.64 411.145
2766 0 89.1055 13.7702 1227 108.703 1093.2 411.028
2767 0 92.1004 13.811 1272 109.868 1092.75 407.025
2768 0 96.0685 14.7291 1415 111.86 1093.37 406.653
2769 1 49.0948 13.3619 656 107.351 1092.96 430.959
2770 0 50.2254 12.1054 608 110.867 1093.72 431.428
2771 0 52.1888 12.0332 628 111.874 1093.61 429.43
2772 0 55.0879 12.3258 679 109.479 1093 427.477
2773 0 56.1338 12.8799 723 109.196 1093.35 427.16
2774 0 58.0978 13.9592 811 107.359 1093.49 424.366
2775 0 59.0595 12.4789 737 111.841 1093.69 424.739
2776 0 59.0786 13.5413 800 110.935 1093.48 424.24
2777 0 64.0974 13.3547 856 109.879 1093.5 423.314
2778 0 66.1119 13.1444 869 110.511 1093.48 422.033
2779 0 68.1068 13.3761 911 110.162 1093.22 420.935
2780 0 70.1334 13.3745 938 110.592 1093.51 419.945
2781 0 72.2191 13.0021 939 111.821 1092.88 419.698
2782 0 72.1976 12.6874 916 114.767 1093.01 417.729
2783 0 77.1499 13.895 1072 111.607 1092.92 415.94
2784 0 77.0994 12.5941 971 116.331 1092.69 414.74
2785 0 81.1097 12.8098 1039 115.925 1092.22 412.775
2786 0 85.1224 13.0753 1113 114.685 1092.46 414.615
2787 0 88.2089 13.8195 1219 113.908 1092.89 412.315
2788 0 91.0804 13.1971 1202 119.756 1092.4 408.307
2789 0 93.2201 14.2888 1332 116.998 1092.42 408.435
2790 0 95.0733 13.8209 1314 118.976 1093.12 405.019
2791 0 99.1429 13.3343 1322 121.531 1092.24 394.531
2792 0 101.138 12.5373 1268 122.281 1093.14 400.895
2793 1 50.2334 13.4174 674 117.617 1092.57 427.506
2794 0 52.0839 13.4014 698 117.613 1092.86 427.45
2795 0 55.1183 13.3168 734 117.381 1092.53 426.052
2796 0 56.25 12.8356 722 117.967 1092.83 424.828
2797 0 62.1432 14.3861 894 110.68 1092.76 424.28
2798 0 62.2024 12.2503 762 114.925 1092.76 423.98
2799 0 64.1351 14.563 934 112.565 1092.23 421.566
2800 0 66.1801 12.33 816 117.275 1093.03 421.342
2801 0 69.3219 11.0499 766 119.642 1093.18 421.102
2802 0 73.2934 13.8212 1013 114.571 1092.69 413.505
2803 0 73.4732 12.8346 943 118.223 1092.02 413.783
2804 0 77.215 13.7408 1061 116.548 1092.14 418.056
2805 0 78.3454 13.8872 1088 116.856 1091.95 416.498
2806 0 83.2005 13.81 1149 116.343 1092.16 414.368
2807 0 86.282 12.378 1068 119.145 1092.64 413.049
2808 0 88.3309 15.0117 1326 112.9 1092.18 408.763
2809 0 91.3123 14.2369 1300 111.875 1092.54 409.21
2810 0 98.1282 12.3206 1209 110.067 1092.45 408.098
2811 1 49.0495 12.5791 617 106.611 1093.35 424.062
2812 0 50.1548 14.4752 726 104.168 1093.2 419.731
2813 0 50.0559 13.1253 657 101.542 1093.1 420.119
2814 0 52.0623 11.5631 602 104.591 1092.53 426.439
2815 0 54.0199 12.9212 698 101.295 1092.88 426.499
2816 0 56.0382 12.7948 717 101.229 1093.07 425.721
2817 0 56.0177 13.4779 755 100.67 1092.37 425.766
2818 0 58.0626 13.5888 789 100.209 1092.76 425.605
2819 0 59.133 14.1207 835 99.7353 1092.45 426.931
2820 0 62.1015 13.6067 845 99.832 1092.55 427.174
2821 0 66.0366 13.856 915 99.4448 1092.62 422.416
2822 0 66.0409 13.2039 872 102.781 1092.42 420.499
2823 0 68.1111 13.8597 944 102.463 1092.51 422.932
2824 0 70.0958 13.9809 980 103.468 1092.24 420.242
2825 0 74.072 13.5949 1007 104.298 1091.58 421.109
2826 0 75.1586 13.864 1042 104.683 1092.24 420.268
2827 0 76.0766 13.3418 1015 107.409 1092.34 417.327
2828 0 78.1139 14.5173 1134 105.36 1092.52 416.956
2829 0 82.3247 14.1027 1161 106.55 1092.24 415.621
2830 0 85.1005 15.4876 1318 104.103 1092.15 412.575
2831 0 88.1001 15.1192 1332 105.01 1092.49 410.609
2832 0 92.1247 15.6093 1438 103.129 1092.29 410.133
2833 0 93.1786 13.3829 1247 109.63 1091.82 408.895
2834 0 98.0648 13.4707 1321 108.569 1092.47 409.565
2835 0 101.039 14.0639 1421 107.852 1092.62 406.973
2836 0 103.125 13.7212 1415 108.644 1092.13 404.813
2837 1 57.1488 10.5514 603 110.625 1092.03 426.37
2838 0 60.1067 12.4445 748 106.897 1092.72 418.253
2839 0 62.0784 12.0171 746 104.909 1092.33 418.442
2840 0 65.0977 12.6118 821 102.621 1092.37 423.002
2841 0 65.0419 13.499 878 103.337 1092.62 418.937
2842 0 68.0524 12.2846 836 104.886 1092.84 421.289
2843 0 71.0853 13.0969 931 104.401 1092.44 418.26
2844 0 73.2108 12.9626 949 106.473 1092.42 416.061
2845 0 76.1974 13.675 1042 105.049 1091.83 411.858
2846 0 78.1136 13.3267 1041 107.098 1092.03 411.39
2847 0 80.1961 13.5667 1088 107.914 1092.14 406.393
2848 0 85.1223 14.0151 1193 106.391 1091.73 405.571
2849 0 88.2501 13.8243 1220 107.226 1091.96 403.28
2850 0 91.3618 13.1565 1202 109.047 1092.54 403.182
2851 0 93.2603 13.2318 1234 110.1 1091.86 401.995
2852 0 98.219 13.4088 1317 109.623 1091.54 399.485
2853 0 102.17 14.8185 1514 106.417 1092.01 396.819
2854 0 104.363 14.6508 1529 108.154 1092.4 393.991
2855 0 107.154 14.3719 1540 109.193 1091.97 392.577
2856 0 113.25 13.9603 1581 108.856 1092.05 392.982
2857 0 116.382 13.4127 1561 111.452 1092.22 389.626
2858 1 62.1875 11.7065 728 103.589 1092.21 419.078
2859 0 64.1987 11.9473 767 104.601 1092.16 420.029
2860 0 67.0712 14.0746 944 101.903 1091.54 420.01
2861 0 70.1071 11.7107 821 106.146 1090.9 422.306
2862 0 71.1388 15.28 1087 99.4609 1091.48 419.915
2863 0 75.1096 13.0476 980 104.643 1091.18 417.456
2864 0 75.0989 12.5435 942 107.217 1091.15 417.607
2865 0 76.168 11.9342 909 108.815 1091.1 417.133
2866 0 80.1096 11.6715 935 108.513 1090.77 416.787
2867 0 83.1263 11.8976 989 108.571 1091.14 415.967
2868 0 85.1649 11.9533 1018 110.046 1091.18 414.047
2869 0 90.1695 12.5098 1128 109.52 1091.64 411.691
2870 0 91.2445 12.2966 1122 110.076 1091.19 411.332
2871 0 96.2003 11.528 1109 111.417 1090.9 410.379
2872 0 101.206 13.0525 1321 108.873 1091.07 407.552
2873 0 102.201 12.5342 1281 111.916 1090.71 403.513
2874 1 54.1953 9.20745 499 110.475 1090.79 430.491
2875 0 57.1784 10.3536 592 106.689 1090.19 429.01
2876 0 58.111 12.1492 706 106.963 1090.95 427.671
2877 0 60.1243 11.576 696 103.24 1091.16 423.82
2878 0 62.1319 10.6708 663 110.377 1090.22 429.173
2879 0 64.2774 11.217 721 105.158 1090.97 426.502
2880 0 67.1032 11.4302 767 104.735 1091.29 426.155
2881 0 68.0643 11.6948 796 105.023 1090.7 424.802
2882 0 70.0733 12.3299 864 105.034 1091.73 423.052
2883 0 72.1503 11.0741 799 108.91 1091.75 420.237
2884 0 75.0854 11.9064 894 106.728 1091.31 422.682
2885 0 76.1791 12.1424 925 108.758 1091.23 418.848
2886 0 79.0545 11.6502 921 109.882 1091.54 419.16
2887 0 81.1337 11.5981 941 110.836 1091.45 417.362
2888 0 84.0351 12.471 1048 109.423 1091.67 415.31
2889 1 45.1099 10.5742 477 104.912 1091.65 437.604
2890 0 46.0882 10.0243 462 108.515 1091.81 435.323
2891 0 46.0957 10.6735 492 110.004 1091.5 433.793
2892 0 49.084 11.0423 542 105.203 1091.45 432.103
2893 0 49.0613 12.1888 598 103.261 1091.57 432.518
2894 0 50.0787 11.6217 582 104.265 1091.93 433.744
2895 0 51.1562 10.8296 554 106.69 1091.73 432.244
2896 0 54.0911 12.8117 693 101.898 1091.94 429.812
2897 0 53.0268 11.447 607 106.072 1091.93 429.842
2898 0 57.1705 11.2296 642 106.287 1091.4 430.187
2899 0 58.0641 11.6768 678 106.285 1091.77 428.77
2900 0 56.0879 12.213 685 107.051 1092.01 427.196
2901 0 57.1631 12.613 721 108.807 1091.79 425.2
2902 0 62.2149 12.6819 789 107.963 1091.58 426.617
2903 0 63.0757 11.8112 745 108.752 1092.24 425.287
2904 0 65.1008 12.0582 785 108.901 1091.64 423.997
2905 0 67.2176 12.2587 824 108.504 1091.35 424.407
2906 0 69.1713 11.8691 821 110.08 1091.25 421.793
2907 0 71.0958 12.2089 868 110.132 1091.01 418.665
2908 0 75.1435 11.9239 896 109.78 1091.38 418.916
2909 0 73.1818 10.2211 748 115.814 1091.57 414.83
2910 0 80.0685 12.3894 992 109.586 1091.49 414.115
2911 0 83.1006 13.4656 1119 106.663 1091.73 414.781
2912 0 86.1444 13.6631 1177 108.223 1091.41 410.436
2913 0 86.1444 13.6631 1177 143.612 1091.41 410.621
2914 0 91.141 13.6492 1244 111.302 1091.46 408.658
2915 1 48.1799 11.1665 538 110.998 1090.7 429.242
2916 0 50.2126 12.4869 627 106.869 1091.68 423.657
2917 0 51.1012 12.9351 661 105.876 1091.62 428.741
2918 0 50.0986 12.8147 642 109.079 1091.54 426.246
2919 0 54.1322 13.3008 720 106.406 1091.01 425.004
2920 0 53.0543 13.1752 699 108.469 1091.94 424.348
2921 0 56.1973 13.328 749 107.599 1091.29 424.649
2922 0 55.082 11.2196 618 113.33 1091.95 423.073
2923 0 59.0803 13.2701 784 108.598 1092.01 421.469
2924 0 62.1221 12.4754 775 110.138 1092.26 421.36
2925 0 64.1286 13.5821 871 107.173 1091.46 420.828
2926 0 65.0678 13.97 909 107.179 1091 417.855
2927 0 67.1157 12.8584 863 111.032 1091.3 416.686
2928 0 68.038 11.3319 771 108.484 1091.05 420.773
2929 0 71.057 12.7222 904 105.761 1091.48 421.05
2930 0 72.0716 11.6689 841 109.652 1091.62 419.106
2931 0 77.0706 11.5998 894 108.323 1091.65 418.494
2932 0 77.0498 12.2908 947 109.672 1091.4 416.2
2933 0 80.0731 12.4761 999 109.298 1091.27 416.468
2934 0 84.1345 12.5157 1053 110.179 1091.27 415.243
2935 0 86.1043 11.9506 1029 113.469 1092.17 409.812
2936 0 88.0807 12.4318 1095 113.276 1091.83 407.247
2937 0 90.0895 11.8993 1072 115.041 1090.93 411.304
2938 0 94.1158 13.9403 1312 110.923 1091.17 405.586
2939 1 49.0275 10.3411 507 112.7 1091.4 427.795
2940 0 52.0313 12.8 666 107.3 1091.55 427.081
2941 0 53.044 12.1409 644 105.564 1091.5 428.371
2942 0 55.0287 11.5758 637 106.651 1091.59 426.441
2943 0 54.1041 10.4613 566 110.807 1091.57 425.147
2944 0 58.0445 12.456 723 105.325 1091.72 423.656
2945 0 60.0396 12.5084 751 104.883 1092.03 424.96
2946 0 63.0533 12.8146 808 105.473 1091.45 422.766
2947 0 62.0624 12.1491 754 108.788 1091.49 423.508
2948 0 66.1218 12.0838 799 109.752 1091.47 420.158
2949 0 69.1544 12.1323 839 109.261 1091.66 420.319
2950 0 71.1364 12.9048 918 108.854 1091.63 418.932
2951 0 71.105 11.8135 840 113.489 1091.49 418.339
2952 0 76.096 13.9823 1064 108.156 1091.52 416.837
2953 0 78.1436 13.3216 1041 111.482 1091.8 416.175
2954 0 80.0648 12.5398 1004 114.166 1091.23 415.904
2955 0 84.0315 13.721 1153 111.042 1091.15 414.166
2956 0 85.0607 12.9672 1103 114.574 1091.27 409.977
2957 0 88.0808 13.9418 1228 113.15 1091.63 409.174
2958 0 90.2117 12.4485 1123 120.581 1091.23 407.536
2959 0 94.1607 12.2663 1155 121.828 1091.23 406.182
2960 0 97.1645 12.309 1196 121.082 1091.59 405.775
2961 1 52.039 11.2608 586 111.597 1092 427.594
2962 0 55.0938 12.397 683 115.603 1090.78 425.388
2963 0 55.0938 12.506 689 151.943 1090.75 425.518
2964 0 60.1317 13.0547 785 112.423 1091.09 422.769
2965 0 62.0753 12.9198 802 113.916 1090.93 420.743
2966 0 63.1008 12.4087 783 115.356 1090.82 420.875
2967 0 66.1375 13.4871 892 112.548 1091.6 420.341
2968 0 68.0653 13.2961 905 115.254 1091.01 418.39
2969 0 69.0808 12.6808 876 116.267 1090.01 418.228
2970 0 72.1938 12.1894 880 118.909 1089.74 415.35
2971 0 75.1161 12.9932 976 116.806 1090.38 417.288
2972 0 75.0869 12.7585 958 119.616 1090.5 414.299
2973 0 79.0845 13.4034 1060 117.76 1090.15 411.943
2974 0 82.1351 14.7318 1210 114.485 1090.24 412.384
2975 0 85.1302 13.497 1149 116.673 1090.28 412.723
2976 0 89.1361 14.2928 1274 115.605 1090.11 407.991
2977 1 48.0237 9.64108 463 120.724 1089.73 428.354
2978 0 50.1658 10.7842 541 118.795 1092.02 421.924
2979 0 52.0527 11.3347 590 105.469 1091.26 430.342
2980 0 52.0653 11.9465 622 105.198 1091.6 430.129
2981 0 53.0838 11.4724 609 108.117 1091.6 428.887
2982 0 56.1057 11.9239 669 105.564 1091.32 428.205
2983 0 58.1135 11.2366 653 107.842 1090.9 427.819
2984 0 59.1206 11.4004 674 107.889 1091.38 427.349
2985 0 61.0259 10.6184 648 109.318 1091.63 426.025
2986 0 63.0784 11.2558 710 107.915 1091.65 424.658
2987 0 65.0668 11.6496 758 106.766 1091.27 424.821
2988 0 68.0575 12.2103 831 105.871 1090.98 424.846
2989 0 70.057 11.6905 819 107.161 1091.32 422.232
2990 0 69.0554 11.9035 822 108.052 1090.88 421.912
2991 0 74.0491 12.3161 912 106.331 1090.73 419.332
2992 0 77.0633 11.6008 894 107.796 1090.87 418.075
2993 0 81.1011 11.7631 954 107.63 1091.13 418.287
2994 0 82.2174 11.9804 985 108.268 1090.73 416.313
2995 0 85.1852 12.4083 1057 107.561 1090.75 414.417
2996 0 88.2211 13.7382 1212 105.097 1091.24 412.11
2997 1 44.1309 9.81172 433 110.42 1091.87 433.852
2998 0 45.063 9.83068 443 112.754 1092.05 432.059
2999 0 48.0221 8.8501 425 109.073 1090.83 428.854
3000 0 50.0614 10.0876 505 106.665 1090.72 427.998
3001 0 49.0478 8.90968 437 109.357 1090.58 429.698
3002 0 51.0216 10.4857 535 106.981 1090.52 428.548
3003 0 55.02 12.0502 663 103.059 1090.59 429.243
3004 0 56.0556 10.0614 564 107.401 1091.05 429.885
3005 0 58.0496 10.5255 611 107.007 1091.47 428.802
3006 0 60.1045 10.5649 635 106.369 1090.66 427.978
3007 0 61.0941 10.7866 659 106.608 1090.59 425.856
3008 0 63.1401 12.2585 774 103.317 1091.01 424.693
3009 0 64.2006 9.96876 640 108.008 1091.19 425.528
3010 0 68.1122 10.1597 692 108.139 1091.07 424.341
3011 0 69.2414 11.8426 820 105.018 1091.93 423.012
3012 0 71.2194 11.4295 814 106.746 1091.62 421.663
3013 0 72.131 11.2157 809 108.613 1091.32 421.368
3014 0 77.3129 11.4858 888 107.122 1091.64 419.936
3015 0 76.1659 11.0548 842 110.495 1091.49 418.679
3016 0 81.2354 11.8544 963 108.06 1091.49 417.939
3017 0 84.1184 11.8642 998 109.155 1091.2 414.748
3018 0 86.0638 11.5031 990 111.572 1092.09 411.073
3019 0 89.1204 11.9052 1061 111.391 1092.26 408.383
3020 0 92.1503 11.7634 1084 111.815 1091.54 407.826
3021 1 49.0829 7.70126 378 113.923 1090.53 434.291
3022 0 52.0651 11.3128 589 106.632 1091.99 430.969
3023 0 53.1632 11.38 605 108.117 1091.16 431.719
3024 0 51.0553 9.87165 504 107.486 1091.11 427.302
3025 0 56.1773 11.3035 635 102.014 1090.34 429.646
3026 0 59.0643 10.751 635 104.354 1090.44 427.557
3027 0 61.0627 10.8741 664 104.136 1090.74 427.571
3028 0 60.1155 10.197 613 106.582 1091.56 428.871
3029 0 64.1168 10.8864 698 105.788 1091.06 425.398
3030 0 66.0835 11.7276 775 105.231 1091.18 423.406
3031 0 64.1015 10.655 683 109.136 1091.63 420.886
3032 0 68.0876 12.2049 831 105.053 1091.87 421.478
3033 0 71.1703 11.7746 838 106.773 1091.85 420.749
3034 0 73.1553 12.1249 887 107.116 1091.11 420.555
3035 0 75.158 11.6954 879 108.154 1091.32 421.38
3036 0 77.1591 11.8068 911 109.366 1091.49 418.295
3037 0 78.1269 11.9037 930 110.814 1090.95 417.072
3038 0 82.1159 12.6163 1036 109.739 1091.32 416.07
3039 0 85.1183 12.3828 1054 112.262 1091.46 414.885
3040 0 87.1794 12.9503 1129 111.696 1091.01 413.881
3041 0 90.1063 12.3299 1111 114.642 1091.51 410.959
3042 0 93.0978 11.5792 1078 115.893 1091.01 410.14
3043 0 96.1603 12.4376 1196 114.57 1091.83 405.849
3044 0 98.1685 11.0219 1082 118.572 1091.59 406.623
3045 1 54.1179 11.5673 626 107.551 1091.78 427.927
3046 0 57.0768 11.213 640 102.884 1091.46 426.712
3047 0 57.0768 11.213 640 136.705 1092.46 426.884
3048 0 58.0973 13.529 786 110.279 1090.98 423.525
3049 0 59.0955 13.3851 791 99.3995 1090.67 422.886
3050 0 59.0416 12.8892 761 108.212 1091.98 422.252
3051 0 59.0513 13.3105 786 114.052 1091.75 421.981
3052 0 62.0787 12.6936 788 113.779 1091.02 422.822
3053 0 62.0437 12.604 782 114.311 1090.82 422.095
3054 0 65.1056 13.1479 856 111.338 1091.62 420.975
3055 0 65.0793 13.2146 860 110.636 1091.32 420.152
3056 0 69.0452 13.9763 965 106.561 1091.38 419.621
3057 0 71.1009 13.0659 929 107.504 1090.9 418.482
3058 0 74.0569 13.3816 991 105.517 1090.86 416.263
3059 0 77.134 12.6663 977 105.218 1091.2 414.359
3060 0 77.0952 12.8932 994 105.405 1091.25 410.398
3061 0 80.1358 13.3523 1070 102.965 1091.44 410.821
3062 0 84.1204 13.5639 1141 100.153 1090.5 411.376
3063 0 85.0996 12.7733 1087 103.53 1090.46 410.167
3064 0 87.1036 13.0764 1139 104.845 1091.03 405.936
3065 0 89.1075 12.109 1079 107.205 1091.12 406.351
3066 0 94.1539 12.6283 1189 106.357 1091.07 403.005
3067 0 94.2068 12.4513 1173 107.806 1089.98 405.361
3068 1 51.0214 10.2506 523 110.86 1089.83 425.564
3069 0 52.0484 10.7592 560 104.636 1091.1 427.179
3070 0 51.0129 10.7816 550 104.238 1092.15 427.14
3071 0 55.038 11.3013 622 101.788 1092.4 427.881
3072 0 57.0685 11.0219 629 104.369 1091.87 428.238
3073 0 57.02 10.926 623 106.613 1091.72 425.86
3074 0 58.0466 11.2668 654 106.587 1091.92 425.633
3075 0 58.0437 11.6292 675 107.778 1091.94 424.616
3076 0 61.0676 11.1843 683 109.107 1091.51 421.893
3077 0 62.0687 11.7128 727 109.651 1091.79 422.64
3078 0 65.0585 11.7587 765 110.207 1091.5 421.039
3079 0 65.0467 11.2535 732 112.811 1090.75 420.977
3080 0 69.0642 10.9898 759 113.386 1091.17 420.365
3081 0 73.039 13.0889 956 108.811 1091.71 418.081
3082 0 74.0338 13.3182 986 109.775 1091.28 416.424
3083 0 74.0287 13.2651 982 128.994 1091.27 416.389
3084 0 78.0709 12.9242 1009 113.954 1091.18 413.311
3085 0 80.0424 11.9687 958 116.451 1091.18 413.066
3086 0 80.0762 11.1644 894 120.415 1091.59 410.989
3087 0 87.0767 12.2536 1067 117.515 1090.66 409.545
3088 1 46.0209 10.2562 472 111.089 1090.36 431.758
3089 0 48.0442 9.8451 473 114.617 1091.22 429.027
3090 0 51.0561 10.9292 558 113.848 1091.59 427.077
3091 0 51.0408 11.4614 585 114.687 1090.59 426.542
3092 0 53.1466 10.8191 575 118.751 1091.77 430.03
3093 0 52.0398 11.3375 590 121.053 1091.89 426.403
3094 0 57.0517 12.3046 702 115.62 1091.8 427.339
3095 0 59.0812 11.9327 705 112.94 1090.88 425.909
3096 0 58.0979 10.7749 626 117.227 1090.77 425.404
3097 0 60.1633 11.8345 712 114.885 1091.51 423.906
3098 0 62.1152 12.6539 786 112.752 1091.23 422.464
3099 0 64.059 13.1285 841 112.252 1090.89 421.001
3100 0 65.08 12.4616 811 113.503 1091.2 421.363
3101 0 67.0637 10.915 732 117.393 1090.93 420.391
3102 0 67.1011 10.5363 707 119.369 1090.89 416.219
3103 0 71.0537 11.7517 835 115.59 1090.62 418.711
3104 0 74.1206 11.994 889 115.056 1090.86 417.432
3105 0 74.1643 11.2318 833 119.125 1091.43 415.885
3106 0 80.1171 12.0698 967 115.614 1091.63 417.426
3107 0 82.1352 11.1645 917 118.361 1091.54 417.665
3108 0 85.1394 11.3109 963 118.718 1091.55 416.586
3109 1 43.1409 7.95069 343 118.88 1091.86 435.137
3110 0 47.0996 10.085 475 113.406 1091.88 431.989
3111 0 47.0417 9.58724 451 114.656 1091.03 432.501
3112 0 50.0783 11.502 576 113.234 1091.29 431.977
3113 0 50.0376 11.5313 577 113.828 1091.62 430.634
3114 0 51.0731 11.1605 570 115.416 1092.82 430.667
3115 0 51.0702 10.887 556 116.79 1092.66 430.428
3116 0 53.121 11.8597 630 114.625 1093.17 428.817
3117 0 55.0537 11.6432 641 115.289 1092.57 428.594
3118 0 56.0556 10.9177 612 116.531 1092.24 427.48
3119 0 59.0556 11.8871 702 113.028 1092.34 427.298
3120 0 57.0393 10.9048 622 117.568 1092.59 425.772
3121 0 61.0522 11.5147 703 114.169 1092.41 425.282
3122 0 63.0541 11.8946 750 113.913 1091.69 424.025
3123 0 64.065 10.8484 695 116.468 1092.02 423.278
3124 0 69.1075 11.9379 825 113.241 1092.01 422.587
3125 0 69.0834 10.9143 754 117.422 1092.21 420.837
3126 0 73.1454 12.1402 888 113.936 1091.99 422.178
3127 0 77.0694 11.4312 881 116.982 1092.15 418.804
3128 0 77.0685 12.7549 983 115.839 1092.05 415.084
3129 0 83.0624 11.5696 961 118.815 1091.44 415.19
3130 0 86.0373 12.5992 1084 117.253 1091.98 412.427
3131 0 87.0434 11.6608 1015 116.819 1092.45 411.365
3132 0 91.071 12.8471 1170 114.187 1092.1 407.315
3133 0 96.0786 13.2079 1269 112.585 1092.64 407.769
3134 0 96.0604 12.6795 1218 115.635 1092.06 405.621
3135 1 50.1158 8.14114 408 117.343 1092.6 429.787
3136 0 55.1637 11.2211 619 110.438 1091.82 426.176
3137 0 56.0641 11.7722 660 109.295 1092.53 428.168
3138 0 57.0809 11.9129 680 109.141 1092.56 426.86
3139 0 58.0707 11.1072 645 111.124 1092.41 428.203
3140 0 61.0984 11.2605 688 110.608 1092.67 424.344
3141 0 64.0564 12.7388 816 105.21 1093.19 425.602
3142 0 67.052 11.8117 792 107.725 1093.03 422.005
3143 0 67.0552 11.5278 773 108.058 1093.16 424.088
3144 0 70.0765 11.5588 810 109.112 1093.08 420.722
3145 0 74.0528 11.2487 833 108.498 1092.78 421.187
3146 0 76.1081 11.1683 850 108.947 1092.39 420.901
3147 0 79.0606 12.1679 962 106.85 1092.71 417.483
3148 0 82.1939 12.507 1028 106.001 1092.56 416.215
3149 0 84.1337 12.1473 1022 107.402 1092.73 415.569
3150 0 87.087 12.4703 1086 107.468 1092.63 413.27
3151 0 89.1096 12.0189 1071 108.667 1092.48 412.401
3152 0 91.1692 11.539 1052 110.936 1092.43 408.08
3153 1 47.0656 11.2609 530 107.723 1092.3 430.262
3154 0 50.073 10.7443 538 112.673 1092.42 429.416
3155 0 51.0675 10.8484 554 110.067 1091.97 426.69
3156 0 53.0934 10.7546 571 104.433 1092.12 423.716
3157 0 54.065 11.2087 606 103.274 1092.04 423.701
3158 0 58.0408 12.8013 743 98.9017 1092.33 423.039
3159 0 57.086 11.8068 674 102.537 1092.23 424.798
3160 0 57.0535 10.8495 619 105.01 1092.18 426.439
3161 0 62.0316 11.7037 726 102.762 1091.77 424.718
3162 0 63.1739 11.0805 700 104.3 1092.45 424.25
3163 0 68.0647 11.9445 813 101.49 1092.14 422.615
3164 0 68.0796 11.1928 762 104.823 1091.53 421.445
3165 0 67.0605 11.1243 746 106.609 1091.63 421.55
3166 0 72.1187 12.1744 878 104.189 1092.11 418.754
3167 0 73.146 10.773 788 108.558 1091.87 417.915
3168 0 79.1166 11.957 946 104.183 1091.95 418.166
3169 0 81.0844 11.5312 935 106.2 1092.15 417.547
3170 0 81.1775 11.1238 903 108.962 1091.67 415.993
3171 0 85.2372 12.9873 1107 105.989 1091.6 411.726
3172 0 89.1665 11.0131 982 110.161 1091.75 412.883
3173 0 90.1259 12.2939 1108 109.549 1091.33 409.059
3174 0 94.1686 11.0334 1039 112.992 1091.56 410.53
3175 1 49.0702 8.07008 396 110.01 1092.01 433.293
3176 0 51.1195 10.7395 549 111.705 1091.51 428.222
3177 0 52.2 11.6475 608 109.66 1091.08 426.312
3178 0 56.11 13.0102 730 105.992 1091.24 424.673
3179 0 57.1576 12.5268 716 107.588 1090.67 425.795
3180 0 58.0836 11.8966 691 109.417 1089.82 423.831
3181 0 61.0897 13.7012 837 104.878 1090.34 423.386
3182 0 62.0648 11.4074 708 110.232 1090.43 423.171
3183 0 65.0504 13.8354 900 104.494 1090.42 421.35
3184 0 65.0263 12.1489 790 111.132 1090.52 419.654
3185 0 67.1239 13.8252 928 107.603 1090.11 419.329
3186 0 72.2134 13.1139 947 107.807 1090.27 417.879
3187 0 71.1637 13.1247 934 110.302 1089.71 417.43
3188 0 77.1524 15.0093 1158 104.443 1090.42 415.622
3189 0 80.0981 12.9716 1039 109.446 1091.12 414.772
3190 0 80.1594 12.9991 1042 110.758 1090.36 415.155
3191 0 86.1673 13.8336 1192 108.005 1090.96 413.171
3192 0 86.185 14.3993 1241 108.122 1090.84 411.56
3193 0 90.2381 14.4839 1307 109.195 1090.7 407.581
3194 0 93.4905 13.8731 1297 111.082 1090.73 407.217
3195 0 96.3255 13.6828 1318 112.681 1091.07 404.887
3196 1 51.1481 10.8704 556 117.318 1090.93 428.768
3197 0 53.2496 11.7372 625 116.866 1091.4 425.266
3198 0 54.2265 12.8535 697 113.605 1090.89 423.056
3199 0 57.2091 14.3159 819 111.728 1091.01 424.634
3200 0 59.1241 13.4294 794 114.668 1091.78 423.616
3201 0 59.1241 13.514 799 151.869 1092.78 423.738
3202 0 64.2265 13.2811 853 113.913 1090.96 421.917
3203 0 66.3141 13.8734 920 111.78 1091.03 420.613
3204 0 68.2332 13.278 906 112.021 1090.94 421.135
3205 0 69.1433 13.5805 939 108.294 1090.1 419.094
3206 0 73.0777 13.2735 970 108.256 1090.95 416.187
3207 0 74.076 13.4322 995 108.46 1090.8 414.939
3208 0 75.0888 12.2788 922 112.772 1091.42 412.001
3209 0 80.142 13.4511 1078 108.257 1091.49 413.195
3210 0 82.2461 13.1678 1083 109.647 1091.33 413.885
3211 0 83.2875 12.1747 1014 111.83 1091.57 413.758
3212 0 87.2446 12.1612 1061 113.541 1092.15 409.311
3213 0 89.1794 12.5814 1122 112.731 1091.09 408.576
3214 0 93.2422 12.4729 1163 111.883 1091.49 407.186
3215 0 98.2835 13.3084 1308 110.634 1090.93 404.854
3216 1 52.2677 11.8237 618 108.578 1091 427.528
3217 0 51.0368 10.9725 560 103.686 1092.06 429.53
3218 0 52.0188 10.4193 542 103.161 1091.27 427.683
3219 0 54.0318 11.0305 596 100.735 1091.45 428.168
3220 0 57.058 10.7259 612 101.575 1091.23 426.281
3221 0 58.0365 10.6312 617 102.697 1091.41 424.191
3222 0 59.0896 10.0187 592 103.666 1090.57 423.375
3223 0 59.0535 10.5836 625 103.99 1090.78 422.446
3224 0 62.0626 10.9728 681 103.317 1091.95 421.692
3225 0 64.0447 11.086 710 103.744 1092.2 420.707
3226 0 65.0936 10.9381 712 105.072 1091.82 418.81
3227 0 68.1924 11.4089 778 101.365 1091.19 417.017
3228 0 69.118 12.0229 831 101.125 1091.69 416.073
3229 0 71.0628 11.0466 785 104.797 1091.53 414.975
3230 0 75.0764 10.456 785 104.92 1091.63 415.716
3231 0 77.091 10.9351 843 104.888 1091.62 413.535
3232 0 80.0384 11.2696 902 105.377 1091.76 410.855
3233 0 80.0968 11.124 891 106.816 1091.17 411.027
3234 0 80.0674 10.5036 841 109.408 1091.59 407.553
3235 0 87.1279 11.7643 1025 106.7 1091.07 401.995
3236 0 89.2289 11.2632 1005 107.328 1091.5 402.901
3237 0 95.2854 11.3029 1077 106.813 1091.68 402.712
3238 0 98.202 12.2299 1201 105.649 1091.79 402.488
3239 0 99.0764 12.1522 1204 108.587 1091.51 404.027
3240 0 104.149 12.05 1255 108.28 1091.22 405.437
3241 1 55.0256 8.97764 494 108.263 1090.9 427.731
3242 0 57.0662 10.7594 614 107.015 1090.78 424.549
3243 0 59.0458 9.11158 538 102.654 1091.22 423.571
3244 0 61.0864 10.215 624 112.623 1091.96 422.54
3245 0 60.0713 10.3044 619 111.659 1091.3 422.994
3246 0 65.0731 11.0184 717 109.813 1090.92 420.605
3247 0 65.0307 12.471 811 107.205 1091.44 417.676
3248 0 69.0478 11.0648 764 109.995 1091.67 419.086
3249 0 72.0705 12.0993 872 107.412 1091.04 418.493
3250 0 74.1136 12.103 897 109.943 1091.1 416.846
3251 0 76.1327 12.071 919 111.556 1090.5 416.461
3252 0 79.0832 12.0379 952 111.363 1090.92 415.673
3253 0 80.1122 10.4104 834 116.646 1090.74 410.57
3254 0 85.0639 11.2974 961 113.459 1090.47 412.267
3255 0 87.0849 10.4955 914 115.675 1091.42 410.745
3256 0 91.1056 12.1946 1111 111.847 1091.22 409.524
3257 1 47.0169 9.08183 427 108.609 1089.73 431.171
3258 0 48.0129 9.68489 465 109.66 1090.59 429.389
3259 0 51.0225 8.91763 455 106.51 1091.38 424.49
3260 0 50.0695 9.60664 481 107.942 1091.11 420.222
3261 0 54.0818 9.92941 537 106.35 1091.02 423.205
3262 0 56.0406 10.4567 586 106.109 1091.44 425.157
3263 0 59.083 12.1524 718 102.695 1091.19 425.198
3264 0 62.1251 11.2998 702 104.389 1091.37 421.251
3265 0 64.0622 12.1444 778 102.093 1091.76 419.243
3266 0 67.062 11.7056 785 103.898 1091.16 419.692
3267 0 66.0613 10.5054 694 108.902 1091.28 418.427
3268 0 68.0588 10.917 743 110.044 1091.2 417.923
3269 0 71.0883 12.9557 921 104.661 1092.02 417.028
3270 0 73.0646 11.6746 853 108.521 1091.95 416.553
3271 0 74.0606 10.4779 776 111.914 1091.43 415.487
3272 0 80.1632 12.5245 1004 106.176 1091.8 415.055
3273 0 80.0816 11.1886 896 109.54 1091.42 414.432
3274 0 82.1715 10.9892 903 109.29 1091.7 414.47
3275 0 86.1396 11.6091 1000 108.538 1091.56 410.701
3276 0 88.0826 9.7295 857 112.922 1091.49 410.254
3277 0 93.1236 11.7478 1094 109.268 1091.91 404.056
3278 1 53.1901 11.0735 589 107.9 1092.53 422.029
3279 0 53.094 11.2065 595 107.466 1093.5 420.103
3280 0 55.1509 12.5655 693 103.993 1093.02 419.499
3281 0 56.2071 11.511 647 107.346 1093.65 420.513
3282 0 59.096 13.0127 769 103.56 1093.37 419.704
3283 0 57.1412 11.0778 633 109.635 1093.55 417.809
3284 0 60.1013 12.2626 737 106.053 1093.28 417.877
3285 0 64.0856 12.6706 812 103.697 1092.96 418.007
3286 0 64.1369 12.4733 800 105.356 1093.06 415.835
3287 0 65.0911 12.567 818 105.928 1093.22 415.455
3288 0 68.1711 12.5126 853 104.883 1092.91 415.44
3289 0 69.1227 11.183 773 108.054 1092.78 413.151
3290 0 70.1242 10.8807 763 110.245 1092.25 409.456
3291 0 74.142 11.5454 856 107.618 1091.89 408.401
3292 0 79.1872 12.944 1025 103.83 1092.16 407.437
3293 0 81.213 13.1875 1071 104.105 1091.91 405.435
3294 0 85.1089 13.2301 1126 103.647 1092.42 406.103
3295 0 86.1644 12.1048 1043 106.121 1092.23 405.926
3296 0 90.1097 11.8633 1069 106.958 1092.04 404.681
3297 0 93.1496 12.7322 1186 104.472 1093.11 404.547
3298 0 96.1621 12.8013 1231 105.774 1092.48 400.731
3299 1 54.0616 12.2638 663 104.609 1093.19 421.691
3300 0 54.0399 12.0837 653 107.009 1093.58 422.158
3301 0 56.1186 11.7786 661 108.487 1092.29 422.002
3302 0 56.0532 11.4177 640 103.63 1092.07 422.688
3303 0 59.0665 12.2066 721 101.933 1092.08 421.204
3304 0 60.0641 11.3212 680 104.419 1092.67 421.172
3305 0 62.0593 11.7468 729 104.025 1092.59 419.715
3306 0 66.0694 12.3658 817 101.557 1092.12 419.295
3307 0 67.0901 13.1018 879 100.769 1092.64 417.968
3308 0 69.0897 12.6502 874 103.116 1092.58 416.587
3309 0 71.0554 11.9625 850 105.614 1092.11 414.208
3310 0 73.0676 12.29 898 105.283 1091.95 412.385
3311 0 74.0985 11.4847 851 108.347 1091.89 411.402
3312 0 79.0742 12.7602 1009 105.639 1091.89 409.472
3313 0 80.0694 11.6274 931 109.51 1091.98 408.074
3314 0 84.0741 12.5722 1057 106.981 1092.85 406.607
3315 0 88.0597 13.0707 1151 106.426 1091.86 406.873
3316 0 90.1178 11.6403 1049 111.326 1092 404.83
3317 0 94.0917 12.1584 1144 110.26 1091.37 403.757
3318 0 97.1284 11.9327 1159 110.774 1092.09 401.352
3319 1 51.1362 9.54315 488 109.621 1092.58 426.324
3320 0 53.0492 10.9333 580 108.955 1092.18 425.862
3321 0 55.0867 11.5454 636 109.123 1092.85 422.645
3322 0 55.054 10.6259 585 110.641 1092.37 423.511
3323 0 57.0582 11.3568 648 108.957 1091.67 423.468
3324 0 60.0864 11.9162 716 108.313 1092.46 420.8
3325 0 62.1069 12.7522 792 106.386 1091.87 420.831
3326 0 62.0679 11.9224 740 109.242 1091.92 418.616
3327 0 65.1119 11.5954 755 109.497 1092.06 418.325
3328 0 68.0426 12.1248 825 108.821 1092.61 417.521
3329 0 70.0902 12.1415 851 108.752 1092.17 416.467
3330 0 72.0347 12.1469 875 109.111 1092.22 416.103
3331 0 73.1346 12.3198 901 109.63 1091.77 414.998
3332 0 76.0742 12.2249 930 110.416 1091.3 413.92
3333 0 78.0818 11.6673 911 112.895 1091.73 412.177
3334 0 80.1208 12.3563 990 111.774 1091.85 409.504
3335 0 82.076 12.1107 994 113.742 1091.73 410.514
3336 0 87.0459 12.7289 1108 112.248 1091.27 408.203
3337 0 89.0944 13.0199 1160 112.097 1092.34 402.405
3338 0 92.1656 12.4775 1150 114.572 1091.77 405.408
3339 0 92.0447 11.7334 1080 117.993 1091.71 402.732
3340 0 97.1917 12.0998 1176 116.696 1091.28 400.348
3341 0 101.193 12.7776 1293 114.178 1091.65 402.623
3342 1 51.0327 9.91522 506 115.557 1091.53 426.636
3343 0 52.0597 10.9298 569 115.791 1091.3 423.316
3344 0 55.0234 9.94123 547 113.144 1091.42 427.166
3345 0 58.0169 11.7035 679 108.287 1091.77 427.246
3346 0 57.0789 10.1614 580 115.086 1091.72 425.672
3347 0 60.1 11.1647 671 112.273 1091.82 424.042
3348 0 59.0706 11.3593 671 114.019 1091.45 422.265
3349 0 64.0919 11.7488 753 112.738 1091.79 421.421
3350 0 64.0431 12.273 786 112.303 1091.52 421.883
3351 0 67.1057 12.3089 826 112.367 1092.04 419.473
3352 0 70.1 13.0671 916 111.753 1092.57 418.995
3353 0 71.1415 12.3416 878 114.946 1091.96 417.166
3354 0 72.1201 12.4653 899 116.142 1091.53 417.023
3355 0 76.1869 12.2725 935 116.394 1091.67 416.949
3356 0 79.0695 13.0392 1031 115.271 1092.07 414.865
3357 0 79.0822 12.2278 967 117.589 1092.15 413.506
3358 0 84.0647 14.4769 1217 111.388 1092.05 409.46
3359 0 83.1851 12.7427 1060 118.209 1091.27 405.731
3360 0 87.2317 12.2547 1069 119.882 1091.54 407.8
3361 0 91.1753 13.2931 1212 117.677 1091.8 407.515
3362 0 95.181 13.0698 1244 118.198 1091.75 406.758
3363 1 50.0434 9.65161 483 116.785 1091.73 430.304
3364 0 53.0288 10.8243 574 117.8 1091.66 428.92
3365 0 53.0584 11.7606 624 114.567 1092.03 427.312
3366 0 56.0679 12.3243 691 112.886 1091.15 426.078
3367 0 58.0713 11.3826 661 115.445 1091.58 425.595
3368 0 58.0254 12.5118 726 113.594 1091.47 425.507
3369 0 59.0256 12.0964 714 115.758 1091.43 421.437
3370 0 64.1413 13.0337 836 111.395 1091.15 421.504
3371 0 65.0105 12.2134 794 114.727 1091.61 421.651
3372 0 67.0672 12.5844 844 113.537 1091.42 421.736
3373 0 69.1054 12.7342 880 114.141 1091.8 417.199
3374 0 72.0682 13.8202 996 111.674 1091.38 417.008
3375 0 74.0625 12.8405 951 114.116 1091.22 416.673
3376 0 75.1474 14.425 1084 111.156 1091.02 414.116
3377 0 78.126 13.1838 1030 114.238 1091.13 413.927
3378 0 79.0791 12.1903 964 117.695 1091.74 412.412
3379 0 81.0507 12.0172 974 117.771 1090.92 411.499
3380 0 84.1482 12.5374 1055 116.494 1091.07 410.032
3381 0 88.0967 12.3047 1084 117.651 1091.28 408.382
3382 0 92.0786 13.8577 1276 112.644 1092.23 406.279
3383 0 94.0928 13.2635 1248 113.468 1091.86 406.982
3384 0 97.1414 12.909 1254 122.256 1091.21 407.244
3385 0 101.128 13.5077 1366 117.742 1091.72 404.918
3386 1 53.0715 11.2678 598 112.562 1091.19 430.846
3387 0 55.0596 12.096 666 107.524 1091.49 426.935
3388 0 56.0237 11.4059 639 107.909 1091.53 426.682
3389 0 59.0559 11.5992 685 107.06 1091.61 425.108
3390 0 60.0771 12.2842 738 104.615 1091.39 425.268
3391 0 62.0911 13.1098 814 102.828 1091.42 423.419
3392 0 63.108 11.3139 714 106.877 1091.7 423.361
3393 0 67.0749 11.9717 803 104.707 1091.33 421.88
3394 0 66.062 11.686 772 106.933 1091.02 421.065
3395 0 67.1229 11.8588 796 106.254 1091.77 419.256
3396 0 70.064 10.9471 767 107.816 1091.57 419.395
3397 0 72.0868 11.0561 797 108.503 1091.6 416.29
3398 0 77.1007 12.3345 951 104.879 1091.43 417.552
3399 0 78.1061 11.1771 873 107.835 1091.91 415.884
3400 0 80.0565 11.8916 952 108.504 1091.29 411.782
3401 0 81.0641 11.5341 935 109.891 1091.53 409.51
3402 0 84.1303 11.6248 978 110.669 1091.71 409.124
3403 0 85.1399 10.6061 903 113.664 1091.73 410.277
3404 0 90.0529 12.0596 1086 111.823 1091.58 406.486
3405 0 93.0841 12.4941 1163 111.692 1092.52 404.531
3406 0 96.2072 13.6164 1310 110.237 1092.05 406.974
3407 0 101.096 14.6494 1481 106.962 1092.02 402.91
3408 0 101.184 13.3716 1353 111.574 1091.24 402.016
3409 0 105.118 13.2707 1395 112.822 1091.59 399.332
3410 0 107.09 12.9051 1382 114.849 1092.42 397.062
3411 0 110.066 13.4555 1481 115.683 1092.11 395.073
3412 0 115.2 14.3402 1652 113.934 1092.25 394.323
3413 0 118.169 13.3283 1575 117.479 1092.52 395.114
3414 0 122.247 14.1762 1733 117.461 1092.32 391.451
3415 0 126.12 13.955 1760 119.13 1091.64 388.532
3416 0 130.076 13.592 1768 119.807 1091.79 391.062
3417 0 137.196 14.3809 1973 119.306 1091.42 384.239
3418 0 138.093 14.1788 1958 122.003 1090.97 381.228
3419 0 146.21 15.2658 2232 118.498 1091.32 380.124
3420 0 150.192 14.7478 2215 120.75 1090.97 375.192
3421 0 155.126 14.6977 2280 121.285 1091.55 375.595
3422 0 159.197 13.0781 2082 125.974 1090.76 372.519
3423 0 165.103 14.3123 2363 123.039 1091.03 370.614
3424 0 170.162 13.9338 2371 125.833 1091.11 363.022
3425 0 176.19 15.086 2658 122.503 1091.09 364.998
3426 0 183.224 15.1891 2783 123.086 1091.39 361.95
3427 0 186.335 15.7619 2937 122.647 1090.73 357.314
3428 0 194.344 15.2153 2957 124.253 1091.04 356.327
3429 0 199.242 15.5389 3096 125.59 1091.06 349.995
3430 0 205.286 14.5309 2983 125.858 1091.57 349.055
3431 0 212.368 15.8781 3372 124.318 1091.12 345.017
3432 1 163.323 13.4947 2204 127.701 1090.59 371.707
3433 0 171.309 14.4009 2467 125.643 1091.19 367.062
3434 0 178.262 14.5124 2587 126.684 1090.56 363.871
3435 0 181.306 13.6289 2471 130.684 1090.96 360.182
3436 0 191.211 14.722 2815 126.944 1090.81 356.467
3437 0 194.381 13.8902 2700 129.868 1091.53 353.521
3438 0 205.261 14.8981 3058 125.472 1091.63 348.968
3439 0 213.239 13.8389 2951 128.938 1090.42 346.094
3440 0 220.283 15.3166 3374 126.002 1090.07 337.974
3441 0 230.245 14.1762 3264 128.222 1090.5 336.325
3442 1 50.0609 8.74935 438 110.484 1090.03 428.735
3443 0 52.0356 11.0117 573 107.297 1090.08 424.81
3444 0 53.0483 10.6318 564 108.527 1089.5 424.055
3445 0 55.0557 11.0797 610 109.23 1090.35 426.859
3446 0 56.0131 11.0153 617 109.135 1090.57 427.324
3447 0 59.0632 11.4792 678 107.785 1090.52 426.917
3448 0 59.061 12.2585 724 106.258 1090.1 425.327
3449 0 65.1084 11.7957 768 106.105 1090.61 424.802
3450 0 63.0504 10.3727 654 104.138 1090.77 420.911
3451 0 67.0594 11.3481 761 100.809 1090.9 425.338
3452 0 70.2576 11.1589 784 100.167 1091.09 420.693
3453 0 71.2024 12.5277 892 98.7814 1091.76 419.451
3454 0 73.1111 10.4498 764 103.267 1091.72 419.137
3455 0 77.1005 12.2956 948 101.213 1091.54 418.582
3456 0 77.1259 10.0226 773 106.467 1091.12 409.68
3457 0 82.1846 11.6202 955 102.323 1091.96 416.11
3458 0 82.1021 11.2543 924 106.854 1090.32 417.504
3459 1 46.0348 11.5565 532 98.9718 1089.42 434.496
3460 0 45.0859 10.2249 461 99.1866 1090.44 421.998
3461 0 47.0795 10.2805 484 99.3595 1089.77 408.715
3462 0 47.03 9.80226 461 101.672 1089.96 411.653
3463 0 48.0303 9.80631 471 125.051 1090.95 411.745
3464 0 51.0783 10.3371 528 101.384 1090.47 413.104
3465 0 50.1084 10.9163 547 102.79 1089.6 412.936
3466 0 52.1063 9.61496 501 105.758 1090.01 416.198
3467 0 53.0232 10.8632 576 103.236 1089.69 424.969
3468 0 56.0074 11.3556 636 104.06 1089.91 425.712
3469 0 59.1906 11.9614 708 100.86 1088.67 420.825
3470 0 59.0379 10.7727 636 104.404 1089.58 421.92
3471 0 60.0504 11.5736 695 103.971 1090.22 420.721
3472 0 64.0193 11.4028 730 106.164 1089.97 423.284
3473 0 62.0531 11.0228 684 111.613 1088.92 426.187
3474 1 77.1607 18.1958 1404 84.4209 1089.39 413.019
3475 0 73.036 15.773 1152 93.6493 1090.19 411.958
3476 0 69.0652 12.452 860 109.556 1089.32 418.244
3477 0 72.0289 13.1336 946 107.887 1088.77 419.99
3478 0 73.0481 11.951 873 112.219 1090.22 418.238
3479 0 76.1212 12.9267 984 111.095 1089.71 414.99
3480 0 76.0749 11.791 897 117.162 1089.33 414.215
3481 0 80.0803 11.451 917 118.213 1088.85 417.032
3482 0 82.1068 13.0075 1068 114.118 1089.12 417.716
3483 0 85.0809 10.7897 918 115.983 1090.13 415.394
3484 1 45.0774 9.29512 419 115.391 1090.1 427.871
3485 0 50.1127 11.5939 581 108.048 1090.88 428.583
3486 0 51.1423 12.3381 631 108.12 1090.05 427.759
3487 0 51.066 11.5341 589 112.129 1089.62 427.117
3488 0 54.0606 12.227 661 110.867 1090.17 425.811
3489 0 55.1332 11.8078 651 113.006 1089.73 421.081
3490 0 56.0348 12.0461 675 113.256 1089.7 421.391
3491 0 58.138 12.3327 717 112.982 1090.21 420.159
3492 0 60.126 12.0081 722 114.493 1089.96 421.615
3493 0 61.1257 12.4334 760 114.817 1089.91 419.874
3494 0 63.111 13.3099 840 112.812 1090.36 420.98
3495 0 63.0747 12.9212 815 116.077 1090.35 420.891
3496 0 67.0281 12.3829 830 118.578 1090.43 417.747
3497 0 68.0263 13.5242 920 116.634 1091.07 422.145
3498 0 69.0851 12.4484 860 119.763 1090.79 420.315
3499 0 73.1114 14.7309 1077 114.651 1090.78 418.108
3500 0 74.0614 13.1918 977 119.357 1091.19 417.86
3501 0 74.1071 13.413 994 120.201 1091.19 416.487
3502 0 78.1005 13.9052 1086 119.998 1090.81 415.188
3503 0 80.1334 13.5025 1082 122.681 1090.6 414.453
3504 0 81.1126 13.1669 1068 125.77 1090.45 412.406
3505 0 87.2035 13.6577 1191 122.243 1090.82 412.092
3506 0 89.2167 14.1565 1263 120.639 1091.1 410.994
3507 0 94.1532 13.8498 1304 119.054 1091.02 407.264
3508 1 51.0871 11.9795 612 118.623 1091.09 429.141
3509 0 51.1078 11.6029 593 124.865 1090.98 427.96
3510 0 53.0641 12.1174 643 123.092 1091.33 427.163
3511 0 54.0276 10.7538 581 118.804 1091.26 426.852
3512 0 55.05 11.3351 624 117.859 1090.65 425.123
3513 0 58.1184 11.4594 666 116.952 1090.95 426.509
3514 0 58.0955 10.6549 619 119.89 1091.19 424.659
3515 0 58.0451 10.5952 615 120.92 1091.16 422.909
3516 0 63.0967 12.1243 765 116.009 1091.48 422.294
3517 0 65.0836 13.014 847 115.942 1091.41 421.617
3518 0 68.1075 13.097 892 115.253 1091.71 420.578
3519 0 70.1184 12.8212 899 116.75 1091.08 419.188
3520 0 73.2021 12.8958 944 116.685 1091.53 417.071
3521 0 75.1251 13.0582 981 117.371 1091.43 415.256
3522 0 75.0713 11.9486 897 121.151 1091.75 415.321
3523 0 81.1087 13.7347 1114 114.856 1091.06 413.876
3524 0 82.1143 13.0428 1071 118.49 1091.13 413.312
3525 0 85.057 14.3903 1224 115.423 1091.55 410.264
3526 0 88.1157 14.742 1299 115.509 1090.91 409.395
3527 0 90.0774 13.4329 1210 120.155 1090.99 408.162
3528 0 93.113 13.7897 1284 120.745 1090.74 409.021
3529 0 97.1652 13.369 1299 121.797 1091.2 405.526
3530 0 97.1618 13.8326 1344 143.636 1092.19 406.22
3531 0 103.112 13.9072 1434 120.409 1091.16 405.133
3532 0 108.07 14.2778 1543 119.265 1091.03 403.153
3533 0 110.145 13.6729 1506 120.987 1091.41 403.194
3534 0 116.101 14.8836 1728 117.334 1091.11 400.081
3535 1 62.0553 12.1827 756 119.444 1090.73 422.399
3536 0 64.0511 11.5221 738 123.035 1090.98 415.832
3537 0 65.0826 10.986 715 115.569 1091.54 420.373
3538 0 70.063 12.4602 873 112.072 1091.9 417.774
3539 0 72.0357 12.4938 900 112.347 1092.19 418.307
3540 0 74.1337 12.8282 951 112.963 1091.77 417.425
3541 0 73.0767 11.1116 812 119.789 1092.25 414.241
3542 0 79.0882 12.4165 982 114.711 1091.9 414.206
3543 0 80.0895 11.4622 918 119.615 1091.79 411.257
3544 0 81.0743 13.9378 1130 115.057 1091.59 410.501
3545 0 86.1581 12.8717 1109 117.729 1091.99 409.899
3546 0 89.1581 12.8984 1150 118.053 1092.08 408.657
3547 0 94.1665 12.1806 1147 121.182 1092.34 405.675
3548 0 97.2053 13.2194 1285 118.999 1092.05 406.114
3549 0 98.1908 12.8118 1258 122.297 1092.11 402.566
3550 0 101.122 13.2612 1341 122.114 1091.55 400.644
3551 0 104.192 13.8974 1448 121.461 1091.9 401.612
3552 0 106.1 13.1762 1398 124.999 1092.19 397.408
3553 0 110.134 14.0647 1549 124.066 1092.11 398.57
3554 0 113.187 13.4203 1519 127.886 1091.92 397.975
3555 0 117.304 13.4182 1574 128.017 1091.81 394.172
3556 0 120.235 13.798 1659 128.428 1092.55 393.473
3557 0 124.18 14.4307 1792 127.099 1092.23 391.582
3558 0 129.263 14.6678 1896 126.423 1092.28 389.695
3559 0 133.236 14.2379 1897 127.044 1092.33 388.674
3560 0 139.327 14.649 2041 125.176 1092.09 386.22
3561 1 75.089 11.8926 893 117.451 1091.91 419.284
3562 0 78.0807 13.3964 1046 121.118 1091.48 412.112
3563 0 80.2154 13.1396 1054 123.638 1091.39 409.079
3564 0 83.1583 13.8771 1154 121.154 1090.7 409.881
3565 0 85.0543 13.5325 1151 122.283 1090.46 409.433
3566 0 88.3196 13.904 1228 121.877 1090.52 408.192
3567 0 91.101 12.9966 1184 124.87 1091.07 406.394
3568 0 93.054 13.2504 1233 124.736 1091.05 403.362
3569 0 99.1033 15.2064 1507 118.991 1091.26 404.216
3570 0 101.091 14.7392 1490 120.646 1090.93 402.282
3571 0 105.218 14.0566 1479 121.729 1091.03 402.462
3572 0 106.14 13.5953 1443 121.261 1091.51 402.359
3573 0 111.14 14.1713 1575 120.911 1091.9 400.688
3574 0 113.113 14.0125 1585 121.25 1091.92 398.482
3575 0 116.236 13.9028 1616 121.482 1091.72 396.481
3576 0 122.376 13.671 1673 118.959 1092.38 392.857
3577 1 63.1184 9.9654 629 117.714 1092.43 420.38
3578 0 65.034 10.21 664 115.605 1091.8 420.622
3579 0 66.115 10.1036 668 115.16 1091.96 420.819
3580 0 72.0863 11.1117 801 112.783 1092.43 420.025
3581 0 74.0891 11.5537 856 112.746 1091 418.989
3582 0 77.0357 11.7997 909 113.738 1091.59 416.296
3583 0 78.0811 13.1146 1024 111.796 1091.83 414.575
3584 0 82.0619 11.6497 956 115.016 1091.51 414.709
3585 0 85.0565 12.4035 1055 113.291 1091.81 414.089
3586 0 88.1055 12.7688 1125 112.108 1091.57 411.976
3587 0 89.0678 13.2483 1180 112.313 1091.61 411.607
3588 0 95.1388 12.8234 1220 113.231 1091.19 410.879
3589 0 95.1053 12.8699 1224 115.297 1090.91 408.328
3590 0 95.1218 12.5523 1194 117.835 1091.05 407.03
3591 0 100.151 14.0588 1408 114.574 1090.75 403.404
3592 0 103.15 13.5919 1402 115.653 1092.08 401.064
3593 0 107.094 14.0717 1507 114.479 1091.47 399.961
3594 0 109.156 12.3126 1344 120.366 1091.74 396.915
3595 1 60.0724 10.7703 647 118.546 1090.92 422.014
3596 0 65.172 12.8736 839 112.968 1091.07 419.657
3597 0 67.1316 13.0639 877 112.26 1091.23 417.698
3598 0 70.0507 12.9335 906 111.041 1091.43 418.599
3599 0 71.0332 13.8668 985 109.969 1091.27 418.905
3600 0 73.0921 12.8194 937 112.711 1091.21 416.313
3601 0 76.0372 13.3224 1013 111.43 1091.15 416.747
3602 0 79.11 15.3331 1213 107.732 1091.06 414.391
3603 0 81.0515 13.0411 1057 113.252 1091.51 413.27
3604 0 83.0571 14.0867 1170 112.691 1090.79 411.097
3605 0 85.0617 13.6489 1161 114.005 1091.16 407.894
3606 0 90.0708 13.1674 1186 114.406 1091.55 406.469
3607 0 91.0563 13.4093 1221 114.619 1092.03 407.022
3608 0 93.0455 13.1334 1222 116.173 1091.56 403.858
3609 0 98.1329 14.5415 1427 112.418 1091.43 401.138
3610 0 100.095 13.727 1374 115.6 1091.61 399.607
3611 0 103.086 13.8817 1431 115.138 1091.22 398.277
3612 0 110.124 14.1477 1558 114.204 1091.15 396.695
3613 0 111.129 14.3347 1593 109.085 1091.43 383.95
3614 0 118.137 14.9742 1769 106.032 1091.17 384.717
3615 1 66.1988 11.2993 748 107.455 1091.64 409.98
3616 0 68.0656 12.914 879 103.163 1091.79 417.523
3617 0 70.0529 12.4763 874 105.338 1091.49 415.533
3618 0 72.0317 13.3691 963 104.658 1091.93 410.88
3619 0 76.0648 12.7128 967 105.579 1091.3 411.524
3620 0 76.1468 13.0143 991 106.368 1092.06 410.38
3621 0 81.077 13.5674 1100 105.215 1091.96 408.359
3622 0 82.0668 13.3915 1099 105.957 1092.66 412.265
3623 0 86.0678 14.7558 1270 104.617 1092.83 411.305
3624 0 85.082 13.105 1115 110.994 1092.77 408.812
3625 0 92.1007 13.811 1272 108.219 1092.04 409.787
3626 0 93.088 14.2231 1324 108.502 1092.31 406.446
3627 0 97.1395 17.0476 1656 101.356 1092.2 403.013
3628 0 101.128 14.4965 1466 107.32 1092.85 405.214
3629 0 103.213 14.1261 1458 109.059 1092.09 401.949
3630 0 107.22 13.4956 1447 110.023 1092.44 401.639
3631 1 57.1405 11.7955 674 107.485 1091.89 424.286
3632 0 59.0677 11.3937 673 110.168 1092.33 422.47
3633 0 62.0465 14.3441 890 101.645 1091.73 425.396
3634 0 63.1207 12.2622 774 107.063 1091.46 424.53
3635 0 66.0917 12.8609 850 106.438 1091.17 413.982
3636 0 69.0874 12.5783 869 105.475 1091.75 421.933
3637 0 71.1181 13.8221 983 103.651 1091.6 419.685
3638 0 72.0676 13.418 967 105.071 1091.57 418.376
3639 0 76.1365 12.2937 936 107.623 1091.02 417.864
3640 0 76.0643 11.5034 875 110.565 1091.05 416.154
3641 0 79.1214 11.2106 887 111.434 1091.33 415.77
3642 0 82.1004 13.2886 1091 107.248 1091.33 414.852
3643 0 86.1173 14.0274 1208 106.219 1091.09 413.079
3644 0 87.0732 12.4378 1083 110.693 1091.02 412.571
3645 0 91.048 14.2782 1300 106.83 1090.9 408.333
3646 0 96.093 13.7575 1322 108.255 1090.55 409.789
3647 0 98.1292 13.4924 1324 109.59 1090.96 408.461
3648 0 102.117 14.4932 1480 107.594 1091.28 407.357
3649 0 104.234 14.4194 1503 108.151 1091.28 404.21
3650 1 58.077 10.7788 626 110.637 1091.25 427.46
3651 0 59.0937 10.5933 626 111.332 1090.91 427.776
3652 0 63.1034 11.3623 717 111.254 1091.18 423.011
3653 0 65.0312 10.5642 687 105.888 1091.43 424.552
3654 0 67.1205 12.9469 869 101.021 1091.06 425.509
3655 0 69.1567 12.1752 842 103.354 1091.94 422.786
3656 0 70.0545 12.3333 864 104.263 1091.92 422.899
3657 0 72.1021 11.8721 856 107.147 1091.6 424.126
3658 0 76.1001 11.3009 860 107.594 1091.77 422.567
3659 0 77.0593 11.1992 863 107.586 1091.92 421.518
3660 0 80.0819 12.2999 985 106.296 1091.72 417.711
3661 0 84.1484 12.2403 1030 106.239 1092.12 418.769
3662 0 84.1336 11.6719 982 109.127 1091.97 417.496
3663 0 85.0957 11.4342 973 111.696 1091.93 414.886
3664 0 88.1208 10.9055 961 112.325 1091.72 415.802
3665 0 91.1474 11.7502 1071 111.575 1091.94 412.542
3666 0 95.1583 12.6421 1203 109.959 1091.79 410.96
3667 0 99.2741 12.8835 1279 109.295 1091.99 409.98
3668 0 101.287 12.1634 1232 111.984 1091.55 410.011
3669 0 104.166 12.1921 1270 112.832 1091.62 406.377
3670 0 107.299 13.6721 1467 112.504 1091.93 404.355
3671 0 112.42 13.5653 1525 115.89 1092.13 404.218
3672 1 58.0129 13.2902 771 110.15 1091.41 427.248
3673 0 59.0668 12.5113 739 114.896 1090.92 427.399
3674 0 62.032 13.4124 832 112.996 1091.37 422.989
3675 0 62.1019 12.9304 803 109.161 1091.27 424.041
3676 0 64.0987 12.4495 798 111.102 1091.3 424.63
3677 0 65.0325 13.0704 850 111.353 1091.33 423.271
3678 0 68.0214 13.7163 933 111.033 1091.57 421.442
3679 0 72.1102 14.8661 1072 108.641 1090.76 419.95
3680 0 72.1243 13.9759 1008 112.755 1090.94 421.068
3681 0 76.0498 14.9244 1135 110.805 1090.64 419.156
3682 0 78.1074 14.6337 1143 112.822 1091.61 417.783
3683 0 80.1026 15.4177 1235 111.9 1090.78 415.734
3684 0 82.1123 13.7373 1128 116.772 1090.41 412.903
3685 0 84.1211 13.4687 1133 118.833 1091 409.165
3686 0 87.17 14.0645 1226 119.02 1090.75 407.875
3687 0 87.1444 13.5866 1184 122.683 1090.28 405.621
3688 0 93.1384 13.6034 1267 121.61 1090.16 404.976
3689 0 95.2193 14.4614 1377 120.031 1090.4 402.497
3690 0 99.2155 15.1992 1508 118.623 1089.82 401.59
3691 0 99.2155 15.2396 1512 144.492 1089.82 401.627
3692 0 104.15 14.7191 1533 121.022 1089.76 401.888
3693 0 105.199 14.2491 1499 123.207 1089.59 400.972
3694 0 108.3 13.1117 1420 127.52 1089.35 396.046
3695 0 112.241 14.4599 1623 123.859 1089.14 395.984
3696 0 114.242 14.0054 1600 125.853 1089.38 393.299
3697 0 120.183 14.6027 1755 123.108 1089.29 393.662
3698 0 124.364 13.951 1735 126.69 1089.59 389.985
3699 1 64.0588 11.4114 731 121.149 1089.82 417.575
3700 0 65.0829 13.5059 879 120.357 1090.31 417.487
3701 0 69.0508 14.2793 986 116.697 1089.81 423.643
3702 0 68.121 12.742 868 121.606 1089.86 422.611
3703 0 70.148 12.5306 879 122.85 1089.35 421.415
3704 0 73.0957 13.0924 957 121.431 1090.01 421.109
3705 0 73.1266 11.9382 873 124.945 1089.7 420.928
3706 0 78.2507 14.1085 1104 118.495 1090.07 419.274
3707 0 80.1782 13.7693 1104 119.393 1090.46 418.832
3708 0 84.1334 15.1783 1277 116.011 1090.15 418.821
3709 0 84.1693 13.7936 1161 121.78 1090.25 415.878
3710 0 88.1568 14.6897 1295 115.194 1090.86 410.438
3711 0 87.039 13.0286 1134 122.737 1089.97 406.145
3712 0 89.1003 12.3681 1102 124.4 1090.15 407.6
3713 0 94.0664 14.1708 1333 120.21 1090.37 404.895
3714 0 96.2407 13.061 1257 121.686 1089.75 406.038
3715 0 101.201 14.6045 1478 116.74 1090.17 405.376
3716 0 104.245 13.4875 1406 120.019 1090.34 404.75
3717 0 107.199 12.8919 1382 121.691 1089.76 404.679
3718 0 112.205 15.4271 1731 116.685 1089.85 397.082
3719 0 115.13 14.184 1633 120.508 1089.45 396.02
3720 0 119.16 13.7042 1633 121.386 1089.29 397.06
3721 0 123.212 14.0084 1726 122.093 1089.96 392.457
3722 0 123.216 14.0729 1734 148.642 1089.96 392.45
3723 0 131.275 13.9021 1825 122.872 1090.08 392.041
3724 0 137.217 15.7051 2155 118.79 1089.89 387.861
3725 0 139.311 14.1338 1969 124.722 1090.09 387.018
3726 0 144.28 13.6887 1975 127.165 1090.19 382.93
3727 0 149.296 14.3875 2148 126.42 1090.09 377.52
3728 0 156.285 14.3264 2239 127.406 1090.33 372.443
3729 0 160.226 13.5621 2173 131.35 1090.17 366.794
3730 0 165.216 15.3738 2540 126.652 1090.07 366.689
3731 0 169.232 14.3118 2422 131.767 1090.23 360.009
3732 0 176.185 14.9729 2638 129.95 1090.3 361.205
3733 0 184.17 14.5463 2679 132.049 1090.73 355.744
3734 0 189.322 15.5238 2939 130.806 1090.58 351.459
3735 0 194.286 15.1066 2935 133.042 1090.13 346.469
3736 0 203.282 15.4072 3132 131.877 1090.43 346.29
3737 0 210.278 15.1561 3187 132.73 1090.63 343.871
3738 0 220.224 18.2269 4014 123.137 1090.2 332.191
3739 0 225.233 15.0555 3391 133.549 1089.95 332.468
3740 1 51.0798 10.8262 553 109.66 1090.99 419.618
3741 0 52.0641 11.966 623 110.215 1091.11 424.055
3742 0 54.095 12.7184 688 112.131 1092.38 422.215
3743 0 55.0452 11.209 617 117.733 1092.44 421
3744 0 57.0732 13.5966 776 111.412 1091.63 419.173
3745 0 58.1936 11.6851 680 117.724 1091.9 420.287
3746 0 60.265 12.7603 769 116.399 1092.43 419.795
3747 0 62.188 13.4431 836 115.182 1092.16 419.462
3748 0 63.0779 11.6364 734 123.722 1091.27 422.458
3749 0 64.1033 11.8091 757 125.176 1091.36 420.095
3750 0 67.0711 11.7785 790 125.262 1091.51 416.777
3751 0 71.1282 14.748 1049 117.822 1091.54 416.643
3752 0 72.0896 13.8716 1000 121.197 1091.67 413.786
3753 0 73.1593 12.8213 938 124.982 1091.43 416.758
3754 0 77.1182 15.0418 1160 118.247 1091.85 411.716
3755 0 77.1477 12.8973 995 127.473 1092.06 412.991
3756 0 79.1161 12.3995 981 130.332 1091.2 415.515
3757 0 81.1095 13.229 1073 128.36 1091.54 414.857
3758 1 53.0234 8.58112 455 134.253 1091.17 401.692
3759 0 88.1205 16.92 1491 120.462 1091.17 377.966
3760 0 91.0862 16.0068 1458 122.964 1090.8 365.918
3761 0 92.1095 17.2512 1589 121.828 1091.4 364.357
3762 0 95.0996 17.1294 1629 122.638 1091.66 363.997
3763 0 97.1122 16.3728 1590 125.816 1091.3 363.119
3764 0 101.18 17.2267 1743 122.922 1091.47 361.979
3765 0 105.054 17.7432 1864 121.136 1091.4 362.593
3766 0 107.214 17.1434 1838 123.317 1091.97 364.191
3767 0 109.141 16.2908 1778 126.863 1091.33 363.092
3768 0 112.16 17.0738 1915 125.023 1091.61 362.88
3769 0 115.222 16.7156 1926 124.465 1092.71 359.998
3770 0 121.196 16.4939 1999 124.954 1092.36 357.539
3771 0 125.192 16.982 2126 124.528 1092.72 361.466
3772 0 128.188 16.3432 2095 126.576 1091.85 362.604
3773 1 57.1219 9.8211 561 131.317 1092.54 400.273
3774 0 62.1158 12.8792 800 121.496 1092.8 401.575
3775 0 63.0981 10.6659 673 122.418 1093.34 410.18
3776 0 66.1112 10.9966 727 119.773 1092.79 413.693
3777 0 67.0632 11.0642 742 119.433 1093.11 414.701
3778 0 68.1115 10.6884 728 121.236 1093.29 413.661
3779 0 71.0461 11.7811 837 119.407 1092.7 413.916
3780 0 70.0252 9.92499 695 125.491 1092.71 417.078
3781 0 74.0935 11.0941 822 121.951 1091.61 417.322
3782 0 78.0719 13.193 1030 117.845 1093.03 414.32
3783 0 78.0667 10.7344 838 124.446 1093 414.897
3784 0 81.1126 12.1066 982 121.388 1093.34 412.722
3785 0 85.1474 11.1806 952 122.083 1093.25 413.7
3786 0 87.2089 12.4987 1090 121.827 1093.16 408.273
3787 0 91.196 13.1694 1201 120.389 1093.37 408.008
3788 0 93.3069 11.2961 1054 125.157 1092.82 405.857
3789 0 96.2517 11.5115 1108 126.943 1092.87 402.044
3790 1 53.0711 11.8332 628 117.336 1092.56 424.704
3791 0 54.0865 11.9438 646 119.181 1093.13 423.868
3792 0 55.0955 11.7795 649 121.904 1093.28 423.775
3793 0 58.041 11.802 685 110.65 1092.62 427.38
3794 0 59.0682 11.546 682 119.556 1092.46 425.57
3795 0 59.0207 11.9958 708 113.095 1093.09 422.924
3796 0 63.053 12.2913 775 118.366 1092.81 422.399
3797 0 64.0934 12.3102 789 112.53 1093.05 423.311
3798 0 65.082 11.6468 758 116.492 1092.96 420.587
3799 0 69.0833 11.8118 816 115.023 1092.71 419.949
3800 0 69.0586 12.1636 840 115.954 1093.14 418.44
3801 0 72.0438 12.4646 898 115.627 1092.34 417.087
3802 0 75.0542 13.0972 983 112.821 1092.07 417.569
3803 0 76.0557 13.5427 1030 113.462 1092.19 415.189
3804 0 79.1151 13.9291 1102 113.256 1092.34 415.851
3805 0 81.1312 13.9774 1134 113.463 1092.28 414.841
3806 0 81.0642 12.1879 988 123.817 1092.78 412.481
3807 0 87.0679 12.7142 1107 120.82 1092.79 410.729
3808 0 87.067 12.8062 1115 122.885 1091.96 410.139
3809 0 91.1106 13.2037 1203 122.751 1092.23 407.642
3810 0 95.077 13.2419 1259 121.431 1091.86 409.206
3811 0 98.1596 13.7124 1346 122.827 1092.11 405.992
3812 0 99.0932 13.4924 1337 124.292 1091.55 404.193
3813 0 101.056 12.3397 1247 128.021 1091.26 402.436
3814 0 105.114 13.0239 1369 126.343 1092 399.76
3815 0 110.137 13.9734 1539 123.088 1092.58 399.226
3816 0 114.158 13.604 1553 123.952 1092.14 397.529
3817 0 116.056 13.6658 1586 123.081 1092.47 396.686
3818 0 121.059 13.5388 1639 121.032 1092.11 395.835
3819 1 70.0682 11.2462 788 117.85 1091.86 419.18
3820 0 72.1744 12.0264 868 121.22 1091.85 418.134
3821 0 73.064 11.3462 829 119.127 1092.24 416.055
3822 0 77.0557 12.2509 944 116.408 1092.6 416.874
3823 0 79.1306 12.9785 1027 114.924 1092.02 415.429
3824 0 82.0901 11.597 952 118.103 1092.09 414.139
3825 0 84.0687 10.5866 890 119.626 1091.26 414.769
3826 0 89.0767 12.652 1127 113.385 1091.57 412.236
3827 0 90.0825 12.3109 1109 116.929 1092.15 408.026
3828 0 94.1018 12.699 1195 115.469 1091.47 407.962
3829 0 97.197 12.8502 1249 115.556 1092.12 403.367
3830 0 99.1157 12.1373 1203 119.574 1091.87 402.591
3831 0 101.171 12.7508 1290 119.398 1091.82 398.039
3832 0 107.157 12.897 1382 118.31 1091.27 397.634
3833 0 110.171 13.6243 1501 116.765 1091.66 393.991
3834 0 114.107 12.3043 1404 121.334 1091.77 392.063
3835 1 65.0715 10.9879 715 114.351 1090.81 419.849
3836 0 67.0544 12.0052 805 111.665 1091.04 417.056
3837 0 71.0418 11.7818 837 105.89 1092 418.602
3838 0 70.1134 11.7096 821 108.404 1092.09 419.44
3839 0 74.0854 12.1346 899 112.129 1092.45 420.475
3840 0 76.1514 11.9761 912 112.484 1092.83 414.803
3841 0 77.0663 11.8988 917 112.902 1092.94 414.699
3842 0 80.1312 11.4437 917 114.497 1093.06 414.169
3843 0 84.1887 12.8046 1078 112.197 1091.89 411.176
3844 0 87.0734 12.1966 1062 114.157 1092.75 409.472
3845 0 90.1498 12.934 1166 112.081 1091.62 410.277
3846 0 91.2239 12.124 1106 116.394 1091.92 408.961
3847 0 93.1324 11.9722 1115 118.323 1091.67 404.605
3848 0 95.1168 11.9642 1138 115.007 1091.77 407
3849 0 100.224 12.033 1206 115.253 1091.76 404.254
3850 0 104.127 12.1007 1260 114.81 1091.77 405.138
3851 0 107.104 13.3982 1435 113.248 1092.53 403.815
3852 0 111.192 13.0316 1449 116.71 1091.79 400.669
3853 0 113.157 11.9303 1350 119.363 1092.25 399.291
3854 1 62.074 11.1963 695 115.043 1092.41 426.135
3855 0 66.0402 12.7347 841 110.579 1093.54 423.332
3856 0 67.0342 12.4862 837 105.421 1092.01 422.796
3857 0 70.0996 10.9986 771 108.751 1092.02 421.227
3858 0 72.1955 11.5935 837 108.14 1092.3 417.382
3859 0 73.0868 12.0405 880 107.322 1091.9 417.458
3860 0 76.1122 11.1809 851 108.828 1092.04 417.207
3861 0 78.0486 12.7741 997 106.12 1092.43 415.279
3862 0 80.129 11.9432 957 108.513 1092.62 413.861
3863 0 81.1739 12.27 996 107.926 1092.32 411.668
3864 0 86.2192 13.5585 1169 104.086 1092.04 410.2
3865 0 88.09 13.191 1162 105.665 1092.9 408.834
3866 0 88.1109 12.1551 1071 109.545 1093 405.626
3867 0 92.0973 13.0731 1204 107.182 1092.5 407.591
3868 0 97.0837 14.0394 1363 104.566 1092.22 404.925
3869 0 98.1473 13.276 1303 107.799 1092.08 405.658
3870 0 101.106 13.4017 1355 109.061 1092.05 402.885
3871 0 104.146 13.6443 1421 110.094 1092.31 400.311
3872 0 107.113 13.229 1417 112.874 1092.76 398.633
3873 0 110.143 14.5084 1598 112.246 1092.19 399.29
3874 0 114.253 14.4679 1653 111.449 1091.81 398.105
3875 0 115.142 14.0869 1622 113.873 1092.56 395.326
3876 0 122.17 15.8877 1941 108.627 1091.95 390.362
3877 0 128.135 16.6465 2133 106.815 1091.46 389.531
3878 1 69.0664 11.0184 761 114.7 1092.75 418.878
3879 0 71.1009 12.0674 858 113.654 1092.76 417.867
3880 0 74.1034 12.0237 891 113.751 1092.39 416.856
3881 0 75.1027 12.3165 925 110.535 1092.45 413.547
3882 0 80.1413 13.1767 1056 108.026 1092.79 414.66
3883 0 81.1058 12.5885 1021 109.879 1092.94 413.772
3884 0 84.1693 13.4372 1131 109.247 1092.43 412.025
3885 0 88.0982 13.7347 1210 108.443 1092.32 412.395
3886 0 87.1266 13.1074 1142 111.933 1092.77 410.753
3887 0 91.1005 13.4357 1224 112.514 1092.67 409.002
3888 0 95.1484 12.6749 1206 115.009 1091.86 409.192
3889 0 95.1329 13.5705 1291 115.164 1091.93 402.831
3890 0 101.113 13.6284 1378 115.454 1092.14 404.708
3891 0 103.29 14.4254 1490 117.078 1091.64 402.752
3892 0 105.244 14.9938 1578 117.999 1091.59 400.61
3893 0 108.119 14.9187 1613 117.324 1091.72 399.227
3894 0 112.107 15.4495 1732 113.986 1092.75 399.176
3895 0 115.06 13.8884 1598 118.21 1091.89 397.946
3896 0 119.087 14.2585 1698 117.232 1091.88 395.98
3897 0 125.188 15.281 1913 113.944 1091.24 392.146
3898 1 66.0265 11.6165 767 117.229 1091.9 420.773
3899 0 70.1238 11.0661 776 114.838 1091.57 420.599
3900 0 73.0991 12.4352 909 110.733 1091.76 416.088
3901 0 76.1343 12.583 958 113.36 1091.1 416.233
3902 0 78.1287 12.0826 944 113.299 1091.2 416.943
3903 0 79.0514 12.4729 986 113.017 1090.77 415.111
3904 0 82.1243 12.3106 1011 113.464 1091.1 414.365
3905 0 83.1348 11.8242 983 115.639 1091.47 412.141
3906 0 88.1168 13.0168 1147 112.215 1091.14 412.31
3907 0 93.1358 12.8307 1195 111.96 1091.2 411.175
3908 0 93.0641 12.2711 1142 115.16 1091.27 404.808
3909 0 97.2103 11.4288 1111 116.278 1091.63 408.345
3910 0 100.161 13.0989 1312 113.588 1091.13 403.642
3911 0 103.113 13.6355 1406 113.173 1090.85 401.69
3912 0 106.142 13.6798 1452 114.322 1090.84 399.011
3913 0 109.134 13.2131 1442 115.671 1090.53 398.937
3914 0 111.125 13.3993 1489 117.636 1090.25 396.518
3915 1 60.056 10.8898 654 115.583 1090.44 423.598
3916 0 64.0418 12.3825 793 114.018 1089.98 420.267
3917 0 67.1363 13.1077 880 110.081 1089.9 420.116
3918 0 67.0892 12.4908 838 112.315 1090.05 418.837
3919 0 71.1683 13.8826 988 108.647 1090.43 418.534
3920 0 72.064 13.5158 974 111.683 1090.39 417.215
3921 0 73.0363 13.1305 959 113.871 1090.45 416.507
3922 0 76.0733 13.5264 1029 115.851 1090.08 415.986
3923 0 80.1542 13.9481 1118 114.507 1090.01 413.027
3924 0 82.1327 13.9652 1147 115.565 1090.07 412.581
3925 0 85.0493 13.6391 1160 116.363 1089.85 412.566
3926 0 88.149 13.6927 1207 117.283 1090.12 410.954
3927 0 90.113 13.0947 1180 120.539 1089.9 408.639
3928 0 93.1372 14.5162 1352 116.158 1089.63 409.493
3929 0 96.1348 14.4589 1390 116.846 1090.31 405.801
3930 0 98.1117 13.4642 1321 120.732 1089.64 404.712
3931 0 100.264 13.3746 1341 122.594 1089.28 401.164
3932 0 106.138 14.6884 1559 118.008 1089.16 400.818
3933 0 108.218 14.443 1563 119.094 1089.22 402.473
3934 0 111.174 14.7607 1641 119.495 1089.24 399.883
3935 0 116.219 14.8684 1728 119.049 1089.21 398.504
3936 0 120.22 14.723 1770 119.337 1089.5 395.907
3937 0 123.102 13.9478 1717 121.518 1088.93 394.963
3938 0 128.103 14.4649 1853 120.391 1089.05 392.648
3939 1 70.0365 13.4073 939 117.086 1088.88 420.203
3940 0 73.0759 12.3296 901 115.66 1089.72 419.942
3941 0 76.1278 14.0159 1067 114.229 1089.73 416.418
3942 0 77.042 13.9794 1077 109.892 1089.72 415.828
3943 0 79.042 12.525 990 112.427 1089.63 418.132
3944 0 81.117 11.7608 954 116.297 1090.39 412.969
3945 0 87.0332 13.2019 1149 111.493 1089.76 412.973
