time division length width area intensity CMx CMy
0 0 127.22 11.3819 1448 109.039 512.437 436.195
1 0 131.199 11.09 1455 115.672 511.889 435.51
2 1 70.0854 8.67513 608 110.044 512.822 465.113
3 0 75.047 10.4868 787 103.079 511.602 465.537
4 0 73.1068 11.1344 814 102.717 511.726 462.962
5 0 79.2186 11.8407 938 99.3475 511.332 463.513
6 0 86.1934 14.5951 1258 91.2051 513.255 455.795
7 0 89.2122 14.6617 1308 91.3723 513.369 457.311
8 0 91.3368 14.1235 1290 93.4062 513.702 454.732
9 0 95.2027 14.2958 1361 92.7465 512.621 454.376
10 0 92.0918 12.9219 1190 99.5479 512.124 456.264
11 0 94.1021 13.2516 1247 99.5196 512.346 455.243
12 0 97.1512 11.9607 1162 102.884 514.539 454.117
13 0 101.112 12.2241 1236 102.307 514.286 454.448
14 0 103.226 12.4194 1282 102.346 513.822 452.291
15 0 105.209 13.8391 1456 101.066 513.095 449.049
16 0 107.178 12.8944 1382 103.913 513.332 449.048
17 0 111.107 12.1774 1353 106.314 513.03 445.625
18 0 112.14 11.5213 1292 107.913 513.091 446.685
19 0 116.167 12.1549 1412 107.58 513.132 444.892
20 0 119.162 13.3768 1594 107.95 513.057 441.353
21 0 122.19 11.8013 1442 116.863 513.497 440.843
22 0 124.177 12.3453 1533 111.784 513.05 439.804
23 0 130.174 12.5601 1635 109.046 512.437 438.851
24 0 136.151 11.8398 1612 111.363 513.812 436.142
25 1 77.065 10.9777 846 106.992 513.079 464.245
26 0 79.1448 10.2091 808 110.631 513.373 462.775
27 0 82.0935 12.8756 1057 106.431 514.127 460.669
28 0 85.0871 13.6213 1159 105.786 512.831 459.114
29 0 87.0879 13.2969 1158 110.788 512.886 453.151
30 0 89.0538 11.1506 993 115.933 513.052 452.972
31 0 88.0737 13.2048 1163 111.728 513.114 447.778
32 0 95.1209 12.4894 1188 111.757 513.074 448.311
33 0 95.0978 12.6186 1200 111.848 513.495 444.671
34 0 96.1303 11.8485 1139 114.766 513.9 443.506
35 0 100.136 12.3932 1241 112.168 512.737 442.235
36 0 101.36 10.9116 1106 110.276 513.52 450.688
37 0 101.122 12.4799 1262 108.72 513.169 446.032
38 0 101.123 12.4997 1264 132.64 513.18 446.034
39 0 107.159 11.7395 1258 110.211 513.676 438.718
40 0 114.24 12.36 1412 108.158 513.021 438.181
41 0 112.217 11.4955 1290 111.841 513.239 438.103
42 0 114.119 12.0313 1373 111.542 513.377 439.808
43 0 119.275 12.3077 1468 111.698 514.484 435.906
44 0 124.132 12.5189 1554 109.963 514.236 433.784
45 0 123.144 12.7818 1574 110.899 513.392 426.392
46 0 129.163 11.9538 1544 109.118 513.388 428.247
47 0 132.168 10.9179 1443 108.035 513.026 421.546
48 0 136.173 11.7424 1599 106.406 514.302 420.443
49 0 141.134 11.5281 1627 108.693 513.537 411.579
50 1 83.1999 8.97838 747 103.657 513.467 444.149
51 0 82.1064 9.1832 754 100.028 514.52 444.288
52 0 85.1063 9.68201 824 99.7354 513.701 442.839
53 0 91.1108 9.36223 853 99.7433 514.294 439.401
54 0 92.1605 8.85412 816 101.384 513.728 438.401
55 0 94.1728 12.201 1149 95.9948 514.815 440.052
56 0 99.2001 11.754 1166 98.0163 513.887 436.678
57 0 105.193 11.7023 1231 98.7214 514.409 435.713
58 0 110.161 11.6648 1285 99.2257 514.604 434.872
59 0 114.24 11.0031 1257 105.34 514.005 443.021
60 0 120.421 12.232 1473 103.434 513.781 440.529
61 0 123.205 12.4021 1528 105.99 513.427 433.458
62 0 129.285 13.5592 1753 105.082 513.899 435.783
63 0 132.353 12.4893 1653 108.059 513.832 423.557
64 1 76.1806 9.39871 716 106.83 514.254 456.581
65 0 81.3182 11.289 918 101.918 513.446 456.605
66 0 83.1652 11.2427 935 102.373 513.581 457.578
67 0 86.1053 12.8912 1110 98.2279 512.869 456.553
68 0 87.1452 12.3013 1072 100.733 512.807 454.808
69 0 91.1442 13.0014 1185 99.0245 513.473 454.71
70 0 94.1827 12.2422 1153 100.749 513.21 451.033
71 0 97.2987 13.7823 1341 96.5772 513.602 448.372
72 0 99.2447 12.0208 1193 102.149 513.72 444.721
73 0 103.293 13.1084 1354 99.4845 512.724 426.166
74 0 105.372 11.654 1228 103.248 512.853 422.974
75 0 108.285 13.4921 1461 98.026 512.962 422.784
76 0 110.243 12.663 1396 100.041 513.08 419.667
77 0 108.221 12.918 1398 99.6474 512.872 412.253
78 0 109.236 13.0086 1421 99.6868 512.533 415.531
79 0 117.248 12.7081 1490 99.5705 513.215 421.029
80 0 120.194 11.6063 1395 101.897 513.331 424.701
81 0 120.091 13.4481 1615 98.4873 513.103 429.689
82 0 127.155 13.0156 1655 99.2435 513.961 424.374
83 0 129.139 12.1806 1573 100.591 513.149 420.455
84 0 135.225 12.2389 1655 99.8387 513.001 423.753
85 0 138.305 13.4196 1856 97.2737 513.671 422.572
86 1 81.1459 11.8552 962 98.5447 513.714 449.597
87 0 87.2103 12.0743 1053 96.1377 513.163 452.882
88 0 90.4111 11.492 1039 96.462 513.294 446.768
89 0 94.4604 12.5873 1189 95.2717 513.15 449.157
90 0 96.455 13.1357 1267 93.9629 513.616 447.123
91 0 99.3666 13.7471 1366 92.44 513.93 445.869
92 0 101.461 10.4966 1065 100.119 513.644 441.148
93 0 103.379 11.4143 1180 97.8831 513.458 440.904
94 0 101.372 11.6403 1180 99.4695 513.826 436.625
95 0 107.365 13.2538 1423 95.7906 512.23 437.006
96 0 107.458 12.6747 1362 98.6696 513.141 434.756
97 0 112.34 11.4118 1282 102.332 513.402 432.51
98 0 115.448 13.2874 1534 98.7151 512.906 430.255
99 0 115.359 11.0264 1272 98.7586 513.371 427.603
100 0 126.135 11.7731 1485 90.1044 512.875 433.813
101 1 76.0929 12.7739 972 84.5113 512.02 455.889
102 0 77.0855 12.3888 955 85.4953 512.471 460.232
103 0 79.1889 13.6257 1079 84.6311 512.749 459.721
104 0 80.2182 11.4313 917 89.7317 513.248 456.119
105 0 83.239 12.5903 1048 87.5267 512.386 454.653
106 0 84.2643 12.8287 1081 87.1286 512.833 456.398
107 0 88.3076 12.7962 1130 87.3602 513.176 454.827
108 0 92.1927 13.5911 1253 85.5291 512.575 455.444
109 0 94.1626 14.1033 1328 86.0723 512.698 451.041
110 0 97.249 13.9025 1352 86.7833 512.701 450.57
111 0 98.3462 12.6492 1244 90.2267 513.292 447.904
112 0 102.358 13.2866 1360 89.2 513.157 447.321
113 0 104.365 14.6696 1531 86.9739 513.298 449.18
114 0 103.339 11.2736 1165 95.9631 513.002 444.125
115 0 108.245 12.2869 1330 93.1105 511.608 444.276
116 1 129.507 7.12705 923 100.655 512.194 437.538
117 1 113.226 12.3381 1397 94.4474 512.558 416.422
118 0 117.288 12.8146 1503 93.1823 511.96 409.005
119 0 116.283 13.2178 1537 93.8614 511.858 405.152
120 0 123.263 14.254 1757 90.4485 512.345 409.772
121 0 130.162 13.3911 1743 92.424 512.183 403.156
122 0 133.274 12.358 1647 95.0067 512.285 402.331
123 0 139.315 13.5448 1887 91.7817 512.745 406.162
124 0 144.315 13.124 1894 93.6837 511.465 399.786
125 0 150.372 12.9678 1950 94.3462 511.91 403.323
126 0 152.342 11.5924 1766 98.1212 511.857 400.012
127 0 162.276 13.8837 2253 92.2401 511.482 406.693
128 0 163.283 12.2426 1999 97.1036 512.459 406.32
129 0 169.261 12.2119 2067 99.1258 511.112 402.254
130 0 171.383 11.7807 2019 101.269 511.692 396.414
131 1 105.248 9.41586 991 92.7013 512.253 439.3
132 0 109.128 12.2792 1340 89.4209 511.595 425.778
133 0 113.144 11.0921 1255 92.8024 511.239 407.97
134 0 113.111 9.73378 1101 97.6676 511.176 399.815
135 0 120.207 11.3305 1362 94.4053 511.302 405.548
136 0 121.165 11.4885 1392 95.0366 511.455 408.145
137 0 126.13 12.4554 1571 94.373 511.68 403.413
138 0 128.267 12.3726 1587 94.8116 512.016 401.343
139 0 132.242 12.1595 1608 95.1256 511.621 408.396
140 0 136.385 11.8342 1614 97.4758 511.96 409.931
141 0 138.365 13.3127 1842 91.747 511.888 413.955
142 0 141.332 10.9812 1552 94.6785 511.336 412.051
143 1 81.2079 9.40796 764 91.4359 511.3 445.071
144 0 79.2652 9.15913 726 90.197 512.997 448.712
145 0 85.2485 9.41952 803 87.9851 512.04 448.37
146 0 86.2131 11.3788 981 87.3578 512.114 445.459
147 0 92.3945 11.2886 1043 85.1285 512.059 451.622
148 0 92.3857 10.4345 964 89.6006 511.898 443.465
149 0 97.1306 11.6853 1135 87.4722 511.98 441.487
150 0 100.245 11.0828 1111 91.7183 512.176 442.961
151 0 104.387 10.5856 1105 92.8362 512.043 442.109
152 0 108.234 11.817 1279 91.147 512.507 439.332
153 0 112.223 11.6643 1309 91.9969 512.85 436.601
154 0 114.227 11.6872 1335 92.8494 512.243 435.67
155 0 118.146 12.8232 1515 90.631 512.578 440.323
156 0 122.244 11.7061 1431 93.1838 512.164 436.961
157 0 126.241 13.8624 1750 89.3794 512.56 435.35
158 0 129.15 11.4983 1485 94.6633 511.996 433.195
159 0 133.259 12.592 1678 93.4362 512.615 431.884
160 0 137.431 12.6027 1732 95.7385 512.048 431.936
161 0 141.278 12.4294 1756 95.7238 512.427 432.981
162 1 81.3302 11.9513 972 87.4506 512.188 462.763
163 0 83.1891 12.2492 1019 87.3445 512.394 458.593
164 0 84.163 11.953 1006 87.5994 512.167 460.375
165 0 88.0735 10.3663 913 86.6166 511.165 454.057
166 0 90.227 10.3406 933 86.6806 511.462 451.045
167 0 94.1772 10.8094 1018 86.5098 511.59 452.274
168 0 95.1413 11.9822 1140 84.5754 511.435 451.301
169 0 98.2119 11.577 1137 85.7898 512.457 448.808
170 0 101.28 12.8653 1303 84.4643 511.589 445.617
171 0 106.102 12.5352 1330 85.4865 512.402 444.556
172 0 107.142 12.1894 1306 86.2787 512.022 444.641
173 0 112.153 12.1976 1368 86.2982 512.201 443.841
174 0 115.122 11.857 1365 87.8381 512.769 441.524
175 0 118.28 12.1998 1443 87.4622 512.836 440.855
176 0 123.196 12.0621 1486 89.1716 512.168 440.159
177 0 124.183 13.7056 1702 94.1269 512.72 433.418
178 0 130.262 14.2252 1853 92.5542 511.883 432.751
179 0 133.361 12.1475 1620 100.614 512.228 430.989
180 0 138.27 12.8444 1776 99.2005 512.195 429.993
181 1 148.223 14.006 2076 91.0501 512.27 417.496
182 0 151.23 15.44 2335 90.4921 512.101 421.394
183 1 88.092 12.3734 1090 89.3284 511.906 458.956
184 0 90.0996 12.3197 1110 92.0018 512.99 459.05
185 0 92.2083 12.7863 1179 86.6124 512.685 458.349
186 0 94.2288 11.557 1089 88.9082 512.528 457.219
187 0 97.426 11.9167 1161 87.3635 512.277 455.984
188 0 100.253 13.8549 1389 85.3636 511.673 452.405
189 0 102.239 11.9621 1223 88.9583 512.022 453.061
190 0 104.301 11.8791 1239 89.3414 511.741 451.777
191 0 109.241 12.8248 1401 88.4118 512.463 447.718
192 0 111.211 12.256 1363 89.562 512.048 446.786
193 0 116.124 12.5039 1452 89.416 512.107 443.121
194 0 118.227 12.1292 1434 90.6269 510.946 441.919
195 0 121.251 13.1545 1595 89.2119 511.535 440.159
196 0 124.126 12.1973 1514 90.7933 511.279 438.16
197 0 130.279 12.5039 1629 89.7152 511.481 436.151
198 0 133.146 13.0157 1733 88.9429 512.089 433.384
199 1 77.3423 11.1582 863 92.9664 511.36 460.649
200 0 68.1224 10.5252 717 96.0126 512.086 450.411
201 0 74.1876 11.8483 879 84.5722 511.262 448.776
202 0 78.1232 11.7251 916 84.3526 511.344 450.155
203 0 81.1453 10.968 890 85.6022 511.771 450.749
204 0 82.1773 12.8016 1052 83.6597 512.058 446.034
205 0 86.2387 12.1175 1045 84.956 511.54 446.226
206 0 87.1972 13.8651 1209 83.5103 511.581 443.746
207 0 87.1526 13.0461 1137 86.3342 511.978 443.785
208 0 90.1328 11.4942 1036 89.75 511.308 445.406
209 0 93.0427 12.2739 1142 89.6874 512.06 441.461
210 0 100.153 12.3411 1236 89.3074 511.121 442.562
211 0 100.2 10.998 1102 98.8929 512.497 433.835
212 0 107.084 13.1579 1409 93.9134 512.358 438.624
213 0 108.164 13.3501 1444 96.0429 511.976 435.409
214 0 112.419 13.5742 1526 92.692 511.566 434.795
215 0 114.182 11.6568 1331 94.5041 512.361 435.251
216 1 63.1555 11.2579 711 96.6484 513.256 460.318
217 0 65.0691 11.9258 776 86.8015 512.947 459.537
218 0 67.2031 12.2762 825 87.143 512.841 457.29
219 0 68.1044 11.0712 754 90.7626 512.273 457.728
220 0 74.195 12.9119 958 86.0313 512.385 458.97
221 0 75.1954 12.1417 913 89.0011 512.02 455.755
222 0 78.191 12.8915 1008 88.4722 512.226 453.057
223 0 78.1601 12.2569 958 94.3434 511.456 454.624
224 0 83.1268 12.7997 1064 93.703 512.299 453.388
225 0 85.3642 12.3471 1054 94.5816 512.139 451.485
226 0 87.233 13.7907 1203 92.0067 512.278 444.953
227 0 90.2731 14.1792 1280 92.093 512.048 445.07
228 0 93.1649 12.5369 1168 95.7603 512.09 441.676
229 0 96.1601 13.8311 1330 93.7346 511.584 440.562
230 0 99.3109 12.3753 1229 96.8487 511.967 439.643
231 0 105.269 13.1377 1383 94.4526 512.05 434.687
232 0 111.28 14.2074 1581 91.3112 512.356 433.009
233 0 112.248 13.9156 1562 93.8131 511.895 435.917
234 0 112.167 13.0431 1463 96.8291 512.689 432.34
235 0 113.338 12.7407 1444 98.1842 512.811 430.773
236 0 121.338 14.3483 1741 94.1499 512.372 430.509
237 0 125.283 13.4256 1682 96.5927 512.342 427.689
238 0 130.316 13.9967 1824 94.3405 511.293 424.9
239 1 72.1206 13.0199 939 94.3024 512.185 456.776
240 0 75.0853 12.4525 935 95.1968 511.864 453.978
241 0 80.1636 14.0213 1124 91.1913 512.294 454.049
242 0 80.0534 12.0919 968 95.9876 512.695 455.561
243 0 84.0849 13.7361 1155 91.8978 512.403 455.678
244 0 82.1325 13.1738 1082 95.9972 512.517 451.444
245 0 89.0714 13.5622 1208 94.5265 512.757 452.351
246 0 88.0976 12.8721 1134 98.045 512.347 450.334
247 0 93.2449 13.6522 1273 96.1736 511.472 450.394
248 0 94.3664 12.4939 1179 100.097 511.933 448.065
249 0 97.169 11.938 1160 101.453 512.008 447.778
250 0 102.351 13.8836 1421 97.7051 512.109 445.136
251 0 103.185 13.0252 1344 100.392 512.06 443.42
252 0 110.294 14.144 1560 96.7135 511.872 443.219
253 0 113.126 13.6839 1548 98.7106 512.276 439.45
254 0 116.167 12.9038 1499 100.093 511.452 440.342
255 0 121.194 14.9348 1810 94.9492 511.132 440.263
256 1 67.0897 11.4474 768 102.82 511.586 461.93
257 0 69.0638 12.4088 857 101.87 511.841 459.8
258 0 71.0483 13.1882 937 99.5005 511.016 461.491
259 0 75.0984 12.943 972 99.5412 510.798 454.455
260 0 79.1269 13.3456 1056 98.8106 511.879 448.103
261 0 81.087 13.837 1122 99.2977 511.787 449.855
262 0 85.0396 13.7936 1173 98.8312 512.177 451.13
263 0 86.0974 14.1584 1219 99.6694 511.288 430.139
264 0 89.1694 15.3416 1368 97.5833 511.561 425.949
265 0 92.294 14.5405 1342 100.186 512.341 425.662
266 0 95.1257 14.2338 1354 100.601 511.192 427.264
267 0 98.1256 14.5528 1428 101.347 511.974 421.607
268 0 99.1398 13.95 1383 104.213 511.364 423.367
269 0 102.245 13.3405 1364 105.556 511.617 423.354
270 0 104.114 14.5225 1512 103.795 511.892 421.791
271 0 106.1 13.7228 1456 106.3 511.869 420.071
272 0 111.186 15.6135 1736 101.219 510.779 421.93
273 0 116.168 15.7186 1826 101.585 511.924 422.101
274 0 118.217 14.3549 1697 105.214 511.953 422.054
275 0 122.157 15.914 1944 101.977 511.851 419.91
276 0 124.183 13.8988 1726 107.299 512.07 419.908
277 0 130.204 14.4619 1883 106.865 512.411 416.534
278 0 135.222 14.4651 1956 106.529 511.81 415.787
279 0 142.264 15.8157 2250 104.886 512.107 421.968
280 0 145.148 14.282 2073 106.348 511.726 429.121
281 1 94.0853 15.6347 1471 95.0517 511.878 453.86
282 0 89.2149 15.9166 1420 100.49 511.635 441.923
283 0 90.092 14.9958 1351 104.05 512.439 441.229
284 0 93.1732 15.7341 1466 102.097 512.334 444.723
285 0 96.2055 15.6124 1502 102.679 513.06 446.628
286 0 96.2116 12.8675 1238 112.002 512.915 445.683
287 0 95.1924 13.3939 1275 112.609 512.151 442.504
288 0 104.164 15.1011 1573 105.334 512.641 439.436
289 0 110.261 17.9121 1975 96.3782 512.333 435.531
290 0 108.315 15.3902 1667 106.517 512.54 440.821
291 0 109.159 14.3827 1570 109.507 512.553 436.553
292 0 114.104 13.8645 1582 109.403 511.666 436.089
293 0 119.165 13.3009 1585 110.702 512.317 433.678
294 0 120.201 14.3177 1721 108.471 512.429 428.855
295 1 71.0979 12.3632 879 104.217 511.815 457.915
296 0 69.0411 10.8196 747 109.151 511.307 454.171
297 0 73.1378 12.4833 913 103.116 512.068 458.042
298 0 76.056 13.4769 1025 100.261 511.401 456.411
299 0 82.1269 13.3574 1097 99.5433 511.629 453.405
300 0 87.1925 16.3431 1425 90.9488 512.826 448.088
301 0 91.0563 15.8913 1447 91.7028 512.287 447.494
302 0 91.1142 15.4312 1406 94.2731 512.236 445.415
303 0 93.2002 16.1373 1504 92.486 512.275 443.648
304 0 98.0698 17.1409 1681 89.5021 512.184 440.333
305 0 99.132 15.5248 1539 95.3307 511.988 443.306
306 0 103.136 15.1548 1563 95.8599 511.819 442.017
307 0 101.124 13.7356 1389 100.251 512.334 435.313
308 0 105.156 13.5227 1422 101.85 512.572 440.687
309 0 108.2 13.3086 1440 102.567 512.404 438.537
310 0 113.109 13.7919 1560 100.657 511.471 436.498
311 0 114.191 12.5404 1432 104.33 511.746 433.52
312 0 113.174 12.6354 1430 105.493 512.091 429.579
313 0 123.175 12.121 1493 105.834 512.642 427.619
314 0 128.215 14.0779 1805 101.919 512.909 430.211
315 0 133.312 12.632 1684 104.67 512.665 428.716
316 0 138.29 13.1535 1819 104.009 512.97 424.864
317 0 142.288 13.4867 1919 104.321 512.907 421.601
318 1 80.2213 12.0168 964 105.851 512.602 450.566
319 0 80.0917 10.875 871 108.972 513.009 449.367
320 0 85.166 11.6713 994 106.748 513.024 448.407
321 0 87.2435 13.1815 1150 103.333 513.03 445.125
322 0 90.1168 12.8722 1160 103.601 513.254 446.891
323 0 95.1855 13.6996 1304 100.499 512.283 448.427
324 0 98.1487 13.5203 1327 101.702 512.545 446.144
325 0 101.166 13.9277 1409 101.405 512.536 444.886
326 0 101.128 12.5287 1267 105.684 512.373 441.767
327 0 107.24 13.3532 1432 102.953 512.968 441.512
328 0 108.192 12.3485 1336 105.604 513.081 439.374
329 0 112.244 13.4261 1507 103.508 513.349 437.644
330 0 118.166 13.7433 1624 102.071 513.134 436.254
331 0 121.222 15.385 1865 98.237 513.297 434.998
332 0 126.212 13.2713 1675 102.768 512.934 427.928
333 0 129.282 14.1087 1824 100.408 513.019 429.899
334 0 134.133 12.9648 1739 103.097 512.851 424.968
335 0 135.311 12.3715 1674 104.348 513.051 421.195
336 0 142.223 12.825 1824 101.742 513.195 421.02
337 0 148.197 13.5833 2013 99.7968 513.037 418.547
338 0 156.292 14.0058 2189 98.2289 513.149 414.816
339 1 87.0555 9.12062 794 105.997 513.397 443.961
340 0 89.1665 11.8206 1054 101.307 513.349 442.812
341 0 94.07 12.7883 1203 98.1704 513.569 444.466
342 0 93.0996 12.7283 1185 98.6962 513.53 445.669
343 0 96.1155 13.4838 1296 97.4946 513.299 446.676
344 0 100.156 12.6702 1269 99.1844 513.344 443.718
345 0 101.252 11.338 1148 103.281 512.683 438.704
346 0 105.291 11.264 1186 102.468 512.954 437.909
347 0 106.24 11.4928 1221 102.563 512.769 438.688
348 0 114.374 12.4242 1421 101.365 513.438 435.85
349 0 115.214 13.106 1510 99.8954 512.795 432.422
350 0 121.133 12.3253 1493 102.007 512.876 427.223
351 0 122.325 10.701 1309 106.634 512.993 424.539
352 0 125.254 9.69232 1214 107.24 511.936 427.904
353 0 127.175 12.243 1557 103.936 511.553 418.294
354 0 132.308 12.2366 1619 104.146 511.768 417.271
355 0 137.356 11.3574 1560 105.243 512.418 419.461
356 0 147.276 13.6003 2003 100.311 512.091 417.674
357 0 152.27 12.7406 1940 102.826 512.055 412.165
358 0 157.376 11.9586 1882 105.321 512.116 406.552
359 0 161.332 12.3906 1999 104.595 511.568 402.585
360 0 166.646 13.1176 2186 103.471 511.375 398.183
361 0 174.49 14.316 2498 100.11 511.404 401.792
362 0 180.27 14.7224 2654 100.39 511.941 399.715
363 0 183.227 12.8311 2351 106.578 511.819 391.825
364 0 189.292 12.8267 2428 107.33 511.708 390.239
365 0 189.347 12.7174 2408 109.522 511.61 380.24
366 1 204.423 12.117 2477 109.517 511.939 385.031
367 0 215.374 13.5996 2929 105.289 510.889 383.41
368 0 211.321 13.6002 2874 108.178 511.981 373.845
369 0 217.383 13.2853 2888 109.264 511.261 366.454
370 0 226.409 12.1947 2761 112.288 512.225 359.788
371 0 226.421 13.2806 3007 156.403 513.293 365.769
372 1 187.214 8.96835 1679 107.575 511.927 404.469
373 1 12.0014 3.66623 44 70 511.591 486.273
374 0 15.0089 2.46521 37 70.6486 511.892 487.324
375 0 18.0508 4.43194 80 68.3625 512.05 487.8
376 0 12.0023 1.9163 23 69.7826 510.565 487.13
377 0 16.0046 3.81141 61 69.623 511.426 488.066
378 0 14.001 3.64261 51 70.2157 511.725 489
379 0 18.0125 3.16448 57 70.9123 511.474 487.421
380 0 19.0009 0.63155 12 74 512.083 488.917
381 0 14.0042 0.856886 12 73.1667 510.5 486.167
382 1 46.1027 4.44659 205 77.7122 512.82 464.639
383 0 51.0559 6.28723 321 79.1059 512.383 474.888
384 0 56.1336 8.96076 503 79.668 512.002 474.469
385 0 58.0662 10.5741 614 77.855 511.7 475.614
386 0 61.1334 10.8615 664 77.1852 511.586 474.511
387 0 61.1517 11.7413 718 76.8287 511.923 472.167
388 0 63.1077 10.7435 678 79.2094 511.617 471.143
389 0 66.1443 11.1423 737 78.6689 512.311 471.847
390 0 66.0898 9.88049 653 81.438 511.493 471.107
391 0 69.0913 11.2026 774 79.2003 511.403 469.222
392 0 69.063 10.961 757 81.2008 511.185 468.139
393 0 71.2266 9.36448 667 84.4078 511.181 469.63
394 0 69.0841 10.48 724 85.384 511 467.086
395 0 152.503 10.3736 1582 92.8123 511.066 427.239
396 0 156.229 11.5343 1802 88.8391 510.398 424.573
397 0 161.439 11.2055 1809 90.6694 511.536 425.378
398 0 165.662 9.58578 1588 93.1946 511.618 423.316
399 0 171.644 11.7044 2009 89.3728 512.068 420.403
400 0 176.375 11.1864 1973 89.8652 510.718 415.622
401 0 183.403 12.1263 2224 88.4029 511.033 414.226
402 0 189.481 11.8851 2252 88.9627 511.825 413.805
403 0 196.624 10.2633 2018 96.3067 511.257 407.006
404 1 159.259 7.01999 1118 91.3488 511.936 424.478
405 0 156.234 7.03431 1099 93.9845 511.553 420.934
406 0 165.439 8.08151 1337 92.6432 511.789 426.103
407 0 167.543 7.41899 1243 95.103 512.006 441.451
408 0 167.647 12.1028 2029 90.4051 511.538 426.321
409 0 170.594 12.0344 2053 89.9289 511.152 424.271
410 1 107.318 11.5078 1235 88.6656 511.416 456.087
411 0 108.301 10.0092 1084 85.3109 511.535 451.743
412 0 115.188 12.5274 1443 82.8552 512.43 449.106
413 0 118.41 11.2744 1335 84.5386 511.921 447.01
414 1 68.2057 12.0664 823 82.3062 511.735 472.759
415 0 71.22 11.64 829 83.4367 511.331 474.197
416 0 71.2119 11.9643 852 83.8486 511.514 472.77
417 0 74.1151 12.4941 926 80.5961 511.716 464.486
418 0 75.1354 12.0316 904 81.9779 511.43 462.518
419 0 78.1246 12.4801 975 82.2913 511.002 465.711
420 0 78.2212 11.5953 907 84.5733 511.226 464.964
421 0 80.136 13.1651 1055 82.6929 510.654 464.384
422 0 81.1274 12.3879 1005 84.0209 511.025 464.887
423 0 83.1611 11.8806 988 85.1721 510.267 462.09
424 0 84.2782 11.379 959 87.3034 510.751 459.429
425 0 90.1838 12.5521 1132 84.962 511.24 461.105
426 0 92.1278 13.4813 1242 83.9549 511.013 459.737
427 0 93.103 12.4378 1158 86.8938 511.433 458.287
428 0 95.1856 13.2688 1263 85.4814 510.531 458.011
429 0 99.3056 13.2822 1319 86.815 510.766 455.66
430 0 100.179 13.1764 1320 87.0326 511.297 455.337
431 0 103.129 12.4892 1288 88.861 511.047 455.141
432 0 107.237 11.9642 1283 91.244 510.656 454.166
433 0 108.232 11.5585 1251 93.8601 510.435 454.584
434 0 112.254 13.5942 1526 95.2785 511.588 450.993
435 0 117.291 15.9262 1868 91.0471 511.067 449.312
436 0 119.152 14.6452 1745 95.1112 511.674 446.784
437 0 124.365 13.8222 1719 94.8522 510.887 444.663
438 1 71.2174 12.7497 908 91.5143 510.572 470.699
439 0 69.0588 11.8739 820 94.2024 511.163 468.602
440 0 74.0696 13.0688 968 91.1209 510.504 467.648
441 0 78.1417 13.0276 1018 91.1699 511.081 466.725
442 0 79.0566 13.1172 1037 91.5468 510.709 467.774
443 0 82.2609 14.3325 1179 89.8753 511.473 465.625
444 0 84.0629 13.9538 1173 91.185 511.078 464.682
445 0 88.1609 13.5888 1198 93.5384 510.356 463.237
446 0 90.1964 12.7721 1152 95.8229 510.867 461.586
447 0 91.3295 12.3837 1131 97.2555 511.179 458.857
448 0 94.1488 12.2041 1149 97.9608 510.846 458.514
449 0 99.0864 13.2107 1309 94.1979 511.131 458.316
450 0 101.153 14.4039 1457 92.2807 510.554 458.117
451 0 102.103 13.9467 1424 93.6966 510.704 454.215
452 1 196.266 14.9389 2932 94.6395 511.547 411.018
453 1 108.113 12.0337 1301 96.352 510.782 453.026
454 0 114.152 12.457 1422 94.4501 510.771 451.819
455 0 116.182 11.611 1349 97.8117 510.726 447.721
456 0 121.373 13.2155 1604 93.4532 510.958 448.337
457 0 124.147 13.2021 1639 94.4655 511.079 444.863
458 0 127.226 11.2948 1437 98.5115 511.305 440.629
459 0 133.302 14.0508 1873 94.7048 511.611 438.156
460 1 68.1415 11.6522 794 93.4547 511.389 471.772
461 0 71.0691 12.8044 910 94.1967 511.623 468.416
462 0 74.1591 13.8081 1024 95.1318 511.586 467.315
463 0 77.0715 13.2474 1021 96.1665 510.804 465.987
464 0 79.122 13.852 1096 95.4471 511.366 463.936
465 0 79.1731 13.5021 1069 96.7297 511.378 463.908
466 0 82.1602 13.2302 1087 97.1748 511.711 462.491
467 0 87.0334 14.753 1284 94.4696 511.451 459.954
468 0 89.1167 13.9705 1245 96.5598 511.365 458.777
469 0 92.0393 14.3091 1317 95.7221 510.762 457.414
470 0 95.2753 14.2744 1360 95.45 510.871 457.387
471 0 98.0656 14.1844 1391 95.6981 510.566 453.88
472 0 99.3244 13.9643 1387 96.5876 510.789 454.96
473 0 104.203 14.5485 1516 95.3107 511.399 452.515
474 0 107.155 13.8958 1489 96.2478 510.872 448.862
475 0 111.134 13.7222 1525 96.5266 510.952 448.324
476 0 115.149 15.0674 1735 93.9452 511.261 445.998
477 0 120.127 14.8093 1779 94.5649 510.693 445.446
478 0 121.102 14.3763 1741 97.0948 510.368 440.106
479 0 126.16 14.5053 1830 97.7546 510.62 440.461
480 0 132.186 14.6914 1942 98.1766 510.996 439.04
481 0 136.096 13.6742 1861 100.238 510.174 436.343
482 0 144.136 14.41 2077 98.9552 510.603 436.349
483 0 146.216 13.5894 1987 102.674 510.743 433.705
484 0 152.463 14.8692 2267 100.247 510.729 428.158
485 1 84.0892 13.1884 1109 99.3111 509.92 461.317
486 0 91.1792 15.4969 1413 94.6745 510.476 461.335
487 0 96.0741 15.9668 1534 97.0124 509.955 460.096
488 0 95.1184 15.4649 1471 100.681 509.279 455.598
489 0 99.2291 15.2173 1510 101.023 509.764 455.627
490 0 102.133 14.5888 1490 103.63 510.254 450.865
491 0 105.103 15.8226 1663 102.486 510.273 450.619
492 0 108.107 15.0962 1632 104.314 510.617 448.531
493 0 115.065 17.5292 2017 97.2345 510.436 445.91
494 0 116.132 15.0863 1752 104.366 509.893 446.249
495 0 119.172 14.0553 1675 106.262 510.574 443.869
496 0 125.227 14.1343 1770 105.536 510.587 442.584
497 0 127.129 13.9858 1778 106.748 510.818 438.951
498 0 135.117 15.3274 2071 103.142 510.295 436.917
499 0 137.248 13.7343 1885 108.004 510.625 433.915
500 0 144.243 14.2884 2061 106.843 510.201 432.131
501 0 151.162 15.6322 2363 103.793 510.158 427.747
502 0 155.163 16.1443 2505 103.774 509.934 426.392
503 0 160.303 14.7346 2362 107.598 509.721 425.326
504 0 164.184 14.7944 2429 107.988 510.253 421.909
505 0 170.176 14.3734 2446 109.121 509.955 416.732
506 0 177.274 14.5989 2588 109.677 510.208 418.177
507 1 84.195 14.4189 1214 106.28 510.277 459.753
508 0 86.1336 13.5023 1163 109.524 511.054 459.049
509 0 86.1244 13.2018 1137 111.219 510.196 458.213
510 0 90.0617 14.4901 1305 108.902 510.68 456.371
511 0 91.0923 14.1505 1289 110.855 510.369 452.269
512 0 96.2459 13.2889 1279 112.342 509.726 453.565
513 0 98.1222 14.1966 1393 111.812 510.594 451.2
514 0 103.118 14.8665 1533 109.504 510.751 447.591
515 0 108.168 14.4683 1565 108.897 511.215 448.346
516 0 111.155 15.3929 1711 107.425 510.627 444.621
517 0 113.204 14.4164 1632 110.071 511.348 440.656
518 0 120.32 14.1872 1707 109.849 510.46 439.323
519 0 127.33 13.5632 1727 109.876 511.19 439.764
520 1 61.1762 11.5895 709 105.003 510.972 472.474
521 0 65.2481 12.9199 843 100.721 511.35 472.682
522 0 65.0678 11.1115 723 100.43 510.86 474.272
523 0 69.0429 12.0215 830 99.388 510.945 472.713
524 0 70.0969 13.0391 914 97.7648 510.919 472.004
525 0 72.0745 11.1274 802 101.94 511.344 467.929
526 0 75.1262 12.2727 922 100.555 511.14 469.168
527 0 75.0942 11.4656 861 105.418 511.587 466.846
528 0 79.0537 12.9912 1027 102.161 510.86 464.981
529 0 82.1111 12.3613 1015 103.904 511.056 462.325
530 0 84.0878 12.8675 1082 101.591 510.336 461.847
531 0 88.2011 12.1881 1075 102.092 510.783 458.726
532 0 89.1735 12.8962 1150 101.883 510.19 456.419
533 0 91.1695 11.3744 1037 104.317 510.395 456.563
534 0 96.0823 12.0001 1153 102.359 510.511 455.785
535 0 99.121 12.8025 1269 100.818 510.422 454.431
536 0 102.147 13.5002 1379 101.063 510.387 451.893
537 0 105.145 12.8775 1354 102.182 510.574 451.284
538 0 109.145 12.7903 1396 102.312 509.862 450.17
539 0 111.116 12.5455 1394 104.15 510.054 447.555
540 0 116.249 13.5312 1573 101.427 509.684 446.775
541 1 67.1939 11.6975 786 99.7799 509.622 468.737
542 0 68.1231 13.2701 904 99.9635 509.692 467.817
543 0 71.1719 12.6595 901 105.2 510.08 465.154
544 0 70.1467 12.6877 890 107.165 510.191 463.126
545 0 76.3333 13.1135 1001 105.028 510.888 463.663
546 0 77.4142 12.1554 941 107.612 510.606 462.712
547 0 80.1252 12.6427 1013 106.33 510.452 461.681
548 0 83.1683 12.8294 1067 107.25 511.002 458.215
549 0 86.3477 13.1098 1132 105.633 510.948 457.399
550 0 87.2512 12.3208 1075 107.68 509.84 456.783
551 0 90.2377 12.4006 1119 106.903 510.136 453.877
552 0 90.3682 12.77 1154 106.874 510.644 452.816
553 0 99.2435 13.1192 1302 104.746 510.99 452.374
554 0 100.188 14.1335 1416 102.68 510.643 451.521
555 0 100.454 12.1847 1224 103.317 511.201 448.547
556 0 102.153 12.168 1243 106.677 511.205 447.722
557 0 104.237 13.3542 1392 107.643 511.17 449.57
558 0 105.18 13.6243 1433 99.5757 510.926 446.558
559 0 105.499 12.6732 1337 105.055 510.646 448.835
560 0 107.225 13.2805 1424 105.692 510.411 446.619
561 0 106.337 13.918 1480 105.786 510.849 446.799
562 0 106.197 12.8063 1360 109.879 509.893 446.427
563 0 106.419 12.3381 1313 112.919 510.372 445.774
564 0 108.211 13.6493 1477 110.628 509.064 444.232
565 0 116.318 13.2826 1545 76.4589 510.249 447.962
566 0 111.16 12.5494 1395 111.667 509.889 441.793
567 0 114.117 13.7753 1572 107.665 510.44 440.294
568 0 118.157 13.1604 1555 107.79 509.722 439.03
569 0 120.236 13.7231 1650 106.25 509.509 434.602
570 0 123.098 13.2496 1631 107.934 509.948 431.105
571 0 126.247 13.7666 1738 106.697 510.289 429.253
572 0 131.242 13.9895 1836 104.62 510.243 432.875
573 0 133.186 12.6965 1691 110.546 510.019 426.096
574 0 140.154 14.534 2037 106.791 510.287 426.004
575 0 141.176 12.3463 1743 113.143 509.951 422.823
576 0 147.253 14.1593 2085 110.491 510.327 418.557
577 1 66.0235 11.7685 777 116.465 510.685 453.888
578 0 71.1671 11.9718 852 115.948 510.165 454.602
579 0 74.0812 12.0003 889 117.214 510.043 452.307
580 0 71.2063 11.7967 840 122.488 510.17 451.073
581 0 76.169 12.2622 934 123.712 510.121 449.042
582 0 79.0881 11.62 919 126.683 510.703 448.361
583 0 77.078 13.0128 1003 124.831 510.476 446.414
584 1 85.0866 11.3766 968 128.209 510.294 446.658
585 0 85.0509 11.8282 1006 130.824 509.916 442.268
586 0 89.1465 13.102 1168 127.858 509.576 443.957
587 0 93.0846 11.2263 1045 135.344 510.415 440.157
588 0 89.1682 13.2558 1182 133.657 509.798 437.189
589 1 101.093 13.2452 1339 131.325 510.141 435.704
590 0 102.153 13.705 1400 132.837 510.529 438.308
591 0 103.12 12.3642 1275 140.085 510.257 434.539
592 0 110.25 13.6689 1507 134.32 509.483 435.893
593 0 115.387 13.8144 1594 134.036 510.077 435.49
594 0 117.153 13.5122 1583 138.154 509.44 429.376
595 0 120.218 12.9764 1560 141.013 510.331 429.326
596 0 122.326 12.6629 1549 143.622 510.454 424.567
597 0 125.22 12.7216 1593 144.505 510.129 423.95
598 0 131.437 13.4665 1770 141.351 509.927 421.666
599 0 137.211 12.8707 1766 143.982 508.844 418.809
600 0 139.275 12.8379 1788 146.01 509.206 416.203
601 0 144.281 13.5222 1951 141.516 508.898 417.245
602 0 144.24 13.9698 2015 142.467 509.269 413.081
603 0 153.383 13.3587 2049 144.342 509.782 409.402
604 0 153.319 14.5514 2231 141.771 509.789 410.28
605 0 163.292 14.4771 2364 140.022 509.434 408.668
606 0 164.226 13.8163 2269 144.228 510.301 402.293
607 0 173.219 14.4268 2499 140.471 509.629 398.752
608 0 172.252 14.0724 2424 144.194 509.368 392.448
609 0 181.216 13.7792 2497 143.887 508.69 390.801
610 1 134.061 9.57029 1283 151.964 509.362 414.599
611 0 143.158 12.6015 1804 139.428 508.475 416.225
612 0 140.151 12.0941 1695 144.124 508.939 411.687
613 0 150.108 13.0506 1959 140.874 508.924 407.608
614 0 154.137 12.7679 1968 141.087 509.77 407.735
615 0 163.14 12.8601 2098 141.237 509.119 400.307
616 0 162.241 13.2457 2149 142.201 508.873 398.904
617 0 166.219 14.0116 2329 140.379 509.324 393.022
618 0 171.217 12.6155 2160 143.765 508.485 388.081
619 1 21.0607 4.84314 102 85.6373 509.676 477.833
620 0 26.0303 3.30384 86 88.314 508.36 481.779
621 0 32.009 4.40501 141 90.0355 509.645 483.738
622 0 34.0176 6.84939 233 90.5279 509.755 484.489
623 0 40.0365 3.77156 151 92.9007 509 487.563
624 0 39.0258 5.48355 214 92.6355 509.678 482.43
625 1 243.511 13.7201 3341 136.235 508.096 370.337
626 0 250.345 12.4029 3105 140.864 508.716 361.92
627 0 252.342 9.14632 2308 146.119 508.424 373.36
628 0 252.323 7.43491 1876 148.159 508.581 379.406
629 0 247.334 7.36251 1821 147.755 507.923 377.043
630 1 39.1565 4.34155 170 91.9882 510.335 484.647
631 0 34.0957 4.22341 144 90.8333 511.542 483.09
632 0 42.0857 4.89477 206 91.3641 510.777 479.772
633 0 35.076 6.89931 242 88.6901 511.095 483.298
634 0 31.031 5.31727 165 91.8909 511.952 483.909
635 0 32.0448 7.14624 229 91.5066 511.314 483.052
636 0 32.062 5.83244 187 92.2246 511.267 486.107
637 0 36.0637 4.90799 177 97.0169 511.531 480.362
638 0 42.0148 5.99789 252 97.9444 511.817 477.111
639 1 187.217 11.5801 2168 132.185 509.326 396.299
640 0 193.238 11.8507 2290 132.187 509.556 392.345
641 0 200.221 12.8958 2582 128.856 509.856 391.084
642 0 205.228 10.2666 2107 138.346 509.755 379.354
643 0 214.267 11.6397 2494 133.43 509.064 377.862
644 0 220.185 11.0907 2442 135.962 509.182 370.735
645 1 43.0557 4.6916 202 99.2376 508.936 473.995
646 0 41.0161 3.80339 156 99.5 507.635 477.199
647 0 36.052 4.96505 179 95.676 508.296 483.034
648 0 37.0875 6.87564 255 96.3765 507.224 478.443
649 0 36.0717 5.4059 195 90.7333 507.779 479.036
650 0 35.0205 5.96793 209 84.1818 508.579 482.019
651 0 36.0161 3.94268 142 92.4859 509.5 479.944
652 0 32.0517 4.71114 151 91.0993 510.04 486.887
653 1 23.0129 8.56041 197 88.269 510.766 482.954
654 1 35.0276 5.68124 199 91.392 509.98 489.683
655 0 34.0111 2.6462 90 99.0111 510.511 484.967
656 0 36.0176 5.69166 205 94.8634 510.585 486.332
657 0 34.0633 7.10443 242 94.5868 510.525 488.653
658 0 37.0578 5.10014 189 97.0688 509.974 486.984
659 0 36.0442 5.99264 216 96.8796 510.667 485.75
660 0 39.0156 5.40809 211 95.7062 510.133 490.498
661 0 38.0214 6.78565 258 96.6202 510.512 489.112
662 0 38.1557 7.4956 286 96.3846 510.098 487.451
663 0 42.0313 8.7316 367 95.4605 510.676 486
664 0 41.0428 6.5054 267 99.9026 510.007 488.082
665 0 46.1278 6.24353 288 100.639 510.597 485.934
666 1 298.69 2.47749 740 115.268 509.319 426.878
667 1 118.551 9.0678 1075 99.7898 508.719 447.666
668 0 119.694 9.3238 1116 104.851 510.523 446.876
669 0 122.491 9.72317 1191 104.978 509.626 445.84
670 0 127.348 10.2082 1300 104.495 510.028 444.708
671 0 128.421 9.77256 1255 105.778 510.143 444.545
672 0 131.7 10.1898 1342 105.963 509.712 441.099
673 0 130.378 8.83583 1152 109.72 509.767 438.7
674 0 133.275 10.0844 1344 107.121 510.01 436.42
675 0 138.353 10.3142 1427 105.884 510.529 422.008
676 0 139.468 11.0778 1545 104.133 509.866 428.174
677 0 144.291 9.42537 1360 108.079 510.625 430.028
678 0 140.427 10.6604 1497 104.88 508.768 435.737
679 1 65.1098 15.543 1012 77.6136 511.716 474.038
680 0 62.1208 13.844 860 83.8465 512.157 475.06
681 0 61.0712 14.0492 858 84.704 511.822 476.672
682 1 156.332 12.2752 1919 101.794 509.098 425.848
683 0 157.523 11.1857 1762 106.59 509.529 428.849
684 0 162.465 12.1565 1975 103.427 509.204 426.764
685 1 61.1482 12.6905 776 89.0541 511.659 475.765
686 0 56.0983 10.7133 601 97.3195 511.8 478.937
687 0 55.1755 10.0588 555 99.3766 512.681 479.366
688 0 63.0912 15.8976 1003 82.0678 511.876 475.291
689 0 54.1097 10.2015 552 101.239 512.042 479.297
690 1 133.395 10.7351 1432 107.656 510.098 443.572
691 0 135.608 11.2309 1523 105.223 509.924 438.38
692 0 138.572 12.0804 1674 103.535 509.983 436.958
693 0 141.469 13.1336 1858 101.778 510.652 438.168
694 0 142.629 12.7674 1821 103.786 510.51 433.498
695 0 146.593 12.5859 1845 103.794 510.859 435.816
696 0 149.445 11.2215 1677 107.276 510.813 432.853
697 1 58.1955 11.9081 693 97.4531 512.981 480.268
698 0 58.2047 11.4939 669 98.9581 512.764 478.798
699 0 58.0784 11.6222 675 98.6341 512.76 479.649
700 0 59.1144 11.0633 654 99.3517 513.399 480.853
701 0 58.1166 12.9051 750 96.428 513.029 478.712
702 0 55.0814 11.1653 615 101.873 513.036 479.276
703 0 58.096 11.6187 675 98.9689 512.557 479.563
704 0 58.1713 11.1567 649 100.613 513.582 478.835
705 0 56.1233 10.6373 597 102.439 513.183 479.481
706 0 57.0752 12.0543 688 99.0858 512.227 477.124
707 0 57.1182 10.2419 585 103.301 512.879 478.832
708 1 134.631 12.2929 1655 93.9795 511.179 442.776
709 0 134.717 12.5003 1684 93.997 510.888 440.924
710 0 136.386 12.7286 1736 93.9954 511.425 438.345
711 0 140.601 12.1051 1702 94.47 511.331 437.13
712 0 142.451 12.5166 1783 94.0841 511.62 435.788
713 0 144.456 12.1698 1758 94.4295 511.043 436.324
714 0 147.391 12.226 1802 94.9262 511.516 435.171
715 0 150.638 12.5533 1891 93.8805 510.855 431.935
716 0 153.48 13.3893 2055 92.3085 510.817 431.02
717 0 155.444 13.291 2066 93.4197 510.871 426.423
718 0 158.377 12.3944 1963 96.432 511.615 427.329
719 0 159.322 9.41492 1500 103.059 511.471 427.19
720 0 162.554 10.1689 1653 101.193 510.831 422.482
721 0 169.499 12.1594 2061 95.8709 511.238 423.995
722 0 170.676 11.6478 1988 97.2767 511.778 421.968
723 0 175.498 13.5443 2377 93.1927 511.297 420.429
724 0 175.407 11.3792 1996 99.0516 511.55 419.686
725 0 180.537 11.3384 2047 98.555 511.046 418.954
726 0 182.408 12.5104 2282 97.3309 510.364 415.287
727 0 186.387 13.4183 2501 95.5458 510.607 412.512
728 0 188.356 11.6906 2202 99.2071 509.842 417.139
729 0 193.423 11.8032 2283 99.65 510.385 405.23
730 0 199.509 12.5057 2495 97.889 511.004 404.852
731 0 206.716 13.8838 2870 95.3707 510.703 406.469
732 1 146.406 12.3288 1805 95.4211 510.787 439.355
733 0 149.416 10.5745 1580 99.2646 511.158 434.956
734 0 153.481 11.7214 1799 96.5809 511.311 432.757
735 0 157.564 11.6397 1834 96.3604 510.435 431.112
736 0 161.315 11.927 1924 96.6668 510.836 430.803
737 0 164.364 12.7826 2101 95.99 509.273 426.614
738 1 61.1243 11.6648 713 98.0435 511.916 480.18
739 0 60.0902 12.0153 722 97.7299 512.033 478.116
740 0 61.09 12.9808 793 94.7415 511.716 480.369
741 0 62.1967 12.6856 789 95.8568 511.716 477.212
742 0 62.1009 11.9 739 96.429 511.453 477.628
743 0 61.1254 11.73 717 98.0251 512.291 476.883
744 0 63.0984 13.1065 827 94.2576 511.374 477.816
745 0 63.0813 12.3491 779 96.4929 511.517 476.883
746 0 62.0322 12.5419 778 96.4383 510.229 477.716
747 0 62.116 13.1206 815 94.6 510.428 478.456
748 0 64.0394 12.5235 802 94.0237 509.244 478.976
749 0 65.2491 14.4676 944 89.3326 509.923 478.254
750 0 65.1778 12.9799 846 93.0095 509.332 477.561
751 0 67.1369 13.6736 918 89.3475 509.326 476.717
752 0 67.1005 13.0252 874 91.1739 508.817 477.811
753 0 65.1646 12.2613 799 93.5469 509.36 478.549
754 0 66.1675 14.1006 933 89.3998 510.154 475.422
755 0 62.1339 11.6523 724 98.0594 510.615 480.312
756 0 61.2226 12.9691 794 95.8539 510.107 480.199
757 1 176.957 13.4835 2386 98.8998 510.718 421.314
758 0 176.45 10.1558 1792 99.8454 510.868 426.242
759 0 183.613 11.753 2158 97.1311 510.435 420.698
760 0 186.648 13.0353 2433 97.2006 510.263 416.687
761 0 189.712 13.394 2541 98.9177 510.144 414.626
762 0 192.372 11.7793 2266 102.092 509.861 412.669
763 0 195.583 13.3958 2620 99.9977 509.883 407.908
764 0 198.74 12.0861 2402 102.658 509.51 409.846
765 0 203.663 13.8268 2816 99.2855 509.29 406.417
766 0 207.665 13.8781 2882 99.1874 508.931 405.92
767 0 210.474 13.0087 2738 102.04 509.834 401.745
768 0 216.684 13.3789 2899 101.345 509.544 401.367
769 0 219.525 12.7958 2809 104.142 509.561 395.263
770 0 223.794 11.8859 2660 106.043 509.227 394.954
771 0 226.537 12.7882 2897 104.623 509.123 391.81
772 0 233.537 12.9915 3034 104.836 508.616 391.583
773 0 241.702 13.529 3270 103.643 509.083 382.094
774 0 245.716 12.8115 3148 106.214 509.411 380.535
775 0 249.679 11.731 2929 109.101 509.776 380.053
776 0 255.499 12.9707 3314 107.611 508.772 371.026
777 0 261.831 12.3476 3233 109.655 508.648 369.423
778 0 268.73 12.9461 3479 108.607 508.551 368.226
