time division length width area intensity CMx CMy
0 0 69.2837 10.3487 717 117.71 132.803 432.531
1 0 73.1984 11.8445 867 113.185 132.382 431.292
2 0 75.1774 12.69 954 111.836 132.971 429.721
3 0 77.2396 11.2637 870 114.845 132.132 429.454
4 0 81.1702 12.8372 1042 111.225 132.812 429.562
5 0 84.2217 11.8972 1002 113.098 132.637 428.791
6 0 85.3139 11.5104 982 113.784 133.285 428.705
7 0 90.304 11.6828 1055 113.464 133.406 426.311
8 0 93.1687 11.9675 1115 113.348 133.853 424.194
9 0 95.3812 11.8262 1128 114.751 132.59 423.937
10 1 51.1462 11.4574 586 109.64 131.597 444.067
11 0 52.154 10.6032 553 111.398 132.051 443.577
12 0 56.053 11.8638 665 109.606 136.021 438.432
13 0 57.0779 12.2464 699 106.74 135.927 438.515
14 0 58.1973 12.0624 702 107.185 135.407 437.084
15 0 63.1049 12.4238 784 104.64 134.781 434.001
16 0 61.1709 10.8385 663 109.259 134.944 433.627
17 0 63.1156 11.2492 710 108.577 134.566 433.649
18 0 67.2248 11.5434 776 106.718 134.541 432.916
19 0 70.0929 12.2124 856 104.992 134.536 431.379
20 0 71.0527 11.6533 828 105.783 134.489 429.952
21 0 74.1438 12.5297 929 103.632 134.926 426.31
22 0 78.1232 12.6339 987 102.119 134.596 428.2
23 0 77.0587 11.2382 866 105.737 134.358 427.321
24 0 80.1185 11.9573 958 104.472 135.548 424.361
25 0 81.141 11.3999 925 105.947 134.704 424.841
26 0 85.2046 12.7341 1085 102.3 135.18 424.165
27 0 87.2426 11.0038 960 107.044 135.662 420.375
28 0 90.1853 11.4653 1034 105.044 134.285 418.966
29 1 47.0734 9.64451 454 105.738 135.357 442.467
30 0 50.1378 12.1465 609 100.383 135.438 442.793
31 0 50.0873 11.6996 586 102.983 135.51 442.067
32 0 51.2223 12.1627 623 106.504 135.244 443.992
33 0 54.1028 13.1417 711 104.498 135.934 440.089
34 0 54.2184 13.2427 718 105.162 135.893 440.286
35 0 56.167 14.1364 794 102.277 135.272 436.27
36 0 57.106 12.328 704 108.334 135.183 433.507
37 0 58.0897 12.5323 728 108.51 134.864 420.915
38 0 58.0841 12.5335 728 138.924 133.867 420.945
39 0 62.1321 13.6322 847 105.046 135.358 421.646
40 0 65.2003 14.7239 960 100.973 134.717 423.07
41 0 66.1793 13.4936 893 103.929 134.761 425.155
42 0 69.163 13.2007 913 103.84 134.911 427.782
43 0 69.1448 12.886 891 105.861 135.914 426.413
44 0 73.0672 13.3713 977 102.401 135.757 427.29
45 0 75.1252 14.2029 1067 101.39 134.754 423.524
46 0 79.2353 13.9584 1106 100.43 134.949 422.614
47 0 78.1205 13.1592 1028 104.65 135.029 419.891
48 0 84.2095 13.1102 1104 102.736 136.438 420.711
49 0 86.1153 13.6097 1172 101.346 135.64 414.602
50 1 43.0518 9.45374 407 110.044 136.128 438.263
51 0 46.1091 11.6463 537 105.074 136.216 436.279
52 0 46.0748 12.3061 567 98.3616 135.72 438.822
53 0 46.1811 11.1734 516 101.806 135.971 444.961
54 0 46.1884 11.4964 531 101.787 135.655 440.267
55 0 48.1556 11.4005 549 102.594 136.641 443.435
56 0 46.1162 10.1266 467 105.683 135.76 441.287
57 0 48.1508 10.8825 524 104.731 136.223 440.952
58 0 53.0779 10.1926 541 101.492 136.835 439.068
59 0 55.1153 11.5757 638 98.9122 136.107 437.524
60 0 54.0437 12.0828 653 99.173 135.758 436.536
61 0 56.114 10.746 603 102.063 135.421 437.129
62 0 58.075 12.2083 709 97.0423 135.626 432.423
63 0 61.0481 10.6473 650 98.9523 135.852 435.469
64 0 62.0755 11.6793 725 98.6828 136.346 433.517
65 0 64.0983 11.6852 749 97.6742 135.362 434.642
66 0 64.0196 12.0432 771 98.1492 135.534 431.165
67 0 70.0223 12.5389 878 95.5569 135.112 432.229
68 0 69.132 10.8488 750 96.0307 135.031 427.167
69 0 72.108 10.7616 776 96.0954 135.683 426.567
70 0 74.0747 11.5424 855 95.1743 135.336 424.945
71 0 80.1672 11.8253 948 92.6234 135.295 424.648
72 0 81.1468 11.9783 972 92.3909 135.491 421.85
73 0 84.131 11.8506 997 92.319 134.376 418.009
74 0 85.1468 10.2176 870 97.0034 134.533 414.837
75 0 89.2137 11.635 1038 95.8247 134.497 413.816
76 1 45.0517 9.96633 449 94.4053 134.305 442.379
77 0 50.2784 12.1523 611 95.0982 133.651 441.679
78 0 51.1171 12.442 636 101.558 133.635 438.634
79 0 52.1023 12.1108 631 103.602 134.078 439.368
80 0 52.0719 11.7146 610 105.59 134.197 436.831
81 0 53.1539 11.7019 622 106.059 133.895 436.497
82 0 57.1183 11.9226 681 105.907 134.781 435.373
83 0 59.3018 12.057 715 105.607 134.117 433.576
84 0 60.0834 11.3176 680 107.344 133.865 432.521
85 0 64.1131 12.2752 787 104.853 134.457 432.468
86 0 63.0799 11.9055 751 106.866 133.872 433.855
87 0 66.1223 13.7321 908 102.55 133.502 436.708
88 0 67.0982 12.2507 822 105.595 133.757 431.825
89 0 70.1164 12.2225 857 106.201 133.464 432.175
90 0 71.1403 12.5808 895 108.159 134.048 431.895
91 0 76.2952 13.1332 1002 107.311 134.347 430.151
92 0 79.162 13.0366 1032 108.563 133.98 424.888
93 0 81.2127 13.4708 1094 107.841 133.922 429.867
94 0 81.0993 12.2073 990 113.144 134.566 424.463
95 0 87.1667 13.9732 1218 108.131 132.828 424.034
96 0 90.2761 13.4476 1214 109.558 133.862 425.891
97 0 92.4783 12.6192 1167 111.25 134.566 425.302
98 0 96.3439 11.6043 1118 108.496 133.714 419.676
99 0 97.265 10.6924 1040 105.821 134.41 419.92
100 0 101.271 10.2497 1038 100.803 133.965 421.242
101 0 106.3 10.8748 1156 98.9792 133.197 419.18
102 0 110.226 11.6216 1281 98.1874 133.862 417.144
103 0 112.18 12.2036 1369 98.0278 133.462 415.673
104 0 115.25 12.6941 1463 97.6699 134.161 414.157
105 1 56.2144 11.9542 672 96.3616 132.94 441.984
106 0 59.1527 13.4229 794 93.8199 133.225 442.71
107 0 60.1868 12.0791 727 97.2187 133.569 438.946
108 0 63.1253 12.8475 811 94.6215 132.777 439.633
109 0 62.2317 12.3249 767 97.9896 133.078 435.643
110 0 66.1349 12.792 846 96.1809 133.064 438.151
111 0 69.2661 12.3004 852 97.6491 133.696 436.187
112 0 70.1386 12.7747 896 98.702 133.53 437.239
113 0 70.1046 12.7809 896 108.831 133.516 428.653
114 0 74.1569 12.1634 902 108.726 133.475 429.93
115 0 76.2617 13.1914 1006 106.242 131.893 432.865
116 0 79.1796 13.3368 1056 105.876 132.83 431.722
117 0 81.1817 13.3897 1087 104.59 133.321 426.095
118 0 83.1752 13.0207 1083 103.549 133.072 429.376
119 0 84.1282 12.576 1058 106.885 133.045 427.073
120 0 88.1684 13.6897 1207 104.476 133.428 426.328
121 0 88.093 13.0998 1154 106.555 133.452 426.016
122 0 91.1623 12.2638 1118 108.247 133.611 424.498
123 0 94.1234 13.1848 1241 106.672 134.136 423.39
124 0 97.0706 14.3401 1392 103.496 132.802 422.899
125 0 100.138 14.1705 1419 105.471 133.317 420.116
126 0 101.123 12.0744 1221 109.754 133.391 419.321
127 0 107.089 14.2965 1531 104.311 132.767 418.216
128 0 108.198 12.2184 1322 110.068 133.849 416.768
129 0 111.154 13.4768 1498 109.366 132.569 411.812
130 0 114.273 12.8902 1473 110.562 133.226 410.561
131 0 119.158 13.0667 1557 110.14 133.486 410.401
132 0 123.182 14.1255 1740 107.941 133.114 409.592
133 0 127.172 13.7059 1743 109.749 132.862 406.45
134 0 128.267 13.6122 1746 112.119 132.942 400.305
135 0 134.131 13.7553 1845 110.615 132.886 402.849
136 1 68.1174 12.8602 876 107.904 133.071 434.793
137 0 70.1062 12.9518 908 110.483 133.282 432.263
138 0 70.1987 11.7381 824 116.765 133.576 428.018
139 0 73.2016 13.2647 971 113.366 133.166 427.093
140 0 76.123 13.6884 1042 112.527 133.551 426.256
141 0 77.152 13.9206 1074 112.961 133.119 422.354
142 0 81.1485 13.0871 1062 113.068 132.458 419.545
143 0 82.3121 12.9993 1070 114.499 132.772 426.475
144 0 85.2012 13.1336 1119 114.263 134.177 421.038
145 0 88.3854 12.9207 1142 112.997 133.191 416.912
146 0 91.3454 12.5896 1150 114.122 133.289 418.737
147 0 95.278 12.7522 1215 113.21 133.443 419.45
148 0 99.3248 14.0952 1400 109.381 133.309 421.026
149 0 101.278 13.0137 1318 110.492 133.341 420.325
150 1 57.1768 11.8579 678 95.9853 134.611 443.867
151 0 58.1323 12.4371 723 94.7925 134.271 441.957
152 0 61.2031 13.0059 796 99.7324 134.195 437.864
153 0 61.4048 10.9926 675 102.582 134.656 440.156
154 0 65.3571 13.3574 873 96.984 133.873 438.263
155 0 66.256 12.9196 856 97.9836 133.946 437.817
156 0 69.2938 13.652 946 97.4915 133.279 436.443
157 0 73.4039 11.3073 830 108.054 133.499 432.137
158 0 75.3733 12.5243 944 102.63 133.367 434.017
159 0 76.3943 10.7861 824 106.424 134.075 432.941
160 0 81.2815 13.2626 1078 100.779 133.366 430.78
161 0 83.3615 11.852 988 101.295 133.862 430.831
162 0 85.382 11.6535 995 100.361 133.456 427.106
163 0 85.3158 10.4553 892 102.401 133.562 429.386
164 0 88.1823 11.3968 1005 100.251 133.307 425.702
165 0 92.2181 10.6053 978 101.364 132.276 423.725
166 0 95.2895 12.3204 1174 98.2249 132.751 421.56
167 1 53.2076 11.5773 616 91.2532 133.44 446.231
168 0 56.2207 10.3521 582 94.7577 133.105 445.141
169 0 58.2787 10.8444 632 94.3275 134.168 445.228
170 0 63.3353 11.5575 732 100.702 132.754 441.828
171 0 64.4024 11.3505 731 103.627 133.428 438.956
172 0 66.4645 10.8329 720 105.615 132.975 436.103
173 0 67.3864 11.3673 766 102.274 133.351 442.802
174 0 69.3222 11.6124 805 100.068 134.091 447.693
175 0 67.313 9.35926 630 105.384 134.992 454.529
176 0 72.1841 10.5286 760 103.154 134.349 454.774
177 0 75.2246 10.8475 816 99.9228 134.955 455.483
178 0 75.1605 10.258 771 102.135 133.971 444.991
179 0 81.2324 11.5348 937 97.206 134.699 451.158
180 0 88.3047 10.8714 960 98.4188 134.567 448.414
181 0 86.244 11.108 958 99.595 134.411 444.645
182 0 89.2219 10.7933 963 99.4829 134.54 448.147
183 0 96.1974 10.7903 1038 98.5154 134.297 446.228
184 0 95.2682 10.5912 1009 100.362 134.588 445.097
185 0 98.1705 11.531 1132 100.905 134.307 429.713
186 1 53.0468 11.9517 634 94.5142 135.052 447.864
187 0 53.071 10.6838 567 90.3968 134.617 447.065
188 0 53.2505 11.5304 614 89.829 133.941 445.283
189 0 54.1299 11.1029 601 90.589 134.542 447.594
190 0 56.1952 11.3711 639 90.6714 134.022 446.272
191 0 59.1474 12.4097 734 88.9823 134.8 444.331
192 0 60.2618 12.3295 743 89.9327 134.281 443.135
193 0 61.2029 12.4014 759 90.5138 134.464 442.46
194 0 62.2019 11.9771 745 91.6121 133.483 442.459
195 0 65.136 12.5276 816 90.7108 133.842 441.625
196 0 67.2631 12.0571 811 92.2626 133.522 439.794
197 0 65.1805 11.4451 746 96.4611 133.555 437.235
198 0 71.1698 13.531 963 90.6075 134.144 436.037
199 0 72.1378 12.5454 905 92.8243 133.628 436.144
200 0 75.1276 13.2707 997 91.4835 134.174 432.973
201 0 77.1716 13.0229 1005 92.6209 133.14 432.646
202 0 78.1601 12.0906 945 94.7418 133.395 431.532
203 0 81.2168 12.3866 1006 94.0189 133.704 431.596
204 1 46.0191 11.995 552 95.1322 134.071 445.255
205 0 46.0734 11.2212 517 98.1489 132.731 445.946
206 0 47.096 12.1879 574 94.8223 131.429 442.977
207 0 49.1827 11.2235 552 96.4601 131.768 442.306
208 0 51.125 11.8729 607 95.6293 131.55 445.618
209 0 50.0785 12.4604 624 95.976 132.417 445.407
210 0 52.2076 12.2396 639 96.5618 131.601 444.311
211 0 56.0716 14.6955 824 90.8434 132.433 443.5
212 0 54.0598 12.1532 657 98.8356 132.469 441.551
213 0 56.1115 13.0633 733 97.5225 131.914 440.576
214 0 55.086 11.6545 642 102.185 132.162 441.974
215 0 56.1118 12.2256 686 101.663 132.879 440.832
216 0 59.0762 13.1864 779 100.031 133.764 439.472
217 0 61.0551 13.4305 820 99.1305 133.18 438.624
218 0 63.2316 13.8538 876 98.3139 133.063 439.374
219 0 64.0637 13.1276 841 100.402 132.734 436.598
220 0 63.0647 12.3524 779 103.597 132.724 436.434
221 0 64.1693 11.1112 713 106.919 132.316 438.449
222 0 66.1029 12.2536 810 104.86 132.642 435.898
223 0 68.158 12.339 841 103.982 131.882 435.32
224 0 73.2091 13.4273 983 101.161 132.976 430.481
225 0 76.1444 13.9078 1059 98.6195 132.66 432.848
226 0 78.1184 12.6731 990 101.708 133.165 431.532
227 0 79.2479 13.401 1062 100.73 133.366 429.505
228 0 81.2108 12.9293 1050 100.444 133.074 422.914
229 0 86.207 13.0268 1123 98.7649 132.631 420.192
230 0 89.1476 12.0923 1078 92.8015 133.408 418.742
231 0 90.1172 12.0399 1085 103.712 133.325 423.571
232 1 48.1699 10.982 529 105.643 133.378 439.52
233 0 51.1106 10.5066 537 106.082 132.855 438.328
234 0 54.1358 10.603 574 105.333 133.639 438.308
235 0 53.0566 11.6479 618 104.472 133.715 436.38
236 0 53.02 10.2791 545 109.261 132.994 435.785
237 0 56.0347 10.672 598 107.331 132.968 435.706
238 0 57.0579 11.6899 667 105.532 131.925 434.165
239 0 59.0432 11.8049 697 105.129 132.416 434.56
240 0 64.0907 11.4525 734 105.084 132.109 433.135
241 0 65.1128 11.8103 769 104.525 132.57 433.888
242 0 63.0397 11.58 730 107.003 132.811 430.718
243 0 69.0755 11.263 778 106.087 132.219 429.121
244 0 71.0556 12.5536 892 104.044 132.678 426.498
245 0 73.1432 12.7558 933 103.653 133.344 427.58
246 0 72.1564 11.2395 811 108.301 132.852 425.497
247 0 78.2178 11.4808 898 105.551 132.205 424.839
248 0 80.175 12.8718 1032 104.241 132.764 423.136
249 0 85.1792 12.2565 1044 104.669 132.765 422.948
250 0 85.1203 12.2297 1041 106.96 132.875 418.51
251 0 88.1317 12.3338 1087 106.999 132.649 417.062
252 0 92.1721 12.0969 1115 108.217 132.73 416.352
253 0 95.1595 12.6629 1205 106.373 133.246 419.307
254 0 98.1627 12.9071 1267 106.889 132.292 414.573
255 0 99.2707 12.481 1239 109.814 132.214 414.196
256 0 104.175 13.3814 1394 107.549 132.783 413.52
257 0 109.254 13.6379 1490 106.45 133.177 411.01
258 0 111.219 14.0623 1564 106.335 132.566 408.819
259 0 114.134 14.1763 1618 106.962 132.307 408.02
260 0 119.182 13.3828 1595 108.688 133.53 407.422
261 0 125.252 14.2033 1779 105.424 133.324 405.035
262 0 128.232 13.8889 1781 107.783 133.633 399.825
263 1 69.0483 10.8185 747 104.96 133.147 429.531
264 0 70.0879 10.5867 742 103.148 133.557 431.509
265 0 71.0492 10.3309 734 109.274 133.366 426.496
266 0 73.1381 11.6355 851 104.73 132.136 425.535
267 0 76.1699 11.9076 907 104.741 132.99 425.714
268 0 78.16 12.1929 953 104.099 132.357 423.77
269 0 82.2299 11.6503 958 104.015 132.824 424.772
270 0 86.1035 13.1354 1131 100.443 133.169 423.504
271 0 87.1475 12.1977 1063 103.759 133.21 419.066
272 0 92.239 12.1207 1118 101.192 132.123 418.64
273 0 93.1461 11.584 1079 103.049 133.503 417.61
274 0 98.1411 12.1662 1194 100.69 133.415 416.713
275 0 99.2104 12.408 1231 95.3298 133.134 415.476
276 0 103.139 12.3717 1276 95.8284 133.38 413.636
277 0 104.185 11.614 1210 96.9587 133.698 405.598
278 0 109.303 12.4333 1359 93.1251 132.95 410.665
279 0 110.219 11.3048 1246 95.3884 133.196 410.12
280 0 113.264 10.8772 1232 95.8312 132.778 412.04
281 0 118.246 10.8333 1281 96.5902 132.764 408.217
282 0 125.302 12.2105 1530 94.4163 132.557 398.865
283 1 69.1574 12.0161 831 94.4813 133.539 429.848
284 0 72.2359 11.6009 838 90.2649 133.888 430.674
285 0 74.1239 11.5887 859 90.1071 134.425 431.669
286 0 77.3388 11.3785 880 90.7136 134.556 430.13
287 0 80.2086 11.0836 889 91.7829 133.645 429.475
288 0 82.1877 12.1186 996 91.0713 134.163 427.427
289 0 85.2067 12.2878 1047 91.5989 134.053 426.828
290 0 86.1411 10.6685 919 94.1589 134.081 424.567
291 0 92.2046 11.6155 1071 92.1242 134.209 425.232
292 0 95.1697 11.7474 1118 92.1047 133.345 425.861
293 0 100.169 12.6487 1267 90.6338 133.904 421.951
294 0 101.212 11.6883 1183 93.7405 134.079 421.462
295 0 104.115 13.4275 1398 92.9943 133.372 418.619
296 0 108.063 12.8351 1387 96.9575 132.886 417.017
297 0 112.254 11.3493 1274 100.392 132.816 414.909
298 1 58.2248 11.3697 662 96.0302 132.068 440.616
299 0 60.2234 14.5126 874 92.833 132.461 431.186
300 0 61.2074 12.3188 754 94.1034 133.342 440.877
301 0 62.095 12.7224 790 93.8266 132.878 440.711
302 0 62.158 12.2269 760 95.4566 132.946 439.632
303 0 63.1428 13.1923 833 94.7215 132.84 440.589
304 0 68.225 11.9018 812 96.1219 132.916 437.942
305 0 73.1099 12.5017 914 95.1674 132.688 437.111
306 0 72.1822 12.9949 938 95.2601 132.446 435.704
307 0 74.1156 13.4655 998 95.0331 132.985 433.213
308 0 76.2098 12.4393 948 98.0032 133.046 427.406
309 0 80.1777 12.8215 1028 96.465 132.866 426.088
310 0 81.1831 13.4388 1091 96.1989 132.023 425.551
311 0 83.3541 13.1967 1100 96.9982 132.318 425.121
312 0 86.2164 11.8887 1025 99.359 132.697 421.51
313 0 90.3557 12.2516 1107 99.0849 133.212 419.189
314 0 95.1525 12.1279 1154 100.698 133.557 418.894
315 1 50.2158 11.3311 569 98.1599 133.153 441.353
316 0 52.1988 11.7627 614 96.8453 133.528 441.085
317 0 52.1621 11.2534 587 100.145 133.726 440.581
318 0 55.152 11.9851 661 98.3026 133.404 445.528
319 0 57.143 12.6875 725 94.3628 133.738 443.052
320 0 58.1809 12.7877 744 94.1062 133.542 443.487
321 0 60.1921 13.5566 816 92.9118 133.825 441.479
322 0 61.1112 13.0418 797 94.0502 133.838 441.934
323 0 63.101 12.0917 763 95.481 132.855 441.468
324 0 64.1389 12.9563 831 94.4212 133.19 439.686
325 0 67.1101 11.9952 805 96.1764 133.109 438.752
326 0 68.2802 12.7709 872 95.3234 132.985 436.742
327 0 71.1752 14.2606 1015 92.9468 133.601 435.572
328 0 72.0978 12.2889 886 97.3973 133.749 438.745
329 0 76.1435 13.3301 1015 96.7005 134.057 434.377
330 0 78.1897 13.237 1035 97.7729 133.929 432.514
331 0 79.1653 13.2129 1046 97.6922 134.041 432.866
332 0 83.2477 14.0184 1167 94.8415 133.737 431.573
333 0 86.1883 12.7744 1101 97.4096 133.836 428.533
334 1 44.0789 11.5021 507 95.8698 133.379 450.469
335 0 45.0597 12.4945 563 92.8881 134.107 451.082
336 0 46.1492 11.3761 525 94.4533 133.718 450.76
337 0 48.1995 12.7595 615 92.2374 133.745 447.662
338 0 49.1806 12.7693 628 92.1561 133.895 444.132
339 0 51.106 12.8556 657 92.0228 134.053 444.454
340 0 51.1924 11.2126 574 96.0401 133.751 441.939
341 0 51.0735 12.3352 630 94.9095 134.11 440.627
342 0 52.1379 11.9299 622 95.5434 134.296 446.236
343 0 54.1735 12.6999 688 94.2602 133.988 445.892
344 0 58.1172 14.5396 845 90.0426 133.998 444.4
345 0 58.1534 13.1205 763 93.8742 133.558 444.126
346 0 59.4926 12.2704 730 95.6027 133.792 444.19
347 0 61.2482 13.78 844 91.2607 133.584 442.575
348 0 63.1956 13.5136 854 93.7436 134.358 440.748
349 0 64.1673 12.9038 828 94.9203 133.874 440.181
350 0 67.094 12.7731 857 94.5636 134.047 438.902
351 0 68.2165 13.677 933 93.4887 134.12 436.64
352 0 71.2435 13.2363 943 93.6416 133.099 434.267
353 0 73.2992 11.8146 866 96.5393 132.763 436.018
354 0 76.1348 13.6994 1043 92.2013 132.889 432.336
355 0 77.2377 12.96 1001 93.2088 133.523 432.189
356 0 79.3387 11.9992 952 95.6408 133.268 430.329
357 0 83.3966 14.5929 1217 90.2432 133.193 430.755
358 0 83.3098 12.8436 1070 94.3981 133.398 431.163
359 0 88.2974 14.0321 1239 99.0258 132.936 425.781
360 1 48.2301 12.0879 583 99.3053 132.547 447.564
361 0 50.31 12.9398 651 99.3579 132.622 445.218
362 0 53.1271 12.5548 667 99.1799 133.063 446.036
363 0 53.0802 13.0934 695 98.754 132.96 446.001
364 0 54.1686 13.1995 715 99.5455 132.87 445.215
365 0 59.1218 13.5652 802 97.9264 132.892 443.673
366 0 61.1684 12.4901 764 100.589 133.081 443.36
367 0 62.1154 12.8149 796 99.9447 131.845 442.106
368 0 62.0798 12.4356 772 102.354 132.944 440.657
369 0 61.0529 12.9068 788 102.541 132.214 439.664
370 0 65.2343 12.4628 813 103.203 133.332 439.488
371 0 66.0743 12.2287 808 103.936 133.481 439.913
372 0 69.1038 13.6606 944 101.585 132.737 437.218
373 0 73.1544 14.0935 1031 99.8788 133.387 437.911
374 0 74.4351 13.7973 1027 100.785 133.644 440.555
375 0 78.2786 13.9374 1091 100.467 133.577 438.225
376 0 77.2458 12.4538 962 103.891 132.822 437.109
377 0 81.2349 13.7995 1121 99.9786 132.924 435.254
378 0 86.2772 13.9434 1203 98.6708 133.574 433.607
379 1 43.2193 10.6665 461 99.6356 133.996 453.796
380 0 43.2351 11.4259 494 95.747 134.316 453.796
381 0 48.1669 13.2664 639 88.3459 133.264 453.844
382 0 47.1617 12.2981 580 91.3776 134.302 452.384
383 0 48.1079 11.7029 563 93.659 134.602 453.298
384 0 50.1061 12.8128 642 91.4424 133.819 452.402
385 0 51.0994 13.9923 715 90.0685 133.352 448.457
386 0 51.056 12.026 614 94.4332 133.306 449.959
387 0 55.1358 13.1856 727 91.1334 133.545 449.081
388 0 56.1438 13.3051 747 91.5074 133.321 449.086
389 0 57.1763 12.2953 703 93.697 133.916 448.792
390 0 60.0928 12.5473 754 93.3475 133.101 444.545
391 0 61.1132 12.4687 762 93.8005 133.073 447.647
392 0 61.0649 12.4949 763 95.3709 133 447.004
393 0 66.1192 14.0201 927 91.8727 133.008 444.389
394 0 68.0822 13.6159 927 94.0539 132.786 442.382
395 0 70.2573 14.3473 1008 93.6746 133.346 442.764
396 0 71.1408 13.2695 944 96.8803 132.487 442.389
397 0 74.1423 13.6764 1014 96.9753 133.567 440.604
398 0 76.083 13.9322 1060 97.2226 133.621 433.14
399 0 79.1047 12.4518 985 100.974 134.058 435.192
400 0 83.095 14.5496 1209 95.8511 132.688 434.26
401 0 84.1006 13.7573 1157 98.7243 133.041 433.327
402 0 88.1235 14.0031 1234 97.6426 133.907 433.938
403 0 91.1462 13.9556 1272 99.6156 133.296 428.898
404 0 95.2117 14.5675 1387 98.2862 133.82 430.21
405 0 99.1573 12.0112 1191 102.693 133.486 429.238
406 1 53.0468 12.9697 688 96.7326 133.958 449.891
407 0 54.0858 12.2028 660 98.2333 134.212 449.277
408 0 57.1567 14.7489 843 96.2349 133.711 446.248
409 0 58.1725 12.9443 753 101.438 133.469 446.175
410 0 59.1161 13.0929 774 101.983 133.355 447.389
411 0 62.1536 15.2365 947 97.4129 133.064 446.103
412 0 64.3134 13.7607 885 100.564 133.545 445.393
413 0 65.1937 13.667 891 102.38 133.196 443.08
414 0 69.1654 13.3593 924 103.869 133.117 441.525
415 0 69.2037 14.7824 1023 101.189 132.629 442.924
416 0 72.1142 13.7698 993 103.677 132.83 437.262
417 0 72.1994 13.4904 974 105.948 133.321 440.8
418 0 76.2169 15.0623 1148 101.462 132.8 437.894
419 0 80.2124 14.1749 1137 102.896 132.58 438.048
420 0 80.155 14.1975 1138 103.942 132.516 430.003
421 0 83.2418 14.3918 1198 103.627 131.947 431.696
422 0 86.1349 14.1058 1215 103.178 132.21 430.12
423 0 86.1661 14.0775 1213 103.518 131.657 426.146
424 0 90.0864 14.2863 1287 102.621 132.014 425.917
425 0 91.1427 13.6599 1245 104.713 132.4 424.927
426 1 49.1102 11.2604 553 104.987 132.145 446.454
427 0 49.1391 11.8643 583 105.424 132.449 445.698
428 0 53.1347 12.139 645 102.998 131.701 444.298
429 0 52.1291 11.0111 574 107.009 132.465 443.929
430 0 55.0918 12.3249 679 104.255 133.003 442.384
431 0 57.1008 12.3991 708 103.388 132.705 442.462
432 0 59.1085 12.1641 719 103.733 131.942 440.369
433 0 61.0889 14.618 893 98.5454 131.656 439.744
434 0 62.1211 12.7976 795 102.831 132.957 438.879
435 0 60.1174 12.4922 751 104.614 132.467 438.682
436 0 66.1102 13.2203 874 101.522 133.18 437.858
437 0 68.1232 12.5801 857 103.956 132.338 436.334
438 0 71.0783 12.4088 882 103.61 132.065 435.871
439 0 73.0747 13.8488 1012 101.681 132.754 435.066
440 0 73.0933 12.0941 884 107.911 131.829 431.672
441 0 79.2753 11.8574 940 107.826 132.22 431.25
442 0 80.0569 12.6535 1013 106.446 131.931 431.075
443 0 85.0664 14.4475 1229 102.988 132.644 428.308
444 0 88.1677 14.0074 1235 104.392 132.181 426.225
445 0 90.1647 14.1408 1275 104.027 131.595 426.416
446 0 94.1207 13.4296 1264 106.953 131.87 423.797
447 0 96.0993 13.5277 1300 107.185 132.31 421.263
448 0 100.153 14.5777 1460 106.905 132.068 418.906
449 1 52.1547 13.2682 692 107.233 132.827 449.728
450 0 51.2076 11.7365 601 106.689 132.195 451.576
451 0 53.073 13.0952 695 109.909 132.206 445.417
452 0 55.1291 13.7495 758 109.83 133.389 443.152
453 0 58.135 13.9159 809 108.974 132.241 441.143
454 0 59.1823 14.751 873 107.404 132.325 441.88
455 0 61.3346 13.5649 832 111.207 132.226 440.576
456 0 63.1674 13.393 846 112.84 132.5 439.967
457 0 66.2073 14.4697 958 110.062 132.613 438.651
458 0 68.3051 13.8496 946 111.631 132.874 438.927
459 0 70.1129 13.4925 946 113.118 133.127 436.079
460 0 73.1992 14.8362 1086 109.772 132.666 433.827
461 0 76.369 13.8014 1054 112.364 132.769 433.365
462 0 80.2394 14.4817 1162 109.329 132.607 431.896
463 0 85.1152 14.3923 1225 108.822 131.982 431.142
464 0 86.2408 15.677 1352 110.034 132.387 429.906
465 0 87.2111 13.9088 1213 114.165 132.458 431.115
466 0 93.1911 16.2033 1510 106.681 132.734 431.447
467 0 93.2652 14.3033 1334 110.819 132.38 424.939
468 0 97.1413 14.6076 1419 108.985 132.226 423.843
469 1 52.0619 13.4647 701 102.146 131.454 448.388
470 0 53.1743 13.4651 716 107.852 131.342 448.835
471 0 55.3437 13.6059 753 109.228 131.669 449.829
472 0 59.1495 13.9477 825 108.509 132.028 448.448
473 0 61.1121 13.5489 828 109.109 132.628 446.591
474 0 64.1786 14.1792 910 107.231 132.165 445.455
475 0 64.2666 13.1483 845 111.511 132.084 438.569
476 0 68.2626 15.6308 1067 104.598 132.366 439.594
477 0 68.1665 13.2323 902 112.356 131.901 437.8
478 0 68.1384 13.5019 920 111.841 131.673 442.008
479 0 73.0708 14.6707 1072 108.969 131.85 442.327
480 0 77.0696 14.9475 1152 108.294 132.033 442.028
481 0 79.4315 13.4959 1072 111.482 131.188 436.259
482 0 82.2739 14.1479 1164 111.107 131.855 438.219
483 0 83.2958 12.7858 1065 115.964 132.104 436.738
484 0 86.3149 13.8446 1195 113.874 132.07 433.551
485 0 91.3278 14.0702 1285 113.551 131.17 433.104
486 0 92.0978 13.4531 1239 114.695 131.893 432.094
487 1 51.1247 11.2274 574 107.406 130.387 450.326
488 0 52.1337 13.4654 702 104.37 130.647 451.58
489 0 54.1504 12.0405 652 112.755 131.317 451.393
490 0 56.2039 11.8675 667 113.232 131.588 451.238
491 0 57.0883 13.7156 783 109.881 131.654 449.787
492 0 60.2784 12.3095 742 113.779 132.05 445.241
493 0 62.2328 12.9674 807 112.017 131.798 444.711
494 0 62.1564 13.8843 863 112.375 131.43 441.87
495 0 64.3473 13.4893 868 113.313 132.029 441.895
496 0 68.125 13.211 900 112.32 132.079 440.837
497 0 69.1829 13.2114 914 113.976 131.965 437.464
498 0 69.2287 12.0615 835 116.851 131.443 439.662
499 0 73.1525 13.2736 971 113.039 131.812 437.465
500 0 75.2814 12.4333 936 115.691 131.3 434.568
501 0 79.4472 12.9142 1026 112.864 131.313 435.012
502 0 80.3113 13.0866 1051 114.13 131.07 432.297
503 0 83.1882 13.3072 1107 113.732 130.996 430.135
504 0 85.2901 11.4316 975 117.025 131.511 431.321
505 1 45.1633 9.98599 451 110.162 131.333 456.251
506 0 46.165 12.6719 585 96.2462 131.195 447.255
507 0 48.0701 12.7106 611 97.8069 131.029 448.226
508 0 50.0937 11.6581 584 98.3322 131.824 454.06
509 0 51.1367 12.0657 617 99.6515 130.942 446.72
510 0 51.1144 12.2666 627 100.306 131.464 445.965
511 0 52.1249 11.2998 589 101.925 131.261 446.071
512 0 54.1106 12.2342 662 100.21 130.406 446.088
513 0 55.1089 11.1597 615 103.075 131.364 446.109
514 0 57.0893 12.9096 737 99.6174 131.612 444.718
515 0 60.17 13.8441 833 96.3313 131.941 445.766
516 0 61.1896 14.4796 886 96.3736 131.33 443.748
517 0 62.1612 12.9824 807 98.9851 132.385 441.224
518 0 62.1257 12.362 768 100.279 131.283 443.22
519 0 66.1135 12.5088 827 99.4438 132.102 445.083
520 0 69.1088 13.1821 911 97.2876 131.472 444.509
521 0 70.0918 12.7404 893 99.5588 132.017 443.274
522 0 73.1821 13.1043 959 99.1522 131.611 441.228
523 0 74.1235 11.9395 885 101.44 131.658 442.939
524 0 78.129 12.7866 999 100.037 131.823 440.659
525 0 81.1499 13.4319 1090 98.145 132.339 436.466
526 0 81.171 12.8494 1043 100.984 131.975 439.098
527 0 83.2759 12.0683 1005 112.892 132.516 441.743
528 0 88.2088 12.8785 1136 100.853 131.763 436.387
529 0 89.2584 13.657 1219 101.022 132.157 432.248
530 0 92.1331 12.6882 1169 102.34 131.301 432.29
531 0 94.3207 11.005 1038 113.746 132.002 429.772
532 0 100.144 13.4307 1345 99.4587 131.056 432.662
533 1 54.1623 11.484 622 107.537 131.429 452.31
534 0 57.1484 13.2112 755 106.974 131.596 450.228
535 0 59.1632 12.5078 740 106.966 131.423 450.366
536 0 62.219 13.2114 822 99.0572 131.381 449.443
537 0 63.1288 11.4052 720 103.09 131.646 447.89
538 0 66.189 11.9355 790 100.567 130.949 446.509
539 0 68.1351 13.3558 910 96.0242 130.943 445.912
540 0 70.1208 12.2645 860 98.0081 130.73 443.32
541 0 72.1184 12.6181 910 97.6879 130.54 442.11
542 0 76.0929 13.4178 1021 94.1626 130.699 438.975
543 0 76.1075 11.6283 885 98.5254 130.923 439.93
544 0 81.1819 13.2419 1075 94.2381 130.966 435.934
545 0 84.0987 13.2701 1116 94.2186 131.895 436.396
546 0 88.2292 13.3403 1177 93.9983 131.799 434.782
547 0 91.0808 14.9318 1360 90.9721 131.535 435.524
548 0 95.1356 13.1917 1255 94.6319 131.931 428.417
549 0 96.1955 11.539 1110 97.8883 132.225 429.822
550 0 100.219 11.8341 1186 97.4789 131.482 426.306
551 0 104.217 12.2437 1276 97.5799 131.706 428.317
552 0 106.157 11.5207 1223 97.6517 132.311 421.018
553 1 51.0774 12.7062 649 97.168 133.421 445.592
554 0 53.0684 13.737 729 94.4774 133.139 446.225
555 0 53.1534 12.3981 659 95.393 133.29 443.557
556 0 58.1231 12.5423 729 95.1975 133.128 445.453
557 0 57.2741 12.4489 713 95.7489 133.187 450.112
558 0 57.1569 11.9671 684 90.867 132.924 448.879
559 0 58.0874 12.3951 720 93.7472 132.708 448.179
560 0 58.1343 14.2601 829 91.2606 132.337 448.344
561 0 58.122 12.3017 715 96.8909 132.986 447.253
562 0 59.0858 12.8626 760 96.4934 131.943 447.895
563 0 60.0942 12.3473 742 99.058 132.457 446.14
564 0 60.0971 13.0123 782 98.3517 131.124 448.28
565 0 63.246 17.4082 1101 65.5831 131.822 448.157
566 0 63.1321 12.0383 760 98.3421 131.868 447.525
567 0 65.1364 13.2338 862 96.0963 132.249 444.394
568 0 67.1105 12.2932 825 97.177 131.648 444.766
569 0 69.1744 13.3286 922 94.9197 131.259 442.293
570 0 71.2092 12.6248 899 96.3904 131.791 443.192
571 0 73.0752 12.3298 901 96.0544 131.943 437.698
572 0 75.1065 12.7419 957 95.0637 131.935 436.364
573 0 76.1376 10.8882 829 95.2702 131.562 431.526
574 0 76.0857 12.1968 928 95.0162 131.811 428.49
575 0 79.198 10.5053 832 98.8942 131.431 430.207
576 1 41.2115 10.6038 437 103.174 132.201 447.954
577 0 42.0454 9.48974 399 105.085 132.639 446.669
578 0 42.0518 10.5108 442 98.9593 131.758 445.568
579 0 46.0423 10.2514 472 101.231 131.765 445.456
580 0 45.039 9.30304 419 104.303 131.811 444.506
581 0 46.0272 10.3634 477 105.545 131.748 443.302
582 0 48.0617 10.8402 521 106.121 132.342 443.253
583 0 48.1297 10.347 498 115.721 132.092 442.014
584 0 50.1119 12.8313 643 110.429 132.026 441.827
585 0 52.0783 10.7338 559 115.267 131.442 441.515
586 0 54.0967 9.98213 540 117.704 131.17 440.365
587 0 56.1459 9.99183 561 119.59 131.93 439.312
588 0 58.1577 12.0018 698 115.374 131.37 438.105
589 0 59.0883 10.2389 605 120.307 131.631 438.673
590 0 60.1575 11.3369 682 119.864 131.955 437.764
591 0 61.0683 11.6427 711 117.772 131.803 437.868
592 0 64.1256 11.805 757 118.136 130.948 437.052
593 0 64.1455 10.523 675 123.849 131.53 435.422
594 0 69.1219 11.0963 767 123.267 130.759 434.617
595 0 70.0738 11.5878 812 121.526 131.326 433.772
596 0 72.1004 12.2468 883 120.335 131.561 428.123
597 0 73.0866 11.9858 876 122.29 131.202 428.743
598 0 77.285 10.9853 849 124.509 131.068 429.396
599 0 78.0593 10.9532 855 125.735 130.055 429.512
600 0 83.2658 13.4269 1118 121.919 130.487 427.428
601 0 85.1974 14.038 1196 130.401 129.883 432.328
602 1 44.1881 12.13 536 128.873 130.291 454.935
603 0 44.1773 12.1556 537 124.255 130.49 452.011
604 0 47.1054 11.3787 536 123.882 130.341 451.373
605 0 48.0796 13.0201 626 119.415 130.094 449.276
606 0 50.0838 13.0581 654 118.972 131.075 449.498
607 0 51.0316 11.777 601 122.927 130.398 448.642
608 0 54.1053 13.0671 707 117.854 130.18 447.659
609 0 56.0878 12.9262 725 117.636 129.519 448.509
610 0 56.1185 12.9191 725 119.935 130.212 444.97
611 0 58.0825 13.8252 803 116.738 129.441 445.932
612 0 61.1331 13.8223 845 115.785 129.866 446.409
613 0 62.1265 12.3297 766 120.675 129.928 444.602
614 0 63.0849 12.3167 777 120.914 130.664 445.431
615 0 64.0617 12.1914 781 122.206 130.164 443.045
616 0 67.0555 13.1384 881 120.196 130 442.153
617 0 70.1733 14.1079 990 118.108 130.435 439.721
618 0 72.119 13.6025 981 118.891 129.679 438.152
619 0 75.0853 12.892 968 120.866 130.192 437.011
620 0 78.1178 13.5564 1059 118.272 129.1 437.057
621 0 80.1067 14.281 1144 117.186 130.067 435.948
622 0 84.091 13.2 1110 119.577 130.253 434.832
623 0 88.179 13.2458 1168 118.761 129.235 434.491
624 1 48.172 12.0194 579 125.725 129.67 452.005
625 0 48.102 12.5982 606 123.04 129.053 450.904
626 0 50.0785 12.5603 629 128.928 129.391 448.564
627 0 52.0298 13.3577 695 127.066 129.096 446.111
628 0 55.0552 12.1696 670 128.955 129.118 448.045
629 0 56.1008 12.8519 721 126.065 128.368 451.932
630 0 59.0872 13.5732 802 123.324 128.921 450.116
631 0 59.049 13.5819 802 124.658 129.857 449.349
632 0 62.0629 13.1641 817 125.536 129.384 448.279
633 0 64.1121 13.5388 868 125.131 129.408 447.649
634 0 65.0513 13.4663 876 124.675 130 448.788
635 0 67.1345 13.7336 922 125.447 129.44 443.87
636 0 70.0636 13.9159 975 123.716 129.419 444.173
637 0 72.1016 13.2313 954 125.795 129.64 443.075
638 0 75.0679 13.8941 1043 123.844 130.215 440.539
639 0 77.1917 12.9289 998 125.577 130.07 442.263
640 0 80.1077 13.8938 1113 123.679 130.245 438.032
641 0 81.1963 13.2272 1074 125.766 130.534 437.928
642 0 82.0961 13.2284 1086 127.346 130.629 436.132
643 0 87.1396 14.6202 1274 122.922 130.04 432.502
644 0 90.2061 13.5357 1221 124.981 130.284 432.825
645 0 91.2262 13.5268 1234 126.707 130.19 430.84
646 0 95.1349 14.264 1357 124.087 130.506 428.529
647 0 99.0773 14.1405 1401 124.3 130.492 428.299
648 0 101.276 13.557 1373 126.736 129.607 426.946
649 0 106.411 14.5474 1548 123.266 130.262 421.807
650 0 108.102 13.9682 1510 124.272 130.365 419.987
651 0 112.223 13.0989 1470 126.161 129.815 417.115
652 0 115.162 13.9455 1606 124.857 129.873 414.199
653 0 120.281 14.0006 1684 122.891 130.632 414.93
654 1 65.1022 12.8413 836 118.659 129.55 441.635
655 0 70.1094 12.78 896 113.205 130.314 438.723
656 0 68.2405 12.0749 824 117.992 129.985 443.107
657 0 73.08 13.4373 982 113.851 130.152 442.799
658 0 72.1728 11.9297 861 119.298 129.967 442.103
659 0 79.0852 12.1009 957 116.2 130.317 438.531
660 0 80.1024 12.1594 974 118.351 130.262 434.636
661 0 81.2091 11.2918 917 119.906 130.87 435.639
662 0 87.1697 12.7567 1112 117.113 129.996 430.261
663 0 87.1609 10.7158 934 122.74 130.694 432.775
664 0 92.2245 11.0925 1023 122.451 130.626 432.584
665 0 96.1025 12.0392 1157 120.468 130.996 427.655
666 0 98.1576 11.7566 1154 127.079 130.39 425.393
667 0 104.202 12.4374 1296 127.601 130.054 421.674
668 1 52.153 10.6801 557 131.002 131.524 446.391
669 0 54.1126 12.6958 687 124.256 130.374 446.505
670 0 54.0794 10.725 580 128.233 131.616 445.759
671 0 58.1017 11.9618 695 124.167 131.738 445.57
672 0 57.0831 11.2292 641 127.324 131.184 444.276
673 0 61.2056 11.6983 716 124.904 131.451 443.973
674 0 64.1905 11.9177 765 125.175 131.652 441.28
675 0 66.0794 12.2428 809 123.278 131.651 441.116
676 0 64.1319 12.5834 807 123.527 130.974 440.664
677 0 69.1619 12.4346 860 124.081 132.058 438.191
678 0 72.1573 12.8192 925 121.021 130.858 438.432
679 0 75.1008 12.6497 950 122.312 131.269 435.177
680 0 75.1457 13.4272 1009 122.022 131.577 433.718
681 0 78.1919 12.4693 975 123.768 131.136 432.93
682 0 82.1496 13.1954 1084 122.273 130.451 430.648
683 0 84.0489 14.5867 1226 120.08 130.508 430.897
684 0 85.1044 12.9018 1098 127.012 130.421 426.824
685 0 87.1081 13.2938 1158 123.859 130.613 427.31
686 0 90.2083 13.0698 1179 122.432 130.559 424.867
687 0 92.1297 12.9491 1193 123.101 131.485 423.889
688 0 98.1256 13.8904 1363 119.062 131.011 424.923
689 0 99.1753 13.0375 1293 120.067 130.94 424.163
690 1 52.1011 11.8424 617 122.849 131.217 443.438
691 0 55.1753 11.4544 632 120.437 130.926 443.533
692 0 59.1695 13.5712 803 111.558 131.432 441.249
693 0 59.0703 12.0873 714 118.461 131.786 441.569
694 0 60.1645 13.8952 836 116.02 131.783 441.283
695 0 63.1714 12.9647 819 117.802 132.09 440.785
696 0 65.1673 11.7697 767 121.742 131.875 439.117
697 0 69.1042 12.3147 851 118.779 132.226 436.627
698 0 70.0992 11.498 806 117.572 132.115 432.262
699 0 75.2066 12.5787 946 118.002 131.982 431.373
700 0 78.1966 13.1591 1029 117.983 132.803 428.98
701 0 80.1652 13.4597 1079 118.673 132.605 426.635
702 0 82.093 11.9742 983 122.574 132.49 426.896
703 0 86.1451 13.9416 1201 118.261 131.943 423.948
704 1 43.0316 10.9454 471 112.529 133.023 447.941
705 0 45.1353 11.5652 522 112.95 132.529 444.496
706 0 48.1873 12.5344 604 107.823 131.826 445.838
707 0 46.0418 12.2063 562 108.758 132.384 447.146
708 0 47.0623 12.5578 591 108.898 132.125 446.418
709 0 47.0537 11.8163 556 113.182 131.808 444.754
710 0 50.0331 11.3325 567 113.325 132.42 444.469
711 0 50.0467 11.1296 557 115.081 132.309 443.948
712 0 53.0461 12.0838 641 112.48 132.685 443.095
713 0 53.0396 12.6321 670 112.472 132.067 441.172
714 0 54.0482 12.5073 676 113.441 132.525 440.191
715 0 59.0704 12.3581 730 112.54 131.937 439.627
716 0 59.0543 12.1075 715 113.306 131.926 439.779
717 0 60.1009 12.1462 730 113.214 132.122 440.263
718 0 63.0589 11.6875 737 114.129 132.801 437.89
719 0 65.0602 12.1887 793 112.892 132.554 440.439
720 0 64.1028 10.1244 649 117.883 131.986 442.288
721 0 69.1066 11.6197 803 114.107 132.408 439.778
722 0 72.1593 11.4746 828 114.536 133.005 438.795
723 0 75.1411 11.5117 865 115.347 132.564 435.877
724 0 77.0759 12.0141 926 114.803 132.93 434.556
725 0 80.1151 12.1575 974 113.516 132.418 434.965
726 0 84.0575 13.3123 1119 111.436 131.762 431.086
727 0 84.129 12.0529 1014 113.401 131.996 432.501
728 0 88.1272 12.6181 1112 113.414 131.201 429.622
729 1 46.0572 10.7692 496 110.948 132.079 451.556
730 0 50.2499 12.2985 618 122.128 132.871 450.055
731 0 55.1295 12.5704 693 121.924 132.854 450.14
732 0 56.0481 13.9166 780 119.142 133.055 448.919
733 0 58.1361 13.09 761 120.08 133.012 448.307
734 0 58.1117 12.8373 746 123.444 133.111 445.521
735 0 61.1524 13.9488 853 118.22 132.295 447.089
736 0 65.1392 14.3539 935 117.496 132.765 445.22
737 0 65.0562 14.28 929 117.795 130.805 445.243
738 0 66.1165 12.9771 858 122.772 131.932 444.017
739 0 69.1109 14.3103 989 118.423 132.092 444.272
740 0 72.1969 14.1557 1022 118.876 131.654 443.118
741 0 75.1504 14.2514 1071 118.361 131.665 439.816
742 0 77.2645 14.8839 1150 115.561 131.242 437.086
743 0 79.1244 13.8263 1094 120.282 132.024 427.402
744 0 82.1267 13.6131 1118 118.942 131.338 426.371
745 0 82.0821 12.9017 1059 118.691 131.504 427.067
746 0 87.1106 13.569 1182 117.109 131.019 425.138
747 0 92.1064 12.8004 1179 116.561 131.093 423.365
748 0 95.1676 13.1662 1253 115.676 131.381 423.917
749 0 98.1462 13.6022 1335 113.474 131.649 423.337
750 0 102.158 14.3405 1465 110.739 131.278 421.08
751 1 51.0435 11.6959 597 108.94 131.608 448.389
752 0 53.207 12.7803 680 109.516 131.221 449.009
753 0 56.0943 13.2456 743 105.886 131.38 444.106
754 0 57.0839 11.9473 682 110.019 131.553 443.559
755 0 60.0404 12.5582 754 108.651 131.785 443.558
756 0 63.1087 13.4688 850 105.447 131.184 443.714
757 0 63.1523 12.4619 787 108.981 132.141 443.666
758 0 67.0789 12.8655 863 107.072 132.17 444.695
759 0 67.1131 11.4881 771 110.021 132.052 441.16
760 0 70.0355 12.7507 893 106.828 131.591 440.189
761 0 74.1876 13.5602 1006 104.579 131.737 441.755
762 0 75.0808 12.9194 970 106.446 131.435 441.135
763 0 79.0873 13.3903 1059 105.93 131.04 437.307
764 0 79.072 13.8861 1098 107.516 130.649 430.624
765 0 84.1841 14.4802 1219 104.973 130.313 434.034
766 0 87.104 14.3047 1246 104.958 129.815 433.566
767 0 90.127 14.0358 1265 104.608 130.885 432.974
768 0 91.1276 14.0243 1278 105.233 130.487 429.273
769 0 94.1948 12.3786 1166 108.941 130.65 431.202
770 0 98.1605 13.2334 1299 106.543 130.26 429.867
771 0 100.138 12.4128 1243 107.844 130.157 428.634
772 0 107.218 14.6617 1572 103.248 129.641 424.957
773 1 57.1166 11.1176 635 106.137 130.329 451.353
774 0 59.0902 13.7248 811 103.577 130.809 449.99
775 0 63.3039 14.2013 899 102.353 131.264 449.053
776 0 62.0648 13.2764 824 112.72 129.905 446.209
777 0 64.1822 11.7322 753 116.08 130.112 451.936
778 0 70.2041 12.9622 910 110.711 129.954 445.787
779 0 72.1714 13.6342 984 109.731 130.13 444.117
780 0 76.1651 14.5999 1112 105.494 129.722 440.42
781 0 80.1656 16.5033 1323 100.234 130.397 440.249
782 0 80.2111 13.9631 1120 107.165 129.658 440.071
783 0 82.1587 13.1818 1083 109.32 130.364 438.334
784 0 87.075 13.7812 1200 107.624 130.227 435.359
785 0 92.1646 18.6514 1719 95.4334 130.147 427.734
786 0 92.46 14.3413 1326 155.387 129.765 418.351
787 0 93.2805 14.2795 1332 105.318 129.559 417.524
788 0 97.2296 14.6355 1423 104.063 129.261 414.699
789 0 99.3593 14.3318 1424 106.111 129.855 417.576
790 0 103.387 13.8315 1430 105.869 130.793 412.703
791 0 106.483 13.3919 1426 105.579 130.101 411.048
792 1 57.1476 11.759 672 101.22 129.446 440.424
793 0 59.3522 12.9229 767 100.224 129.312 439.662
794 0 62.1629 13.6416 848 101.902 129.857 428.287
795 0 65.1326 14.0483 915 101.061 130.06 436.518
796 0 66.2613 12.8129 849 106.277 129.186 440.936
797 0 68.3911 12.6771 867 108.358 130.116 439.197
798 0 70.2353 12.7002 892 109.962 130.622 438.211
799 0 73.1427 13.0977 958 111.693 130.282 437.553
800 0 76.2549 13.6516 1041 112.827 129.969 437.549
801 0 79.2322 13.8328 1096 114.343 129.502 439.589
802 0 81.3137 12.4087 1009 118.805 130.651 439.65
803 0 84.2793 14.2028 1197 115.886 129.348 434.963
804 0 88.3882 14.3571 1269 114.782 130.203 434.65
805 0 92.1799 14.0812 1298 114.933 129.743 433.715
806 0 94.3577 13.841 1306 115.251 129.675 433.741
807 0 98.189 14.0953 1384 114.81 130.544 432.278
808 0 101.372 13.4456 1363 116.589 129.462 428.663
809 0 105.147 13.7807 1449 115.803 129.58 429.215
810 0 109.498 13.7263 1503 118.363 130.214 428.979
811 1 60.0794 12.6499 760 113.812 130.95 449.643
812 0 61.1722 13.1596 805 113.569 130.231 451.491
813 0 64.1605 13.1857 846 114.212 130.759 453.39
814 0 66.295 13.0628 866 113.714 130.224 451.766
815 0 69.162 13.3744 925 113.449 129.616 447.946
816 0 70.2869 13.8433 973 111.735 130.516 448.242
817 0 73.2115 12.4024 908 119.943 130.229 444.442
818 0 75.1594 14.0901 1059 114.579 130.307 444.021
819 0 77.1373 14.3899 1110 113.768 130.239 443.451
820 0 80.1908 13.1935 1058 118.38 129.829 439.8
821 0 84.097 12.545 1055 118.958 129.972 436.452
822 0 87.1593 13.8367 1206 114.995 130.175 434.624
823 0 92.3101 13.1838 1217 115.664 129.986 435.701
824 0 93.331 12.1289 1132 118.943 130.085 434.286
825 1 47.0519 11.4342 538 111.385 129.48 456.476
826 0 48.0529 10.9463 526 111.643 129.848 454.057
827 0 50.1538 13.2193 663 107.526 130.662 453.02
828 0 49.1339 12.0894 594 105.938 131.207 452.874
829 0 51.1354 12.6331 646 103.523 131.443 452.087
830 0 53.0792 13.2067 701 102.893 130.355 450.285
831 0 53.1755 11.2082 596 108.232 131.389 450.388
832 0 57.1153 11.7482 671 105.414 130.782 449.824
833 0 59.0622 11.4794 678 106.227 130.889 448.373
834 0 63.1107 12.9455 817 102.345 131.682 447.949
835 0 63.1671 9.87856 624 109.899 131.652 445.857
836 0 68.0568 13.9589 950 101.342 131.622 444.416
837 0 70.2165 12.2478 860 105.79 130.501 445.322
838 0 72.1533 12.2794 886 107.676 131.172 443.403
839 0 78.1906 13.0067 1017 106.525 130.643 440.06
840 1 42.1416 9.23079 389 110.29 131.843 456.224
841 0 44.0857 11.0013 485 107.138 131.672 456.88
842 0 45.0407 10.7014 482 106.701 131.861 454.956
843 0 48.2526 11.7507 567 100.048 131.287 455.395
844 0 49.0942 11.2233 551 101.525 133.165 456.635
845 0 51.1657 12.3325 631 100.041 131.558 451.783
846 0 52.1178 11.3397 591 103.628 131.973 452.259
847 0 53.1765 12.5055 665 100.928 132.522 451.997
848 0 55.1335 13.5308 746 100.378 131.101 450.147
849 0 58.1007 12.3923 720 102.24 131.951 452.192
850 0 58.1196 13.9024 808 100.173 132.225 450.327
851 0 58.1253 12.0257 699 107.27 132.172 448.433
852 0 59.0798 12.9655 766 105.988 131.86 448.29
853 0 63.1531 11.9709 756 106.119 132.204 449.803
854 0 65.0876 12.7367 829 106.034 132.374 446.323
855 0 67.1498 11.7498 789 108.564 132.022 445.279
856 0 69.0715 11.3216 782 110.76 132.192 445.591
857 0 72.0852 12.832 925 107.808 130.417 442.518
858 0 74.0805 12.8644 953 106.948 130.667 440.485
859 0 79.1542 12.6462 1001 106.222 130.784 439.438
860 1 44.0441 10.9209 481 110.805 130.796 456.53
861 0 45.0255 12.1043 545 103.873 131.409 456.037
862 0 47.0591 11.8362 557 101.693 131.355 454.74
863 0 46.0912 11.1735 515 103.332 131.623 457.924
864 0 50.1104 12.7518 639 100.239 131.498 451.557
865 0 51.0753 12.4718 637 101.772 131.948 453.124
866 0 50.1371 13.6227 683 100.559 131.508 450.958
867 0 52.1571 11.5804 604 104.371 130.921 452.368
868 0 55.0695 12.7657 703 102.269 130.744 450.821
869 0 56.2017 12.7398 716 103.402 131.834 450.102
870 0 55.0899 11.3269 624 108.713 130.923 449.046
871 0 60.087 13.131 789 102.428 131.06 448.956
872 0 62.1254 13.2152 821 102.29 130.373 447.667
873 0 64.0923 13.2621 850 101.353 130.756 446.114
874 0 64.1553 12.4074 796 104.589 131.192 444.099
875 0 65.1649 12.9211 842 104.051 130.894 442.58
876 0 68.1728 12.879 878 103.346 131.773 441.722
877 0 71.1329 13.046 928 102.689 130.991 442.022
878 0 74.165 13.025 966 102.717 131.149 441.153
879 0 74.1181 13.8967 1030 101.961 131.512 440.615
880 0 77.0886 12.2586 945 105.416 131.467 438.126
881 0 81.1645 13.8731 1126 100.966 131.622 438.58
882 0 83.185 13.7284 1142 103.905 131.192 436.465
883 0 93.1673 12.8801 1200 114.522 131.004 433.107
884 1 43.1005 11.0207 475 116.032 131.499 453.56
885 0 47.036 10.9491 515 114.934 131.831 450.829
886 0 48.0477 13.0495 627 107.778 129.491 450.577
887 0 51.0768 12.7455 651 104.23 130.757 452.384
888 0 53.115 13.8191 734 101.489 131.478 451.623
889 0 53.1789 14.9307 794 101.559 131.062 450.387
890 0 54.1215 12.9708 702 107.803 131.514 449.321
891 0 56.1383 13.1817 740 107.024 130.565 448.515
892 0 57.202 12.8842 737 107.877 131.944 447.902
893 0 59.2419 13.2001 782 107.219 131.211 448.262
894 0 62.1379 15.8036 982 100.091 131.391 447.244
895 0 65.1748 13.8857 905 103.587 130.152 445.482
896 0 67.1588 14.9347 1003 100.944 130.685 442.937
897 0 69.1959 14.9286 1033 100.754 130.264 443.365
898 0 69.1581 13.6354 943 104.449 131.194 443.106
899 0 73.1408 13.4945 987 104.085 131.265 441.22
900 0 73.1135 13.3354 975 106.051 131.676 440.245
901 0 77.0898 14.8139 1142 102 131.696 435.711
902 0 77.0956 13.1266 1012 106.976 131.838 437.248
903 0 80.0755 12.2384 980 108.928 131.576 436.226
904 0 84.1602 13.8426 1165 105.75 131.221 434.196
905 0 87.1479 13.7467 1198 105.898 130.591 431.573
906 0 91.182 14.5094 1323 103.707 131.738 428.716
907 0 92.2475 13.9191 1284 106.671 130.099 427.269
908 0 96.1486 13.4479 1293 111.867 130.832 427.691
909 0 98.2264 13.927 1368 110.817 131.288 424.007
910 0 102.18 14.0145 1432 107.483 130.705 421.012
911 1 57.1548 12.2999 703 113.057 131.145 439.552
912 0 60.2639 13.2584 799 109.655 132.145 440.055
913 0 62.2153 12.5532 781 107.539 131.323 442.956
914 0 62.1904 12.7029 790 107.1 131.504 443.233
915 0 67.0961 13.6372 915 103.435 131.405 441.726
916 0 67.1002 13.4575 903 103.996 130.4 438.797
917 0 71.2107 13.3267 949 102.98 129.834 437.509
918 0 72.1324 12.7682 921 105.228 130.725 434.177
919 0 75.1075 12.755 958 104.449 130.549 432.643
920 0 79.0958 12.39 980 104.554 130.962 431.324
921 0 82.0769 13.4386 1103 102.197 130.772 429.964
922 0 83.1172 11.4537 952 105.437 130.898 430.904
923 0 89.0824 12.7073 1132 104.82 130.091 426.492
924 0 89.0921 12.7508 1136 132.054 129.105 426.522
925 0 95.0862 12.0627 1147 109.699 130.449 420.364
926 0 100.096 13.497 1351 105.429 130.341 414.756
927 1 52.0375 11.1458 580 100.128 130.553 432.988
928 0 53.0916 10.981 583 101.544 131.355 432.794
929 0 56.1003 11.5329 647 98.7388 130.949 439.181
930 0 55.0641 9.66147 532 105.481 131.137 435.483
931 0 58.0929 10.5521 613 103.946 131.633 435.522
932 0 60.0841 11.8501 712 102.015 131.404 432.871
933 0 63.112 11.947 754 101.412 131.597 432.671
934 0 62.0913 10.8067 671 97.7407 131.25 431
935 0 67.0759 10.9876 737 97.3351 131.301 433.867
936 0 71.095 12.0262 855 96.4608 130.371 430.46
937 0 72.1313 10.98 792 99.7917 131.106 428.442
938 0 75.0591 11.6442 874 100.365 131.436 428.658
939 0 81.1231 12.3763 1004 98.4273 131.243 427.176
940 0 82.1285 12.4074 1019 101.442 131.246 425.281
941 0 83.1682 11.4347 951 103.921 131.554 429.007
942 0 86.086 12.8709 1108 107.005 131.812 419.764
943 0 90.1277 11.3173 1020 111.004 131.826 418.422
944 0 93.1079 12.8024 1192 108.104 131.904 415.439
945 0 100.131 14.4011 1442 104.15 130.499 416.744
946 0 106.282 15.8447 1684 107.343 130.61 420.067
947 1 56.1932 10.98 617 111.075 131.013 448.011
948 0 60.193 12.6593 762 105.877 131.89 446.404
949 0 63.1304 12.6247 797 108.851 131.304 445.109
950 0 60.1782 12.2303 736 112.088 131.821 443.573
951 0 63.1332 11.7529 742 104.954 132.338 446.034
952 0 64.1237 11.4778 736 106.731 132.322 442.246
953 0 67.1714 11.761 790 104.232 132.03 443.637
954 0 69.1343 12.2949 850 104.193 131.36 441.074
955 0 70.1904 12.0387 845 105.138 131.551 438.737
956 0 74.1252 12.1551 901 105.122 131.628 437.363
957 0 76.1048 11.2871 859 105.909 131.221 437.307
958 0 79.1132 12.1851 964 104.215 130.945 434.386
959 0 81.2609 11.5677 940 104.832 131.223 435.935
960 0 85.1871 13.0654 1113 102.592 131.355 431.037
961 0 89.3322 11.8882 1062 105.257 131.199 430.207
962 0 94.2822 12.102 1141 103.706 131.647 428.597
963 0 94.24 11.6405 1097 104.343 130.986 422.91
964 1 50.0324 11.0928 555 97.209 130.095 441.604
965 0 50.0881 11.3201 567 97.4832 130.594 441.235
966 0 54.0397 10.2887 556 100.644 129.558 439.836
967 0 56.0494 10.5978 594 100.909 130.478 437.675
968 0 56.1703 10.8776 611 101.173 129.876 438.372
969 0 56.0487 11.3473 636 102.827 130.336 435.459
970 0 57.0299 10.4682 597 103.126 130.159 434.35
971 0 59.0259 10.1311 598 105.002 130.144 434.714
972 0 63.0707 11.9073 751 100.208 130.506 434.134
973 0 64.078 11.7201 751 100.724 130.397 432.395
974 0 67.1337 11.8569 796 100.254 130.474 431.275
975 0 67.0346 11.2479 754 103.954 129.687 430.83
976 0 71.0793 11.4098 811 102.793 129.752 428.896
977 0 74.0953 12.1465 900 101.787 129.85 424.061
978 0 76.0874 11.7496 894 103.096 130.343 424.914
979 0 77.0541 11.2129 864 105.883 130.186 420.416
980 0 79.1636 10.4846 830 105.501 130.434 419.651
981 0 85.1204 10.5968 902 103.164 130.722 422.674
982 0 87.0586 12.394 1079 100.225 130.282 416.935
983 0 91.1054 11.1519 1016 103.021 130.899 416.253
984 0 97.1254 10.7181 1041 103.661 130.279 413.756
985 0 100.144 12.3722 1239 99.3648 130.165 414.341
986 1 49.0412 9.01284 442 94.1471 131.6 437.762
987 0 52.0538 8.68333 452 94.7854 130.04 438.639
988 0 53.0499 8.53914 453 92.3687 130.375 437.132
989 0 56.0799 9.5043 533 100.463 131.096 435.216
990 0 59.1255 10.8075 639 88.9437 130.537 434.748
991 0 62.1056 10.4499 649 98.9769 131.279 435.518
992 0 61.1124 10.3089 630 101.798 130.851 431.703
993 0 64.0744 10.8936 698 98.8309 131.587 434.487
994 0 68.1508 8.99476 613 101.44 131.481 432.811
995 0 73.1507 11.7839 862 94.3747 131.723 433.172
996 0 74.1262 11.5614 857 90.0268 132.102 431.271
997 0 76.1745 10.4628 797 93.9799 131.542 429.916
998 0 78.1025 12.1763 951 92.5373 131.893 428.683
999 0 80.1053 10.6485 853 100.551 131.926 425.095
1000 0 85.1459 12.1791 1037 97.4446 132.193 422.672
1001 0 87.2292 11.0513 964 100.642 131.738 423.464
1002 0 90.1143 11.7961 1063 99.3735 131.311 420.528
1003 0 94.2067 11.3155 1066 95.8996 130.852 419.386
1004 1 50.0379 9.27297 464 90.1207 131.159 441.142
1005 0 51.0597 9.85122 503 94.1511 130.62 442.612
1006 0 55.1283 10.92 602 98.1063 129.96 449.189
1007 0 56.2025 12.1525 683 95.1083 130.867 446.665
1008 0 57.1398 11.5156 658 96.6884 130.363 447.353
1009 0 59.1032 12.1652 719 94.8526 130.057 446.601
1010 0 61.2575 12.2108 748 94.7767 130.979 444.465
1011 0 64.1032 13.1195 841 93.1819 130.438 442.797
1012 0 65.1253 12.1919 794 94.5995 129.762 442.581
1013 0 69.125 12.3978 857 93.6558 129.616 442.378
1014 0 71.0996 13.4178 954 91.7317 130.671 436.877
1015 0 75.1705 12.7311 957 92.2184 129.857 438.612
1016 0 77.1235 12.0327 928 94.5043 130.552 437.732
1017 0 82.0733 12.8422 1054 91.0863 130.863 434.239
1018 0 83.1069 12.8028 1064 92.5818 131.447 431.758
1019 0 87.1565 12.9767 1131 91.71 131.177 431.502
1020 0 90.1864 12.5407 1131 94.1468 132.008 430.887
1021 1 49.0896 10.5318 517 97.5841 130.855 451.025
1022 0 50.1803 11.5783 581 99.3701 131.141 447.435
1023 0 51.0852 11.4906 587 97.6337 129.344 450.33
1024 0 49.0549 9.74419 478 95.7427 130.343 453.883
1025 0 50.1006 10.938 548 95.073 130.265 450.67
1026 0 52.1339 11.0676 577 94.5442 130.532 450.773
1027 0 55.037 12.21 672 93.0967 130.24 448.292
1028 0 56.1434 10.9541 615 95.1805 130.65 450.154
1029 0 57.1463 10.3594 592 96.2568 130.309 448.914
1030 0 62.1284 10.6875 664 94.8027 131.123 448.372
1031 0 61.0725 10.9542 669 95.6517 130.747 446.703
1032 0 65.1189 11.9013 775 93.9213 130.72 445.335
1033 0 68.1574 12.1777 830 93.8277 131.376 443.087
1034 0 69.1041 11.7359 811 95.8274 129.919 443.884
1035 0 71.2201 11.7804 839 95.9273 130.918 442.232
1036 0 74.0916 12.4171 920 94.6685 131.768 438.91
1037 0 77.1076 11.3478 875 96.6206 130.707 440.479
1038 0 80.127 11.6066 930 96.9602 130.795 440.086
1039 0 82.1094 12.7513 1047 94.5406 130.329 438.998
1040 0 85.1107 12.7011 1081 96.692 131.82 431.388
1041 0 89.1526 12.4281 1108 97.0162 131.683 430.22
1042 0 95.1852 12.2393 1165 97.6575 131.446 428.955
1043 0 97.0927 13.5026 1311 96.254 130.872 426.503
1044 0 102.082 14.1063 1440 94.1882 130.911 425.606
1045 0 103.104 13.2681 1368 95.9459 131.25 420.224
1046 1 55.1183 11.7565 648 98.3148 131.031 448.069
1047 0 56.1103 12.3685 694 101.148 130.952 442.401
1048 0 58.1172 12.5092 727 101.259 131.344 443.466
1049 0 62.1437 12.8251 797 100.187 131.379 444.068
1050 0 63.1262 11.881 750 102.688 131.193 443.329
1051 0 65.1698 12.0762 787 103.229 132.048 441.294
1052 0 68.1528 11.5769 789 104.897 131.597 439.899
1053 0 69.1572 11.5245 797 106.484 132.026 438.95
1054 0 74.1202 12.075 895 104.435 131.398 437.965
1055 0 76.1319 12.833 977 104.972 131.857 433.825
1056 0 78.2013 12.6852 992 105.897 132.165 432.808
1057 0 81.1499 13.703 1112 103.425 131.879 430.902
1058 0 81.1791 11.9735 972 108.073 131.398 431.333
1059 1 43.0637 11.5411 497 104.31 131.398 449.708
1060 0 46.0138 10.9098 502 104.11 130.819 450.279
1061 0 45.1278 11.6336 525 105.922 131.427 447.792
1062 0 46.1937 11.4951 531 107.808 131.113 447.915
1063 0 47.1605 11.0474 521 107.622 131.536 450.392
1064 0 49.0887 12.0802 593 106.101 132.067 447.506
1065 0 51.081 12.4117 634 104.869 131.612 448.156
1066 0 52.1509 11.7927 615 106.88 131.319 446.764
1067 0 54.127 12.988 703 104.154 131.346 446.25
1068 0 55.1193 13.1533 725 104.223 131.703 445.206
1069 0 56.1003 13.0302 731 105.372 131.146 444.298
1070 0 56.1068 12.8148 719 107.766 131.551 443.481
1071 0 58.171 12.6867 738 108.621 131.714 441.985
1072 0 62.1289 14.2768 887 104.754 131.696 440.055
1073 0 61.046 12.6462 772 111.263 132.44 438.028
1074 0 64.1515 13.172 845 110.311 131.77 437.243
1075 0 65.1203 12.6074 821 112.97 132.107 437.67
1076 0 67.3171 13.9935 942 110.04 131.022 435.552
1077 0 71.2905 14.1814 1011 109.492 131.389 434.465
1078 0 73.1768 14.9638 1095 108.651 132.026 431.402
1079 0 77.3836 13.4654 1042 111.565 131.247 432.801
1080 0 78.2397 14.3022 1119 110.125 132.342 432.31
1081 0 81.3561 14.0493 1143 111.085 132.325 429.774
1082 0 84.3008 13.44 1133 113.403 132.21 426.384
1083 0 87.2537 14.1541 1235 111.202 132.892 420.586
1084 0 89.4513 13.8287 1237 113.235 132.809 416.647
1085 1 44.1938 11.5627 511 113.515 132.309 436.636
1086 0 48.0642 11.5471 555 112.483 133.09 440.751
1087 0 50.0412 11.2108 561 110.866 133.72 443.075
1088 0 50.0584 10.6675 534 106.476 133.395 446.193
1089 0 50.0922 12.1376 608 104.85 133.737 443.566
1090 0 54.1277 13.9485 755 100.277 133.134 441.483
1091 0 55.0905 12.2163 673 105.172 133.957 441
1092 0 57.1117 13.1847 753 102.595 133.539 439.571
1093 0 57.0996 12.9948 742 104.209 132.368 438.528
1094 0 59.1507 12.8654 761 103.911 132.879 440.062
1095 0 64.2559 13.9131 894 99.6857 133.139 438.319
1096 0 64.149 12.2995 789 104.501 132.895 436.976
1097 0 65.2557 13.041 851 101.971 132.94 437.664
1098 0 69.1442 12.9873 898 102.175 132.958 434.731
1099 0 70.3027 13.7264 965 101.506 132.798 433.951
1100 0 73.4511 12.9065 948 102.083 132.932 436.722
1101 0 74.1671 13.7123 1017 101.921 132.926 434.159
1102 0 79.3982 13.7157 1089 101.229 132.371 432.579
1103 0 81.1927 13.2771 1078 103.162 133.261 430.583
1104 0 85.2463 13.3261 1136 97.8028 132.301 429.361
1105 0 85.1715 13.8779 1182 97.692 132.754 424.705
1106 0 89.2725 13.1059 1170 98.4547 132.285 417.191
1107 0 91.2563 12.1855 1112 100.946 132.793 417.955
1108 0 95.2468 13.4073 1277 99.6695 132.379 415.847
1109 0 98.2229 14.9151 1465 96 132.805 419.913
1110 0 102.216 12.816 1310 98.2237 133.079 416.709
1111 0 105.241 12.7897 1346 98.159 132.811 412.624
1112 0 110.36 12.867 1420 96.1155 133.259 413.257
1113 0 115.256 13.2054 1522 95.276 132.451 412.229
1114 0 117.199 11.9454 1400 97.0693 133.396 412.499
1115 1 76.1522 12.8033 975 94.0646 132.589 430.571
1116 0 80.2861 12.9661 1041 96.1518 133.104 430.423
1117 0 83.1392 12.882 1071 95.2792 133.102 427.627
1118 0 86.1759 13.1011 1129 96.1063 133.08 427.233
1119 0 88.1762 13.3596 1178 96.3209 133.242 424.989
1120 0 89.1422 11.7902 1051 100.414 133.265 424.134
1121 0 94.0918 12.6578 1191 99.4383 132.831 421.849
1122 0 96.1392 13.5013 1298 98.7843 133.508 419.622
1123 0 101.133 13.8728 1403 97.8852 133.209 419.66
1124 0 102.179 12.9087 1319 98.7513 132.742 420.403
1125 0 107.118 13.9846 1498 96.8712 132.222 417.66
1126 0 110.086 12.5357 1380 99.5138 132.249 414.194
1127 0 113.15 12.0371 1362 100.343 132.7 411.377
1128 0 120.113 14.145 1699 96.1707 131.985 409.632
1129 0 125.097 14.109 1765 95.1258 132.547 411.973
1130 0 129.103 13.3536 1724 98.018 131.909 406.926
1131 0 134.159 14.3562 1926 95.6547 132.625 404.044
1132 0 140.105 14.4534 2025 95.2928 133.094 400.218
1133 0 143.111 13.7027 1961 97.1234 132.231 396.206
1134 0 147.154 13.5912 2000 97.3845 132.77 395.716
1135 0 153.35 14.9266 2289 95.8135 131.973 390.294
1136 0 157.42 13.6958 2156 98.8451 132.692 388.786
1137 0 162.356 14.7269 2391 96.542 131.529 389.818
1138 0 169.329 13.3586 2262 99.8462 131.354 383.4
1139 0 174.156 13.2066 2300 100.043 131.241 384.593
1140 0 182.21 13.0454 2377 100.655 131.581 382.003
1141 0 186.144 12.4796 2323 102.226 130.949 381.653
1142 0 193.25 13.6093 2630 101.073 132.371 372.957
1143 0 199.263 13.8711 2764 100.45 131.254 368.454
1144 0 208.333 13.584 2830 101.072 131.134 365.427
1145 0 214.311 14.9409 3202 98.658 131.871 362.738
1146 0 222.31 14.5247 3229 99.9288 131.6 355.463
1147 0 232.24 13.9769 3246 100.962 131.544 353.274
1148 0 237.618 11.7499 2792 105.765 131.64 349.905
1149 0 244.484 12.7984 3129 103.903 132.21 347.708
1150 0 251.422 13.5191 3399 102.366 131.507 335.491
1151 1 198.467 12.7527 2531 103.251 131.557 365.058
1152 0 205.382 12.6642 2601 103.853 132.544 369.875
1153 0 210.268 12.9739 2728 102.451 131.787 362.518
1154 0 217.261 14.2363 3093 99.914 132.793 365.114
1155 0 225.446 14.0699 3172 100.755 131.008 359.138
1156 0 234.374 14.7158 3449 99.2273 131.614 354.182
1157 0 242.369 12.9637 3142 103.429 131.959 349.464
1158 0 250.418 13.8209 3461 102.457 131.803 345.709
1159 0 256.424 13.3646 3427 104.186 131.67 340.171
1160 0 266.442 13.0723 3483 105.559 131.707 337.684
1161 1 79.0944 10.7846 853 92.3365 132.045 434.027
1162 0 83.0996 11.4922 955 90.4733 132.314 433.054
1163 0 84.1234 10.4133 876 93.3002 132.763 432.136
1164 0 88.1517 13.1932 1163 88.5142 132.286 429.955
1165 0 91.174 11.7797 1074 91.3883 131.263 428.565
1166 1 49.0354 9.82963 482 95.4834 131.612 448.021
1167 0 50.1588 10.7259 538 94.2546 133.403 445.874
1168 0 52.2007 11.36 593 89.3777 132.857 446.047
1169 0 52.1622 10.544 550 91.3909 134.031 449.316
1170 0 56.1585 11.6456 654 88.7538 133.462 447.714
1171 0 56.1863 12.8145 720 88.4069 132.785 443.675
1172 0 58.2348 12.5355 730 89.8767 133.13 443.938
1173 0 59.1804 11.9972 710 92.3563 133.394 443.328
1174 0 60.2558 11.1524 672 95.256 133.759 443.256
1175 0 65.1169 12.347 804 92.3259 134.582 441.874
1176 0 66.1695 13.405 887 91.1826 134.118 442.14
1177 0 67.13 12.662 850 92.1647 134.012 442.034
1178 0 70.159 14.3531 1007 89.9831 133.704 438.061
1179 0 74.122 15.3666 1139 86.4486 133.581 433.934
1180 0 77.1028 14.1889 1094 89.2687 133.348 436.525
1181 0 78.0918 15.2129 1188 87.8729 133.923 434.9
1182 0 79.0643 15.0257 1188 88.7946 133.712 435.504
1183 0 78.1034 14.1223 1103 93.2747 134.016 435.18
1184 0 82.0963 13.7765 1131 92.8028 133.3 435.97
1185 0 81.0716 13.6053 1103 95.7425 133.29 432.112
1186 0 85.15 14.4803 1233 92.94 133.17 433.402
1187 0 87.0857 13.4465 1171 96.6917 133.053 428.869
1188 0 90.1147 14.7146 1326 93.3281 133.627 430.209
1189 0 92.1205 14.557 1341 94.2066 132.48 428.16
1190 0 95.1666 13.9965 1332 96.1637 133.221 425.264
1191 0 98.0694 13.9493 1368 96.2712 133.572 427.216
1192 0 101.172 14.668 1484 96.5418 132.529 421.538
1193 0 104.152 13.4707 1403 100.79 132.024 422.542
1194 1 55.1802 11.6346 642 102.417 131.567 445.625
1195 0 57.0739 12.5276 715 94.9385 131.46 444.28
1196 0 55.081 12.0368 663 96.0558 131.478 445.908
1197 0 58.2103 11.8192 688 95.1773 130.927 448.49
1198 0 58.0609 12.0391 699 95.4678 131.093 448.25
1199 0 60.024 10.9123 655 96.774 131.956 446.226
1200 0 62.1487 12.454 774 94.7636 131.532 443.282
1201 0 62.1102 11.4957 714 94.6569 132.262 443.266
1202 0 65.1348 11.054 720 94.6139 131.36 443.656
1203 0 69.0884 12.1873 842 92.5796 131.353 441.694
1204 0 69.3545 11.0015 763 95.1913 131.779 441.695
1205 0 70.1922 10.8132 759 95.2174 131.74 439.266
1206 0 72.1296 11.2298 810 95.263 131.225 439.028
1207 0 74.1464 11.7605 872 93.9243 131.396 437.275
1208 0 78.1847 12.0356 941 93.1807 132.32 432.095
1209 0 82.148 11.9297 980 92.1704 132.353 436.57
1210 0 83.0663 10.8468 901 94.2875 132.518 432.326
1211 0 86.173 12.0223 1036 92.2384 132.599 430.538
1212 0 89.2147 12.6885 1132 90.9965 132.755 428.815
1213 0 90.2268 12.0253 1085 92.4802 132.163 428.1
1214 0 96.0413 12.7653 1226 90.5677 132.539 428.217
1215 0 96.2103 11.4229 1099 93.0983 131.239 428.835
1216 0 103.134 13.5164 1394 88.8673 131.516 425.914
1217 1 56.0265 11.8337 663 90.632 132.765 446.615
1218 0 57.153 13.0352 745 88.1584 132.515 442.977
1219 0 60.1123 11.3621 683 90.0322 132.758 444.905
1220 0 60.0932 11.6153 698 90.2292 133.226 444.256
1221 0 62.0785 11.421 709 90.3357 132.633 444.722
1222 0 62.1279 10.8969 677 92.1019 133.56 442.235
1223 0 67.0947 12.0874 811 89.4982 133.022 440.695
1224 0 69.1167 13.2819 918 88.1285 134.52 439.656
1225 0 69.1145 12.1972 843 90.8968 133.422 437.331
1226 0 72.1101 12.9663 935 90.0193 133.354 435.382
1227 0 75.1738 12.531 942 91.1667 133.597 436.338
1228 0 77.1661 12.5055 965 91.2155 132.792 434.619
1229 0 81.1034 13.23 1073 90.2675 132.448 432.028
1230 0 83.1044 12.2015 1014 93.5799 134.144 431.086
1231 0 85.0771 12.424 1057 93.4257 134.145 429.055
1232 0 88.2479 10.8898 961 99.0645 134.074 430.786
1233 1 48.0714 11.7117 563 95.8366 133.638 449.369
1234 0 49.1124 11.4228 561 97.7558 135.369 450.251
1235 0 52.1302 11.6823 609 97.7603 134.805 446.906
1236 0 53.1384 12.6839 674 96.9585 134.645 444.285
1237 0 54.0975 13.5311 732 96.4003 134.993 445.518
1238 0 56.1229 13.5239 759 96.4058 134.422 445.464
1239 0 57.0991 12.995 742 98.3396 134.139 445.352
1240 0 59.1199 12.5169 740 100.153 134.457 445.727
1241 0 59.1615 13.9618 826 98.138 134.299 442.918
1242 0 61.0987 11.9806 732 102.667 134.695 445.247
1243 0 63.1919 12.9131 816 101.382 134.512 442.885
1244 0 66.1449 14.7555 976 96.9262 134.322 442.595
1245 0 68.1883 13.668 932 99.9925 134.085 440.706
1246 0 70.1281 14.5305 1019 97.945 133.091 439.746
1247 0 70.238 14.3797 1010 99.1673 133.514 439.445
1248 0 74.2715 14.07 1045 99.0392 133.856 440.128
1249 0 76.1785 13.9016 1059 101.472 132.725 436.167
1250 0 78.4215 13.4529 1055 103.737 132.43 435.911
1251 0 82.215 12.4065 1020 103.501 132.034 434.27
1252 0 85.2031 13.8962 1184 105.083 132.794 429.33
1253 1 48.0817 11.7092 563 101.126 132.84 446.208
1254 0 50.0801 11.4017 571 97.2715 133.811 450.965
1255 0 52.1582 11.7144 611 96.9869 132.959 449.987
1256 0 54.0549 11.9693 647 94.9258 133.165 449.085
1257 0 56.231 12.3597 695 94.6259 133.629 446.807
1258 0 57.0955 12.6455 722 94.7271 133.813 445.62
1259 0 58.0852 13.222 768 92.5938 133.572 446.797
1260 0 59.1086 11.9272 705 96.2681 133.325 446.332
1261 0 61.0649 12.2493 748 95.5455 133.214 442.572
1262 0 63.1007 13.5339 854 92.8653 133.322 442.907
1263 0 63.1531 12.0184 759 96.8735 133.011 442.366
1264 0 64.0429 12.6946 813 96.1722 133.713 440.213
1265 0 68.155 11.6793 796 96.8417 132.584 440.168
1266 0 69.0802 12.8401 887 95.0327 132.904 437.64
1267 0 70.2623 13.0653 918 95.3649 132.965 437.081
1268 0 73.0667 12.8786 941 96.7428 132.676 435.377
1269 0 76.1595 14.1545 1078 93.7718 133.034 436.665
1270 0 76.1152 13.5058 1028 96.5068 133.507 437.019
1271 0 79.1523 13.215 1046 98.891 133.343 433.316
1272 0 80.1849 12.6832 1017 101.966 133.092 431.809
1273 0 85.1803 11.8689 1011 107.672 134.098 431.955
1274 0 85.304 12.7192 1085 107.865 132.893 427.478
1275 0 89.351 13.4973 1206 105.722 132.593 427.42
1276 0 92.418 12.4759 1153 107.33 133.212 426.714
1277 0 96.3104 13.2696 1278 105.369 132.97 425.81
1278 0 99.3508 13.8298 1374 104.536 132.816 425.809
1279 1 51.1262 10.6795 546 103.864 133.996 447.886
1280 0 55.1369 12.3148 679 101.657 133.623 446.909
1281 0 54.0999 9.81518 531 102.168 133.104 440.576
1282 0 52.0137 9.97814 519 103.503 133.628 435.395
1283 0 56.0869 12.0527 676 99.5207 132.617 436.783
1284 0 57.0858 10.1426 579 104.371 133.62 434.086
1285 0 60.031 10.9443 657 102.301 133.938 436.11
1286 0 62.1651 11.9842 745 100.074 133.807 435.766
1287 0 64.0349 11.5874 742 100.867 132.953 433.549
1288 0 66.0844 12.1663 804 100.807 134.114 432.286
1289 0 68.0575 10.5352 717 104.513 134.332 430.261
1290 0 72.11 12.2729 885 99.0169 133.71 429.688
1291 0 74.1431 10.9248 810 102.535 134.954 428.606
1292 0 76.133 11.6901 890 100.397 134.269 430.21
1293 0 77.15 12.4433 960 100.752 135.315 426.962
1294 0 80.0922 12.4981 1001 100.488 134.947 424.27
1295 0 81.0862 12.3449 1001 101.944 135.616 423.413
1296 0 85.083 12.5407 1067 100.799 135.065 423.674
1297 0 89.0438 11.9379 1063 102.862 135.433 421.196
1298 0 92.1307 12.797 1179 101.081 135.208 418.565
1299 0 95.0831 11.5268 1096 103.599 135.585 418.344
1300 0 96.0791 12.3752 1189 100.305 134.549 418.654
1301 0 103.103 11.5419 1190 102.099 135.093 416.019
1302 0 103.118 11.2977 1165 105.164 134.884 413.924
1303 1 55.1049 12.5034 689 94.4035 134.949 440.639
1304 0 57.1396 13.0907 748 99.1257 134.531 440.777
1305 0 57.1182 12.3778 707 101.714 134.052 441.946
1306 0 61.0644 12.8553 785 97.135 134.749 444.848
1307 0 61.0652 12.282 750 99.0493 134.267 443.149
1308 0 63.0391 12.3098 776 98.5399 134.446 443.326
1309 0 63.0405 11.7068 738 98.2046 134.394 439.962
1310 0 66.0606 12.3977 819 96.3773 134.587 440.214
1311 0 66.2105 11.7655 779 97.5956 134.019 440.096
1312 0 69.0488 11.4557 791 98.1631 133.963 439.67
1313 0 72.1024 12.3852 893 95.7503 133.392 436.661
1314 0 72.1806 12.1916 880 96 133.395 438.685
1315 1 153.212 13.0538 2000 107.651 133.178 397.853
1316 0 159.217 12.7624 2032 107.608 133.658 394.784
1317 1 79.0401 11.665 922 98.1367 132.97 433.594
1318 0 81.391 10.296 838 100.253 133.531 434.291
1319 0 88.1224 12.233 1078 95.8173 134.135 433.265
1320 0 88.0692 11.9338 1051 98.9144 133.232 429.144
1321 1 47.029 12.5029 588 97.5561 134.036 449.022
1322 0 49.1189 11.8488 582 98.9931 133.357 448.366
1323 0 50.0843 11.2011 561 102.176 133.515 444.829
1324 0 51.1391 12.026 615 101.595 133.945 448.187
1325 0 53.12 13.0271 692 100.022 133.786 447.484
1326 0 52.1529 11.1211 580 105.493 133.622 447.093
1327 0 51.1428 12.7877 654 103.676 133.167 444.878
1328 0 55.193 13.0633 721 102.86 133.558 443.026
1329 0 58.1762 12.995 756 101.519 132.837 445.172
1330 0 59.111 13.6015 804 100.698 133.24 446.083
1331 0 61.3244 13.6487 837 100.737 132.753 443.305
1332 0 63.2406 13.1877 834 101.169 132.651 444.669
1333 0 63.3382 11.9044 754 100.724 133.362 444.225
1334 0 65.0788 11.2633 733 101.304 132.035 442.865
1335 0 68.104 12.804 872 98.2053 132.951 442.328
1336 0 70.2832 13.1753 926 97.0799 132.941 440.95
1337 0 71.0634 13.3261 947 97.1299 132.111 438.881
1338 0 72.106 12.5787 907 99.9923 131.959 438.722
1339 0 72.1077 10.4288 752 100.852 130.323 433.858
1340 0 76.0946 13.4569 1024 95.4854 130.371 432.832
1341 0 77.1954 12.5655 970 99.9299 130.174 436.507
1342 0 81.2262 12.7053 1032 99.22 131.065 437.57
1343 0 83.0713 12.1101 1006 100.681 130.434 434.334
1344 0 85.1863 12.3729 1054 101.434 130.456 430.257
1345 0 87.1258 11.799 1028 102.532 130.566 431.827
1346 0 91.3181 13.3161 1216 99.375 130.735 428.862
1347 0 92.1974 10.9548 1010 103.107 131.029 430.518
1348 0 94.2295 11.6949 1102 104.089 130.621 432.312
1349 0 97.2272 12.8976 1254 104.357 130.35 430.982
1350 0 98.1635 11.8272 1161 102.63 129.929 423.21
1351 1 55.1712 11.4915 634 104.951 129.849 450.801
1352 0 55.2171 12.2607 677 103.981 131.049 451.13
1353 0 58.2745 12.8186 747 103.387 129.973 448.871
1354 0 58.247 12.756 743 102.423 130.67 451.307
1355 0 59.1886 11.7759 697 105.802 130.591 450.135
1356 0 63.2038 12.8473 812 104.022 130.097 447.17
1357 0 64.3242 11.9862 771 107.119 130.987 446.571
1358 0 66.2526 13.4485 891 105.126 130.933 443.483
1359 0 71.1998 13.8624 987 103.772 130.987 443.158
1360 0 71.1839 12.5309 892 109.2 130.324 441.702
1361 0 76.0993 13.443 1023 109.674 129.407 440.115
1362 0 78.1566 15.0339 1175 105.161 129.906 440.237
1363 0 80.3504 13.9389 1120 108.815 129.369 437.362
1364 0 81.2085 13.5331 1099 111.556 129.597 436.126
1365 0 84.2323 14.7449 1242 108.349 129.531 435.049
1366 0 86.0976 12.5555 1081 111.079 129.559 434.903
1367 0 90.1805 13.8278 1247 108.71 129.207 430.617
1368 0 92.1608 14.4638 1333 107.236 129.5 430.332
1369 0 94.1968 12.7074 1197 112.034 130.221 431.054
1370 0 98.1821 13.1083 1287 110.775 129.796 429.059
1371 1 55.1079 11.7043 645 109.735 128.614 442.192
1372 0 56.1242 11.4567 643 111.666 129.205 443.124
1373 0 58.0881 11.9302 693 108.465 128.648 449.652
1374 0 58.0572 12.126 704 104.185 129.067 450.381
1375 0 60.1093 11.8118 710 105.799 130.806 448.768
1376 0 61.1486 12.9848 794 104.273 130.324 447.065
1377 0 60.0806 12.5997 757 105.86 130.118 447.616
1378 0 62.1178 12.5729 781 107.179 129.444 445.215
1379 0 63.1114 12.058 761 107.561 130.723 445.769
1380 0 66.2398 12.9831 860 105.876 130.169 443.634
1381 0 68.2747 12.6841 866 105.92 129.764 442.874
1382 0 71.1859 13.1346 935 105.444 129.633 440.879
1383 0 74.0993 12.4968 926 105.485 129.234 441.844
1384 0 76.1559 13.5643 1033 102.847 129.318 441.616
1385 0 77.1933 13.0063 1004 104.744 129.372 440.486
1386 0 80.1633 13.5349 1085 102.741 129.852 437.43
1387 0 82.1077 12.715 1044 105.412 130.112 437.054
1388 0 86.0895 14.1016 1214 101.722 129.913 436.196
1389 0 89.1426 13.6747 1219 101.893 129.555 433.499
1390 0 92.4187 12.7896 1182 103.409 129.452 433.359
1391 0 95.168 12.4622 1186 103.869 129.926 432.21
1392 0 99.271 13.1962 1310 102.331 128.989 428.299
1393 0 101.152 12.7531 1290 105.101 128.367 426.8
1394 1 55.0623 11.2418 619 111.974 129.575 449.945
1395 0 60.1049 12.9607 779 106.498 129.041 449.48
1396 0 59.103 13.5695 802 100.655 129.516 448.042
1397 0 61.0707 13.4271 820 100.787 129.821 447.422
1398 0 61.0913 11.9657 731 103.992 129.755 446.806
1399 0 64.1154 12.2124 783 101.925 129.338 447.128
1400 0 66.0607 12.4128 820 100.498 129.39 445.415
1401 0 70.0993 13.0244 913 98.7426 129.205 442.008
1402 0 73.0667 13.3303 974 96.6006 129.441 440.246
1403 0 75.0784 14.0919 1058 94.3828 128.956 439.985
1404 0 79.0646 14.4186 1140 92.5518 128.933 439.375
1405 0 80.1142 12.2825 984 98.2398 128.413 437.52
1406 0 82.1365 13.3802 1099 95.0018 128.868 438.953
1407 0 84.0801 13.3087 1119 95.3253 128.836 432.985
1408 0 88.0886 12.2831 1082 96.0462 129.398 432.731
1409 0 90.1096 12.8843 1161 95.6202 129.244 432.368
1410 0 92.0688 12.4472 1146 96.9058 129.581 429.405
1411 0 95.1707 12.5879 1198 95.5902 129.154 430.254
1412 0 101.167 13.9868 1415 92.9449 129.665 427.787
1413 0 102.253 12.694 1298 94.8428 129.717 428.228
1414 1 56.1209 11.4396 642 98.3333 128.671 449.531
1415 0 58.0494 12.386 719 96.4367 128.445 440.925
1416 0 57.0795 11.7205 669 95.5456 129.088 440.477
1417 0 59.0806 11.2558 665 91.2211 129.714 438.063
1418 0 59.0731 11.0541 653 92.2466 129.822 438.671
1419 0 63.113 11.6299 734 90.8065 129.853 438.125
1420 0 65.1009 13.0106 847 90.1263 128.074 435.13
1421 0 67.0884 11.6563 782 94.1675 128 435.442
1422 0 65.097 10.277 669 98.0867 128.676 433.746
1423 0 68.0786 11.5014 783 95.2886 128.822 434.826
1424 0 71.1016 11.9829 852 94.554 129.07 433.888
1425 0 74.1135 11.9681 887 96.1691 128.123 429.768
1426 0 78.1513 12.3223 963 95.3853 128.83 430.479
1427 0 77.0693 11.1328 858 99.7005 128.918 426.692
1428 0 85.1418 13.5421 1153 92.7485 129.053 426.618
1429 0 86.1374 12.1086 1043 95.5705 129.233 421.114
1430 0 90.2586 11.9545 1079 96.9648 128.711 427.514
1431 0 93.1493 12.6571 1179 97.7634 129.578 427.523
1432 0 99.1032 13.2185 1310 97.9748 128.705 429.895
1433 0 99.2009 12.7418 1264 98.1899 128.524 427.402
1434 0 104.243 12.1255 1264 97.8473 128.514 422.858
1435 0 107.128 12.6204 1352 96.6953 128.028 422.343
1436 0 112.128 12.1914 1367 98.4119 127.835 417.86
1437 1 61.1476 13.0995 801 94.6979 129.325 448.571
1438 0 64.128 13.4419 862 97.1903 129.005 440.416
1439 0 62.0934 13.6891 850 97.1129 128.855 444.187
1440 0 66.0568 13.1402 868 97.0265 129.521 445.395
1441 0 69.0578 14.4082 995 93.9497 129.824 442.187
1442 0 68.1265 13.7979 940 96.1862 128.995 441.751
1443 0 68.0622 12.4886 850 98.5153 129.481 443.599
1444 0 71.0475 11.3867 809 100.357 129.613 442.862
1445 0 72.1213 13.2693 957 97.3772 129.125 438.911
1446 0 73.1011 12.8999 943 99.0085 129.082 436.086
1447 0 78.2314 12.169 952 99.3676 129.278 434.953
1448 0 80.0878 13.1356 1052 97.0741 129.38 435.35
1449 0 83.1084 13.0913 1088 97.9026 129.642 430.835
1450 0 85.1135 12.7829 1088 98.5395 127.644 428.23
1451 0 88.1231 12.7889 1127 98.472 128.865 426.026
1452 0 89.0792 12.4833 1112 99.0953 128.897 425.871
1453 0 92.0703 12.3058 1133 98.3107 129.015 428.481
1454 0 96.2525 11.6464 1121 99.7574 129.144 423.851
1455 0 100.184 12.1476 1217 98.6146 128.875 421.043
1456 1 55.093 10.7273 591 96.066 128.629 442.044
1457 0 57.1016 12.2238 698 94.0888 128.788 439.861
1458 0 58.1021 10.4815 609 93.2512 128.56 440.292
1459 0 62.0833 11.4523 711 90.2841 129.878 439.82
1460 0 61.0375 10.5017 641 91.8378 128.95 434.771
1461 0 63.1974 10.1903 644 90.7236 128.32 436.463
1462 0 67.0316 11.144 747 88.9746 128.501 435.076
1463 0 70.0855 9.17451 643 90.9145 128.647 435.596
1464 0 71.0413 9.48744 674 92.0252 128.596 432.334
1465 0 74.148 10.5465 782 89.9003 128.15 432.52
1466 0 78.2449 11.2212 878 89.5513 128.477 431.058
1467 0 81.1103 11.2933 916 89.7598 128.808 429.99
1468 0 84.1484 11.2896 950 90.3137 128.756 429.258
1469 0 88.0803 12.5681 1107 88.7516 129.416 430.001
1470 0 90.0965 12.2091 1100 90.2618 129.841 428.532
1471 0 95.335 12.6711 1208 91.1142 128.95 430.857
1472 0 97.2893 12.8174 1247 90.1476 129.618 428.081
1473 0 102.478 12.471 1278 89.6737 130.054 428.232
1474 0 104.183 12.6604 1319 88.7331 129.194 424.603
1475 0 105.292 11.5584 1217 90.1118 129.982 425.316
1476 1 57.3454 12.2416 702 86.5726 129.86 447.204
1477 0 58.2035 10.9959 640 91.1047 129.741 447.141
1478 0 63.0457 11.8327 746 88.6957 130.256 444.977
1479 0 63.1318 12.8303 810 87.3086 130.401 443.806
1480 0 62.0862 12.1122 752 89.2447 130.302 442.328
1481 0 66.1027 13.7211 907 85.8666 130.301 440.583
1482 0 68.0806 12.9993 885 87.1627 129.833 442.201
1483 0 69.1403 12.4529 861 88.6609 129.877 437.985
1484 0 71.0929 13.1377 934 88.0931 129.574 438.769
1485 0 72.1562 13.2213 954 88.1509 129.083 438.654
1486 0 75.1208 14.1639 1064 86.4164 128.941 439.053
1487 0 79.1713 14.6139 1157 86.0173 128.936 438.22
1488 0 79.2248 14.4904 1148 87.1193 128.706 435.746
1489 0 82.2342 13.2548 1090 90.3211 129.303 432.172
