time division length width area intensity CMx CMy
0 0 40.072 12.6772 508 139.035 1110.69 482.604
1 0 42.0546 12.7691 537 137.976 1110.93 481.942
2 0 42.0499 12.5089 526 136.589 1110.33 481.441
3 0 44.0285 13.037 574 135.599 1110.55 480.828
4 0 43.0133 12.7867 550 136.713 1110.9 480.144
5 0 46.0607 13.5691 625 133.699 1111.5 480.157
6 0 47.0244 13.4611 633 134.088 1111.32 479.466
7 0 47.0569 13.2605 624 134.303 1111.24 480.072
8 0 50.0361 14.2297 712 130.945 1110.67 479.042
9 0 49.0433 13.5595 665 134.964 1110.95 478.054
10 0 53.0839 13.7141 728 133.283 1111.22 476.526
11 0 54.0442 13.859 749 129.899 1111.47 477.817
12 0 55.0573 13.5132 744 130.929 1111.3 476.605
13 0 58.1055 14.3188 832 127.244 1111.23 475.358
14 0 60.0589 13.4868 810 129.107 1110.56 475.933
15 0 61.0489 13.1534 803 129.93 1110.06 475.157
16 0 64.1009 13.1199 841 129.408 1110.4 473.797
17 0 66.0361 12.8717 850 128.167 1109.99 475.254
18 1 34.0665 12.2114 416 127.976 1110.04 488.875
19 0 37.0452 12.0123 445 126.261 1110.36 489.036
20 0 38.0182 13.2831 505 126.034 1109.53 487.321
21 0 40.0256 13.6912 548 124.049 1108.8 486.297
22 0 38.0154 12.2845 467 128.906 1107.98 487.531
23 0 40.0219 12.8929 516 126.547 1108.64 487.12
24 0 44.0454 12.7596 562 125.228 1109.49 486.372
25 0 45.1612 14.4814 654 119.46 1109 485.578
26 0 44.0742 13.0008 573 125.028 1108.19 485.775
27 0 47.0353 12.48 587 124.356 1107.39 485.974
28 0 49.0767 12.8982 633 123.968 1108.57 483.731
29 0 50.1738 13.7522 690 121.149 1108.59 482.517
30 0 52.0309 12.6656 659 122.819 1108.47 483.313
31 0 53.0371 13.104 695 123.209 1108.21 481.856
32 0 57.0585 13.5475 773 120.731 1108.21 480.454
33 0 58.0298 14.1479 821 119.013 1107.89 479.911
34 0 60.0289 14.1099 847 119.642 1107.69 479.234
35 0 62.0515 14.1818 880 118.591 1107.58 481.169
36 0 64.0206 14.2767 914 119.984 1108.46 477.655
37 0 66.0354 13.3262 880 123.275 1108.37 475.982
38 0 68.1034 14.0668 958 120.485 1108.25 476.187
39 0 70.0482 14.7898 1036 119.82 1108.01 474.524
40 0 73.0856 14.5309 1062 123.698 1107.68 472.266
41 0 77.1548 14.3737 1109 122.477 1107.4 472.501
42 0 80.0711 15.1241 1211 120.912 1106.75 470.435
43 0 81.0647 14.3589 1164 123.925 1107.43 468.504
44 0 85.0483 14.674 1248 121.607 1107.27 469.351
45 0 88.1255 14.6269 1289 122.302 1107.24 466.92
46 1 48.0544 12.2153 587 125.114 1107.09 485.322
47 0 49.0629 12.6368 620 125.002 1107.06 486.105
48 0 51.0978 13.4644 688 124.176 1107.52 482.77
49 0 54.0427 13.8594 749 120.044 1106.78 484.279
50 0 54.0623 12.1156 655 123.795 1106.76 484.904
51 0 57.0545 13.6887 781 115.118 1106.48 484.111
52 0 59.0448 12.9054 762 116.747 1107.44 482.698
53 0 59.0989 13.029 770 117.704 1107.57 482.265
54 0 62.0775 13.8053 857 116.344 1106.84 480.744
55 0 65.0711 14.292 930 114.356 1106.35 478.218
56 0 66.044 13.7484 908 115.639 1106.02 478.656
57 0 69.1439 13.1899 912 117.132 1106.24 478.061
58 0 71.1479 14.1817 1009 114.79 1106.42 475.95
59 0 72.0402 13.4369 968 117.113 1105.95 477.584
60 0 75.0757 13.3465 1002 117.466 1105.67 475.748
61 0 75.082 13.3321 1001 141.269 1105.67 475.712
62 0 81.0905 13.8117 1120 115.524 1106.18 474.107
63 0 85.0969 14.3013 1217 115 1106.15 470.353
64 0 87.1077 13.3283 1161 117.424 1105.39 469.09
65 0 92.0952 13.7358 1265 116.164 1105.34 467.772
66 0 94.0826 13.8708 1305 117.057 1105.35 465.502
67 0 97.0627 13.2183 1283 119.062 1105.41 462.97
68 1 51.0425 11.128 568 118.505 1104.9 488.995
69 0 54.0422 12.2497 662 117.594 1105.21 486.224
70 0 56.0291 12.7969 717 115.28 1105.22 484.512
71 0 59.0302 14.5857 861 110.771 1105.14 483.581
72 0 60.0358 13.0089 781 114.498 1105.26 481.755
73 0 62.1063 13.2676 824 114.653 1104.91 481.735
74 0 66.0671 13.6074 899 112.883 1104.82 479.621
75 0 68.0759 15.0127 1022 109.886 1104.98 478.303
76 0 72.0976 14.9104 1075 109.767 1104.95 479.218
77 0 73.0802 13.8204 1010 114.537 1105.33 477.639
78 0 75.0423 13.6323 1023 115.794 1105.19 475.738
79 0 78.0227 13.9703 1090 115.06 1105.61 473.498
80 0 81.0743 14.6532 1188 113.379 1106.05 472.927
81 0 84.0478 14.3609 1207 113.905 1106.38 471.724
82 0 88.0509 13.9805 1231 113.948 1105.81 470.68
83 0 90.0843 14.2755 1286 113.004 1105.97 469.294
84 0 94.0768 14.5307 1367 113.956 1105.81 465.893
85 0 98.0928 14.9246 1464 114.647 1105.58 462.519
86 0 101.089 14.5912 1475 116.327 1105.63 462.065
87 1 54.0284 11.6976 632 113.278 1105.44 488.908
88 0 53.1364 11.7245 623 111.188 1105.42 489.154
89 0 55.0676 12.2577 675 112.744 1105.24 484.142
90 0 56.0143 11.9077 667 111.766 1105.78 485.333
91 0 59.0415 11.3818 672 111.503 1106.04 487.03
92 0 62.0417 14.0228 870 106.386 1105.25 484.26
93 0 62.0354 12.0415 747 112.493 1105.12 482.876
94 0 65.0955 11.7212 763 113.341 1104.92 480.638
95 0 68.0474 12.1386 826 112.011 1104.87 478.619
96 0 72.1211 13.0336 940 109.007 1104.3 479.654
97 0 75.0514 13.2043 991 108.602 1104.61 477.932
98 0 79.0668 13.7352 1086 107.524 1105.34 474.78
99 0 81.0783 12.9011 1046 111.134 1105.47 473.473
100 0 84.0593 12.3365 1037 113.075 1105.79 470.938
101 0 87.0451 12.5567 1093 112.691 1105.19 468.645
102 0 92.0898 13.5303 1246 109.187 1105.63 467.363
103 0 92.1275 12.8301 1182 109.694 1105.26 466.01
104 1 47.0697 10.8562 511 115.885 1105.61 488.871
105 0 51.1543 11.436 585 117.708 1105.1 488.036
106 0 49.0203 11.7094 574 112.059 1103.8 488.753
107 0 52.0249 12.1096 630 110.729 1104.13 488.93
108 0 54.056 12.4316 672 110.415 1104.63 485.146
109 0 55.0812 11.9279 657 111.429 1104.27 486.12
110 0 56.1125 10.9958 617 113.167 1104.36 484.835
111 0 60.1838 13.2095 795 107.262 1104.22 484.623
112 0 61.2177 11.2549 689 112.599 1104.01 483.592
113 0 65.0847 11.6925 761 110.799 1104.33 482.669
114 0 67.0809 12.7011 852 109.507 1104.61 479.366
115 0 68.1229 12.0958 824 111.019 1103.82 478.608
116 0 70.1006 11.6261 815 113.371 1104.8 477.787
117 0 73.0987 11.7649 860 113.484 1104.7 478.612
118 0 75.0905 11.8657 891 114.578 1105.35 476.524
119 0 79.0928 12.5422 992 113.562 1105.69 476.192
120 0 82.1013 13.6782 1123 112.046 1104.86 471.7
121 0 82.0967 12.1077 994 118.005 1104.48 474.553
122 0 87.1452 13.9996 1220 114.139 1104.27 470.45
123 0 89.0876 12.2688 1093 122.17 1104.91 469.236
124 0 93.058 13.5184 1258 120.337 1104.55 466.378
125 0 94.1511 13.9669 1315 120.754 1105.12 464.404
126 0 97.0921 14.0073 1360 121.401 1104.97 465.19
127 0 100.13 13.5624 1358 124.471 1104.62 461.505
128 0 106.182 13.3355 1416 124.145 1104.86 460.447
129 0 109.098 14.2623 1556 121.569 1105.03 458.386
130 1 59.1032 12.2836 726 117.558 1105.82 483.153
131 0 61.1048 12.3558 755 119.828 1105.06 480.683
132 0 63.2228 13.8083 873 115.873 1104.77 480.598
133 0 63.1164 12.0096 758 120.183 1104.18 482.584
134 0 66.092 12.7852 845 117.961 1104.65 480.109
135 0 70.214 14.4416 1014 121.738 1104.05 480.342
136 0 72.2669 12.952 936 124.139 1104.08 478.712
137 0 74.0708 12.5691 931 117.544 1103.68 475.33
138 0 75.1333 12.0053 902 118.348 1104.25 475.116
139 0 81.0628 12.7432 1033 116.271 1104.47 472.825
140 0 81.0894 11.0989 900 122.127 1104.13 472.463
141 0 85.0764 12.2831 1045 119.583 1103.9 470.101
142 0 88.0532 11.8338 1042 119.966 1103.97 470.912
143 0 93.0901 11.7413 1093 118.901 1104.81 469.891
144 0 96.133 12.0042 1154 119.903 1105.03 466.997
145 0 97.0919 11.5973 1126 123.279 1104.37 462.95
146 0 101.247 13.1461 1331 120.017 1104.45 459.68
147 0 105.193 12.824 1349 121.838 1103.65 457.028
148 1 53.1045 12.3907 658 117.716 1104.26 484.047
149 0 54.0931 12.2382 662 117.569 1104.57 484.961
150 0 55.0505 12.3705 681 119.89 1103.71 481.467
151 0 57.1785 13.1343 751 114.744 1103.88 485.053
152 0 57.1616 12.8408 734 116.907 1104.22 483.301
153 0 61.1456 13.4106 820 115.166 1104.73 482.55
154 0 61.0839 11.2141 685 114.953 1104.43 481.819
155 0 64.0535 12.7862 819 112.446 1104.07 480.159
156 0 66.1433 12.6695 838 113.29 1103.69 479.752
157 0 69.0545 11.7588 812 115.091 1103.56 479.28
158 0 70.1347 12.6614 888 115.533 1103.53 476.804
159 0 72.1425 13.6951 988 113.142 1103.55 475.983
160 0 76.2015 13.3987 1021 113.884 1103.65 475.063
161 0 75.2135 11.4208 859 119.956 1103.98 473.908
162 0 78.1475 12.3996 969 118.307 1104.21 471.248
163 0 83.216 13.5911 1131 114.668 1104.24 470.427
164 0 86.1827 11.9978 1034 118.6 1104.35 468.001
165 0 88.1596 13.623 1201 116.017 1104.42 464.178
166 0 92.1669 13.1609 1213 116.87 1104.43 462.459
167 0 97.0933 12.9566 1258 116.662 1104.78 463.985
168 0 98.3131 12.4093 1220 118.802 1104.74 461.863
169 1 49.1212 10.7693 529 115.724 1105.32 486.93
170 0 49.0472 11.6826 573 116.548 1105.22 485.82
171 0 55.0097 13.6158 749 108.76 1105.27 486.009
172 0 56.057 11.185 627 116.951 1105.29 484.952
173 0 58.0406 11.7849 684 114.826 1104.95 485.728
174 0 59.1857 13.0099 770 113.366 1105.22 481.187
175 0 62.021 12.0443 747 113.625 1105.27 482.862
176 0 63.1205 12.3732 781 114.478 1104.89 480.644
177 0 65.065 12.1417 790 115.28 1104.74 481.849
178 0 70.1422 13.5154 948 113.299 1105 477.363
179 0 72.1337 13.3364 962 113.707 1104.51 477.449
180 0 73.2703 13.0203 954 115.189 1104.11 475.798
181 0 77.1919 13.3304 1029 115.022 1104.87 474.357
182 0 80.1982 14.6013 1171 112.656 1104.63 473.226
183 0 80.2192 13.488 1082 116.2 1105.07 474.68
184 0 80.2192 13.3883 1074 141.81 1106.07 474.686
185 0 86.1493 14.707 1267 115.407 1105.12 469.916
186 0 87.0956 11.8376 1031 122.658 1105.11 469.931
187 0 90.1049 12.0415 1085 123.17 1104.82 464.999
188 0 95.1956 11.5552 1100 123.5 1104.14 464.595
189 0 98.1399 12.4414 1221 122.634 1104.62 460.37
190 0 100.182 11.7287 1175 125.102 1104.38 460.342
191 1 53.1779 14.3857 765 117.465 1104.32 486.388
192 0 54.141 13.0585 707 121.714 1104.22 485.32
193 0 55.1395 14.1641 781 118.408 1104.43 484.729
194 0 56.0742 13.8745 778 120.269 1104.08 482.584
195 0 59.0831 13.2187 781 121.465 1103.75 480.988
196 0 61.2175 13.1988 808 120.75 1104.03 480.309
197 0 64.2373 13.9639 897 117.931 1104.58 478.967
198 0 66.1506 14.6786 971 117.306 1104.19 474.971
199 0 67.2666 13.0823 880 122.106 1104.11 475.949
200 0 68.168 13.6281 929 121.14 1104.11 475.3
201 0 71.3196 14.0775 1004 119.582 1104.58 475.227
202 0 75.2224 13.9719 1051 120.955 1104.47 473.323
203 0 75.2144 13.0693 983 124.459 1104.44 472.14
204 0 78.2765 13.4779 1055 124.104 1104.28 470.314
205 0 82.2359 13.8869 1142 122.888 1104.31 468.644
206 0 85.1431 14.3875 1225 122.117 1104.28 467.096
207 0 87.1685 13.7664 1200 122.48 1104.1 469.072
208 0 89.3182 14.0173 1252 122.397 1103.92 465.51
209 0 94.3699 14.0617 1327 121.453 1104.05 463.821
210 0 97.3857 13.9137 1355 123.172 1104.22 462.99
211 0 100.218 14.9974 1503 123.074 1104.09 458.931
212 1 46.1825 12.7537 589 128.302 1104.57 484.964
213 0 50.3806 13.0407 657 128.702 1103.98 483.088
214 0 53.3133 14.3116 763 124.052 1104.2 483.495
215 0 53.3651 14.3165 764 124.906 1104.22 482.692
216 0 56.1927 15.3757 864 122.743 1103.49 480.391
217 0 59.2241 14.1497 838 123.617 1103.57 481.319
218 0 60.2069 15.7955 951 120.081 1103.52 479.882
219 0 62.3312 15.2732 952 122.133 1103.9 479.266
220 0 64.2871 16.3174 1049 119.728 1103.97 478.326
221 0 66.2716 14.9234 989 124.216 1103.6 476.507
222 0 70.2571 14.5893 1025 123.46 1104.17 476.477
223 0 71.162 15.6825 1116 122.698 1103.37 474.443
224 0 73.4054 15.5166 1139 123.779 1103.84 471.812
225 0 75.3456 15.1303 1140 125.112 1103.91 472.562
226 0 77.3793 15.0557 1165 126.326 1103.63 471.208
227 0 81.2704 14.9993 1219 125.974 1104.1 471.048
228 0 85.2445 16.7166 1425 121.822 1103.82 468.973
229 0 85.4835 15.1257 1293 127.305 1103.94 467.028
230 0 88.2725 15.2822 1349 126.377 1104.22 467.923
231 0 92.2368 16.9455 1563 122.642 1104.65 463.381
232 0 94.2461 15.2049 1433 127.317 1104.45 463.138
233 0 96.286 16.3575 1575 124.437 1104.34 462.185
234 0 101.226 15.2432 1543 126.117 1104.27 461.309
235 0 105.101 15.1854 1596 124.992 1104.5 460.444
236 1 53.1989 13.0266 693 129.55 1104.01 484.534
237 0 54.2341 13.0361 707 132.907 1103.46 481.873
238 0 58.1475 14.2053 826 128.016 1103.98 480.783
239 0 58.1154 14.2303 827 130.649 1104.8 478.439
240 0 62.1868 14.9871 932 127.601 1104.54 478.12
241 0 65.0902 14.2264 926 129.354 1104.35 477.692
242 0 65.1042 14.5459 947 129.486 1104.02 474.691
243 0 69.1691 14.3417 992 128.474 1104.22 475.68
244 0 71.1208 13.695 974 129.701 1104.07 474.291
245 0 72.1103 14.2698 1029 129.788 1104.26 472.412
246 0 77.1122 14.4465 1114 127.739 1103.71 470.84
247 0 79.1992 14.634 1159 127.343 1103.81 469.419
248 0 82.1137 14.6261 1201 126.565 1103.86 467.89
249 0 84.0816 14.2718 1200 127.676 1104.05 466.298
250 0 86.0568 13.7584 1184 129.349 1104.15 462.925
251 0 91.088 13.8437 1261 127.023 1104.04 462.349
252 0 93.0884 13.5463 1261 127.684 1104.35 458.412
253 0 97.1747 14.6026 1419 125.414 1104.73 453.008
254 0 98.2548 13.3225 1309 129.898 1104.41 450.246
255 0 104.26 14.2336 1484 125.271 1104.55 451.378
256 0 108.169 14.0706 1522 125.613 1104.83 447.878
257 1 55.0912 8.82173 486 122.677 1104.49 472.728
258 0 62.059 11.4407 710 116.168 1104.35 478.124
259 0 61.04 9.71494 593 119.005 1104.48 480.874
260 0 63.0415 10.0886 636 119.456 1104.29 478.044
261 0 67.0548 11.7814 790 116.835 1104.89 474.68
262 0 68.1001 10.8076 736 121.053 1104.2 473.489
263 0 71.0425 10.1207 719 121.458 1104.58 473.499
264 0 75.0629 10.751 807 119.123 1103.72 473.112
265 0 74.1023 9.79727 726 120.964 1104.38 474.114
266 0 80.0664 11.9151 954 118.441 1104.11 471.722
267 0 82.073 10.7709 884 123.45 1104.14 468.016
268 1 47.02 9.65547 454 110.07 1104.64 489.48
269 0 49.065 10.8631 533 107.886 1105.82 488.163
270 0 47.0622 10.433 491 126.039 1106.81 489.354
271 0 48.0616 10.4241 501 106.363 1105.84 487.477
272 0 47.0232 9.88874 465 108.432 1105.07 486.785
273 0 48.0357 9.26394 445 108.544 1105.42 488.391
274 0 51.0633 9.18467 469 109.71 1105.18 485.554
275 0 54.0688 9.46941 512 107.229 1105.11 485.324
276 0 53.0474 9.87796 524 108.935 1105.43 482.011
277 0 54.0945 8.07846 437 112.192 1105.59 483.24
278 0 56.0707 8.41794 472 112.46 1105.49 483.292
279 0 58.0322 9.15009 531 111.29 1105.62 484.563
280 0 60.0963 9.15199 550 112.689 1105.23 481.507
281 0 63.1047 9.31785 588 112.293 1106.05 481.003
282 0 65.0819 9.75694 635 112.762 1106.06 478.748
283 0 65.0819 9.74158 634 129.535 1106.06 478.757
284 0 69.0879 9.16224 633 114.972 1105.68 479.074
285 0 73.0979 10.5885 774 112.256 1105.18 474.335
286 0 75.1038 9.06745 681 116.815 1105.85 473.471
287 1 39.0449 9.80921 383 112.593 1106.43 490.822
288 0 39.0132 10.4067 406 107.493 1104.08 490.732
289 0 43.0417 10.7802 464 104.375 1103.98 492.004
290 0 40.036 9.6663 387 111.465 1105.32 490.385
291 0 40.0613 9.08607 364 113.53 1105.48 492.571
292 0 48.1215 8.16682 393 115.178 1105.48 490.349
293 0 47.1006 8.36507 394 116.414 1105.81 489.02
294 0 45.0644 7.07876 319 119.116 1105.76 491.276
295 0 47.0407 9.33235 439 116.993 1106.19 487.872
296 0 49.1211 10.24 503 115.616 1105.4 487.062
297 0 49.2007 10.7519 529 116.319 1105.61 486.425
298 0 50.1069 8.46191 424 120.639 1105.59 487.535
299 0 52.0616 8.66281 451 120.217 1105.1 486.942
300 0 56.039 9.58261 537 116.728 1104.85 485.788
301 0 57.0393 9.85286 562 117.957 1104.96 482.868
302 1 120.49 10.2664 1237 124.091 1103.91 456.001
303 0 122.406 11.805 1445 122.025 1103.93 450.129
304 0 127.539 11.5102 1468 122.427 1103.83 448.852
305 0 132.433 10.1561 1345 125.227 1103.42 445.749
306 0 139.382 11.6299 1621 121.394 1103.69 441.706
307 0 142.291 11.0056 1566 122.784 1103.93 438.153
308 1 69.1906 9.45214 654 123.327 1104.4 479.102
309 0 71.1898 9.91716 706 124.567 1104.91 476.273
310 0 75.2273 10.435 785 121.98 1104.71 476.535
311 1 40.0103 10.1474 406 112.089 1104.38 493.751
312 0 40.0056 9.72364 389 114.656 1104.58 491.846
313 0 41.0198 8.33743 342 118.129 1104.75 491.661
314 0 43.0556 8.87226 382 117.662 1104.75 489.385
315 0 44.0116 9.8156 432 116.343 1104.97 489.792
316 0 48.0374 10.0963 485 113.755 1104.79 487.715
317 0 49.0388 11.3176 555 110.676 1105.19 487.441
318 0 49.0486 9.54156 468 114.558 1105.17 487.237
319 0 51.0102 9.58632 489 113.022 1105.44 488.141
320 0 54.0141 9.14576 494 113.204 1104.65 487.664
321 0 55.0344 10.666 587 111.523 1104.17 485.186
322 0 58.0865 11.173 649 109.022 1104.85 485.569
323 0 57.0419 10.7465 613 111.065 1105.16 485.45
324 0 59.0511 11.3292 669 110.481 1104.61 484.16
325 0 61.0543 10.7282 655 113.427 1103.96 482.441
326 0 63.0828 11.1282 702 111.323 1104.14 482.248
327 0 66.0878 10.7282 709 112.221 1104.15 482.1
328 0 65.2152 10.5497 688 114.379 1104.26 481.487
329 0 69.1264 9.82259 679 114.009 1103.58 481.459
330 0 72.0737 10.5309 759 112.743 1103.52 479.261
331 1 37.0153 10.158 376 110.077 1103.1 495.415
332 0 37.0176 9.69809 359 115.772 1103.82 491.755
333 0 40.0657 10.7823 432 113.836 1104.31 490.007
334 0 42.0196 11.4232 480 111.179 1106.15 490.979
335 0 44.0258 10.3576 456 112 1106.61 491.844
336 0 46.0716 11.8728 547 108.55 1105.41 489.872
337 0 44.0161 11.2913 497 111.98 1105.66 489.74
338 0 45.0572 11.1192 501 112.507 1105.46 489.329
339 0 48.0634 12.0882 581 109.685 1105.09 487.611
340 0 46.0485 10.3586 477 110.377 1103.13 490.874
341 0 46.0218 10.9079 502 110.803 1103.34 488.689
342 0 48.0584 11.4652 551 108.432 1103.33 487.61
343 0 49.0585 10.9257 536 110.476 1103.68 486.289
344 0 52.1066 11.1886 583 108.226 1103.93 487.074
345 0 53.1069 10.2247 543 110.646 1104.47 486.527
346 0 54.0262 11.0872 599 109.017 1104.77 485.711
347 0 54.0748 11.0588 598 110.229 1104.6 484.928
348 0 56.0542 11.81 662 108.903 1103.9 483.779
349 0 60.0758 12.2845 738 106.266 1104.41 483.665
350 0 61.1521 12.15 743 107.253 1104.24 480.88
351 0 62.0236 11.2054 695 109.435 1104.65 482.329
352 0 64.1086 11.7613 754 108.67 1105.28 480.78
353 0 64.0699 11.1129 712 111.07 1105.06 479.809
354 0 68.0749 12.6478 861 108.072 1105.23 477.341
355 0 71.0894 11.4082 811 110.835 1105.29 478.117
356 0 73.0488 12.5396 916 109.709 1105.5 476.436
357 0 77.0634 11.8863 916 110.769 1105.28 475.348
358 0 78.0684 12.3482 964 110.861 1105.26 472.426
359 0 82.0738 13.3051 1092 108.103 1105.47 473.2
360 0 84.0507 12.1474 1021 112.345 1105.08 467.328
361 0 88.0418 11.0175 970 114.031 1105.89 468.799
362 0 91.1268 11.6541 1062 112.382 1105.33 468.46
363 0 93.0877 12.4291 1157 111.647 1105.46 462.932
364 0 100.11 13.0457 1306 107.794 1105.77 463.954
365 1 47.1064 9.27687 437 106.67 1105.79 481.03
366 0 51.0942 11.7039 598 111.846 1105.68 484.247
367 0 51.0644 10.8295 553 106.242 1106.43 487.04
368 0 53.054 11.5166 611 105.619 1106.17 484.668
369 0 55.0326 12.6471 696 102.983 1106.31 483.378
370 0 55.1066 10.271 566 108.694 1106.17 483.622
371 0 58.0177 11.1518 647 106.544 1105.97 482.958
372 0 61.0332 11.6002 708 104.415 1106.2 483.777
373 0 62.0608 11.3276 703 105.575 1105.93 482.612
374 0 68.0965 12.9228 880 100.745 1106.01 480.278
375 0 68.1429 13.7652 938 99.6429 1106.32 479.462
376 0 70.0929 12.6546 887 102.693 1106.4 479.84
377 0 72.1183 13.0064 938 103.203 1106.41 476.622
378 0 75.1028 13.8743 1042 100.652 1106.63 475.587
379 0 78.075 13.6663 1067 101.275 1106.37 474.678
380 0 79.0583 12.4845 987 104.246 1106.11 474.828
381 0 83.1629 13.1789 1096 102.629 1105.72 474.476
382 0 86.2492 14.0871 1215 102.035 1106.05 471.664
383 0 89.0414 12.8929 1148 104.689 1105.75 470.47
384 0 93.0846 13.9658 1300 103.738 1106.45 468.692
385 0 94.1305 13.2476 1247 104.464 1106.34 462.017
386 0 98.0792 13.7236 1346 100.881 1105.56 462.912
387 0 101.156 12.6933 1284 104.141 1106.15 461.594
388 1 55.1035 11.9775 660 101.03 1106.77 485.002
389 0 57.1038 11.8906 679 105.259 1106.53 484.306
390 0 57.0354 13.2725 757 103.822 1106.81 484.499
391 0 61.082 13.6047 831 102.897 1106.78 481.782
392 0 62.0483 14.2953 887 101.947 1107.06 482.349
393 0 64.0405 13.3041 852 105.074 1106.56 479.904
394 0 67.0924 12.848 862 105.065 1106.45 479.962
395 0 68.0762 13.147 895 105.077 1106.47 477.6
396 0 72.0921 13.2192 953 105.442 1106.41 478.04
397 0 71.0709 12.7338 905 108.344 1106.13 476.964
398 0 74.0324 13.5481 1003 107.499 1106.71 475.996
399 0 79.1649 13.794 1092 106.142 1106.34 475.155
400 0 82.1841 14.1633 1164 105.125 1106.11 473.844
401 0 85.1236 14.3791 1224 105.559 1106.09 470.417
402 0 85.1921 13.7924 1175 108.293 1106.7 471.328
403 0 90.1219 13.626 1228 108.559 1106.39 469.48
404 0 93.0835 13.6544 1271 108.053 1106.91 468.777
405 0 96.1902 14.0763 1354 107.16 1106.06 467.822
406 1 53.0254 11.221 595 108.892 1106.47 487.19
407 0 56.157 12.0555 677 104.786 1106.74 488.461
408 0 58.0637 12.7102 738 105.051 1106.53 486.936
409 0 58.1065 12.718 739 105.258 1105.27 483.518
410 0 58.0967 11.9284 693 107.672 1105.84 482.444
411 0 64.1649 13.3095 854 102.518 1106.08 482.022
412 0 66.1082 14.1284 934 100.626 1106.2 480.561
413 0 69.0824 12.1015 836 104.056 1106.19 481.315
414 0 69.0733 12.19 842 106.188 1105.57 478.372
415 0 72.0668 12.8769 928 105.598 1105.98 476.151
416 0 74.1779 12.8475 953 106.127 1105.75 475.581
417 0 78.0901 12.9594 1012 104.978 1105.54 476.343
418 0 81.0676 13.828 1121 104.806 1105.29 472.925
419 0 82.1226 13.2607 1089 107.695 1105.34 470.842
420 0 87.0829 12.4824 1087 109.445 1105.11 472.173
421 0 90.1234 13.7256 1237 107.383 1105.13 469.169
422 0 92.1078 12.3877 1141 111.568 1105.55 468.143
423 1 48.0521 11.2378 540 109.207 1105.68 490.5
424 0 49.0323 11.1967 549 109.455 1105.46 490.712
425 0 51.0369 11.6974 597 108.181 1105.79 488.752
426 0 52.0328 12.8188 667 107.114 1105.58 487.787
427 0 56.097 14.2254 798 102.714 1105.28 485.93
428 0 57.0181 12.9783 740 106.776 1104.83 485.177
429 0 59.0237 12.9609 765 107.039 1105.54 485.82
430 0 59.077 13.457 795 106.986 1105.54 483.003
431 0 61.1062 12.6665 774 109.239 1105.43 484.403
432 0 63.0813 13.5222 853 106.048 1105.97 482.698
433 0 63.1145 12.3426 779 110.312 1105.92 480.099
434 0 68.0814 12.4851 850 107.825 1104.98 480.086
435 0 69.0857 12.0864 835 110.198 1105.42 480.304
436 0 71.0568 13.074 929 108.397 1105.89 480.052
437 0 74.0806 12.6619 938 109.93 1106.07 474.818
438 0 77.1038 13.0473 1006 109.386 1105.5 474.227
439 0 79.092 12.1378 960 110.668 1105.23 473.859
440 0 82.1686 13.4845 1108 108.083 1105.72 472.31
441 0 85.1746 12.6798 1080 110.756 1105.71 471.078
442 0 87.2387 12.3913 1081 111.486 1105.67 470.522
443 1 44.0836 11.206 494 110.227 1105.1 491.249
444 0 45.1066 10.6858 482 108.102 1105.67 491.272
445 0 45.2147 10.0189 453 108.848 1105.95 488.139
446 0 48.1908 11.5997 559 112.53 1106.14 487.224
447 0 48.1566 10.7981 520 114.1 1106.16 489.167
448 0 49.1507 10.6611 524 115.454 1106 486.029
449 0 53.0937 11.847 629 110.046 1106.19 485.49
450 0 56.2116 10.4605 588 83.9235 1105.75 484.951
451 0 53.1554 10.3282 549 113.865 1106.05 484.965
452 0 55.1519 11.151 615 113.133 1106.34 482.748
453 0 58.1361 10.2518 596 114.062 1105.44 481.508
454 0 61.1391 10.5497 645 113.35 1106.19 481.405
455 0 63.1572 10.7985 682 113.113 1106.29 478.83
456 0 66.1222 12.4769 825 109.879 1106.96 478.113
457 0 67.1768 10.2119 686 114.641 1106.78 479.867
458 0 71.1395 12.5809 895 109.87 1106.82 476.84
459 0 75.0629 11.5103 864 112.071 1106.63 475.875
460 0 76.1288 11.8877 905 112.961 1106.79 474.948
461 0 78.0921 11.5761 904 114.222 1106.7 473.092
462 0 79.1232 11.1977 886 116.121 1105.87 471.836
463 1 40.0101 9.12269 365 113.214 1105.41 490.592
464 0 42.0245 9.63723 405 111.911 1105.62 491.926
465 0 44.0139 9.24707 407 113.521 1105.71 490.312
466 0 44.0162 11.4276 503 108.245 1106.82 489.722
467 0 47.0513 11.2005 527 107.814 1107.59 488.939
468 0 50.0897 10.8605 544 110.901 1107.76 488.757
469 0 50.0403 10.6914 535 113.951 1108.28 485.434
470 0 51.0937 11.5865 592 110.858 1107.61 486.336
471 0 56.1058 12.316 691 108.896 1107.67 487.262
472 0 56.0579 13.2363 742 108.52 1107.37 484.922
473 0 57.0984 12.2595 700 110.909 1106.92 485.181
474 0 58.1269 12.5931 732 109.923 1107.03 484.723
475 0 60.1452 12.553 755 112.294 1106.81 484.128
476 0 61.0807 12.8191 783 111.839 1107.26 481.273
477 0 63.0782 12.8729 812 113.026 1106.98 481.954
478 0 65.0882 13.4433 875 112.406 1106.74 478.651
479 0 69.1034 12.8648 889 112.348 1106.93 478.871
480 0 71.0784 13.1545 935 112.216 1106.78 474.819
481 0 72.1581 12.8052 924 113.984 1107.24 474.759
482 0 76.0989 12.1158 922 114.62 1107.39 474.441
483 0 79.1602 12.8095 1014 112.869 1105.73 469.908
484 0 82.1251 13.5281 1111 111.446 1104.8 470.564
485 1 41.036 9.35764 384 113.62 1104.74 488.823
486 0 42.0361 9.84869 414 112.527 1104.77 487.645
487 0 44.0256 9.92605 437 109.842 1104.96 487.771
488 0 42.0192 10.4 437 112.181 1105.59 491.261
489 0 45.0226 10.3282 465 111.566 1104.12 489.783
490 0 46.1064 10.4107 480 112.5 1104.66 488.929
491 0 48.0491 10.5517 507 111.949 1104.44 488.055
492 0 50.0236 11.8944 595 108.657 1105.32 488.968
493 0 51.1075 11.0356 564 111.098 1104.79 488.411
494 0 51.0589 10.8502 554 111.697 1105.19 488.931
495 0 53.0543 10.1783 540 113.18 1104.8 486.472
496 0 54.1094 10.7005 579 112.373 1105.03 486.921
497 0 56.1068 10.9434 614 111.738 1104.89 485.565
498 0 57.1089 10.7164 612 112.479 1105.45 484.093
499 0 61.055 11.0229 673 111.563 1104.91 482.1
500 0 62.0476 10.8465 673 114.698 1105.64 481.617
501 0 64.0687 11.4877 736 116.448 1105.86 482.068
502 0 67.0526 11.573 776 117.249 1105.91 480.754
503 0 68.1321 11.7713 802 117.763 1105.87 479.44
504 0 70.1289 10.7231 752 120.415 1105.84 479.472
505 0 73.0816 11.5761 846 117.831 1105.59 479.188
506 0 77.2037 11.9165 920 118.507 1106.23 476.117
507 0 77.1077 10.4789 808 122.593 1105.86 476.49
508 0 80.1684 12.2118 979 120.067 1105.86 472.586
509 1 178.249 15.0688 2686 117.009 1106.06 430.43
510 1 89.1661 12.9646 1156 115.441 1106.54 472.39
511 1 47.0292 10.8018 508 116.098 1105.62 492.656
512 0 46.0132 10.8664 500 121.598 1105.67 490.678
513 0 50.0654 12.3638 619 115.213 1105.64 489.565
514 0 51.1665 14.2281 728 114.606 1106.58 487.547
515 0 52.1583 12.7497 665 118.451 1106.68 488.023
516 0 52.1855 12.2831 641 120.379 1105.99 487.683
517 0 53.2232 12.6824 675 119.686 1105.66 487.062
518 0 56.1005 13.8323 776 115.804 1106.31 487.285
519 0 58.1931 13.5927 791 116.545 1105.77 484.559
520 0 58.1931 13.6614 795 134.594 1105.77 484.576
521 0 59.1162 12.9745 767 118.627 1105.87 483.897
522 0 62.0797 14.3042 888 114.391 1105.81 482.446
523 0 65.1376 12.9572 844 116.627 1104.95 482.851
524 0 66.1251 14.034 928 115.77 1105.25 480.244
525 0 67.1199 12.6639 850 119.791 1105.94 480.822
526 0 69.0838 12.4052 857 120.277 1105.86 480.544
527 0 73.166 13.2439 969 117.765 1105.46 477.216
528 0 76.0778 13.1182 998 117.033 1105.62 478.116
529 0 77.1624 13.3873 1033 116.606 1105.6 476.422
530 0 80.2527 14.1179 1133 115.113 1105.69 473.54
531 0 80.165 12.1874 977 119.205 1105.08 472.631
532 0 83.1012 13.0804 1087 113.57 1104.61 470.09
533 0 84.1578 12.0607 1015 116.222 1105.03 471.258
534 0 89.2049 13.6652 1219 111.328 1105.5 472.769
535 1 49.0645 11.7193 575 115.249 1104.19 487.628
536 0 52.0831 12.6336 658 113.65 1104.59 488.491
537 0 53.0552 13.2126 701 112.603 1104.34 486.74
538 0 53.0957 12.8636 683 106.602 1105.01 486.117
539 0 53.0559 12.1004 642 109.6 1104.87 485.463
540 0 57.0839 12.7006 725 107.149 1104.83 486.935
541 0 58.058 12.9353 751 107.145 1105.12 485.21
542 0 60.0539 12.4888 750 109.14 1105.26 483.276
543 0 63.0397 12.2463 772 109.76 1105.39 481.707
544 0 64.0822 13.4359 861 108.072 1104.9 480.019
545 0 65.167 12.3989 808 111.109 1105.26 480.877
546 0 71.0463 13.8642 985 106.715 1105.21 480.135
547 0 72.0686 13.3761 964 111.114 1105.35 477.334
548 0 75.0897 13.8102 1037 110.29 1105.99 478.23
549 0 76.0853 14.0237 1067 110.569 1105.36 476.829
550 0 79.1224 13.5486 1072 112.035 1106.03 474.228
551 0 83.1056 13.4528 1118 112.692 1105.55 473.432
552 0 87.0957 14.5013 1263 109.69 1106.3 471.575
553 0 90.1386 13.5347 1220 112.927 1105.37 471.175
554 0 91.1001 13.2492 1207 115.405 1105.83 466.712
555 1 44.0507 12.2132 538 140.437 1105.35 491.074
556 0 48.0709 13.7713 662 111.663 1105.55 490.693
557 0 49.0709 12.3699 607 115.554 1105.78 490.722
558 0 51.0575 13.3967 684 111.988 1104.96 490.863
559 0 51.1263 12.9874 664 114.901 1105.5 488.782
560 0 53.0836 15.0706 800 109.216 1104.78 488.215
561 0 56.1197 13.3286 748 113.332 1105.28 488.885
562 0 58.0892 12.894 749 115.04 1105.66 487.107
563 0 60.0561 13.221 794 113.912 1105.61 486.402
564 0 62.0663 13.7756 855 113.276 1105.49 485.613
565 0 63.0488 13.5292 853 114.953 1105.94 483.882
566 0 65.0559 12.0204 782 119.39 1105.63 484.455
567 0 68.0622 13.4289 914 116.106 1105.51 480.979
568 0 72.0348 13.9932 1008 113.589 1105.7 480.386
569 0 74.0475 13.2888 984 116 1105.86 480.16
570 0 76.084 14.1423 1076 113.638 1105.61 478.168
571 1 36.0389 10.8772 392 117.143 1105.78 496.11
572 0 38.0189 11.0734 421 116.012 1105.14 496.648
573 0 40.053 12.3836 496 114.585 1105.26 496.27
574 0 42.0512 12.8891 542 114.452 1104.92 495.083
575 0 43.0354 13.1055 564 114.943 1105 493.918
576 0 42.0662 13.1222 552 117.498 1105.34 493.299
577 0 45.0789 13.1104 591 116.506 1105.15 492.491
578 0 46.0684 12.6985 585 117.815 1105.31 492.4
579 0 48.0624 13.2536 637 116.473 1105.65 492.094
580 0 50.0635 13.3431 668 117.192 1105.37 490.626
581 0 50.0523 13.5259 677 118.495 1105.49 490.418
582 0 54.0489 13.0808 707 118.453 1105.36 489.076
583 0 54.0456 13.3961 724 119.291 1106.05 488.92
584 0 54.0156 13.4035 724 121.838 1105.65 487.825
585 0 57.0273 13.4146 765 123.417 1105.69 487.252
586 0 58.0326 12.9755 753 126.137 1105.18 485.644
587 0 59.0353 14.0594 830 124.883 1105.33 485.13
588 0 62.0387 13.5883 843 126.065 1105.72 485.254
589 0 63.1156 13.2931 839 128.241 1105.51 484.754
590 0 67.0674 13.4641 903 126.351 1105.38 483.24
591 0 70.016 13.7969 966 125.709 1105.2 482.156
592 0 72.075 13.5553 977 126.855 1105.67 480.654
593 0 72.1042 13.6469 984 128.371 1105.5 478.629
594 0 77.0441 13.6935 1055 126.785 1105.48 477.449
595 0 80.0871 13.0483 1045 128.754 1105.37 477.087
596 0 83.0947 14.6098 1214 124.397 1106.08 474.95
597 1 42.052 12.0803 508 133.524 1106.48 493.736
598 0 46.0443 13.4002 617 127.402 1106.43 493.765
599 0 48.0457 12.5089 601 128.894 1105.51 491.374
600 0 50.0525 13.4659 674 125.185 1105.37 490.858
601 0 52.1301 12.1043 631 128.816 1105.04 490.783
602 0 53.0929 13.4293 713 126.153 1105.35 490.38
603 0 53.1192 12.5002 664 130.155 1105.13 488.47
604 0 57.0658 12.8448 733 127.742 1105.41 486.254
605 0 59.122 14.191 839 123.185 1105.26 485.718
606 0 59.1273 14.2066 840 136.902 1106.27 485.713
607 0 62.0377 12.7342 790 128.887 1105.5 484.349
608 0 65.0807 13.7983 898 126.384 1105.69 483.445
609 0 66.0463 13.1726 870 128.755 1105.79 482.992
610 0 70.0381 14.6349 1025 125.265 1105.93 482.035
611 0 72.2179 13.8747 1002 126.618 1105.04 481.534
612 0 76.0731 13.8288 1052 126.672 1105.5 479.804
613 0 75.0502 13.4177 1007 130.506 1105.26 476.472
614 0 80.0876 12.5613 1006 132.482 1105.11 476.629
615 0 81.0966 13.2311 1073 131.205 1104.82 476.677
616 0 83.0928 12.9734 1078 132.803 1104.77 474.631
617 1 43.1238 11.7568 507 134.436 1105.61 494.162
618 0 44.082 12.4314 548 132.996 1105.24 492.892
619 0 47.0333 13.0546 614 131.98 1106.12 492.008
620 0 45.0092 13.1751 593 130.152 1106.1 491.582
621 0 51.0194 13.8575 707 123.607 1105.18 490.304
622 0 49.0979 13.6869 672 127.315 1105.17 489.768
623 0 52.0994 13.3015 693 126.238 1104.77 490.345
624 0 54.0815 13.2023 714 126.223 1104.77 488.936
625 0 56.0388 13.223 741 126.124 1104.72 489.005
626 0 59.0912 13.403 792 124.622 1104.85 486.402
627 0 60.068 13.0352 783 127.328 1104.82 485.573
628 0 62.042 12.3304 765 129.924 1105.19 484.774
629 0 63.036 13.2305 834 129.32 1104.81 484.343
630 0 69.0349 13.1673 909 127.608 1104.62 483.376
631 0 70.0899 13.5112 947 128.458 1104.68 481.115
632 0 71.0707 13.1841 937 131.27 1104.59 479.381
633 0 76.0653 13.896 1057 127.437 1105.05 480.219
634 0 76.0703 12.357 940 133.118 1104.81 478.36
635 0 79.1422 12.6734 1003 132.55 1104.79 476.247
636 0 83.1021 13.0201 1082 131.598 1104.49 475.561
637 1 45.1046 10.8858 491 130.316 1107.24 490.1
638 0 45.0943 10.1122 456 120.434 1106.53 491.417
639 0 49.0389 12.8877 632 128.394 1104.36 490.723
640 0 51.0685 13.8637 708 126.13 1105.15 490.914
641 0 51.0799 13.3908 684 129.879 1105.94 489.423
642 0 53.0246 13.2014 700 130.541 1106.32 488.039
643 0 55.0267 12.3576 680 131.982 1106.5 488.168
644 0 55.0311 12.4112 683 132.523 1105.84 484.95
645 0 57.0385 12.4127 708 131.654 1105.85 486.318
646 0 60.0479 13.4393 807 127.436 1105.77 483.675
647 0 64.0237 13.1045 839 126.807 1106.02 483.855
648 0 66.044 12.628 834 127.085 1105.99 481.853
649 0 70.0669 13.5014 946 123.98 1105.91 481.08
650 0 70.0362 12.9076 904 125.5 1105.69 478.912
651 0 74.0604 13.5835 1006 122.654 1105.48 476.684
652 0 77.1502 13.7913 1064 122.257 1105.05 474.46
653 0 77.0576 12.03 927 127.913 1104.72 473.848
654 0 83.0609 13.159 1093 122.716 1105.02 472.778
655 0 84.1308 12.1121 1019 125.897 1105.62 469.291
656 0 88.0815 13.374 1178 121.154 1105.95 469.532
657 0 91.0491 13.4653 1226 121.086 1105.15 468.188
658 0 92.1135 12.7234 1172 122.3 1105.11 465.558
659 0 95.111 11.8809 1130 118.37 1105.3 466.757
660 0 99.1105 11.6234 1152 117.078 1105.44 465.865
661 0 104.129 12.5229 1304 114.121 1105.66 463.566
662 1 55.0217 10.3232 568 115.873 1106.3 485.761
663 0 55.0881 10.7283 591 114.083 1106 484.738
664 0 56.1494 11.1488 626 104.644 1104.27 484.411
665 0 60.0499 11.9234 716 101.063 1104.16 483.709
666 0 62.1281 11.5729 719 100.662 1103.6 484.063
667 0 65.0989 13.2107 860 97.614 1104.34 481.281
668 0 68.0839 12.8077 872 97.5619 1104.16 480.252
669 0 68.1157 11.5979 790 101.185 1104.08 479.933
670 0 70.0769 11.8156 828 101.886 1104.33 478.38
671 0 72.072 11.544 832 102.486 1104.17 476.498
672 0 75.1059 11.77 884 102.675 1103.93 477.698
673 0 79.0647 12.7617 1009 100.561 1104.37 475.185
674 0 83.1032 13.8262 1149 98.0653 1104.41 474.624
675 0 84.1504 12.0974 1018 102.766 1104.64 470.889
676 0 89.2589 12.0324 1074 102.89 1105.26 472.631
677 0 90.1379 12.4143 1119 103.249 1104.93 469.084
678 0 96.1111 12.7457 1225 101.845 1104.92 467.78
679 0 97.1182 11.728 1139 103.734 1104.28 463.45
680 1 51.0335 11.8158 603 101.57 1103.93 490.957
681 0 52.0385 11.0303 574 104.639 1104.42 488.118
682 0 56.0501 12.5245 702 103.071 1104.1 487.657
683 0 57.0921 11.7705 672 105.022 1105.62 486.348
684 0 58.1458 11.2992 657 105.922 1105.38 483.84
685 0 63.1192 13.2765 838 99.9773 1105.65 485.335
686 0 63.0988 12.0288 759 104.082 1105.28 484.209
687 0 66.3115 12.4564 826 103.262 1105.45 482.702
688 0 68.2847 12.155 830 103.837 1105.61 481.517
689 0 71.2576 13.8792 989 101.325 1104.93 479.256
690 0 74.4656 13.429 1000 103.099 1105.1 476.38
691 0 75.2171 12.4307 935 104.075 1105.62 476.321
692 0 78.1005 12.7656 997 103.518 1105.58 475.195
693 0 79.286 12.7765 1013 103.83 1105.21 473.529
694 0 84.1983 13.7176 1155 100.668 1104.97 472.019
695 1 40.0449 8.79013 352 104.199 1105.89 490.355
696 0 43.0664 11.0527 476 98.0651 1105.45 489.637
697 0 43.0493 11.2197 483 102.306 1105.51 489.337
698 0 42.0828 10.7883 454 106.035 1105.57 486.524
699 0 45.04 10.1909 459 106.057 1105.49 487.405
700 0 45.0668 10.1627 458 107.969 1105.64 486.926
701 0 49.0341 13.7659 675 100.058 1105.1 486.001
702 0 51.067 11.1226 568 106.092 1105.39 485.919
703 0 51.1144 10.7993 552 107.857 1105.39 485.179
704 0 54.0139 11.3304 612 107.206 1105.4 484.456
705 0 55.1035 12.0863 666 107.06 1105.04 483.757
706 0 55.0504 11.1897 616 109.308 1106.13 484.073
707 0 56.0895 12.4622 699 108.628 1105.77 482.765
708 0 60.1458 11.8213 711 110.114 1106.04 481.129
709 0 62.1149 13.3784 831 105.402 1105.73 479.457
710 0 64.0563 12.9574 830 107.489 1106.07 480.458
711 0 66.1192 12.4321 822 108.911 1106.16 478.82
712 0 68.0961 13.3194 907 106.986 1106.35 478.749
713 0 67.0396 12.3957 831 111.149 1105.79 477.675
714 0 71.0459 12.0767 858 111.155 1105.8 476.252
715 0 75.1722 13.5954 1022 106.436 1105.3 475.759
716 0 79.0697 14.0003 1107 105.937 1105.57 473.762
717 0 78.0339 10.6364 830 115.16 1105.5 472.164
718 0 81.1072 12.28 996 112.201 1105.64 469.472
719 0 83.1184 11.7062 973 113.212 1105.79 469.491
720 0 89.0759 12.3266 1098 111.893 1106.35 468.217
721 0 92.1145 12.3433 1137 112.217 1105.59 464.513
722 0 93.2007 11.8561 1105 114.644 1105.35 465.062
723 1 49.0597 11.2924 554 112.403 1104.61 491.02
724 0 52.0544 12.0259 626 111.842 1106.23 488.685
725 0 54.1137 13.4901 730 108.864 1106.37 487.044
726 0 53.064 12.5697 667 111.622 1106.76 486.039
727 0 54.0724 12.3168 666 113.143 1106.65 485.55
728 0 56.0562 13.1832 739 111.169 1106.38 485.48
729 0 60.101 13.4773 810 109.973 1106.44 484.969
730 0 60.1173 13.1243 789 111.215 1106.53 483.772
731 0 62.0626 12.294 763 112.738 1105.94 482.853
732 0 66.0901 12.6948 839 110.886 1106.06 483.538
733 0 69.0775 14.6647 1013 106.178 1105.64 479.783
734 0 69.1009 12.46 861 112.613 1106.13 479.135
735 0 72.1176 12.0498 869 113.03 1105.64 480.245
736 0 76.0857 13.3008 1012 110.14 1106.14 479.756
737 0 77.0825 12.8823 993 112.118 1105.56 475.654
738 0 81.0541 11.4121 925 114.259 1105.95 477.596
739 0 84.0828 12.226 1028 111.86 1105.8 476.071
740 0 88.1187 12.9484 1141 110.951 1106.08 473.445
741 1 45.2252 10.8789 492 117.274 1105.27 491.549
742 0 48.0382 11.0745 532 116.305 1103.93 490.684
743 0 49.0196 11.0568 542 115.1 1103.29 491.738
744 0 53.0308 11.861 629 112.687 1103.31 489.555
745 0 53.0154 12.2983 652 112.156 1103.82 488.236
746 0 54.0206 13.1431 710 111.144 1103.94 486.632
747 0 55.0356 12.1739 670 112.842 1104.27 488.279
748 0 58.0438 13.6104 790 109.716 1104.18 485.925
749 0 58.0684 11.8998 691 114.957 1103.96 484.984
750 0 62.0867 12.5953 782 111.801 1103.99 483.714
751 0 63.0511 12.6247 796 113.955 1104.43 480.894
752 0 66.1111 11.3294 749 116.126 1104.15 483.023
753 0 68.2234 12.1806 831 113.881 1103.84 481.99
754 0 70.045 12.492 875 115.294 1103.91 477.902
755 0 73.1051 12.5025 914 114.728 1104.14 478.504
756 0 75.1467 13.2008 992 114.815 1103.94 477.729
757 0 77.1103 13.6687 1054 115.287 1104.03 475.159
758 1 42.1038 10.2841 433 117.573 1104.03 492.792
759 0 43.1 10.5337 454 118.231 1104.31 491.344
760 0 45.0205 12.2611 552 111.813 1103.84 492.601
761 0 47.143 12.1121 571 111.532 1105.33 493.019
762 0 46.022 12.255 564 111.144 1103.81 492.709
763 0 49.017 12.6079 618 108.4 1104.86 491.451
764 0 51.0141 13.0552 666 107.883 1105.17 490.063
765 0 52.0489 12.3346 642 109.701 1106.38 490.243
766 0 53.0997 12.2411 650 110.272 1105.19 489.075
767 0 56.0281 11.5121 645 112.031 1104.69 489.146
768 0 55.1258 13.6052 750 108.321 1105.64 488.255
769 0 56.0397 11.2956 633 115.137 1104.55 487.439
770 0 57.1188 11.1872 639 116.953 1104.63 484.495
771 0 61.1806 11.4742 702 114.791 1104.52 485.178
772 0 65.04 12.7768 831 111.286 1103.37 482.839
773 0 67.0257 12.9055 865 110.831 1103.74 482.234
774 0 67.0692 12.3753 830 113.145 1104.09 480.783
775 0 71.1051 11.7994 839 112.899 1104.59 481.25
776 0 73.09 11.4106 834 114.674 1103.99 478.646
777 0 78.0679 12.4507 972 112.865 1104.42 476.437
778 0 77.1171 11.1648 861 117.122 1104.63 474.329
779 1 43.0126 10.5086 452 116.761 1104.04 491.159
780 0 46.0529 10.9222 503 113.237 1104.32 490.891
781 0 47.1042 13.1623 620 109.566 1104.58 489.706
782 0 48.1141 11.2649 542 115.991 1107.11 490.705
783 0 48.0671 10.8806 523 117.811 1107.03 490.377
784 0 51.0656 12.905 659 113.074 1106.7 488.736
785 0 52.0461 12.3544 643 114.754 1106.16 489.754
786 0 54.0286 12.1972 659 115.278 1106.49 489.22
787 0 54.0324 12.0853 653 117.106 1106.64 488.014
788 0 57.0783 11.9485 682 115.837 1106.37 487.626
789 0 58.0964 12.4793 725 115.171 1106.29 485.887
790 0 59.1834 12.5542 743 115.209 1106.75 486.179
791 0 62.1003 14.4766 899 110.582 1106.84 485.493
792 0 63.0872 13.521 853 114.413 1106.99 485.07
793 0 62.3098 13.0317 812 115.998 1106.84 483.664
794 0 64.1357 13.6274 874 115.882 1106.67 481.07
795 0 69.2005 13.5115 935 114.447 1106.74 481.954
796 0 68.1473 13.6909 933 115.686 1106.82 479.295
797 0 71.1808 13.4306 956 115.542 1106.11 479.4
798 0 73.1892 14.2234 1041 114.309 1105.81 477.521
799 0 74.1527 12.1776 903 118.699 1106.26 477.771
800 0 79.1729 13.5147 1070 115.285 1105.68 475.29
801 0 81.2442 13.9825 1136 115.174 1105.26 473.4
802 0 83.2805 12.8722 1072 118.114 1105.77 473.898
803 1 42.2578 10.9329 462 113.561 1104.56 493.056
804 0 42.0318 11.9433 502 106.675 1106.1 494.022
805 0 42.1604 11.3139 477 110.208 1106.61 493.778
806 0 45.1974 13.4521 608 105.01 1106.44 491.77
807 0 48.0221 13.3272 640 105.32 1106.15 492.086
808 0 49.0132 12.9353 634 106.462 1106.52 491.021
809 0 49.12 13.294 653 107.153 1106.5 490.142
810 0 50.0408 12.9494 648 108.372 1106.34 490.279
811 0 51.0589 12.3191 629 110.97 1105.62 488.383
812 0 54.0591 14.3362 775 104.883 1105.76 489.541
813 0 57.0557 13.776 786 105.8 1105.92 489.532
814 0 56.0895 12.9079 724 110.151 1105.43 487.017
815 0 59.0734 13.4578 795 107.462 1106.06 486.567
816 0 61.0524 13.513 825 107.839 1105.39 484.575
817 0 65.0713 13.3085 866 107.076 1105.48 484.76
818 0 66.0659 13.6682 903 108.017 1105.67 484.41
819 0 65.0695 12.3714 805 112.155 1105.61 482.497
820 0 69.1763 12.75 882 111.178 1106.01 481.389
821 0 72.0858 14.0943 1016 107.016 1106.1 480.406
822 0 73.1268 13.4151 981 109.897 1106.21 479.007
823 0 77.0781 13.4409 1036 109.699 1106.07 477.505
824 0 79.0802 13.8341 1094 109.355 1106.21 478.058
825 0 81.0897 12.665 1027 111.769 1105.16 476.034
826 0 81.0897 12.6157 1023 140.001 1104.18 475.915
827 0 88.0784 12.6705 1116 111.14 1105.45 471.698
828 0 91.0431 12.7961 1165 110.909 1104.73 473.134
829 0 92.1325 13.0139 1199 112.314 1104.25 466.685
830 1 49.0239 11.1986 549 110.905 1104.59 492.421
831 0 51.0362 12.0895 617 108.752 1104.64 489.566
832 0 52.0918 12.3628 644 109.056 1106.32 489.553
833 0 53.0815 11.3411 602 110.786 1105.71 488.143
834 0 53.0888 11.3395 602 123.879 1104.69 488.211
835 0 57.0931 11.49 656 108.954 1105.59 486.425
836 0 60.0264 11.295 678 108.127 1105.33 484.975
837 0 60.143 11.6389 700 108.081 1105.11 485.306
838 0 63.0355 12.3105 776 106.43 1104.39 484.32
839 0 65.0663 11.0349 718 109.517 1104.19 483.89
840 0 65.046 11.6687 759 109.447 1104.9 481.769
841 0 70.0392 13.2212 926 106.279 1104.52 479.947
842 0 73.1165 12.6374 924 107.773 1104.75 478.934
843 0 75.0483 11.0329 828 111.893 1104.22 479.004
844 0 77.0671 11.6781 900 109.96 1104.6 478.11
845 0 81.0685 12.4956 1013 108.989 1105.17 477.358
846 0 84.1314 12.4567 1048 109.501 1105.86 474.148
847 0 86.1472 12.6876 1093 109.587 1105.62 470.437
848 0 89.0874 11.4943 1024 111.892 1105.05 473.116
849 1 46.0191 11.0606 509 113.931 1105.98 490.961
850 0 51.0558 13.1033 669 107.607 1104.25 489.149
851 0 51.0375 12.3634 631 109.347 1104.77 488.724
852 0 51.0347 11.3648 580 110.966 1103.69 488.438
853 0 56.0314 12.6536 709 108.426 1104.52 487.357
854 0 56.0564 11.3457 636 111.64 1103.66 486.401
855 0 60.1672 12.0996 728 109.305 1102.89 485.091
856 0 63.0562 12.0686 761 110.127 1103.03 484.725
857 0 63.0669 13.5253 853 108.95 1102.87 482.022
858 0 66.029 11.9039 786 113.065 1102.93 481.949
859 0 67.0164 11.6539 781 113.832 1102.93 481.283
860 0 71.0615 12.4399 884 112.378 1102.73 480.554
861 0 74.0784 12.7028 941 113.875 1102.73 478.501
862 0 77.067 13.0276 1004 114.92 1103.6 477.649
863 0 80.1048 12.5585 1006 116.04 1103.61 476.145
864 0 83.1799 13.7052 1140 115.023 1103.08 474.761
865 0 87.1086 13.2708 1156 115.455 1103.58 474.453
866 0 89.0235 12.7944 1139 118.373 1103.69 472.694
867 0 91.0958 13.5462 1234 117.543 1103.69 471.771
868 1 49.0283 12.197 598 119.967 1103.99 491.191
869 0 50.0402 12.9696 649 117.51 1103.59 489.391
870 0 53.0294 13.3322 707 113.958 1105.23 489.857
871 0 54.0687 14.5371 786 110.286 1105.76 490.57
872 0 56.0428 13.9179 780 113.508 1105.56 488.568
873 0 56.1132 12.849 721 117.295 1105.93 488.976
874 0 58.0475 14.2125 825 112.167 1105.33 484.64
875 0 60.1146 13.4077 806 114.684 1104.73 485.356
876 0 64.0915 13.6368 874 112.727 1105.74 484.754
877 0 64.0662 14.5631 933 112.951 1105.85 486.043
878 0 65.1381 13.3562 870 117.028 1105.3 483.746
879 0 67.1255 13.6759 918 117.064 1104.91 481.541
880 0 70.1776 13.5086 948 117 1104.95 480.987
881 0 72.1022 13.7999 995 116.845 1104.93 479.939
882 0 74.0687 14.6756 1087 116.297 1105.86 479.941
883 0 77.1519 14.439 1114 118.145 1105.29 477.288
884 0 78.0666 14.0905 1100 120.204 1104.89 474.467
885 0 83.0815 14.9251 1240 117.178 1105.08 474.513
886 0 84.2579 13.1026 1104 123.651 1105.52 474.956
887 0 87.1393 13.2317 1153 124.235 1105.56 472.281
888 1 46.0712 11.3737 524 124.605 1105.56 490.979
889 0 49.1093 12.5842 618 121.519 1103.83 489.723
890 0 53.0619 12.5702 667 121.864 1103.35 490.33
891 0 52.0129 12.593 655 115.571 1104.03 490.51
892 0 54.1015 11.9775 648 119.381 1104.09 490.61
893 0 56.049 12.5069 701 119.629 1103.56 488.053
894 0 58.0848 13.9451 810 115.99 1104.02 487.493
895 0 58.0531 12.0235 698 122.705 1104.17 485.534
896 0 60.0407 12.5415 753 120.317 1104.31 487.579
897 0 63.0676 12.9702 818 120.912 1104.11 484.29
898 0 65.0867 12.7061 827 121.813 1103.64 483.3
899 0 66.0959 11.9826 792 124.515 1103.96 482.52
900 0 70.1853 13.6068 955 120.798 1103.81 480.049
901 0 72.2204 13.1265 948 122.59 1103.59 479.866
902 0 74.2169 13.9052 1032 122.361 1103.17 480.055
903 0 76.1327 13.332 1015 125.7 1103.37 477.652
904 0 80.1617 14.9198 1196 121.311 1103.85 476.202
905 0 82.2094 13.1493 1081 126.579 1103.15 476.473
906 0 86.1981 14.165 1221 123.634 1103.86 474.321
907 0 88.086 12.4537 1097 129.338 1103.93 470.522
908 0 91.151 13.549 1235 126.626 1104.08 469.946
909 1 49.0643 13.2683 651 126.041 1103.86 491.005
910 0 52.1094 13.5868 708 122.703 1104.27 490.147
911 0 51.0428 11.6961 597 127.693 1103.92 489.02
912 0 52.0999 12.3225 642 126.597 1103.6 487.125
913 0 58.0419 12.7322 739 121.851 1103.9 487.648
914 0 57.1014 13.0119 743 123.176 1103.29 485.498
915 0 59.1367 13.9338 824 119.006 1103.95 486.316
916 0 61.0887 11.9826 732 125.137 1103.31 484.765
917 0 65.0795 14.3363 933 117.412 1103.36 483.891
918 0 65.1253 12.1612 792 123.951 1103.42 484.348
919 0 69.176 13.1115 907 121.725 1103.77 480.527
920 0 70.171 12.7261 893 124.682 1103.59 479.431
921 0 75.1816 13.647 1026 120.761 1103.9 480.623
922 0 77.1984 12.7852 987 123.226 1104.02 478.945
923 0 79.1662 13.8948 1100 121.682 1104.26 476.748
924 0 80.1029 12.0845 968 127.235 1103.95 475.121
925 0 85.0901 13.7384 1169 121.558 1103.74 473.349
926 0 87.0875 13.4118 1168 122.699 1103.81 473.495
927 0 90.1109 13.1061 1181 122.699 1103.58 471.664
928 0 95.1038 14.6366 1392 117.803 1104.14 472.372
929 0 98.0746 15.0804 1479 118.641 1104.02 467.882
930 1 54.0526 12.2658 663 123.931 1104.85 489.674
931 0 55.1184 12.6455 697 124.884 1104.91 487.199
932 0 55.0497 11.5714 637 121.989 1103.76 481.708
933 0 57.0438 11.4824 655 121.461 1103.39 483.551
934 0 58.0571 11.8332 687 114.258 1104.32 484.745
935 0 61.0461 10.9589 669 117.698 1103.91 482.133
936 0 64.0131 12.435 796 113.915 1104.18 481.582
937 0 66.0861 12.862 850 113.119 1104.32 480.702
938 0 69.0554 12.1786 841 114.405 1104.95 480.722
939 0 68.0699 9.91628 675 121.671 1104.86 479.416
940 0 73.0503 11.8685 867 116.672 1104.77 478.343
941 0 77.0338 13.2799 1023 114.652 1104.77 475.634
942 0 77.0987 12.3089 949 118.259 1104.78 476.179
943 0 81.3055 12.9266 1051 117.606 1104.7 472.845
944 0 86.1503 12.7684 1100 117.283 1104.89 471.897
945 1 45.0086 11.2645 507 119.29 1106.33 492.099
946 0 47.0342 12.863 605 116.046 1105.55 491.372
947 0 48.0139 11.7882 566 118.007 1105.52 490.961
948 0 50.0497 12.9072 646 115.303 1105.88 489.659
949 0 52.0103 12.4975 650 115.314 1105.66 487.678
950 0 53.0535 13.1565 698 114.491 1104.9 487.325
951 0 55.0861 12.3988 683 116.28 1105.08 486.441
952 0 56.1438 12.8955 724 115.084 1104.77 485.055
953 0 58.1008 12.1685 707 117.266 1104.91 483.915
954 0 60.1147 12.8088 770 115.152 1105.05 483.49
955 0 61.0479 12.5311 765 116.089 1104.64 482.508
956 0 63.0626 12.1625 767 117.289 1104.82 480.588
957 0 65.0686 12.1718 792 118.246 1104.65 480.191
958 0 68.1035 13.5823 925 113.842 1104.78 478.303
959 0 70.0598 12.6749 888 115.905 1105.12 477.775
960 0 72.0627 12.4891 900 116.563 1104.6 477.664
961 0 76.0646 13.5017 1027 114.038 1104.18 475.306
962 0 77.1166 14.1474 1091 113.079 1104.36 474.351
963 0 80.076 13.687 1096 114.668 1104.54 472.709
964 0 82.0871 12.6207 1036 116.844 1104.38 470.059
965 0 85.0392 12.9235 1099 117.348 1104.18 467.52
966 0 89.0984 13.8948 1238 115.044 1104.71 468.697
967 0 91.109 13.1491 1198 118.06 1104.37 466.538
968 0 95.1179 13.867 1319 117.27 1104.56 464.364
969 1 50.034 11.1724 559 116.397 1104.92 486.85
970 0 53.0446 12.7063 674 112.188 1104.81 486.715
971 0 54.0406 11.991 648 114.083 1104.61 485.306
972 0 56.0965 12.5141 702 112.335 1104.38 483.312
973 0 58.0552 13.3494 775 113.788 1105.11 485.592
974 0 59.0641 12.2579 724 117.261 1104.9 484.771
975 0 61.0943 11.3595 694 114.97 1104.43 484.526
976 0 63.0827 11.794 744 113.887 1104.38 483.925
977 0 65.0271 11.0569 719 116.348 1104.87 483.423
978 0 67.045 11.5743 776 116.978 1104.3 481.827
979 0 70.0888 12.9978 911 114.079 1104.45 479.901
980 0 72.1039 13.6331 983 114.485 1104.58 476.797
981 0 76.0771 13.5258 1029 113.073 1104.17 478.375
982 0 77.0504 13.0304 1004 115.618 1104.39 477.214
983 0 80.221 14.0487 1127 115.149 1104.22 473.524
984 0 81.1716 12.1101 983 119.578 1104.31 473.585
985 0 84.2064 11.8637 999 120.636 1104.21 471.759
986 0 88.3498 13.0278 1151 117.323 1104.52 469.403
987 0 88.2365 12.6252 1114 119.818 1104.36 468.995
988 0 94.2041 14.1289 1331 116.235 1104.17 466.109
989 0 96.1156 12.8595 1236 119.311 1104.43 464.664
990 0 99.1527 13.3632 1325 123.099 1103.97 464.17
991 0 103.269 14.3605 1483 120.711 1104.18 458.126
992 0 106.113 13.3537 1417 122.299 1104.73 457.727
993 0 112.342 14.349 1612 119.486 1105.06 453.81
994 0 115.127 13.5242 1557 121.536 1105.01 452.644
995 1 59.1388 11.3631 672 117.379 1105.13 480.382
996 0 64.2014 11.4484 735 115.325 1104.56 480.921
997 0 63.0724 11.7008 738 118.854 1104.89 477.817
998 0 68.1147 13.7562 937 114.544 1105.16 477.114
999 0 71.2469 12.969 924 116.187 1104.49 477.129
1000 0 73.1083 13.5963 994 115.554 1104.46 475.341
1001 0 74.1188 13.0601 968 117.558 1104.24 474.917
1002 0 78.1235 12.621 986 117.234 1103.81 473.374
1003 0 81.254 12.8363 1043 118.112 1103.71 469.721
1004 0 84.2116 14.0361 1182 115.453 1103.56 464.857
1005 0 87.231 12.7822 1115 119.219 1104.2 463.961
1006 0 90.3252 13.4735 1217 117.634 1104.05 461.253
1007 0 95.1323 13.2657 1262 116.752 1103.7 462.702
1008 1 47.2378 11.9396 564 113.282 1103.65 484.011
1009 0 51.1576 12.0412 616 110.471 1103.54 487.565
1010 0 53.1231 13.1393 698 107.176 1104.2 486.155
1011 0 54.1266 12.0458 652 110.439 1104.84 486.979
1012 0 59.0708 12.6458 747 105.92 1104.49 487.191
1013 0 58.0529 13.6255 791 106.898 1104.4 483.714
1014 0 60.0757 12.6673 761 108.451 1104.09 484.046
1015 0 63.0809 14.1723 894 106.04 1104.33 481.897
1016 0 64.0997 12.8082 821 109.085 1104.24 482.178
1017 0 67.0415 12.455 835 111.275 1103.67 480.044
1018 0 69.1751 12.6346 874 112.264 1104.57 478.589
1019 0 73.1579 13.1907 965 111.807 1104.59 476.536
1020 0 72.1165 11.2318 810 118.077 1104.5 476.343
1021 0 78.2172 12.9 1009 113.899 1104.64 474.175
1022 0 80.2682 12.5704 1009 115.195 1104.15 471.795
1023 0 83.3098 12.9997 1083 115.893 1104.32 468.209
1024 0 85.2302 12.918 1101 117.098 1104.56 468.295
1025 0 89.2917 13.0247 1163 117.259 1104.83 464.897
1026 0 90.3044 12.1478 1097 119.304 1104.53 464.984
1027 1 48.1552 12.3766 596 108.02 1105.28 486.644
1028 0 50.1985 11.3948 572 109.83 1105.47 485.89
1029 0 51.3575 11.3713 584 109.89 1105.34 486.69
1030 0 52.2266 11.5841 605 109.59 1105.46 486.521
1031 0 54.14 11.8212 640 110.35 1105.48 487.322
1032 0 56.0802 12.4643 699 109.285 1105.65 485.831
1033 0 56.2145 11.5451 649 111.06 1105.71 485.584
1034 0 59.1481 12.7815 756 108.315 1105.47 482.919
1035 0 59.2092 12.0758 715 111.517 1105.22 482.47
1036 0 64.1108 13.8822 890 105.464 1104.87 482.333
1037 0 64.0951 11.2177 719 112.701 1105.16 480.693
1038 0 68.0923 11.9103 811 110.541 1104.75 479.584
1039 0 72.1377 12.795 923 108.65 1105.29 478.389
1040 0 73.1269 12.827 938 109.314 1104.65 475.625
1041 0 75.1402 13.3351 1002 109.062 1104.44 475.387
1042 0 78.1179 12.2507 957 111.152 1104.99 474.341
1043 0 81.1333 11.3763 923 114.322 1105.29 473.341
1044 0 82.1133 11.8008 969 114.275 1104.94 471.985
1045 0 85.1965 11.2329 957 115.189 1104.38 471.285
1046 0 89.1539 13.3365 1189 110.754 1105.29 466.664
1047 0 91.1269 12.104 1103 114.401 1105.13 465.611
1048 0 96.2289 11.9195 1147 114.537 1104.86 463.346
1049 0 98.2626 13.0569 1283 112.687 1104.68 460.772
1050 0 103.319 12.7857 1321 112.335 1104.41 462.366
1051 1 55.0765 9.42326 519 110.653 1105.43 488.977
1052 0 58.1097 11.2718 655 107.655 1105.23 485.879
1053 0 60.079 11.2019 673 108.593 1105.42 483.473
1054 0 61.0587 11.9721 731 107.086 1105.41 481.573
1055 0 63.1758 11.7292 741 107.726 1105.35 482.159
1056 0 62.0875 9.66378 600 111.925 1105.27 483.172
1057 0 67.1546 10.5875 711 111.08 1105.08 480.103
1058 0 71.1063 10.0132 712 110.67 1104.85 480.115
1059 0 71.1038 11.659 829 109.103 1104.45 478.508
1060 0 74.1416 12.2873 911 108.977 1104.67 476.151
1061 0 76.1125 11.1545 849 111.662 1104.57 475.274
1062 0 78.0894 12.0119 938 110.551 1105.09 473.586
1063 0 83.086 11.6626 969 111.656 1104.5 473.336
1064 0 84.1216 10.6631 897 113.721 1105.29 472.472
1065 0 88.1085 12.3371 1087 111.454 1104.67 468.563
1066 0 91.1023 12.2829 1119 111.903 1104.6 468.55
1067 0 94.1461 11.992 1129 112.244 1105.39 468.595
1068 0 96.1946 10.7906 1038 113.473 1104.75 464.214
1069 0 98.1578 10.5239 1033 115.296 1105.04 461.323
1070 1 53.079 10.3996 552 107.19 1105.17 485.502
1071 0 53.0849 9.06096 481 111.888 1103.57 480.611
1072 0 55.0313 9.66722 532 109.316 1104.15 479.981
1073 0 57.1347 9.34633 534 111.133 1104.55 481.182
1074 0 61.038 10.174 621 109.562 1104.71 479.899
1075 0 62.1163 11.2209 697 108.286 1104.74 478.472
1076 0 61.095 8.13487 497 113.841 1104.62 479.509
1077 0 65.1437 11.2674 734 109.578 1105.34 476.665
1078 0 66.1926 11.0284 730 110.562 1105.17 474.89
1079 0 71.0933 12.4344 884 113.17 1105.91 477.371
1080 0 73.0829 11.7811 861 115.395 1105.82 476.039
1081 0 76.2078 11.9542 911 113.432 1105.34 474.818
1082 0 77.1133 11.321 873 115.49 1105.73 475.147
1083 0 79.155 12.2671 971 115.334 1105.8 471.95
1084 0 81.0674 11.4226 926 117.579 1105.88 472.821
1085 0 86.1428 12.6882 1093 114.435 1104.95 469.867
1086 0 90.1891 12.1855 1099 115.463 1104.88 470.539
1087 0 91.1304 11.3464 1034 119.25 1104.82 467.737
1088 0 94.1413 11.111 1046 119.815 1105.04 467.092
1089 0 100.176 12.6777 1270 116.487 1104.93 463.106
1090 0 98.1362 11.2191 1101 121.676 1104.29 460.766
1091 0 105.082 13.1897 1386 116.856 1104.52 459.98
1092 0 109.257 13.2531 1448 116.155 1105.2 458.963
1093 1 58.0416 11.4745 666 116.312 1105.84 482.914
1094 0 58.0713 10.6421 618 118.681 1105.44 481.506
1095 0 60.0937 10.8664 653 118.59 1105 478.743
1096 0 62.2425 12.4513 775 115.055 1104.07 478.539
1097 0 63.1839 12.8039 809 115.305 1104.76 478.628
1098 0 65.1569 12.4929 814 115.683 1104.4 478.758
1099 0 68.2776 12.5224 855 115.046 1104.27 476.974
1100 0 71.2256 12.9307 921 112.914 1104.05 474.664
1101 0 71.1666 11.8595 844 116.5 1104.61 471.97
1102 0 76.1629 13.1691 1003 112.825 1104.7 473.235
1103 0 79.1945 13.5868 1076 112.109 1104.84 472.051
1104 0 81.1512 11.608 942 117.333 1104.5 469.534
1105 0 84.2166 12.6341 1064 115.109 1104.46 468.377
1106 0 88.1164 12.6083 1111 115.17 1104.1 467.156
1107 0 90.2237 12.7461 1150 115.498 1104.12 464.383
1108 0 94.1452 12.9587 1220 114.65 1104.52 464.744
1109 0 97.2394 13.0914 1273 114.628 1104.51 461.928
1110 0 101.145 12.7243 1287 115.037 1104.23 461.719
1111 0 106.242 13.0927 1391 112.909 1104.2 460.559
1112 1 54.2483 11.5764 628 113.424 1104.16 481.478
1113 0 57.285 10.8231 620 113.447 1103.58 478.484
1114 0 58.0484 11.9039 691 101.903 1105.85 482.378
1115 0 60.0951 10.916 656 103.329 1104.97 483.52
1116 0 59.0967 10.3559 612 107.874 1105.35 481.23
1117 0 62.0782 10.7284 666 105.857 1104.88 478.545
1118 0 64.0493 11.335 726 102.275 1105.36 479.117
1119 0 68.0807 11.5157 784 101.159 1105.34 478.852
1120 0 71.0572 11.2304 798 101.91 1105.22 477.799
1121 0 72.0452 12.4505 897 100.638 1104.84 475.572
1122 0 73.0887 12.9021 943 101.387 1104.66 474.727
1123 0 77.1163 13.2916 1025 99.4146 1105.18 474.558
1124 0 79.1589 12.557 994 99.004 1104.51 470.839
1125 0 79.1562 11.1931 886 103.223 1104.47 471.725
1126 0 82.0623 10.5042 862 105.153 1104.51 471.028
1127 0 86.155 12.6168 1087 103.947 1105.24 469.911
1128 0 89.0617 12.4184 1106 105.906 1104.85 468.105
1129 0 91.1212 12.2474 1116 108.663 1104.5 466.315
1130 0 95.0495 12.12 1152 108.466 1104.39 466.432
1131 0 98.1132 11.8333 1161 109.607 1104.77 464.742
1132 0 102.157 11.9717 1223 108.54 1104.52 464.703
1133 0 105.114 12.9479 1361 107.24 1104.74 464.499
1134 1 58.0664 10.7635 625 111.794 1104.37 486.285
1135 0 59.0292 11.3164 668 108.969 1104.81 484.419
1136 0 63.0745 12.8102 808 100.947 1105.24 482.741
1137 0 64.2334 14.1827 911 100.092 1104.86 481.991
1138 0 64.0338 12.103 775 107.311 1105.02 480.373
1139 0 68.1 11.8062 804 107.566 1104.98 479.94
1140 0 71.119 11.7409 835 108.079 1104.9 478.526
1141 0 71.1448 12.2145 869 108.855 1104.81 476.058
1142 0 74.137 12.0048 890 109.2 1105.04 475.415
1143 0 78.0985 13.5982 1062 104.926 1105.54 473.859
1144 0 81.1931 13.3386 1083 106.001 1105.15 472.708
1145 0 79.1217 12.1964 965 110.947 1104.94 470.582
1146 0 82.1194 13.3464 1096 108.607 1105.1 470.236
1147 0 85.1189 12.7234 1083 109.657 1104.33 470.635
1148 0 86.1325 11.8654 1022 111.798 1104.4 468.289
1149 0 90.2523 13.0855 1181 109.522 1103.73 464.396
1150 0 94.2473 13.1887 1243 108.788 1103.66 465.001
1151 0 95.1091 13.0271 1239 109.688 1103.29 462.45
1152 0 99.2155 12.6291 1253 110.713 1103.61 462.265
1153 0 101.081 12.6137 1275 111.73 1103.87 458.792
1154 0 107.108 11.5771 1240 115.919 1104.04 460.038
1155 1 58.0492 10.0604 584 113.651 1104.47 482.765
1156 0 62.0573 12.569 780 107.941 1103.85 481.99
1157 0 62.1993 10.9165 679 112.113 1103.18 480.654
1158 0 66.0467 11.4464 756 110.102 1102.17 479.377
1159 0 68.0446 12.5653 855 107.353 1102.06 478.233
1160 0 68.0446 12.5212 852 136.629 1102.08 478.282
1161 0 73.0423 11.1305 813 113.455 1102 474.07
1162 0 73.028 11.3107 826 114.133 1101.91 472.96
1163 0 76.0454 11.6772 888 111.127 1102.29 475.018
1164 0 79.1266 12.5369 992 110.507 1102.35 470.62
1165 0 82.0465 12.4564 1022 109.824 1102.59 469.339
1166 0 83.0609 11.8828 987 112.158 1102.66 467.658
1167 0 84.0476 10.5416 886 115.309 1102.57 464.935
1168 0 91.062 12.5299 1141 108.037 1102.98 470.592
1169 0 93.1341 12.7128 1184 109.919 1102.81 465.221
1170 0 95.1336 10.932 1040 113.885 1102.8 465.584
1171 0 97.1133 12.4082 1205 111.728 1101.68 461.685
1172 0 99.0731 11.4057 1130 114.444 1102.15 457.638
1173 0 103.171 10.9333 1128 114.979 1102.49 460.16
1174 0 108.121 12.671 1370 112.153 1102.81 456.468
1175 0 109.24 10.8752 1188 116.603 1102.38 452.788
1176 1 57.0508 9.36008 534 108.974 1102.28 483.028
1177 0 58.2342 9.46179 551 104.532 1103.83 479.991
1178 0 63.2238 11.3723 719 99.2434 1104.49 479.261
1179 0 64.0512 11.9123 763 98.4181 1104.18 478.941
1180 0 66.0532 11.0063 727 100.613 1103.74 478.392
1181 0 67.074 10.3319 693 103.136 1104.13 476.788
1182 0 72.0957 12.7192 917 97.325 1104.27 476.225
1183 0 74.0604 12.7464 944 98.4883 1104.29 474.361
1184 0 76.0215 11.1284 846 101.838 1104.31 474.814
1185 0 78.0888 11.5894 905 102.822 1102.81 471.738
1186 0 80.0959 11.3364 908 103.348 1103.45 469.663
1187 0 84.2694 11.131 938 103.837 1102.88 469.229
1188 0 85.1677 10.7435 915 106.595 1103.09 469.624
1189 0 90.1232 11.0183 993 107.025 1103.15 466.194
1190 0 92.183 11.2711 1039 107.2 1103.85 466.055
1191 0 94.0697 11.4915 1081 106.371 1103.32 464.677
1192 0 97.2415 11.1064 1080 108.314 1103.15 462.239
1193 0 100.294 10.5489 1058 114.988 1103.36 459.032
1194 0 105.342 10.765 1134 114.714 1102.81 458.347
1195 0 108.398 11.0888 1202 114.082 1103.28 455.763
1196 0 111.192 11.035 1227 113.92 1103.16 455.865
1197 0 114.24 10.7143 1224 116.052 1102.94 453.886
1198 1 64.1074 10.3732 665 111.447 1102.82 479.938
1199 0 64.0946 10.0633 645 113.419 1103.33 480.391
1200 0 66.0742 11.8957 786 110.327 1103.39 479.475
1201 0 67.069 10.1537 681 115.25 1103.4 475.739
1202 0 70.1485 10.6061 744 116.563 1103.66 474.821
1203 0 73.1091 11.2161 820 114.746 1103.47 473.441
1204 0 75.1394 11.2591 846 115.327 1103.15 474.163
1205 0 75.1394 11.2458 845 122.809 1102.14 474.134
1206 0 80.1009 11.3357 908 116.035 1103.46 471.575
1207 0 84.1151 12.3997 1043 113.685 1103.24 469.447
1208 0 88.0853 12.4198 1094 112.935 1102.59 468.015
1209 0 89.1311 11.5224 1027 115.512 1103.27 466.132
1210 0 93.1582 12.3124 1147 112.58 1102.99 466.242
1211 0 95.0674 11.9284 1134 113.93 1103.29 463.844
1212 0 96.1915 11.5291 1109 115.514 1104.05 462.291
1213 0 100.258 10.9418 1097 116.387 1104.15 459.917
1214 0 103.089 11.2427 1159 115.09 1103.17 459.86
1215 0 107.155 12.3186 1320 112.592 1102.97 457.248
1216 0 111.156 12.7298 1415 110.384 1102.79 457.884
1217 1 59.0744 12.7128 751 104.045 1103.02 482.213
1218 0 61.0115 11.8666 724 103.725 1103.63 480.773
1219 0 62.0841 10.0187 622 95.3666 1103.44 480.027
1220 0 62.1107 11.7693 731 98.7291 1102.56 481.353
1221 0 66.1407 11.8838 786 98.2137 1102.74 480.642
1222 0 67.0889 11.6115 779 98.5892 1101.82 479.558
1223 0 69.2012 11.6327 805 98.7317 1102.15 477.991
1224 0 72.1615 12.0701 871 97.6567 1101.97 474.223
1225 0 74.1485 10.506 779 100.861 1102.44 472.566
1226 0 78.0445 11.9932 936 97.7479 1102.21 472.676
1227 0 80.0737 12.1513 973 98.1141 1102.75 472.547
1228 0 81.0653 11.4969 932 97.8852 1103.23 472.218
1229 0 84.1493 12.157 1023 93.2991 1104.42 468.231
1230 0 87.044 12.465 1085 93.0645 1105.02 465.217
1231 0 90.0581 11.8146 1064 94.563 1104.86 465.235
1232 0 93.1183 11.8988 1108 94.8105 1104 465.977
1233 0 93.1837 10.7637 1003 99.2981 1103.81 464.847
1234 0 98.2765 11.5694 1137 97.9138 1103.32 468.332
1235 0 98.1957 8.84967 869 105.655 1103.27 465.422
1236 1 56.1414 10.6339 597 98.1106 1103.94 488.769
1237 0 59.0629 12.3258 728 96.2527 1103.48 483.201
1238 0 60.0714 11.6029 697 97.7948 1103.57 485.145
1239 0 62.155 11.8575 737 98.5224 1105.08 485.56
1240 0 63.1173 12.1995 770 98.7273 1104.79 482.626
1241 0 66.0901 11.6508 770 99.4571 1104.53 483.056
1242 0 67.1055 12.2792 824 98.983 1104.49 483.119
1243 0 70.1939 11.9811 841 99.5862 1104.41 480.969
1244 0 72.2124 12.117 875 98.6971 1104.45 480.569
1245 0 75.1536 12.0154 903 98.9712 1103.53 478.609
1246 0 75.1623 11.229 844 101.719 1103.65 475.694
1247 0 81.134 12.202 990 98.4505 1103.39 475.672
1248 0 82.154 11.8071 970 99.9144 1103.52 474.291
1249 0 85.2557 11.7411 1001 100.217 1103.77 473.181
1250 1 43.0459 9.33886 402 103.433 1104.27 493.943
1251 0 45.0595 10.6082 478 101.774 1104.11 490.851
1252 0 47.1638 9.94406 469 102.531 1102.27 491.262
1253 0 49.068 12.0649 592 100.377 1102.74 485.034
1254 0 52.0306 12.3005 640 99.3594 1102.65 485.358
1255 0 51.1631 11.3167 579 100.389 1103.35 489.477
1256 0 54.172 12.128 657 99.0913 1104.34 487.484
1257 0 57.1028 13.3444 762 95.29 1103.95 486.337
1258 0 58.0813 12.4481 723 96.5546 1103.89 486.876
1259 0 60.0553 12.7383 765 97.349 1103.8 484.199
1260 0 62.1278 12.5709 781 96.2394 1104.23 485.402
1261 0 62.0929 12.4652 774 98.4548 1103.54 482.129
1262 0 64.2305 12.6264 811 97.4624 1103.13 480.446
1263 0 65.0709 12.033 783 98.2414 1103.03 480.709
1264 0 71.079 12.5213 890 95.7865 1103.4 479.539
1265 0 68.0779 10.3852 707 101.124 1104.05 479.389
1266 0 74.1815 13.9118 1032 93.5921 1103.48 477.072
1267 0 78.1926 13.6586 1068 93.8277 1103.69 474.936
1268 0 78.3941 11.9907 940 98.2085 1103.84 471.898
1269 0 80.1246 12.1186 971 100.044 1104.36 473.242
1270 0 84.1424 12.871 1083 100.185 1103.45 470.07
1271 0 88.2308 11.3339 1000 105.608 1103.9 469.451
1272 0 90.2887 12.0724 1090 104.185 1104.11 464.534
1273 0 93.3081 11.8961 1110 104.02 1102.63 467.4
1274 0 98.2566 13.2307 1300 102.649 1103.71 463.412
1275 0 97.1917 11.4722 1115 106.514 1103.57 461.82
1276 1 53.1641 9.687 515 101.856 1103.55 488.194
1277 0 55.1071 10.9423 603 100.181 1104.71 484.501
1278 0 58.2494 11.7941 687 99.1092 1105.29 482.622
1279 0 58.2062 11.8544 690 101.435 1103.29 478.754
1280 0 60.1019 12.3457 742 100.005 1104.24 482.651
1281 0 63.1397 12.4644 787 100.379 1105.13 480.463
1282 0 65.1289 12.1605 792 101.835 1105.6 479.891
1283 0 66.1633 12.6656 838 103.067 1104.65 478.13
1284 0 70.2682 13.5623 953 100.799 1105.22 479.571
1285 0 71.2703 13.4278 957 102.885 1104.97 476.751
1286 0 73.1668 14.5011 1061 101.514 1104.51 476.003
1287 0 75.291 13.1224 988 104.446 1104.97 477.63
1288 0 79.2095 13.4706 1067 104.779 1104.25 474.931
1289 0 81.2446 12.567 1021 108.757 1104.68 471.983
1290 0 83.1621 12.3013 1023 109.584 1103.9 472.234
1291 0 88.184 13.2564 1169 107.41 1104.04 470.961
1292 0 91.2363 13.4157 1224 107.512 1103.94 465.627
1293 0 92.4215 13.1355 1214 108.381 1103.71 466.091
1294 0 95.3855 13.6394 1301 108.803 1103.84 463.014
1295 0 98.4369 13.8566 1364 109.603 1103.81 461.003
1296 0 101.474 12.3579 1254 114.294 1103.73 458.879
1297 1 56.5624 11.7746 666 107.149 1103.39 483.638
1298 0 57.2187 12.6532 724 107.689 1104.15 482.884
1299 0 58.181 12.8049 745 108.54 1103.74 482.286
1300 0 61.3722 13.1981 810 108.327 1103.91 480.73
1301 0 64.0631 12.1755 780 111.973 1102.87 480.438
1302 0 66.1452 12.533 829 112.285 1103.57 477.568
1303 0 68.2947 11.4797 784 114.746 1103.75 476.797
1304 0 71.1964 12.7675 909 111.78 1102.99 475.021
1305 0 75.268 14.176 1067 108.823 1102.69 473.675
1306 0 77.3714 13.6226 1054 110.745 1102.76 472.255
1307 0 80.2648 12.6706 1017 113.236 1102.74 470.93
1308 0 83.2795 13.7969 1149 111.152 1102.73 467.95
1309 0 86.2339 11.9443 1030 113.681 1102.59 471.15
1310 0 89.4862 13.3317 1193 113.036 1103.23 465.863
1311 0 93.1893 12.6409 1178 114.289 1103.2 467.092
1312 0 93.4266 11.7954 1102 117.867 1103.33 463.263
1313 0 99.272 11.5843 1150 116.765 1103.32 464.963
1314 0 101.079 11.407 1153 118.143 1103.26 465.31
1315 1 53.0317 12.3134 653 112.983 1104.21 486.881
1316 0 54.1024 11.0716 599 116.907 1104.42 487.312
1317 0 57.0808 12.8239 732 110.899 1104.03 486.105
1318 0 59.1099 13.8894 821 113.006 1104.06 483.993
1319 0 62.1089 12.8001 795 115.365 1104.13 482.47
1320 0 63.1019 13.3593 843 110.433 1104.23 480.9
1321 0 65.0491 13.5744 883 110.019 1104.35 480.75
1322 0 67.0911 12.5203 840 113.36 1104.75 480.911
1323 0 71.0655 13.1709 936 109.934 1104.17 479.485
1324 0 72.0556 13.7949 994 109.865 1104.49 476.875
1325 0 73.1788 12.449 911 113.362 1105 476.1
1326 0 77.173 13.4244 1036 111.986 1105.06 474.363
1327 0 78.1347 13.4127 1048 112.362 1104.01 473.532
1328 0 84.13 13.7169 1154 110.429 1104.16 473.697
1329 0 85.1361 14.1538 1205 110.995 1103.78 470.664
1330 0 87.0609 13.0024 1132 113.92 1103.98 470.66
1331 0 91.1668 13.0311 1188 114.438 1103.73 467.687
1332 0 94.2209 12.9164 1217 113.749 1104.08 469.158
1333 0 97.0757 13.5255 1313 112.852 1104.2 466.474
1334 0 100.163 14.0471 1407 112.026 1104.01 462.704
1335 1 57.093 11.3674 649 109.852 1104.33 488.282
1336 0 58.0399 12.3019 714 110.615 1103.45 485.695
1337 0 58.1261 13.4707 783 110.166 1103.52 482.324
1338 0 60.0429 14.5229 872 109.956 1104.05 481.525
1339 0 62.0671 13.9849 868 111.103 1104.35 481.927
1340 0 65.1317 15.4456 1006 106.656 1104.55 482.166
1341 0 68.0869 13.9234 948 111.092 1104.5 478.351
1342 0 69.0296 13.7332 948 112.921 1104.94 477.708
1343 0 72.1743 14.0355 1013 111.984 1104.62 478.383
1344 0 75.1094 14.2991 1074 112.142 1104.38 475.016
1345 0 77.087 14.2307 1097 112.713 1104.55 472.282
1346 0 80.124 14.7147 1179 110.83 1104.35 471.941
1347 0 81.1036 15.0918 1224 110.785 1104.32 468.902
1348 0 85.063 14.8596 1264 111.442 1104.42 467.418
1349 0 88.0441 14.0384 1236 112.884 1104.1 465.127
1350 0 90.1167 13.8931 1252 112.125 1103.33 460.599
1351 0 92.0587 12.8722 1185 116.452 1103.45 457.991
1352 0 95.1666 13.0088 1238 115.26 1104.48 461.687
1353 0 98.1295 12.5141 1228 116.814 1104.91 455.111
1354 0 99.1151 12.0466 1194 118.278 1104.64 452.905
1355 0 108.242 13.3404 1444 112.202 1104.54 453.586
1356 1 57.0966 10.8763 621 107.427 1104.04 478.082
1357 0 57.013 10.5064 599 109.359 1104.59 475.197
1358 0 62.0699 10.5526 655 101.643 1104.02 475.206
1359 0 62.0637 10.8759 675 101.75 1103.95 473.003
1360 0 65.1198 10.3041 671 102.237 1103.64 472.317
1361 0 68.1527 11.5329 786 98.9898 1103.42 469.786
1362 0 73.1972 11.2982 827 97.8464 1103.48 471.854
1363 0 76.2338 11.4123 870 97.108 1104.19 470.529
1364 0 77.1744 11.8174 912 97.4211 1104.46 467.798
1365 0 79.2448 11.3698 901 98.2775 1104.05 467.89
1366 0 83.3787 12.0295 1003 96.9801 1103.69 466.801
1367 0 85.2054 10.8796 927 101.108 1104.05 462.857
1368 0 89.3496 12.5686 1123 97.6785 1103.67 463.235
1369 0 93.1745 11.5053 1072 101.151 1104.02 461.661
1370 0 94.1178 11.9212 1122 101.35 1103.43 460.714
1371 0 94.1064 12.2521 1153 102.771 1104.02 454.818
1372 0 98.1777 11.0208 1082 105.474 1103.86 455.396
1373 0 105.079 12.895 1355 103.287 1103.85 454.967
1374 1 54.0956 8.68833 470 108.847 1102.81 476.955
1375 0 58.0596 9.5936 557 104.522 1102.95 478.671
1376 0 61.1039 11.4723 701 99.368 1103.44 477.596
1377 0 61.0333 10.3058 629 99.0859 1104.04 475.328
1378 0 63.1431 8.8529 559 101.773 1104.59 473.422
1379 0 63.0915 8.86014 559 132.406 1105.57 473.535
1380 0 69.0457 10.3555 715 98.4601 1104.13 474.968
1381 0 73.0796 11.3164 827 97.1028 1103.73 473.686
1382 0 74.0928 11.2562 834 98.2554 1103.81 472.682
1383 0 77.0552 10.9921 847 99.7875 1103.5 471.891
1384 0 79.0608 11.7125 926 99.1685 1103.75 469.87
1385 0 81.0955 10.2842 834 102.811 1104.06 469.445
1386 0 85.1643 11.378 969 101.404 1103.96 467.347
1387 0 88.0652 12.5021 1101 99.9092 1103.72 465.235
1388 0 89.0718 12.1587 1083 100.94 1103.66 466.264
1389 0 93.1187 13.8211 1287 98.9814 1103.54 461.614
1390 0 93.2464 11.0782 1033 106.899 1103.86 459.901
1391 0 97.214 11.1918 1088 107.264 1103.69 455.493
1392 0 99.1174 11.3401 1124 107.81 1103.5 457.482
1393 0 103.064 12.1186 1249 107.231 1103.26 454.237
1394 0 108.097 12.4241 1343 106.666 1103.56 453.538
1395 0 108.203 10.6004 1147 112.827 1103.95 453.869
1396 0 113.147 12.2672 1388 109.274 1103.23 452.66
1397 0 116.185 11.2407 1306 112.622 1103.46 448.468
1398 0 119.112 11.3087 1347 112.637 1103.12 447.61
1399 0 123.189 11.4946 1416 112.136 1103.77 445.806
1400 0 130.281 12.1046 1577 110.97 1103.45 442.844
1401 0 135.154 10.8395 1465 112.667 1102.95 440.373
1402 0 137.403 10.1672 1397 115.913 1103.4 430.897
1403 0 146.265 11.7868 1724 110.894 1103.59 436.662
1404 1 79.2215 9.69434 768 105.615 1104.64 468.069
1405 0 82.1804 10.2214 840 104.811 1104.01 466.332
1406 0 78.0677 11.1442 870 103.245 1103.09 461.575
1407 0 82.1537 10.3343 849 105.649 1103.04 457.72
1408 0 83.1301 11.0309 917 106.152 1102.9 455.617
1409 0 84.1303 9.71112 817 110.209 1103.48 454.925
1410 0 93.1148 10.2025 950 109.113 1103.29 456.485
1411 0 90.0763 10.2802 926 111.427 1102.87 450.755
1412 0 96.1026 9.89567 951 112.386 1102.65 452.12
1413 0 103.2 10.814 1116 108.66 1103.2 451.915
1414 0 107.254 10.9459 1174 108.342 1102.68 455.567
1415 0 108.318 10.9954 1191 109.645 1102.2 452.676
1416 0 107.136 10.2206 1095 114.071 1102.25 446.601
1417 0 113.2 11.3516 1285 111.398 1102.39 445.728
1418 0 116.157 10.0037 1162 114.657 1102.08 445.74
1419 0 123.27 12.5741 1550 110.873 1102.87 443.531
1420 0 125.065 11.0823 1386 115.2 1102.48 441.412
1421 0 130.12 11.1205 1447 115.191 1102.68 434.677
1422 1 71.1183 8.08512 575 106.249 1103.31 468.428
1423 0 77.1054 10.5181 811 102.418 1101.58 468.768
1424 0 76.0712 9.49111 722 102.317 1103.11 464.152
1425 0 76.1404 9.91589 755 102.951 1104.01 464.147
1426 0 80.1766 10.215 819 101.799 1104.12 464.389
1427 0 82.2154 9.9738 820 103.137 1104.85 460.677
1428 0 86.1924 9.20035 793 104.222 1103.54 458.588
1429 0 90.2237 10.1304 914 102.106 1103.63 459.954
1430 0 94.1224 10.2314 963 102.404 1103.9 456.422
1431 0 94.1436 11.2169 1056 101.574 1104.02 453.023
1432 0 96.2576 9.14214 880 104.844 1104.47 452.76
1433 0 96.2669 9.14125 880 125.948 1104.46 452.922
1434 0 103.086 8.98277 926 105.268 1104.25 447.184
1435 0 107.229 10.8179 1160 101.832 1103.64 448.485
1436 0 115.094 10.0005 1151 101.438 1102.72 448.536
1437 0 120.186 11.9316 1434 105.461 1102.6 446.792
1438 0 124.241 12.0331 1495 107.383 1101.75 447.429
1439 0 127.172 11.6221 1478 109.029 1103.13 445.421
1440 0 129.157 11.2266 1450 106.189 1103.68 442.979
1441 1 74.1974 12.4398 923 104.258 1103.06 471.814
1442 0 75.189 11.1718 840 108.564 1103.31 471.158
1443 0 77.0863 11.0266 850 101.664 1103.51 469.475
1444 0 80.0719 12.8884 1032 97.7839 1102.92 468.236
1445 0 82.1404 13.2213 1086 97.4622 1102.88 467.707
1446 0 83.1279 12.0417 1001 100.269 1103.15 466.113
1447 0 84.1297 11.934 1004 101.146 1102.8 464.221
1448 0 88.0762 12.3529 1088 99.8153 1102.62 463.812
1449 0 91.1529 12.0347 1097 100.792 1102.98 462.294
1450 0 94.1532 14.0091 1319 96.5785 1103.31 460.641
1451 0 95.2212 12.4552 1186 100.384 1102.94 459.583
1452 0 98.1948 12.7502 1252 100.037 1103.2 457.764
1453 0 100.09 11.6496 1166 108.068 1102.29 454.253
1454 0 106.116 12.0434 1278 106.342 1102.08 454.52
1455 0 108.162 11.9451 1292 106.962 1102.68 453.935
1456 0 110.107 12.4969 1376 106.895 1102.52 452.812
1457 0 114.113 12.0932 1380 107.818 1102.6 450.328
1458 0 118.182 12.3876 1464 105.685 1102.21 451.972
1459 1 61.1446 10.3361 632 106.416 1102.48 477.002
1460 0 65.2803 10.9834 717 105.561 1103.56 476.434
1461 0 67.2721 12.9177 869 100.953 1103.14 475.545
1462 0 70.2032 12.3784 869 100.875 1102.56 473.838
1463 0 72.2807 12.7005 918 100.368 1102.03 473.714
1464 0 75.1875 12.8213 964 100.001 1102.52 472.628
1465 0 75.1262 11.6338 874 104.128 1103.67 471.549
1466 0 80.138 13.8761 1112 98.0549 1103.28 468.371
1467 0 81.1954 12.8456 1043 101.14 1103.57 468.882
1468 0 85.1294 12.4634 1061 101.481 1103.57 468.354
1469 0 85.1154 12.7827 1088 101.983 1104.12 467.551
1470 0 88.1958 13.2092 1165 101.164 1103.61 467.112
1471 0 91.1951 13.6301 1243 101.218 1103.01 463.244
1472 0 96.2859 13.5742 1307 100.422 1102.42 464.066
1473 0 98.104 12.711 1247 101.628 1102.8 464.032
1474 0 102.198 12.2508 1252 102.985 1102.63 460.773
1475 0 106.175 13.2423 1406 100.671 1102.57 460.411
1476 0 108.131 14.0477 1519 99.609 1102.87 458.54
1477 0 111.172 12.4582 1385 102.47 1103.27 456.745
1478 0 113.14 11.7112 1325 104.975 1104.1 454.358
1479 0 118.166 12.1016 1430 102.729 1104.61 454.877
1480 0 120.281 11.0824 1333 105.798 1104.77 450.61
1481 1 68.0673 11.3417 772 100.036 1105.22 473.799
1482 0 68.1582 11.1945 763 101.63 1103.92 468.975
1483 0 69.2141 9.27557 642 94.8614 1103.35 473.322
1484 0 70.0948 12.2263 857 90.5193 1102.8 472.547
1485 0 72.1069 11.8574 855 92.7181 1103.14 468.316
1486 0 77.1086 12.6056 972 90.8529 1103.17 466.507
1487 0 78.2405 13.139 1028 90.2286 1103.11 464.501
1488 0 80.191 13.2434 1062 90.3861 1103.28 463.454
1489 0 83.153 11.6412 968 93.3192 1103.37 465.472
1490 0 86.1182 12.2971 1059 93.0009 1103.58 461.809
1491 0 91.3153 13.2837 1213 90.7774 1103.31 462.168
1492 0 93.218 11.0816 1033 97.1384 1103.4 460.898
1493 0 97.1701 13.3889 1301 93.9854 1103.5 457.411
1494 0 100.345 12.8457 1289 96.7502 1103.88 457.174
1495 0 101.247 11.9707 1212 98.8927 1103.03 454.841
1496 0 103.242 11.7878 1217 101.177 1102.9 452.329
1497 0 109.414 11.9912 1312 101.73 1103.31 453.671
1498 0 112.253 12.3828 1390 100.522 1103.05 447.732
1499 1 58.0577 11.0407 641 98.3526 1103.57 477.215
1500 0 60.0789 12.134 729 103.499 1102.52 472.093
1501 0 63.0684 11.9236 752 101.866 1102.25 472.883
1502 0 66.2469 11.6685 773 97.8448 1102.54 473.067
1503 0 64.0744 11.0028 705 98.3277 1102.94 469.919
1504 0 71.1016 12.0391 856 99.3598 1102.25 474.061
1505 0 72.1073 12.5369 904 100.155 1102.46 473.346
1506 0 71.0505 11.4848 816 107.036 1103.17 474.934
1507 0 73.1193 12.6232 923 105.139 1103.13 474.45
1508 0 75.0822 12.2666 921 106.282 1102.85 472.881
1509 0 76.1122 11.7195 892 109.502 1102.57 472.873
1510 0 77.1268 11.6043 895 110.661 1102.69 472.495
1511 0 79.0713 11.9133 942 109.369 1102.02 470.688
1512 0 82.0685 13.2572 1088 106.029 1101.7 468.47
1513 0 85.1627 13.8793 1182 103.452 1101.84 467.562
1514 0 87.098 12.5261 1091 105.438 1102.07 467.338
1515 0 90.077 12.9001 1162 104.067 1102.13 464.635
1516 0 93.1843 12.1158 1129 105.685 1102.59 463.275
1517 0 95.2697 13.5615 1292 103.034 1102.05 463.239
1518 0 97.3387 12.4206 1209 105.398 1102.76 462.054
1519 0 100.31 13.3885 1343 104.471 1102.91 458.228
1520 0 104.375 13.6335 1423 104.247 1103.02 454.459
1521 0 106.203 12.3632 1313 108.546 1103.41 453.415
1522 0 108.273 12.3485 1337 111.444 1103.06 451.417
1523 1 59.2371 10.6352 630 113.379 1103.34 471.627
1524 0 61.2826 12.1405 744 108.309 1102.65 472.566
1525 0 63.1575 12.3659 781 109.22 1102.55 470.604
1526 0 61.1616 11.4451 700 112.851 1103.19 473.971
1527 0 62.1191 11.655 724 114.155 1102.72 474.209
1528 0 67.1289 13.0048 873 111.251 1102.81 472.357
1529 0 68.0909 12.1602 828 114.44 1103.07 470.884
1530 0 72.1787 14.1316 1020 109.88 1103.66 470.001
1531 0 74.103 12.712 942 114.121 1102.94 470.506
1532 0 75.0561 12.4041 931 116.751 1102.5 468.989
1533 0 76.0562 12.8852 980 118.019 1102.78 467.828
1534 0 79.0774 13.8219 1093 116.758 1102.52 467.089
1535 0 81.0552 13.3489 1082 119.552 1102.84 466.797
1536 0 83.0624 13.6163 1131 120.871 1101.79 461.263
1537 0 86.175 13.0896 1128 121.917 1102.46 462.255
1538 0 90.1326 13.4912 1216 121.014 1102.61 460.006
1539 0 93.1197 12.8974 1201 122.798 1102.63 461.785
1540 0 93.0993 12.9432 1205 122.11 1102.53 457.763
1541 0 99.1096 13.0865 1297 122.322 1101.78 458.695
1542 1 51.0379 10.2669 524 126.137 1102.94 478.752
1543 0 56.0748 11.3955 639 118.249 1102.4 481.011
1544 0 57.0236 12.3107 702 118.11 1100.95 479.865
1545 0 57.0811 11.5975 662 112.462 1101.44 479.435
1546 0 61.0865 11.3609 694 113.598 1101.62 475.17
1547 0 62.0956 11.4179 709 114.357 1101.87 474.911
1548 0 65.1286 12.5291 816 110.941 1101.19 475.504
1549 0 64.0683 11.519 738 115.653 1100.92 473.4
1550 0 68.1884 12.0402 821 113.408 1100.97 473.42
1551 0 68.1184 11.7296 799 116.388 1100.46 468.992
1552 0 75.2402 11.4566 862 117.027 1100.41 468.115
1553 0 76.1734 12.9704 988 113.884 1100.54 468.186
1554 0 78.1187 11.2009 875 117.894 1100.25 467.413
1555 0 79.1555 11.9891 949 115.691 1099.57 468.164
1556 0 83.2448 11.3761 947 117.911 1100.75 462.936
1557 0 84.1848 12.2231 1029 114.85 1100.38 465.396
1558 0 87.2377 12.4602 1087 116.133 1099.71 461.485
1559 0 91.0488 11.1918 1019 118.473 1099.69 459.448
1560 0 92.1059 10.6725 983 119.495 1100.25 459.692
1561 0 95.1403 12.3081 1171 116.675 1100.28 459.067
1562 1 54.0637 10.8946 589 109.912 1100.18 481.645
1563 0 57.0406 11.9213 680 109.15 1100.13 478.693
1564 0 59.144 12.0891 715 116.799 1100.04 480.31
1565 0 60.0621 12.4038 745 113.294 1100.32 482.554
1566 0 63.0844 12.9192 815 110.929 1100.51 480.812
1567 0 66.0758 12.6673 837 111.45 1100.1 479.435
1568 0 68.1175 14.9301 1017 105.662 1099.79 475.809
1569 0 68.1803 12.6576 863 112.576 1100.78 474.844
1570 0 72.0887 12.7898 922 111.38 1100.74 475.604
1571 0 76.1018 12.7855 973 111.598 1100.68 474.813
1572 0 76.0752 11.975 911 115.652 1100.4 473.136
1573 0 78.0747 11.9117 930 116.644 1100.42 472.113
1574 0 83.2057 13.3044 1107 112.831 1100.74 470.806
1575 0 85.1855 13.2182 1126 112.155 1101.95 467.373
1576 0 88.2004 13.1519 1160 113.183 1101.57 465.446
1577 0 92.2533 14.3843 1327 110.64 1101.52 463.147
1578 0 93.1169 13.177 1227 113.835 1102.15 459.434
1579 1 45.0322 9.06018 408 117.36 1102.09 478.581
1580 0 52.1815 9.46695 494 113.37 1101.38 479.826
1581 0 54.0892 8.74481 473 104.827 1101.15 482.264
1582 0 57.1745 10.6166 607 101.572 1102.17 480.4
1583 0 57.1562 11.1274 636 102.325 1101.65 479.011
1584 0 59.2413 10.2631 608 103.952 1102.17 478.646
1585 0 59.2677 10.3598 614 105.901 1101.94 476.713
1586 0 62.2294 10.1238 630 105.971 1101.48 477.908
1587 0 61.1856 10.9339 669 106.175 1101.26 475.75
1588 0 67.264 10.6297 715 106.443 1101.49 476.011
1589 0 66.1139 10.8298 716 108.022 1102.02 471.704
1590 0 69.189 10.6375 736 109.091 1101.68 472.27
1591 0 74.1625 12.1894 904 105.835 1101.87 473.9
1592 0 74.1502 12.7849 948 108.687 1101.38 473.294
1593 0 77.0684 12.0542 929 109.052 1101.45 472.774
1594 0 79.1888 11.8577 939 110.851 1101.44 471.817
1595 0 82.163 12.1953 1002 111.103 1101.45 472.101
1596 0 84.0624 13.3353 1121 112.393 1101.78 470.045
1597 0 85.1071 11.5266 981 117.318 1102.6 470.64
1598 0 87.1205 12.9246 1126 116.295 1102.57 467.78
1599 0 92.1099 12.9736 1195 116.233 1102.68 467.739
1600 0 95.0943 12.9976 1236 118.891 1102.18 465.473
1601 0 97.0878 13.1221 1274 122.108 1102.43 463.864
1602 0 100.094 12.9778 1299 122.775 1102.33 463.714
1603 0 103.107 12.8313 1323 122.857 1102.11 462.807
1604 0 104.146 12.2041 1271 125.249 1102.2 461.064
1605 0 108.158 12.907 1396 124.383 1102.33 457.676
1606 0 113.111 13.1994 1493 122.831 1102.01 457.677
1607 0 117.127 13.5835 1591 120.549 1101.72 456.421
1608 0 119.188 12.8788 1535 122.973 1101.71 451.656
1609 0 123.155 12.3178 1517 123.963 1101.23 449.444
1610 0 127.181 13.4926 1716 121.066 1101.31 446.591
1611 0 131.184 12.2271 1604 124.769 1101.81 445.582
1612 0 135.285 13.4531 1820 122.589 1101.7 442.87
1613 0 140.233 12.7502 1788 123.099 1101.23 443.134
1614 0 147.245 13.4198 1976 121.108 1101.87 440.083
1615 0 148.301 12.3735 1835 125.135 1101.26 435.244
1616 0 154.331 11.7604 1815 125.797 1102 435.985
1617 0 158.236 11.9632 1893 127.207 1101.49 430.919
1618 0 167.324 13.6979 2292 122.703 1101.21 428.277
1619 0 172.246 13.0975 2256 124.172 1101.25 425.716
1620 1 85.1706 11.5768 986 112.608 1102.23 469.295
1621 0 87.2147 11.9934 1046 115.221 1101.04 468.847
1622 0 89.3718 11.4577 1024 117.276 1100.51 468.429
1623 0 91.222 11.335 1034 119.984 1101.46 465.862
1624 0 95.3137 11.8346 1128 117.097 1101.01 466.128
1625 0 98.2462 11.1862 1099 119.117 1101.29 457.468
1626 0 101.236 10.6681 1080 119.189 1101.34 458.433
1627 0 108.179 11.9709 1295 115.829 1101.35 456.514
1628 0 112.281 12.4509 1398 105.428 1101.55 454.62
1629 1 46.2055 9.41447 435 107.067 1102.05 484.979
1630 0 48.0343 10.7631 517 106.296 1101.83 488.673
1631 0 50.0578 10.9673 549 105.242 1101.53 485.971
1632 0 52.0676 11.2546 586 104.638 1101.53 486.669
1633 0 53.1555 10.4975 558 107.314 1101.92 484.237
1634 0 57.1347 12.4968 714 103.472 1101.88 482.856
1635 0 56.154 10.2575 576 109.507 1102.22 482.342
1636 0 60.1234 12.4078 746 104.756 1102.12 483.601
1637 0 60.0727 11.8357 711 107.934 1102.22 481.962
1638 0 62.1573 12.0662 750 109.165 1101.47 479.647
1639 0 63.1492 11.4649 724 111.546 1101.64 480.33
1640 0 65.1941 11.4428 746 114.169 1102.05 478.377
1641 0 66.1942 11.6475 771 115.419 1101.98 477.405
1642 0 68.1129 11.8627 808 115.859 1102.34 477.926
1643 0 69.0723 11.8716 820 117.157 1102.43 476.271
1644 0 71.1446 12.2848 874 117.612 1102.13 474.849
1645 0 73.1239 12.6087 922 116.872 1101.75 475.414
1646 0 76.205 12.4926 952 117.06 1101.81 474.38
1647 0 76.1193 11.2586 857 121.817 1101.46 471.995
1648 0 81.1002 12.3427 1001 119.276 1100.39 471.992
1649 0 84.205 13.4315 1131 116.896 1100.33 469.978
1650 0 86.1237 13.5619 1168 116.986 1100.51 467.092
1651 0 88.2185 12.0496 1063 121.258 1100.55 466.738
1652 0 91.217 12.2894 1121 119.756 1100.71 466.543
1653 0 95.1657 12.5045 1190 119.996 1101.27 462.932
1654 0 100.095 13.4472 1346 120.539 1101.73 462.744
1655 0 105.225 13.5804 1429 119.153 1100.72 460.999
1656 1 55.1462 12.1858 672 114.597 1100.96 485.121
1657 0 57.1256 12.3587 706 112.092 1100.8 485.979
1658 0 59.1099 13.4157 793 110.808 1100.27 483.561
1659 0 60.0346 13.3756 803 109.893 1100.24 483.073
1660 0 59.0676 12.3757 731 114.261 1100.23 481.93
1661 0 63.0319 14.0564 886 108.875 1099.68 479.893
1662 0 65.0865 14.8418 966 106.375 1099.88 480.058
1663 0 65.2398 12.7223 830 112.02 1100.51 479.563
1664 0 67.1669 12.8784 865 111.154 1100.63 476.301
1665 0 72.1648 13.677 987 108.773 1099.95 477.419
1666 0 74.0645 13.5423 1003 109.329 1099.78 476.69
1667 0 75.0749 13.1069 984 110.554 1099.67 473.936
1668 0 79.1163 12.8545 1017 110.115 1099.9 473.702
1669 0 81.0723 14.2959 1159 107.367 1100.61 472.129
1670 0 81.0801 13.4188 1088 110.81 1100.28 471.294
1671 0 86.1896 13.3775 1153 109.724 1100.26 469.69
1672 0 88.1315 12.504 1102 112.273 1099.8 464.796
1673 0 91.042 12.7963 1165 112.247 1100.11 465.95
1674 0 95.1238 12.0895 1150 112.31 1100.01 467.831
1675 1 54.0396 12.7129 687 109.419 1099.83 484.974
1676 0 56.0991 11.8184 663 112.902 1099.93 483.953
1677 0 57.0413 12.8328 732 107.596 1099.74 479.18
1678 0 55.0281 12.1574 669 108.13 1100.42 477.571
1679 0 58.1572 10.5576 614 110.899 1099.85 476.329
1680 0 59.032 10.8246 639 110.347 1099.88 473.236
1681 0 62.0847 11.1622 693 108.733 1099.4 474.824
1682 0 62.0519 12.28 762 107.377 1100.07 473.21
1683 0 66.1223 12.0232 795 106.831 1100.41 471.479
1684 0 67.02 10.937 733 103.731 1101.01 470.956
1685 0 68.0679 10.4308 710 105.315 1101.56 470.706
1686 0 73.0789 11.3576 830 103.578 1101.15 468.57
1687 0 75.0758 10.6159 797 104.71 1101.04 467.65
1688 0 79.086 11.0386 873 104.081 1101.26 467.05
1689 0 79.1535 10.8271 857 105.596 1100.64 463.663
1690 0 78.0717 9.2351 721 110.117 1101.28 463.616
1691 0 85.0888 11.0355 939 107.034 1101.41 462.23
1692 0 89.093 10.7528 958 108.015 1101.71 462.709
1693 0 92.1893 10.5435 972 107.968 1101.51 461.162
1694 0 94.292 11.5068 1085 107.616 1100.73 457.113
1695 0 98.095 11.0913 1088 108.15 1100.54 456.326
1696 0 100.076 9.40281 941 111.436 1101.09 453.755
1697 0 107.247 11.0119 1181 108.154 1101.06 452.09
1698 1 55.0734 10.2772 566 103.813 1102.32 476.415
1699 0 54.0922 8.91072 482 113.531 1101.09 474.575
1700 0 59.1362 10.2644 607 114.412 1100.37 476.926
1701 0 66.087 10.5921 700 112.411 1100.91 479.436
1702 0 67.1078 10.5353 707 114.007 1100.41 474.696
1703 0 70.1656 11.5299 809 110.173 1100.77 476.326
1704 0 73.1869 10.9582 802 108.197 1100.88 473.794
1705 0 77.0786 12.1953 940 105.347 1100.39 470.966
1706 0 81.283 11.7614 956 105.223 1100.25 471.428
1707 0 83.1746 13.7061 1140 102.547 1100.04 470.652
1708 0 84.3525 12.021 1014 107.352 1100.1 467.865
1709 0 86.2354 12.1644 1049 107.024 1100.98 466.645
1710 0 91.3369 13.3024 1215 105.412 1100.33 465.226
1711 0 93.2211 12.5508 1170 106.993 1100.08 465.151
1712 0 96.3792 11.9113 1148 110.019 1100.49 459.407
1713 0 100.432 14.0991 1416 105.812 1100.67 460.072
1714 0 101.338 12.1475 1231 111.391 1100.64 458.829
1715 0 105.322 13.6154 1434 107.916 1100.56 457.424
1716 1 59.1102 10.6242 628 99.6608 1101.38 483.142
1717 0 63.0934 12.3943 782 95.0307 1101.54 480.708
1718 0 62.2622 11.0661 689 104.649 1100.3 479.685
1719 0 65.2303 12.6322 824 105.488 1101.59 477.487
1720 0 69.1326 12.6424 874 105.166 1099.65 478.412
1721 0 71.1346 13.8751 987 102.856 1099.53 477.501
1722 0 72.2806 12.8389 928 105.945 1099.92 475.471
1723 0 75.1978 13.5376 1018 104.545 1099.79 474.715
1724 0 76.249 13.5215 1031 105.833 1100.03 473.446
1725 0 81.3001 14.797 1203 103.187 1100.34 472.277
1726 0 83.445 14.0931 1176 105.865 1100.59 471.679
1727 0 84.5261 13.2385 1119 110.225 1100.41 468.864
1728 0 88.5468 13.6086 1205 109.464 1100.53 466.915
1729 0 90.349 13.4479 1215 110.309 1101.04 464.639
1730 0 93.5555 14.1306 1322 107.266 1100.65 462.964
1731 0 93.2618 13.5747 1266 111.476 1100.28 458.243
1732 0 97.2216 12.6412 1229 113.851 1100.56 458.356
1733 0 101.484 13.8248 1403 111.014 1101.39 452.947
1734 0 105.356 12.3866 1305 114.753 1101.6 453.555
1735 1 59.24 10.2127 605 113.289 1100.79 474.702
1736 0 63.505 10.6291 675 112.11 1100.82 474.996
1737 0 64.0853 11.3131 725 108.429 1101.85 481.858
1738 0 66.0907 11.8927 786 107.603 1101.32 479.905
1739 0 67.0875 11.3136 759 108.966 1100.84 480.302
1740 0 70.1479 11.1051 779 108.959 1101.41 481.001
1741 0 73.1395 12.1548 889 107.694 1101.19 477.912
1742 0 73.1841 11.6555 853 109.091 1101.31 476.143
1743 0 77.097 13.1263 1012 105.534 1101.11 475.12
1744 0 80.2517 13.0963 1051 105.951 1101.43 474.403
1745 0 82.1918 13.2982 1093 107.522 1101.07 470.685
1746 0 84.1479 11.9551 1006 112.978 1101.61 471.271
1747 0 89.1099 13.6236 1214 109.44 1101.32 468.979
1748 0 92.1543 13.6836 1261 109.335 1100.86 467.504
1749 0 93.2133 11.3825 1061 114.483 1100.99 467.874
1750 0 93.1284 12.4881 1163 114.477 1101.43 463.756
1751 0 98.4723 13.7602 1355 110.321 1101.17 463.935
1752 0 102.214 12.4249 1270 113.553 1101.45 462.146
1753 0 106.26 12.7141 1351 113.109 1101.24 458.982
1754 0 108.173 12.97 1403 112.33 1101.07 460.404
1755 1 60.0956 11.7313 705 105.77 1101.25 484.745
1756 0 61.1177 11.4042 697 107.143 1101.18 481.944
1757 0 64.0978 12.7462 817 103.789 1100.55 481.854
1758 0 66.0965 11.922 788 105.609 1101.11 479.697
1759 0 67.0939 11.7447 788 106.928 1100.85 476.036
1760 0 71.0783 12.8872 916 104.377 1101.65 476.291
1761 0 72.113 13.5482 977 104 1101.5 476.558
1762 0 72.2282 11.4221 825 109.341 1101.16 473.589
1763 0 77.2061 12.0457 930 107.575 1101.07 473.829
1764 0 77.2013 11.9299 921 134.482 1100.07 473.946
1765 0 82.1031 12.3625 1015 108.9 1101.6 471.684
1766 0 83.1812 13.7651 1145 107.379 1101.88 468.616
1767 0 86.174 12.5908 1085 110.549 1101.43 470.56
1768 0 86.0637 12.1189 1043 113.528 1101.53 467.169
1769 0 90.0337 13.6171 1226 110.769 1101.05 466.849
1770 0 93.1441 13.5382 1261 111.768 1100.92 466.89
1771 0 94.2186 13.1821 1242 114.262 1101.43 464.512
1772 0 99.1871 12.9049 1280 113.979 1100.5 464.917
1773 0 101.159 12.4952 1264 117.027 1100.55 461.721
1774 0 104.235 12.6638 1320 117.015 1100.99 460.093
1775 0 108.223 13.4999 1461 114.342 1100.83 457.943
1776 0 109.257 13.3172 1455 115.786 1100.96 454.436
1777 0 113.289 12.6138 1429 117.724 1100.95 453.449
1778 0 120.175 13.3888 1609 115.015 1101.25 452.928
1779 0 124.275 12.8827 1601 117.16 1100.77 453.085
1780 0 124.275 12.8908 1602 143.856 1099.76 453.162
1781 1 70.06 11.2761 790 117.328 1100.96 474.913
1782 0 75.1048 12.5292 941 110.433 1101.83 475.687
1783 0 77.1462 12.4439 960 111.971 1101.01 473.699
1784 0 81.0868 12.6654 1027 111.493 1101.57 471.282
1785 0 83.0964 12.7081 1056 111.072 1102.45 472.164
1786 0 87.1956 13.2575 1156 110.657 1101.21 468.91
1787 0 87.1956 13.3952 1168 149.604 1100.25 468.987
1788 0 92.1189 12.1908 1123 115.606 1101.15 465.045
1789 0 95.1481 11.9708 1139 115.313 1101.6 463.815
1790 0 99.1393 13.476 1336 112.796 1101.47 461.826
1791 0 102.179 13.2513 1354 114.424 1101.72 461.689
1792 0 104.237 13.1432 1370 116.369 1101.44 458.374
1793 0 108.132 14.2326 1539 114.937 1101.58 456.641
1794 0 111.257 14.2733 1588 114.856 1101.33 456.835
1795 0 114.124 13.4152 1531 117.909 1101.1 454.784
1796 0 117.179 13.0228 1526 119.9 1100.91 451.053
1797 0 121.195 12.9708 1572 120.994 1101.44 449.722
1798 0 126.125 14.1606 1786 117.391 1101.23 448.966
1799 0 129.281 12.3838 1601 121.345 1101.4 447.591
1800 1 74.1342 12.0997 897 115.939 1099 472.065
1801 0 75.0861 11.3337 851 118.637 1099.52 469.828
1802 0 78.0437 12.1855 951 116.109 1099.65 471.621
1803 0 80.0429 12.1685 974 114.658 1100.2 464.403
1804 0 83.0521 12.6908 1054 114.083 1100.43 462.273
1805 0 85.0556 12.4272 1057 113.305 1100.39 463.912
1806 0 88.1429 12.9222 1139 113.879 1100.72 461.122
1807 0 88.098 12.5656 1107 116.192 1100.64 456.632
1808 0 91.096 9.83578 896 113.004 1101.07 455.538
1809 0 96.127 11.7345 1128 109.096 1101.37 454.563
1810 0 96.0669 9.87853 949 114.231 1101.21 451.205
1811 0 104.119 12.3416 1285 107.306 1101.17 453.286
1812 0 108.111 11.2384 1215 110.444 1100.98 448.453
1813 0 110.072 11.8104 1300 109.157 1101.13 448.967
1814 0 114.135 11.3988 1301 110.563 1100.7 446.081
1815 0 115.129 12.5945 1450 109.389 1100.75 444.223
1816 0 124.187 12.6664 1573 116.996 1100.25 447.085
1817 1 63.0948 10.7774 680 112.435 1100.37 467.634
1818 0 66.0337 9.28314 613 113.086 1100.38 468.465
1819 0 70.0545 10.1778 713 110.052 1101.88 466.003
1820 0 75.0336 10.3287 775 108.457 1101.77 466.955
1821 0 76.0326 9.49592 722 110.323 1101.96 465.741
1822 0 82.1753 11.1347 915 105.164 1101.64 464.758
1823 0 85.0594 11.6272 989 104.322 1101.49 465.435
1824 0 87.1885 12.6393 1102 109.429 1099.91 467.876
1825 0 89.2999 12.5868 1124 110.196 1100.45 465.81
1826 0 92.1948 11.9855 1105 111.537 1100.49 461.903
1827 0 96.1693 12.7795 1229 108.335 1100.92 463.891
1828 0 98.1759 12.2433 1202 108.233 1100.93 463.343
1829 0 102.21 11.6329 1189 109.589 1100.6 461.657
1830 0 102.133 11.9452 1220 109.294 1100.85 460.746
1831 0 106.118 12.7217 1350 108.402 1101.31 454.928
1832 0 110.19 11.4257 1259 109.45 1101.33 455.733
1833 0 112.105 11.6409 1305 108.641 1101 451.934
1834 0 116.249 12.241 1423 105.663 1100.64 452.455
1835 0 119.108 12.1319 1445 107.199 1100.1 448.785
1836 0 121.177 12.1062 1467 108.048 1099.59 447.396
1837 0 122.308 9.49243 1161 113.534 1100.09 443.937
1838 0 129.244 11.0643 1430 109.666 1100.28 446.08
1839 0 134.262 11.8202 1587 110.08 1100.39 437.825
1840 1 80.5447 11.3602 915 100.687 1100.71 470.275
1841 0 81.4351 12.206 994 100.601 1100.03 467.524
1842 0 82.1763 12.6314 1038 95.5087 1100.82 468.986
1843 0 86.2102 11.472 989 98.0081 1100.48 467.06
1844 0 88.1552 10.958 966 99.1491 1099.77 465.687
1845 0 91.2528 10.4106 950 101.543 1100.66 462.861
1846 0 92.1688 9.93829 916 103.584 1101.26 460.427
1847 0 92.166 9.87349 910 129.703 1102.28 460.301
1848 0 97.1915 10.3816 1009 106.781 1101.33 456.597
1849 0 102.178 10.5307 1076 106.31 1101.09 457.336
1850 0 105.161 10.9831 1155 105.585 1100.37 457.479
1851 0 107.165 10.3299 1107 108.418 1099.93 456.145
1852 0 109.218 9.82436 1073 112.354 1099.99 449.029
1853 0 113.123 10.4664 1184 110.467 1099.63 452.881
1854 0 116.302 10.7307 1248 111.032 1100.01 451.032
1855 0 118.24 10.0727 1191 113.395 1100.24 445.903
1856 0 121.3 11.8384 1436 111.329 1100.11 443.307
1857 0 128.299 10.3898 1333 113.46 1099.6 443.343
1858 0 132.193 11.7933 1559 111.794 1100.75 439.356
1859 0 136.217 11.7239 1597 110.863 1100.57 442.026
1860 1 77.3954 11.0472 855 104.187 1100.48 470.201
1861 0 78.4172 10.3676 813 108.231 1100.61 468.363
1862 0 83.4032 12.8652 1073 102.695 1100.86 465.8
1863 0 86.144 12.3514 1064 101.071 1100.23 465.808
1864 0 88.1986 11.3607 1002 103.691 1100.23 464.848
1865 0 89.1523 12.0356 1073 103.177 1100.47 462.906
1866 0 91.4296 11.2655 1030 105.534 1099.26 462.602
1867 0 94.2754 10.8618 1024 107.079 1100.4 460.06
1868 0 98.1272 12.5144 1228 104.323 1099.97 457.939
1869 0 99.2274 12.8896 1279 104.576 1099.8 458.23
1870 0 104.229 12.3478 1287 105.713 1099.59 455.537
1871 0 104.208 12.4559 1298 107.733 1099.33 451.572
1872 0 108.159 11.8714 1284 107.449 1100.33 449.407
1873 0 109.21 10.759 1175 111.115 1100.03 450.356
1874 0 113.209 11.1387 1261 111.466 1100.12 447.006
1875 0 118.312 12.6023 1491 108.2 1099.95 447.79
1876 0 121.172 13.551 1642 106.812 1099.75 446.518
1877 0 124.266 12.3284 1532 109.96 1100.02 444.806
1878 0 126.216 11.924 1505 112.015 1100.62 443.542
1879 0 131.292 12.0267 1579 112.108 1099.89 443.419
1880 0 136.258 12.3148 1678 111.236 1099.37 441.79
1881 0 142.169 12.9071 1835 112.023 1098.85 436.93
1882 1 81.1513 11.1397 904 104.586 1098.92 466.274
1883 0 85.1646 12.1882 1038 101.45 1099.11 467.309
1884 0 86.0677 12.3972 1067 101.661 1099.36 463.018
1885 0 89.1573 12.1246 1081 101.763 1098.55 463.877
1886 0 92.1988 12.5273 1155 101.32 1098.13 463.102
1887 0 96.2048 12.91 1242 100.606 1099.18 461.751
1888 0 97.1323 11.0262 1071 105.988 1099.41 460.098
1889 0 101.142 13.0411 1319 102.239 1099.68 457.637
1890 0 104.099 13.5448 1410 101.716 1099.44 458.152
1891 0 105.156 13.1138 1379 103.682 1099.97 457.234
1892 0 109.129 11.8392 1292 106.673 1099.75 453.977
1893 0 113.113 12.3505 1397 107.196 1099.71 450.747
1894 0 115.158 13.4598 1550 105.224 1100.07 450.591
1895 0 121.244 12.5368 1520 107.396 1100.1 448.797
1896 0 125.112 13.3001 1664 105.394 1100.11 447.562
1897 0 127.164 12.2204 1554 109.066 1100.07 443.537
1898 0 135.147 13.9034 1879 104.376 1100.2 443.428
1899 0 141.198 13.2509 1871 105.765 1100.23 441.007
1900 0 145.192 13.2307 1921 106.822 1100.62 437.459
1901 1 80.2194 10.8577 871 105.424 1100.05 470.029
1902 0 85.2827 12.3824 1056 103.452 1101.82 462.893
1903 0 85.0847 10.2604 873 110.892 1102.48 459.808
1904 0 88.244 11.5362 1018 108.658 1102.63 459.828
1905 0 90.1267 9.83061 886 114.266 1102.68 457.366
1906 0 93.107 11.2236 1045 111.165 1102.43 456.771
1907 0 95.1801 11.5886 1103 111.606 1101.87 455.341
1908 0 98.1581 9.70883 953 116.542 1102.19 452.191
1909 0 101.06 11.0627 1118 114.323 1102 451.821
1910 0 104.12 11.2562 1172 114.346 1102.19 451.436
1911 0 108.076 12.371 1337 112.627 1102.06 449.191
1912 0 106.147 11.8609 1259 116.671 1101.98 444.974
1913 0 110.144 11.7573 1295 117.082 1101.37 443.893
1914 0 117.144 13.5474 1587 112.186 1102.25 441.64
1915 0 118.116 13.1142 1549 113.432 1102.12 444.901
1916 0 123.106 13.7362 1691 111.357 1101.52 442.645
1917 0 123.297 13.4472 1658 113.367 1101.27 436.703
1918 0 131.191 12.5237 1643 114.274 1101.21 440.991
1919 0 131.163 11.703 1535 115.411 1101.34 436.646
1920 0 138.233 12.0015 1659 116.683 1100.56 431.36
1921 0 143.232 12.183 1745 116.474 1100.75 429.746
1922 0 150.259 13.1839 1981 114.197 1100.44 428.338
1923 0 152.217 11.477 1747 120.543 1100.62 423.228
1924 1 85.0794 9.83787 837 111.662 1101.38 459.593
1925 0 87.0848 10.5414 918 106.839 1102.13 463.309
1926 0 91.0721 11.705 1066 111.471 1101.98 459.187
1927 0 96.1647 11.5739 1113 111.105 1101.54 458.257
1928 0 96.1944 11.799 1135 112.227 1101.94 454.557
1929 0 101.155 12.7923 1294 109.178 1102.19 456.454
1930 0 104.113 13.3029 1385 109.17 1101.91 454.345
1931 0 107.196 12.1553 1303 115.916 1100.29 456.572
1932 0 111.271 12.3393 1373 118.899 1100.29 453.073
1933 0 114.202 12.4517 1422 118.996 1100.27 453.83
1934 0 117.236 12.0612 1414 120.89 1100.51 451.348
1935 0 121.259 12.1228 1470 120.477 1099.84 450.689
1936 0 126.236 12.3341 1557 120.7 1101.05 444.991
1937 0 128.232 11.9783 1536 120.687 1101.25 446.694
1938 0 133.325 11.6632 1555 123.356 1101.37 445.385
1939 0 137.342 11.8973 1634 123.284 1100.99 441.728
1940 0 139.319 11.2332 1565 126.16 1101.6 436.711
1941 0 146.435 12.5584 1839 121.301 1101.05 440.524
1942 0 150.328 12.1535 1827 118.13 1100.51 435.522
1943 0 154.374 11.6859 1804 120.014 1100.23 431.88
1944 0 158.424 9.64501 1528 125.447 1100.48 433.707
1945 1 91.2897 11.217 1024 112.989 1099.77 463.703
1946 0 93.1926 11.3743 1060 113.045 1100.45 463.167
1947 0 93.1926 11.4494 1067 131.978 1101.44 463.121
1948 0 99.2582 11.8781 1179 111.554 1099.92 460.074
1949 0 103.152 11.1777 1153 114.076 1099.18 458.213
1950 0 106.141 12.9922 1379 110.096 1099.55 457.69
1951 0 109.232 11.8738 1297 116.041 1100.46 457.627
1952 0 112.275 12.0953 1358 115.85 1100.85 453.711
1953 0 118.142 13.1028 1548 113.649 1100.57 454.141
1954 0 119.23 12.3543 1473 115.609 1100.04 452.551
1955 0 122.288 13.0675 1598 113.494 1100.31 448.143
1956 0 125.256 12.4385 1558 115.076 1100.21 448.727
1957 0 128.215 13.0874 1678 113.849 1100.91 444.173
1958 0 133.454 12.1015 1615 115.194 1100.5 446.081
1959 1 76.2243 11.6367 887 114.702 1099.72 473.404
1960 0 82.4969 12.7399 1051 115.656 1100.7 469.306
1961 0 81.112 10.615 861 108.196 1101.62 468.489
1962 0 84.1952 12.3047 1036 103.133 1101.21 464.52
1963 0 84.1994 10.2495 863 109.618 1101.03 461.149
1964 0 89.3006 12.1388 1084 104.854 1100.97 462.318
1965 0 92.1342 11.3639 1047 106.942 1101.36 459
1966 0 94.349 11.3091 1067 107.649 1101.58 457.01
1967 0 95.2946 10.9555 1044 110.388 1101.09 456.476
1968 0 100.26 13.2656 1330 105.031 1100.89 455.967
1969 0 102.144 12.1202 1238 110.68 1101.14 455.381
1970 0 105.126 12.0332 1265 110.828 1101.27 456.171
1971 0 107.147 10.9849 1177 114.034 1101.21 454.951
1972 0 111.095 12.2598 1362 111.536 1101.68 453.823
1973 0 113.146 12.3822 1401 111.48 1101.3 453.517
1974 0 118.207 11.4375 1352 115.09 1101.64 453.297
1975 0 118.116 13.0211 1538 115.447 1101.69 444.75
1976 0 124.144 12.0022 1490 120.47 1101.93 444.523
1977 0 129.257 11.6589 1507 120.762 1101.2 443.169
1978 0 134.286 12.8904 1731 117.172 1101.43 441.577
1979 1 77.2207 11.4089 881 108.795 1102.36 469.596
1980 0 79.2451 10.4991 832 110.335 1101.88 468.001
1981 0 83.1735 11.0492 919 110.009 1101.8 467.321
1982 0 82.2545 11.355 934 110.669 1101.43 461.853
1983 0 87.2187 11.3164 987 109.783 1102.12 464.72
1984 0 88.3097 11.3238 1000 109.646 1101.47 461.424
1985 0 94.2234 12.5871 1186 105.647 1101.86 460.825
1986 0 93.2403 11.0896 1034 110.265 1101.17 458.486
1987 0 98.1764 11.8868 1167 107.985 1101.35 457.945
1988 0 101.183 11.1185 1125 110.059 1101.5 457.047
1989 0 106.213 12.748 1354 106.018 1101.55 454.87
1990 0 107.257 12.512 1342 108.601 1101.57 452.138
1991 0 108.185 11.0274 1193 113.275 1100.61 446.933
1992 0 113.278 12.3502 1399 110.502 1100.93 448.815
1993 0 118.34 12.388 1466 109.892 1100.49 448.817
1994 0 118.284 11.2187 1327 113.093 1101.06 447.112
1995 0 121.271 10.9095 1323 114.216 1101.34 445.608
1996 0 126.281 11.6328 1469 113.545 1101.28 440.164
1997 0 132.38 11.9655 1584 112.35 1100.81 441.008
1998 0 137.307 12.0315 1652 112.227 1101.07 438.627
1999 0 141.4 12.2277 1729 112.976 1101.24 434.946
2000 0 149.278 11.6159 1734 113.084 1101.18 431.915
2001 1 83.1946 10.6858 889 103.171 1101.19 463.11
2002 0 86.243 10.598 914 104.522 1101.62 459.119
2003 0 90.1642 10.7803 972 104.855 1100.99 459.582
2004 0 89.3312 11.2391 1004 105.326 1100.6 456.111
2005 0 96.2239 11.0679 1065 103.385 1100.81 462.603
2006 0 98.1304 10.6593 1046 106.828 1100.67 456.286
2007 0 101.204 11.4719 1161 106.289 1100.61 453.2
2008 0 104.234 12.6158 1315 104.053 1101.07 453.604
2009 0 106.221 12.1257 1288 105.812 1101.08 452.766
2010 0 111.166 11.5503 1284 106.407 1100.6 454.611
2011 0 113.228 10.7482 1217 109.61 1100.44 447.689
2012 0 115.23 9.30311 1072 112.917 1100.69 448.383
2013 0 120.254 12.2906 1478 107.592 1100.91 448.624
2014 0 121.359 9.89626 1201 113.943 1100.55 442.96
2015 0 127.308 12.4109 1580 109.644 1100.21 438.443
2016 0 130.281 12.166 1585 110.553 1100.62 438.446
2017 0 134.265 11.5294 1548 112.997 1101.03 436.117
2018 0 140.335 12.0213 1687 111.357 1101.23 435.596
2019 0 143.267 11.517 1650 114.493 1101.2 429.912
2020 0 147.342 11.4292 1684 113.909 1101.56 433.5
2021 0 152.276 9.90306 1508 117.81 1101.49 430.264
2022 1 89.258 9.6574 862 108.486 1102.13 462.577
2023 0 91.1777 10.0244 914 106.984 1102.01 463.329
2024 0 94.3235 11.5772 1092 107.238 1102.05 459.355
2025 0 97.0973 12.678 1231 103.881 1102.74 461.288
2026 0 99.2455 10.6101 1053 107.228 1102.31 463.069
2027 0 103.172 12.9686 1338 102.893 1102.24 457.601
2028 0 106.132 12.5504 1332 104.381 1102.07 457.148
2029 0 109.144 12.1948 1331 105.306 1101.81 453.724
2030 0 115.279 12.1444 1400 105.304 1101.74 451.725
2031 0 117.137 12.3445 1446 105.649 1101.91 451.254
2032 0 120.298 11.937 1436 106.412 1101.77 449.792
2033 0 122.1 10.5405 1287 106.447 1100.8 436.736
2034 0 125.172 11.0408 1382 105.541 1100.89 439.584
2035 0 125.121 10.1821 1274 108.054 1101.07 435.4
2036 0 136.182 10.7503 1464 105.672 1100.93 436.946
2037 0 139.214 10.509 1463 107.198 1100.41 430.538
2038 0 141.177 10.5966 1496 109.76 1100.69 423.419
2039 0 142.158 12.1062 1721 108.413 1100.6 421.938
2040 0 149.263 10.7194 1600 111.869 1101.07 422.868
2041 0 156.254 11.1613 1744 110.717 1101.17 418.12
2042 0 160.184 11.312 1812 110.638 1101.25 417.935
2043 0 165.314 12.3523 2042 109.517 1100.83 414.208
2044 0 167.313 11.4815 1921 115.045 1100.83 413.719
2045 0 171.226 11.4819 1966 115.871 1100.8 409.031
2046 0 173.305 11.9673 2074 116.095 1100.84 410.39
2047 0 181.251 11.5806 2099 118.53 1100.39 406.074
2048 0 190.297 13.4317 2556 116.605 1100.31 409.235
2049 0 188.216 11.9119 2242 121.808 1100.75 402.598
2050 0 196.268 12.3607 2426 120.696 1100.92 396.906
2051 0 205.328 12.2243 2510 120.343 1100.75 399.605
2052 0 210.264 13.0075 2735 118.83 1100.29 396.688
2053 0 214.431 12.6288 2708 120.852 1100.82 391.181
2054 0 223.326 12.7885 2856 120.301 1101.04 392.944
2055 0 231.331 13.7898 3190 117.632 1100.7 381.545
2056 0 238.315 12.9199 3079 120.14 1101.21 379.393
2057 1 50.0303 7.45548 373 105.099 1102.1 475.145
2058 0 54.0387 8.84551 478 101.278 1101.27 477.172
2059 0 56.0285 8.92404 500 101.216 1102.49 476.556
2060 0 58.0151 8.67016 503 102.332 1102.01 474.229
2061 0 58.0378 8.73569 507 104.304 1102.53 472.385
2062 0 58.0432 8.82102 512 105.176 1103 471.613
2063 0 59.0682 8.60022 508 106.833 1102.3 468.496
2064 0 61.0607 8.58163 524 105.561 1102.13 469.426
2065 0 60.0406 9.61016 577 106.428 1102.85 467.13
2066 0 66.0708 8.50602 562 106.9 1102.16 469.135
2067 0 65.0508 8.27046 538 109.314 1102.14 464.792
2068 0 69.0716 8.81694 609 107.913 1102.36 464.374
2069 0 74.1381 9.77904 725 105.033 1101.82 465.291
2070 0 73.0987 9.30249 680 106.574 1101.56 462.953
2071 0 71.1373 9.34812 665 108.418 1101.57 461.042
2072 0 75.2092 7.35282 553 112.662 1101.44 457.42
2073 0 82.194 10.3901 854 104.211 1101.74 462.382
2074 0 85.2775 10.1082 862 108.916 1100.93 466.133
2075 0 88.2223 10.5416 930 109.806 1101.95 462.926
2076 0 93.2491 11.3567 1059 105.693 1102.08 463.493
2077 0 94.2512 11.4163 1076 106.655 1101.72 461.032
2078 0 94.2326 10.9516 1032 108.484 1101.2 456.972
2079 0 98.2344 12.572 1235 103.701 1101.85 461.64
2080 0 102.255 11.7452 1201 104.616 1101.67 461.47
2081 0 101.339 10.4994 1064 109.617 1101.29 455.045
2082 0 107.209 10.2417 1098 104.731 1100.96 456.593
2083 0 109.181 10.7253 1171 103.851 1100.75 458.176
2084 1 122.311 18.8618 2307 84.9293 1100.39 448.11
2085 0 128.711 20.0837 2585 82.2468 1100.87 440.932
2086 0 128.249 14.2926 1833 95.0671 1100.47 443.061
2087 0 129.248 15.6831 2027 94.3019 1100.73 444.969
2088 0 128.157 14.6383 1876 99.0666 1100.75 446.584
2089 0 130.232 12.4393 1620 104.169 1101.18 447.063
2090 0 134.301 11.6827 1569 105.88 1100.47 445.914
2091 0 138.239 13.6865 1892 101.57 1100.65 444.679
2092 0 142.422 13.2985 1894 103.636 1100.11 442.055
2093 0 142.488 12.2186 1741 107.609 1099.68 437.936
2094 1 83.2525 10.306 858 106.612 1099.51 466.943
2095 0 88.2731 11.9289 1053 109.638 1100.23 465.374
2096 0 90.1575 10.7922 973 107.86 1101.11 462.857
2097 0 94.1504 12.4907 1176 107.55 1101.73 463.36
2098 0 93.1191 11.4477 1066 112.524 1101.31 461.669
2099 0 95.2031 11.5227 1097 111.117 1100.79 463.968
2100 0 99.0807 12.404 1229 110.692 1100.93 457.743
2101 0 102.175 12.7331 1301 109.759 1101.51 458.108
2102 0 101.264 11.9588 1211 114.48 1101.43 452.402
2103 0 107.172 12.2607 1314 113.56 1101.49 453.473
2104 0 112.2 14.1712 1590 108.408 1101.93 453.204
2105 0 115.35 13.0646 1507 113.226 1101.33 447.93
2106 0 114.246 11.8516 1354 115.473 1101.08 444.209
2107 0 117.154 12.5561 1471 116.433 1100.52 442.462
2108 0 122.141 12.2973 1502 116.664 1100.56 441.067
2109 0 125.24 13.9492 1747 113.102 1100.43 441.03
2110 0 125.207 12.3395 1545 118.239 1100.45 435.493
2111 0 133.177 12.735 1696 115.728 1099.63 436.854
2112 0 135.216 13.386 1810 115.075 1099.78 434.832
2113 0 136.188 11.3666 1548 115.544 1099.85 432.593
2114 1 80.1621 8.96933 719 114.306 1100.25 459.754
2115 0 83.0838 11.0491 918 110.136 1100.69 459.565
2116 0 87.1638 12.0233 1048 107.89 1100.79 458.487
2117 0 89.1975 10.09 900 110.037 1100.56 459.781
2118 0 90.2163 11.5944 1046 109.25 1100.61 453.57
2119 0 97.2149 11.0168 1071 109.114 1100.25 453.451
2120 0 93.3162 9.28028 866 115.124 1099.67 448.889
2121 0 102.262 12.6049 1289 106.11 1100.44 451.176
2122 0 102.223 10.3401 1057 112.845 1100.61 447.317
2123 0 103.247 11.5645 1194 111.207 1099.97 443.255
2124 0 107.087 12.0743 1293 110.48 1099.96 445.017
2125 0 113.232 12.3993 1404 108.801 1100.77 443.213
2126 0 112.125 13.0658 1465 108.623 1099.66 438.647
2127 0 114.187 11.7964 1347 111.304 1100.03 438.863
2128 0 124.275 12.9712 1612 107.833 1099.48 434.921
2129 0 124.171 11.8385 1470 111.132 1099.56 433.518
2130 0 128.258 12.6463 1622 109.14 1099.71 432.239
2131 0 134.159 10.4577 1403 113.985 1099.38 432.601
2132 0 134.199 12.787 1716 111.399 1099.43 425.943
2133 0 139.25 10.9012 1518 113.034 1099.52 427.877
2134 0 140.189 10.2861 1442 114.56 1099.24 430.279
2135 1 83.1991 9.7477 811 106.596 1099.63 461.838
2136 0 87.1059 10.493 914 105.385 1100.26 456.796
2137 0 84.0991 8.52565 717 103.667 1099.88 458.29
2138 0 89.0429 9.59088 854 100.464 1100.14 462.685
2139 0 93.0732 9.94916 926 100.925 1099.99 459.011
2140 0 96.063 9.55623 918 103.696 1099.82 454.654
2141 0 99.0752 11.2036 1110 100.89 1099.9 455.773
2142 0 99.0667 11.1743 1107 123.781 1099.9 455.713
2143 0 100.284 11.2281 1126 103.592 1099.65 452.029
2144 0 104.113 10.8247 1127 105.678 1099.92 447.993
2145 0 107.154 10.4615 1121 106.657 1099.35 449.169
2146 0 112.11 10.3469 1160 108.118 1099.79 444.892
2147 0 114.097 10.9644 1251 108.779 1099.48 443.177
2148 0 120.191 11.3486 1364 109.301 1099.67 443.988
2149 0 120.138 11.57 1390 111.45 1099.76 438.178
2150 0 123.164 11.1803 1377 112.514 1099.65 435.71
2151 0 133.242 12.8413 1711 107.511 1099.89 436.063
2152 0 136.132 11.1583 1519 112.007 1100.53 438.267
2153 1 74.1866 9.5435 708 106.958 1099.58 467.292
2154 0 78.0246 11.035 861 105.947 1099.54 469.85
2155 0 82.0518 13.3696 1097 115.313 1097.84 470.127
2156 0 83.0342 12.3202 1023 119.431 1098.45 469.495
2157 0 88.1181 14.1401 1246 115.116 1098.27 467.065
2158 0 89.0851 12.8192 1142 119.006 1098.37 466.863
2159 0 93.0798 13.0426 1214 118.923 1098.55 464.533
2160 0 97.069 13.5883 1319 117.492 1098.95 463.35
2161 0 97.1017 13.5837 1319 118.908 1098.17 460.751
2162 0 100.075 12.6904 1270 121.84 1098.29 459.787
2163 0 104.065 15.1636 1578 115.207 1098.42 457.402
2164 0 107.095 13.306 1425 119.333 1098.72 457.803
2165 0 110.182 14.6394 1613 115.096 1098.7 455.547
2166 0 111.166 13.9341 1549 117.932 1098.4 452.295
2167 0 111.082 12.6303 1403 121.463 1100.54 454.148
2168 0 115.128 13.1854 1518 118.975 1100.35 454.561
2169 0 119.142 13.2782 1582 119.063 1100.51 451.319
2170 0 124.067 14.6534 1818 117.732 1099.89 446.777
2171 0 128.186 12.7705 1637 121.654 1100.05 447.814
2172 0 132.102 15.0187 1984 116.147 1099.71 442.557
2173 0 136.213 13.9414 1899 119.278 1099.49 441.581
2174 0 140.224 13.4356 1884 121.114 1099.16 437.888
2175 1 81.1134 11.1572 905 115.66 1098.45 468.465
2176 0 82.0817 11.2205 921 113.263 1099.35 461.404
2177 0 82.1603 10.8081 888 105.341 1099.88 464.8
2178 0 83.1351 11.9564 994 104.09 1099.42 460.681
2179 0 89.1138 11.4236 1018 105.234 1099.56 458.07
2180 0 92.1103 12.2896 1132 104.239 1100.06 459.931
2181 0 92.0562 11.6016 1068 107.169 1100.09 457.492
2182 0 96.1001 11.4464 1100 108.289 1099.64 456.377
2183 0 99.1765 11.0712 1098 110.095 1099.67 455.288
2184 0 104.213 12.2922 1281 107.785 1099.54 453.22
2185 0 108.118 12.921 1397 106.784 1100 450.526
2186 0 111.183 12.232 1360 110.147 1099.99 448.565
2187 0 114.112 12.3738 1412 110.715 1100.33 448.278
2188 0 117.19 13.8152 1619 107.784 1099.36 446.825
2189 0 117.173 12.665 1484 113.685 1099.48 442.383
2190 0 124.2 13.2529 1646 112.285 1099.54 442.586
2191 0 127.13 12.9474 1646 113.395 1099.64 439.146
2192 0 133.335 12.9823 1731 114.903 1099.48 437.261
2193 0 136.43 12.5925 1718 120.159 1099.4 432.774
2194 0 142.341 13.0953 1864 118.859 1100.03 436.706
2195 0 148.277 13.441 1993 119.187 1099.78 427.139
2196 1 82.1508 11.2841 927 116.228 1099.63 459.955
2197 0 80.1612 11.1775 896 142.475 1099.59 458.949
2198 0 88.0923 10.6933 942 114.532 1099.95 460.821
2199 0 94.0635 11.0776 1042 110.488 1099.2 463.557
2200 0 95.0907 12.262 1166 108.492 1100.09 463.759
2201 0 96.0984 11.2385 1080 116.938 1099.88 462.29
2202 0 100.122 11.7956 1181 114.344 1099.41 461.765
2203 0 104.083 11.5005 1197 116.379 1098.66 459.804
2204 0 107.159 12.0288 1289 115.451 1098.99 456.178
2205 0 111.203 11.5375 1283 116.073 1099.07 454.764
2206 0 116.096 12.3864 1438 113.982 1098.72 451.337
2207 0 119.185 11.973 1427 114.259 1099.33 451.364
2208 0 122.113 12.816 1565 112.284 1099.45 449.665
2209 0 129.169 12.1005 1563 113.246 1099.43 446.845
2210 0 132.19 13.0116 1720 110.38 1099.36 446.323
2211 0 135.179 12.8349 1735 112.196 1099.64 443.593
2212 0 140.193 12.8822 1806 113.553 1099.02 437.844
2213 0 143.17 11.7693 1685 118.875 1099.36 437.585
2214 0 148.186 12.1807 1805 117.954 1099.45 436.739
2215 0 154.208 11.3807 1755 119.532 1098.61 434.631
2216 0 158.204 11.5989 1835 120.146 1098.68 432.959
2217 1 88.1671 11.7164 1033 111.782 1098.9 466.819
2218 0 88.2722 11.0227 973 118.032 1099.62 458.01
2219 0 95.3057 13.5144 1288 111.033 1099.68 461.438
2220 0 96.2582 12.7054 1223 115.211 1100.37 458.408
2221 0 100.12 13.394 1341 113.473 1100.14 457.637
2222 0 104.177 12.1524 1266 116.454 1100.45 456.261
2223 0 106.189 13.476 1431 113.655 1099.46 457.033
2224 0 108.243 13.2388 1433 115.374 1098.93 455.03
2225 0 113.177 13.3331 1509 115.632 1099.16 454.246
2226 0 117.175 13.6804 1603 114.757 1099.49 452.633
2227 0 118.212 13.0951 1548 116.952 1099.24 450.756
2228 0 123.152 13.8691 1708 114.914 1099.47 451.724
2229 0 126.15 13.6742 1725 116.191 1099.74 449.737
2230 0 129.126 12.6776 1637 120.847 1099.02 442.394
2231 0 135.203 13.3429 1804 118.789 1099.58 444.081
2232 0 137.212 12.8633 1765 121.514 1099.51 440.016
2233 0 141.182 13.1532 1857 121.786 1099.38 439.215
2234 0 146.185 13.483 1971 121.822 1099.41 436.856
2235 0 151.394 13.2832 2011 122.788 1099.58 433.165
2236 0 158.271 13.8244 2188 128.164 1099.3 432.614
2237 0 161.451 13.2857 2145 128.701 1099.09 427.544
2238 0 166.432 13.8975 2313 128.815 1099.19 424.939
2239 0 170.506 13.155 2243 131.997 1099.22 423.141
2240 0 176.359 13.172 2323 131.397 1099.04 418.917
2241 0 181.441 13.1393 2384 129.842 1098.78 416.612
2242 0 184.329 12.9714 2391 132.048 1099.66 412.662
2243 0 192.45 13.1878 2538 132.656 1100.23 408.743
2244 0 198.325 13.73 2723 131.892 1099.97 404.674
2245 0 203.501 13.6216 2772 133.334 1099.4 399.768
2246 0 210.419 14.4283 3036 130.573 1099.29 399.438
2247 0 216.413 13.8809 3004 133.308 1099.85 396.506
2248 0 221.186 14.0334 3104 132.092 1099.81 397.597
2249 0 227.324 13.3202 3028 135.413 1098.98 387.49
2250 0 234.35 13.834 3242 135.45 1098.28 386.209
2251 0 245.346 13.593 3335 136.175 1099.1 382.488
2252 1 53.042 7.67316 407 105.329 1098.18 475.297
2253 0 60.0986 12.3963 745 102.282 1101.55 481.579
2254 0 58.0435 9.76853 567 108.69 1100.99 481.414
2255 0 63.1671 11.24 710 104.056 1100.93 479.921
2256 0 61.122 10.0128 612 108.675 1101.63 479.276
2257 0 65.2174 11.316 738 105.641 1101.07 478.321
2258 0 67.205 10.9664 737 107.129 1100.77 479.905
2259 0 69.2103 11.1689 773 107.471 1100.83 478.68
2260 0 71.2682 9.90624 706 109.867 1100.43 478.581
2261 0 72.2766 10.9579 792 109.279 1100.41 478.148
2262 0 75.278 11.5173 867 107.509 1100.07 478.627
2263 0 76.4379 9.96888 762 112.06 1099.74 475.287
2264 0 76.5233 9.23902 707 117.635 1099.22 473.629
2265 0 81.1757 11.0131 894 106.582 1098.56 479.456
2266 0 81.1937 10.4442 848 108.9 1097.96 479.746
2267 0 85.1351 10.6302 905 110.13 1097.51 476.971
2268 0 86.1102 9.97558 859 113.648 1097.39 473.729
2269 0 90.2039 10.0772 909 112.207 1096.71 475.446
2270 0 90.3266 11.4141 1031 110.819 1096.74 473.856
2271 0 93.49 10.7926 1009 113.714 1096.81 469.257
2272 0 99.5719 11.6599 1161 111.183 1096.55 468.055
2273 0 99.5014 11.0953 1104 112.964 1096.38 469.197
2274 0 106.509 13.2665 1413 107.374 1096.19 465.382
2275 0 106.568 12.0392 1283 112.405 1096.28 464.06
2276 0 109.609 12.9004 1414 111.243 1096.12 463.97
2277 0 112.501 12.0621 1357 113.113 1095.84 461.969
2278 0 115.496 13.0134 1503 109.9 1095.4 463.953
2279 0 122.474 11.529 1412 114.692 1094.98 459.845
2280 1 70.2617 11.2152 788 102.082 1095 485.194
2281 0 72.3329 12.4425 900 99.4867 1094.06 485.366
2282 0 73.4566 10.8636 798 104.083 1093.89 482.595
2283 0 74.3776 10.8904 810 104.877 1093.44 483.704
2284 0 76.3313 10.5199 803 106.237 1093.1 481.655
2285 0 79.2881 11.8681 941 104.544 1093.17 480.645
2286 0 78.3263 9.79237 767 109.598 1092.94 476.164
2287 0 84.4116 12.3561 1043 102.963 1092.89 477.789
2288 0 86.3787 11.9242 1030 104.215 1092.52 478.478
2289 0 87.4022 11.8189 1033 105.597 1092.43 477.43
2290 0 89.1612 11.8998 1061 106.545 1092.99 476.71
2291 0 91.4013 11.2799 1031 108.263 1093.67 474.417
2292 0 94.2565 11.2777 1063 108.69 1093.49 474.824
2293 0 95.1704 11.1169 1058 110.202 1093.72 470.812
2294 0 99.3513 12.4407 1236 107.32 1093.37 472.354
2295 0 102.378 11.6041 1188 110.133 1093.73 470.823
2296 0 106.32 11.2397 1195 111.11 1093.89 469.572
2297 0 108.314 11.2543 1219 113.171 1094.43 465.29
2298 0 113.36 11.8825 1347 111.226 1094.23 464.31
2299 0 115.229 12.5229 1443 111.034 1093.3 461.394
2300 0 121.395 11.7632 1428 112.289 1093.55 461.067
2301 0 123.307 11.9053 1468 112.356 1093.63 457.485
2302 0 124.241 11.7272 1457 114.675 1093.41 452.329
2303 0 130.39 11.9105 1553 114.457 1093.29 451.934
2304 0 136.512 11.8744 1621 114.096 1092.86 449.8
2305 0 140.323 13.5758 1905 110.441 1093.55 450.261
2306 0 144.347 13.62 1966 111.385 1093.09 448.879
2307 0 149.437 13.0356 1948 113.569 1093.15 443.284
2308 0 155.542 13.424 2088 113.191 1092.82 439.661
2309 0 157.384 11.1511 1755 119.299 1092.92 438.643
2310 0 164.433 13.2881 2185 115.746 1092.48 434.375
2311 0 168.548 12.7204 2144 117.229 1092.83 429.039
2312 0 174.519 13.6489 2382 115.456 1092.87 434.14
2313 1 102.235 10.8182 1106 113.091 1093.15 470.721
2314 0 103.374 10.8248 1119 113.685 1092.83 464.792
2315 0 107.274 11.9041 1277 110.379 1092.94 466.292
2316 0 110.289 11.3883 1256 115.744 1092.92 461.545
2317 0 113.355 11.4154 1294 115.828 1092.96 460.06
2318 0 118.352 10.8828 1288 116.557 1093.4 458.307
2319 0 122.221 11.8637 1450 113.538 1093.29 453.154
2320 0 125.232 11.3229 1418 113.768 1093.4 452.444
2321 0 115.207 12.1954 1405 111.11 1093.82 443.74
2322 1 125.289 12.4033 1554 108.166 1094 448.622
2323 0 126.277 8.87733 1121 113.204 1094.62 453.447
2324 0 125.288 8.51636 1067 111.088 1094.8 456.943
2325 1 78.1009 7.28544 569 105.357 1094.94 465.211
2326 0 82.074 9.91788 814 96.344 1094.86 468.163
2327 0 83.0661 8.33071 692 98.1647 1094.43 466.016
2328 0 84.0856 9.57358 805 96.5267 1094.06 467.591
2329 0 88.1535 8.91626 786 98.3677 1093.75 464.354
2330 0 92.0937 10.2939 948 95.5992 1093.72 465.719
2331 0 95.156 11.0976 1056 95.4091 1094.26 461.842
2332 0 98.192 11.3044 1110 95.7216 1094.2 460.332
2333 0 99.1582 11.2648 1117 95.7502 1094.43 461.708
2334 0 98.0775 9.43131 925 101.781 1094.1 452.331
2335 0 102.145 10.1131 1033 101.904 1093.73 451.631
2336 0 112.233 10.2643 1152 114.875 1094.17 459.335
2337 0 113.202 10.1676 1151 116.608 1093.8 456.983
2338 0 119.303 9.22022 1100 119.842 1093.84 452.71
2339 0 125.33 11.4338 1433 114.417 1093.38 453.505
2340 0 128.385 12.1977 1566 114.117 1094.01 449.236
2341 0 133.323 13.7786 1837 111.147 1094.29 448.238
2342 0 135.454 11.1993 1517 117.837 1094.08 447.038
2343 0 139.389 12.0167 1675 115.45 1094.25 445.383
2344 0 145.569 11.1769 1627 117.939 1094.55 442.221
2345 0 148.756 11.3071 1682 118.805 1094.29 437.14
2346 1 89.3428 9.27886 829 111.423 1094.98 470.364
2347 0 94.4985 10.1377 958 109.538 1094.88 468.901
2348 0 96.6931 11.1383 1077 108.626 1095.25 463.542
2349 0 98.5839 11.8376 1167 108.892 1094.81 461.826
2350 0 102.61 10.8469 1113 109.176 1095.42 460.989
2351 0 102.532 9.42147 966 113.32 1095.57 457.718
2352 0 104.201 9.46251 986 104.596 1095.07 456.826
2353 0 109.123 9.73213 1062 104.226 1096.06 458.391
2354 0 112.124 11.3981 1278 100.944 1096.36 456.06
2355 0 115.097 10.1393 1167 104.971 1095.81 452.15
2356 0 119.225 10.5515 1258 104.282 1096 452.829
2357 0 121.164 10.2258 1239 106.414 1095.63 442.504
2358 0 127.149 12.1354 1543 101.823 1095.65 446.793
2359 0 126.154 9.39326 1185 108.334 1096.65 441.142
2360 0 132.177 11.409 1508 104.075 1096.87 440.903
2361 0 136.182 11.1395 1517 105.102 1096.98 438.715
2362 0 141.18 11.8076 1667 103.579 1096.76 438.588
2363 0 147.17 11.4221 1681 103.463 1096.07 437.268
2364 1 82.1084 7.70932 633 103.115 1096.28 465.161
2365 0 88.0464 10.4604 921 101.043 1095.5 465.102
2366 0 93.0859 10.6246 989 102.38 1096.09 462.28
2367 0 95.128 11.2795 1073 101.522 1096.05 461.038
2368 0 98.1864 10.7245 1053 97.6942 1096.3 463.351
2369 0 99.3805 11.1692 1110 98.0405 1096.16 460.378
2370 0 104.273 11.1055 1158 98.272 1095.87 460.841
2371 0 105.447 11.9207 1257 97.9403 1095.94 455.917
2372 0 104.309 10.0662 1050 102.92 1096.97 453.231
2373 0 112.409 11.5383 1297 99.5759 1096.7 454.701
2374 0 115.44 11.9716 1382 99.8857 1097.35 453.421
2375 0 114.244 10.6877 1221 104.454 1097.24 448.821
2376 0 120.427 12.7878 1540 100.264 1096.66 449.321
2377 0 123.301 11.3057 1394 103.62 1096.69 444.675
2378 0 127.331 11.4662 1460 103.797 1096.91 442.049
2379 0 131.408 12.7389 1674 101.056 1097.08 443.477
2380 0 132.225 12.4334 1644 103.356 1096.89 438.633
2381 0 138.229 12.0525 1666 103.612 1096.6 438.609
2382 0 142.271 11.4218 1625 104.638 1097.33 433.55
2383 0 148.421 10.4567 1552 107.015 1097.21 432.768
2384 0 155.479 11.873 1846 104.768 1097.09 428.803
2385 1 92.4644 11.8965 1100 94.85 1097.24 466.141
2386 0 94.3376 10.9606 1034 95.4478 1097.89 463.46
2387 0 96.1509 11.534 1109 95.4905 1098.26 459.35
2388 0 97.269 12.1827 1185 95.5688 1097.87 459.431
2389 0 101.168 11.387 1152 98.2448 1097.8 458.702
2390 0 110.204 9.40073 1036 103.681 1097.96 457.471
2391 0 109.269 10.3873 1135 102.392 1097.59 455.774
2392 0 111.264 10.4077 1158 103.795 1096.69 450.712
2393 0 110.484 8.03738 888 110.216 1096.99 442.784
2394 0 117.261 10.3871 1218 104.923 1097.38 445.885
2395 0 121.392 12.0024 1457 102.622 1097.47 444.38
2396 0 125.504 11.3861 1429 104.079 1097.49 444.843
2397 0 130.39 9.80136 1278 106.226 1097.54 446.117
2398 0 131.227 11.1714 1466 106.001 1097.57 440.319
2399 0 133.331 10.2227 1363 108.641 1097.3 439.148
2400 0 137.228 10.5737 1451 108.221 1096.88 439.566
2401 0 141.292 10.1634 1436 109.565 1097.19 436.74
2402 0 147.256 10.6753 1572 109.158 1097.21 432.538
2403 0 151.304 11.4736 1736 107.426 1096.89 432.635
2404 0 156.357 10.4505 1634 110.365 1097.26 428.685
2405 0 159.289 11.5011 1832 107.428 1096.89 432.177
2406 0 164.308 11.1741 1836 110.353 1097.12 424.692
2407 0 170.197 10.0531 1711 113.249 1097.29 422.82
2408 0 175.377 11.4667 2011 111.024 1097.3 417.091
2409 0 180.259 10.496 1892 114.301 1098.14 412.082
2410 0 187.33 11.4344 2142 112.451 1098.3 413.495
2411 0 191.257 10.3735 1984 116.125 1097.69 411.213
2412 0 196.235 11.5525 2267 114.812 1097.36 406.751
2413 0 204.298 12.1489 2482 114.074 1097.74 404.627
2414 0 209.415 12.9074 2703 112.324 1098.37 405.172
2415 0 212.333 11.3077 2401 118.006 1097.79 395.833
2416 0 216.327 12.042 2605 117.494 1098.11 394.709
2417 0 223.334 12.2686 2740 117.495 1097.43 389.614
2418 0 230.313 12.3788 2851 117.796 1096.82 386.974
2419 0 237.509 13.5069 3208 115.851 1097.64 383.082
2420 0 243.413 12.3288 3001 118.283 1097.33 382.268
2421 0 253.301 11.9779 3034 120.127 1097.37 372.003
2422 1 59.0325 9.60488 567 90.6755 1096.68 480.688
2423 0 61.0401 9.92789 606 93.3944 1096.56 480.211
2424 0 62.1578 10.3286 642 97.715 1097.57 479.14
2425 0 62.0778 10.8734 675 90.3985 1099.77 481.342
2426 0 64.1762 9.13111 586 94.0785 1099.71 478.954
2427 0 62.0911 6.73204 418 99.689 1100.64 477.646
2428 0 65.1522 8.96362 584 95.6986 1100.01 476.664
2429 0 68.1056 9.51464 648 94.2562 1100.15 479.466
2430 0 69.1232 8.82482 610 98.1164 1100.53 476.098
2431 0 71.1825 8.59762 612 100.008 1100.97 473.989
2432 0 73.1163 10.2166 747 97.8728 1100.52 473.021
2433 0 75.1506 9.63399 724 99.2224 1100.16 472.95
2434 0 78.0709 10.3111 805 98.9466 1100.04 471.268
2435 0 79.1109 10.441 826 98.6416 1099.48 472.201
2436 0 82.0679 11.1615 916 96.7009 1100.27 466.56
2437 0 85.1304 11.8172 1006 96.3529 1099.74 467.298
2438 0 86.0783 12.082 1040 96.0856 1099.76 464.904
2439 0 89.1948 12.4895 1114 95.9031 1100.08 464.515
2440 0 92.0961 12.1069 1115 98.2987 1099.34 462.467
2441 0 92.1286 10.6482 981 103.759 1100.28 464.512
2442 1 110.419 17.7235 1957 82.6265 1100.35 453.841
2443 0 111.124 15.6672 1741 88.5709 1099.99 458.168
2444 0 111.108 18.7835 2087 84.092 1100.33 454.37
2445 0 107.196 14.6555 1571 97.4545 1099.23 458.288
2446 0 106.193 12.2984 1306 105.806 1099.77 458.65
2447 0 109.185 12.2178 1334 106.995 1099.74 457.164
2448 0 112.194 12.4606 1398 107.127 1098.96 454.83
2449 0 115.167 12.5123 1441 106.755 1098.75 453.743
2450 0 118.095 12.4815 1474 109.349 1099.87 454.699
2451 0 121.145 12.0847 1464 109.207 1098.94 451.044
2452 1 66.0572 10.8542 717 96.0823 1098.2 469.396
2453 0 65.1368 9.73337 634 100.364 1098.6 464.976
2454 0 62.0717 9.10238 565 99.0513 1098.08 463.163
2455 0 68.2583 8.54109 583 98.0652 1098.59 467.815
2456 0 70.1348 10.7792 756 95.4947 1098.88 467.254
2457 0 75.2937 10.4258 785 95.051 1098.99 466.53
2458 0 69.087 10.8414 749 99.1362 1098.84 459.041
2459 0 74.1261 11.1567 827 97.6264 1098.55 461.594
2460 0 74.23 10.4001 772 101.951 1098.89 460.041
2461 0 77.1942 11.5682 893 101.036 1098.97 459.542
2462 0 82.1342 11.5908 952 101.328 1099.02 459.335
2463 0 83.1506 10.956 911 102.629 1098.57 457.634
2464 0 84.0573 11.968 1006 103.458 1098.4 454.021
2465 0 86.1735 11.6509 1004 103.208 1097.96 457.565
2466 0 87.1204 9.79104 853 109.36 1098.24 451.576
2467 0 92.1632 11.4688 1057 104.576 1098.89 452.753
2468 0 95.1227 10.6073 1009 107.256 1098.23 448.223
2469 0 94.2099 10.2431 965 109.174 1098.45 448.234
2470 0 100.14 10.046 1006 108.771 1098.49 446.916
2471 0 105.167 11.5055 1210 105.901 1098.4 446.45
2472 0 108.082 11.3525 1227 104.672 1098.42 443.194
2473 0 105.18 12.0936 1272 105.475 1099.09 442.333
2474 1 115.174 10.6621 1228 106.47 1098.96 443.152
2475 0 119.147 11.6746 1391 105.563 1098.84 443.605
2476 0 127.209 11.1706 1421 108.661 1099.42 441.671
2477 0 131.212 12.2474 1607 105.33 1099.19 441.096
2478 0 134.234 11.2788 1514 106.705 1099.41 438.861
2479 1 79.1216 10.2753 813 96.2091 1099.91 468.096
2480 0 78.1357 9.00997 704 99.7102 1100.04 461.574
2481 0 82.0769 10.9044 895 95.152 1100.14 464.778
2482 0 86.1134 10.2539 883 96.1268 1100.56 467.202
2483 0 89.0447 10.8036 962 95.578 1100.5 463.343
2484 0 91.091 11.5489 1052 94.2975 1100.52 462.423
2485 0 94.1432 11.7162 1103 94.1342 1100.87 460.807
2486 0 95.1298 12.2254 1163 93.5305 1100.33 457.087
2487 0 99.0812 12.4847 1237 92.9038 1100.01 456.025
2488 0 101.166 13.0874 1324 92.2175 1099.87 455.109
2489 0 106.194 11.4979 1221 95.8444 1099.42 454.606
2490 0 105.152 9.03458 950 106.233 1099.59 450.56
2491 0 110.14 10.3142 1136 102.284 1099.4 451.23
2492 0 114.221 10.8999 1245 100.755 1099.86 445.22
2493 0 117.366 11.0509 1297 99.6268 1099.1 444.116
2494 1 70.1531 10.3203 724 88.1119 1100.43 472.414
2495 0 72.0944 9.2795 669 89.7803 1100.44 472.428
2496 0 73.2331 10.6373 779 89.0783 1098.36 467.312
2497 0 75.096 10.7729 809 91.2868 1100.75 467.874
2498 0 78.0994 11.575 904 90.5808 1100.83 467.632
2499 0 82.1177 11.7392 964 89.9793 1100.72 465.009
2500 0 82.1618 11.0027 904 92.9502 1101.34 465.8
2501 0 85.0496 11.8519 1008 92.8145 1100.79 463.142
2502 0 89.1277 12.3418 1100 92.2909 1100.95 465.523
2503 0 90.1017 12.5303 1129 93.3543 1100.56 464.578
2504 0 92.1344 12.1236 1117 95.3715 1100.45 462.69
2505 0 94.1324 11.6219 1094 97.9616 1100.09 459.657
2506 0 98.1678 13.8029 1355 95.2185 1099.93 457.752
2507 0 99.1766 11.6661 1157 101.449 1100.31 456.696
2508 0 102.175 11.9795 1224 101.816 1100.7 454.948
2509 0 102.135 9.77139 998 107.56 1100.79 458.048
2510 0 106.129 11.618 1233 105.63 1100.25 449.986
2511 0 111.157 11.5243 1281 106.582 1099.97 449.742
2512 0 116.115 13.2455 1538 103.049 1100.2 452.793
2513 0 118.157 11.9078 1407 108.142 1100.22 449.321
2514 0 119.13 11.7015 1394 110.222 1100.42 445.586
2515 0 121.117 11.5013 1393 111.296 1100.76 447.399
2516 0 127.264 12.3915 1577 109.858 1100.29 446.116
2517 0 130.225 12.4477 1621 111.995 1100.37 443.02
2518 0 129.264 11.8595 1533 116.866 1099.99 438.477
2519 0 140.185 14.3738 2015 109.625 1099.73 438.971
2520 0 142.302 12.2908 1749 114.088 1098.99 437.402
2521 0 139.372 12.5348 1747 113.31 1099.92 422.207
2522 1 84.1161 8.7617 737 105.649 1099.43 458.634
2523 0 84.139 9.78143 823 107.704 1100.83 454.344
2524 0 84.1016 7.21746 607 102.407 1099.65 455.591
2525 0 91.0886 11.3955 1038 96.1464 1100.04 452.283
2526 0 90.2043 11.1081 1002 98.976 1100.14 450.112
2527 0 94.2381 11.0571 1042 100.125 1099.85 448.177
2528 0 96.0635 10.6076 1019 105.629 1099.23 447.846
2529 0 100.232 9.50797 953 109.132 1099.97 443.62
2530 0 103.109 11.0369 1138 105.165 1099.55 443.928
2531 0 103.078 11.8454 1221 102.888 1100.19 441.278
2532 0 106.138 10.7501 1141 105.833 1100.88 438.031
2533 0 111.206 11.1235 1237 104.308 1100.39 438.508
2534 0 111.182 11.7285 1304 104.281 1099.87 438.494
2535 0 116.102 11.085 1287 106.975 1100.15 434.559
2536 0 120.17 11.1508 1340 107.095 1100.63 434.323
2537 0 121.177 11.8174 1432 106.899 1100.02 430.869
2538 1 68.0731 10.4153 709 99.3258 1099.29 458.528
2539 0 71.1324 9.50341 676 101.963 1100.24 458.935
2540 0 75.1062 10.3054 774 100.964 1099.78 458.037
2541 0 76.0412 11.0072 837 98.4194 1099.41 455.195
2542 0 78.1255 10.5599 825 99.4509 1099.12 453.112
2543 0 78.1022 9.84607 769 101.614 1099.74 452.917
2544 0 85.0802 12.2473 1042 96.167 1099.28 453.447
2545 0 88.0461 10.9147 961 100.027 1099.44 448.583
2546 0 86.0471 10.5872 911 101.101 1099.51 448.33
2547 0 89.0489 11.9822 1067 114.345 1100.48 449.793
2548 0 92.0569 10.9389 1007 100.875 1099.72 446.007
2549 0 98.1387 12.6046 1237 97.6791 1100.29 446.272
2550 0 101.049 12.4197 1255 99.2693 1100.48 442.611
2551 0 104.089 11.3172 1178 102.16 1099.71 441.017
2552 0 106.088 11.1983 1188 103.621 1099.63 439.828
2553 0 111.138 12.5159 1391 101.204 1099.69 438.067
2554 0 115.138 11.3429 1306 105.425 1100.14 437.023
2555 0 117.059 10.499 1229 107.127 1100.38 435.572
2556 0 121.136 10.7235 1299 107.214 1099.84 432.767
2557 0 127.15 12.3083 1565 103.968 1100.73 427.626
2558 0 135.302 12.9414 1751 102.58 1100.35 428.565
2559 0 139.23 12.0879 1683 103.348 1100.26 427.05
2560 1 77.3285 10.1386 784 99.6046 1100.98 457.584
2561 0 82.396 11.8088 973 102.048 1101.24 462.643
2562 0 84.3448 12.3066 1038 102.814 1101.25 459.107
2563 0 87.4768 12.0718 1056 107.208 1100.64 461.848
2564 0 87.3423 11.6553 1018 109.935 1101.2 456.472
2565 0 92.4263 12.6371 1168 106.517 1100.52 456.551
2566 0 93.6429 11.9496 1119 108.21 1101.28 455.455
2567 0 93.2566 11.9348 1113 109.181 1101.41 452.966
2568 0 97.2534 12.7193 1237 106.727 1100.6 453.333
2569 0 97.1733 12.3285 1198 107.832 1100.91 453.433
2570 0 95.1542 10.5618 1005 113.008 1101.69 447.357
2571 0 101.37 12.4199 1259 108.515 1100.5 444.786
2572 0 109.361 12.8656 1407 106.612 1100.59 442.195
2573 0 110.386 12.103 1336 108.844 1100.69 442.28
2574 0 115.236 13.4767 1553 106.504 1100.53 440.33
2575 0 115.284 12.5169 1443 110.713 1100.07 439.682
2576 0 117.163 10.8311 1269 113.383 1099.91 434.905
2577 0 122.19 11.6048 1418 110.933 1100.63 435.697
2578 0 124.17 12.5473 1558 110.352 1100.36 434.449
2579 0 131.284 12.6444 1660 110.136 1100.68 430.895
2580 0 136.379 12.2379 1669 111.264 1100.24 428.515
2581 0 140.233 11.5379 1618 114.018 1100.41 425.053
2582 1 76.1502 10.4924 799 110.044 1100.34 458.36
2583 0 81.2385 9.57674 778 111.91 1100.92 456.919
2584 0 84.2326 10.2929 867 111.362 1100.68 455.194
2585 0 90.3497 12.8833 1164 104.86 1100.03 457.253
2586 0 85.4155 10.7826 921 113.309 1099.65 452.243
2587 0 90.2078 11.5068 1038 108.667 1100.42 450.672
2588 0 95.1966 12.2273 1164 107.393 1099.74 453.64
2589 0 96.1713 11.7187 1127 110.224 1099.83 449.304
2590 0 95.1968 12.0382 1146 111.906 1100.32 445.476
2591 0 100.233 13.5984 1363 107.77 1100.23 445.773
2592 0 102.189 12.4867 1276 110.521 1100.16 441.742
2593 0 107.111 11.9408 1279 112.124 1100.71 436.558
2594 0 107.148 12.898 1382 111.071 1099.83 434.949
2595 0 107.178 12.092 1296 114.204 1100.22 433.23
2596 0 106.151 12.0018 1274 115.842 1099.96 430.86
2597 0 118.179 13.0903 1547 110.568 1100.57 434.278
2598 0 120.316 13.797 1660 110.516 1100.34 429.108
2599 0 123.131 13.3516 1644 111.773 1099.81 427.81
2600 0 130.214 13.8849 1808 110.277 1099.91 427.013
2601 0 128.191 11.0304 1414 118.149 1100.3 427.909
2602 0 131.209 11.5998 1522 118.909 1100.4 423.666
2603 0 142.276 13.6355 1940 113.358 1100.19 417.829
2604 0 150.343 12.6178 1897 113.569 1100.21 423.055
2605 1 86.6076 11.7542 1018 112.33 1100.53 453.243
2606 0 90.6571 11.4497 1038 115.257 1100.6 449.995
2607 0 91.3779 12.1802 1113 115.124 1100.2 448.447
2608 0 94.6441 14.4964 1372 110.086 1100.28 450.779
2609 0 98.3242 14.442 1420 111.879 1100.62 447.538
2610 0 102.437 13.3935 1372 113.762 1101 446.909
2611 0 103.447 12.8182 1326 116.564 1099.73 445.157
2612 0 107.701 13.2218 1424 116.573 1099.98 444.182
2613 0 108.486 13.0247 1413 118.88 1100.28 441.752
2614 0 111.59 13.9259 1554 117.54 1099.97 441.94
2615 0 115.59 13.5047 1561 118.019 1100.26 442.457
2616 0 119.442 13.8142 1650 118.395 1100.06 440.565
2617 0 118.641 12.6095 1496 123.253 1100.59 437.895
2618 0 123.428 13.9352 1720 119.088 1100.38 436.552
2619 0 127.468 14.184 1808 118.572 1100.25 432.534
2620 0 132.369 13.2357 1752 119.91 1099.47 433.29
2621 0 135.398 13.4419 1820 119.041 1100.26 432.389
2622 0 143.439 13.3506 1915 117.96 1100.21 431.33
2623 0 146.526 13.1035 1920 117.725 1099.36 434.1
2624 0 152.601 13.8138 2108 117.449 1099.73 429.717
2625 0 154.328 12.3309 1903 122.411 1099.65 427.643
2626 0 157.275 12.7865 2011 124.512 1098.84 418.077
2627 0 164.33 13.5459 2226 122.643 1099.13 417.827
2628 0 167.261 12.896 2157 124.633 1099.16 416.112
2629 0 172.278 12.8049 2206 125.798 1098.17 415.764
2630 0 180.277 14.4555 2606 122.66 1098.51 410.028
2631 0 180.294 14.4597 2607 158.938 1098.5 409.894
2632 0 189.532 13.2484 2511 127.13 1098.92 405.976
2633 0 194.301 13.1188 2549 129.749 1098.31 398.834
2634 0 200.24 14.178 2839 127.313 1098.41 397.289
2635 0 205.371 13.9212 2859 129.22 1098.26 394.236
2636 0 214.343 15.3072 3281 125.298 1098.51 394.095
2637 1 48.0521 9.46889 455 109.464 1098.58 474.053
2638 0 47.0212 8.69821 409 112.112 1096.8 472.932
2639 0 52.044 10.664 555 106.105 1097.18 479.87
2640 0 54.0703 9.46915 512 108.309 1097.14 483.455
2641 0 56.3048 11.4555 645 104.589 1097.11 482.581
2642 0 58.1853 10.2603 597 106.804 1097.55 481.089
2643 0 59.1497 11.0905 656 105.797 1097.51 478.692
2644 0 59.1733 8.02727 475 113.543 1096.96 477.775
2645 0 59.1339 10.6876 632 108.802 1096.89 475.388
2646 0 66.1135 9.18118 607 111.206 1097.03 474.918
2647 0 64.2256 10.1673 653 110.349 1096.86 472.461
2648 0 67.1028 10.8192 726 109.284 1097.53 472.018
2649 0 69.1749 10.6397 736 109.976 1097.38 471.531
2650 0 69.1368 11.6291 804 109.236 1097.17 471.307
2651 0 71.1023 9.87309 702 114.225 1097.15 466.222
2652 0 76.1168 10.6941 814 111.163 1097.2 466.28
2653 0 73.1341 11.1166 813 113.212 1097.24 462.355
2654 0 76.0958 11.3804 866 112.284 1096.57 460.891
2655 0 76.0936 11.5121 876 113.191 1096.41 457.154
2656 0 82.1448 12.9527 1064 108.54 1096.39 456.477
2657 0 83.1527 10.0418 835 116.374 1096.97 456.632
2658 0 89.0913 12.0438 1073 110.876 1097.79 456.113
2659 0 90.1615 12.9545 1168 109.742 1096.52 455.438
2660 0 90.0854 9.93502 895 116.266 1096.17 452.878
2661 0 98.1013 11.5085 1129 110.923 1096.67 449.067
2662 0 100.164 10.5927 1061 114.863 1097.08 447.23
2663 0 105.105 11.1508 1172 113.043 1097.49 445.36
2664 0 109.162 11.4875 1254 110.655 1097.11 444.667
2665 1 65.0223 10.2734 668 107.874 1096.49 468.302
2666 0 68.206 10.3657 707 105.928 1096.61 468.29
2667 0 74.2471 10.6536 791 102.18 1097.48 467.223
2668 0 74.1535 11.2874 837 104.061 1097.57 463.927
2669 0 73.2376 10.2543 751 107.174 1097.3 462.264
2670 0 76.3248 11.7524 897 104.106 1097.66 461.252
2671 0 80.2607 12.422 997 102.336 1097.65 460.842
2672 0 82.3289 12.365 1018 102.458 1097.49 460.819
2673 0 83.2757 12.6327 1052 102.696 1096.94 458.79
2674 0 85.1223 13.2633 1129 101.541 1097.43 458.587
2675 0 89.3111 14.1304 1262 99.4691 1097.71 457.818
2676 0 86.2932 10.3137 890 110.683 1096.96 450.503
2677 0 92.2296 11.9268 1100 106.413 1097.45 454.49
2678 0 91.3012 13.1105 1197 104.691 1097.05 450.222
2679 0 91.3012 13.1762 1203 137.977 1097.06 450.175
2680 0 99.3298 12.836 1275 104.969 1097.16 449.256
2681 0 99.2676 12.1087 1202 107.93 1097.64 446.316
2682 0 102.277 11.332 1159 109.208 1097.38 444.533
2683 0 105.298 11.9755 1261 108.412 1097.73 441.489
2684 0 111.259 12.5653 1398 106.401 1097.8 442.395
2685 0 108.152 13.1759 1425 106.765 1097.77 437.321
2686 0 115.389 12.4708 1439 106.745 1097.91 441.451
2687 0 117.205 12.6615 1484 106.493 1097.76 439.943
2688 0 119.301 12.129 1447 108.813 1097.63 433.446
2689 0 123.217 12.198 1503 107.762 1097.65 436.189
2690 0 118.248 11.2306 1328 112.035 1097.94 428.68
2691 1 70.1348 8.7118 611 113.735 1097.34 455.82
2692 0 71.041 11.4582 814 108.83 1097.66 453.935
2693 0 74.166 11.6496 864 107.928 1097.64 450.743
2694 0 74.1285 12.195 904 107.475 1097.03 452.996
2695 0 75.1337 10.9139 820 110.665 1097.07 451.31
2696 0 79.2022 11.9567 947 107.82 1097.3 451.247
2697 0 79.2238 13.3546 1058 106.195 1096.85 447.934
2698 0 82.098 11.401 936 111.36 1097 445.95
2699 0 88.2219 11.9358 1053 108.583 1097.89 442.749
2700 0 91.1381 11.7624 1072 110.098 1097.09 441.665
2701 0 94.1709 12.7853 1204 108.463 1097.41 439.782
2702 0 94.2499 13.3793 1261 107.829 1097.49 437.754
2703 0 96.208 12.7432 1226 110.016 1097.42 438.054
2704 0 101.246 12.9586 1312 109.134 1097.36 434.342
2705 0 105.273 13.2323 1393 108.258 1097.83 436.414
2706 0 112.191 11.935 1339 109.762 1098.09 434.835
2707 0 112.216 13.2245 1484 107.693 1097.83 432.547
2708 0 113.375 13.1687 1493 108.628 1097.8 429.597
2709 0 122.227 13.7367 1679 106.138 1097.31 426.426
2710 0 119.179 12.1162 1444 112.111 1096.99 421.137
2711 0 128.164 13.1628 1687 107.885 1097.61 423.58
2712 0 136.207 11.556 1574 110.472 1097.32 420.857
2713 0 142.306 11.7283 1669 110.536 1097.88 417.451
2714 1 7.00012 6.99988 49 74.9796 1100.76 495.755
2715 0 11.0005 4.27255 47 77.617 1101 497.255
2716 0 16.0024 4.6243 74 78.027 1100.55 497.338
2717 0 16.0024 4.6243 74 90.5135 1099.55 497.338
2718 0 16.0012 4.62466 74 90.027 1099.55 497.338
2719 0 23.0056 3.99902 92 82.337 1099.98 500.598
2720 0 18.0062 7.16421 129 80.7829 1100.12 497.264
2721 0 20.0011 3.6998 74 85.3649 1097.68 499.311
2722 0 22.0033 7.45343 164 80.4756 1096.74 498.207
2723 0 18.0035 9.0538 163 79.2086 1095.18 497.147
2724 0 17.0125 5.17267 88 83.0795 1095.94 497.455
2725 0 17.1029 3.68358 63 85.6508 1096.14 498.841
2726 0 19.0132 5.31209 101 83.6931 1097.32 498.762
2727 0 26.0301 5.14788 134 83.9776 1097.94 497.687
2728 0 27.0483 3.77104 102 83.1275 1096.5 495.882
2729 0 23.0127 5.99669 138 83.1087 1096.7 493.428
2730 1 180.331 11.9336 2152 104.895 1098.92 412.771
2731 0 187.383 12.7333 2386 103.092 1099.45 409.137
2732 0 193.253 12.2379 2365 103.771 1099.63 409.701
2733 0 197.25 12.1268 2392 106.372 1099.54 398.619
2734 0 204.32 11.2275 2294 107.881 1099.32 403.695
2735 1 26.0155 6.15017 160 80.4188 1097.08 494.05
2736 0 22.0181 1.99835 44 87.0455 1096.68 493.795
2737 0 32.0338 6.08732 195 80.641 1097.67 494.728
2738 0 24.0327 6.78242 163 80.5337 1097.55 497.135
2739 0 31.0394 6.7656 210 81.3762 1097.6 491.643
2740 0 28.0178 6.49586 182 81.2747 1098.43 494.253
2741 0 25.0495 3.91225 98 80.102 1098.33 493.173
2742 0 24.0162 4.03895 97 85.4536 1097.65 496.495
2743 0 23.0093 7.8664 181 76.9392 1096.7 495.685
2744 0 28.0123 6.35436 178 82.4157 1097.99 494.702
2745 0 31.0172 5.80323 180 82.9944 1098.36 495.678
2746 0 25.0053 8.23826 206 79.8592 1098.59 498.413
2747 0 23.0346 5.99098 138 82.1667 1098.15 496.094
2748 0 27.0245 5.80955 157 80.7707 1098.79 496.484
2749 0 29.0212 3.58358 104 82.3173 1097.15 498.75
2750 0 27.0256 5.32829 144 82.9375 1097.12 494.819
2751 0 26.0072 7.76707 202 79.9158 1097.34 496.272
2752 0 30.0129 7.92993 238 79.4202 1098.14 496.046
2753 0 27.0161 5.99643 162 83.0185 1097.08 493.852
2754 0 31.0328 6.99259 217 81.2396 1098.88 495.995
2755 0 31.0284 3.57736 111 87.7838 1101.13 492.477
2756 0 33.116 6.00917 199 82.392 1101.61 493.804
2757 0 31.0955 6.4318 200 84.105 1101.88 488.23
2758 0 29.1147 5.049 147 83.9796 1102.22 492.762
2759 0 24.0312 5.86738 141 85.4752 1102.18 490.596
2760 0 26.0805 4.67783 122 83.9836 1102.12 494.467
2761 0 27.0349 5.43741 147 84.2789 1101.85 492.755
2762 0 29.0708 7.12055 207 81.6763 1102.86 492.691
2763 0 28.0323 6.27848 176 83.4318 1102.81 492.369
2764 0 30.0997 5.74757 173 84.5954 1102.12 490.514
2765 0 31.0543 8.59784 267 80.6966 1101.79 490.034
2766 0 25.0381 5.03233 126 85.9048 1102.12 493.444
2767 0 27.1763 6.80741 185 83.0703 1102.02 492.665
2768 0 25.0414 6.86861 172 82.2616 1102.08 493.099
2769 0 30.0881 7.24538 218 83.2156 1101.62 490.656
2770 0 28.0832 7.72703 217 82.8111 1102.9 491.129
2771 0 26.0311 6.76114 176 83 1101.03 496
2772 0 25.0402 5.31145 133 83.391 1099.4 496.654
2773 0 28.0044 4.24933 119 82.8992 1098.08 498.664
2774 0 22.0205 3.90545 86 84.1395 1097.44 500.349
2775 0 23.0055 6.17244 142 81.331 1097.99 497.725
2776 0 24.0404 5.69875 137 80.365 1097.55 497.847
2777 0 21.1502 5.72098 121 83.405 1096.55 495.041
2778 0 23.1412 4.27808 99 84.1919 1097.17 490.485
2779 0 21.0804 6.4515 136 79.5735 1097.42 497.721
2780 0 16.0245 3.99388 64 82.8594 1097.78 498.344
2781 0 21.009 5.09305 107 81.9907 1099.33 463.832
2782 0 29.0382 4.75236 138 80.6667 1098.33 470.051
