time division length width area intensity CMx CMy
0 0 45.0316 13.4794 607 146.667 1262.59 478.438
1 0 47.0627 14.2151 669 141.827 1262.69 479.036
2 0 48.0461 15.1521 728 138.394 1261 478.151
3 0 48.0149 14.558 699 141.984 1261.1 478.684
4 0 49.0151 14.4853 710 141.18 1261.44 478.768
5 0 50.0417 14.348 718 143.13 1262.26 477.341
6 0 50.0138 14.336 717 144.643 1261.57 476.172
7 0 51.026 14.0908 719 144.974 1261.23 476.672
8 0 54.0195 15.1797 820 139.81 1260.8 475.932
9 0 55.0219 14.1216 777 143.318 1261.27 475.189
10 0 58.0792 14.9796 870 137.829 1261.58 475.782
11 0 57.0433 14.1647 808 143.286 1261.83 475.446
12 0 58.066 14.6557 851 141.706 1261.76 474.867
13 0 61.042 14.4491 882 141.239 1261.58 473.755
14 0 64.0486 15.2384 976 137.046 1261.11 472.942
15 0 66.0366 15.9003 1050 133.576 1260.66 472.423
16 0 67.0515 14.5411 975 138.829 1260.88 472.636
17 0 69.0903 16.0515 1109 134.402 1260.47 470.363
18 0 72.1784 15.3924 1111 134.846 1260.25 471.041
19 0 72.083 14.2613 1028 140.532 1260.49 470.907
20 0 74.0853 15.2662 1131 137.103 1259.92 467.825
21 0 79.1915 14.5344 1151 137.368 1259.19 467.938
22 0 81.1138 15.768 1279 133.189 1258.65 467.306
23 0 83.0861 14.2623 1185 138.849 1259.34 465.463
24 0 85.1478 15.3498 1307 136.146 1260.2 465.292
25 0 90.0616 15.3895 1386 133.092 1259.63 462.944
26 1 45.0523 12.4966 563 136.938 1258.82 484.302
27 0 46.0278 11.6234 535 140.301 1258.18 484.327
28 0 46.0369 12.7506 587 137.675 1259.66 483.083
29 0 49.0898 12.9762 637 130.915 1259.54 484.069
30 0 49.0313 13.6239 668 128.225 1259.71 483.356
31 0 51.0515 12.0467 615 132.663 1259.36 484.446
32 0 52.0241 13.1862 686 130.086 1259.03 482.771
33 0 50.0268 12.3934 620 134.923 1258.64 481.174
34 0 55.0517 13.8597 763 128.221 1258.52 481.202
35 0 56.0368 12.5632 704 131.406 1258.42 480.974
36 0 56.0421 13.365 749 130.858 1259.33 479.465
37 0 59.1135 13.0596 772 131.637 1259.35 479.931
38 0 62.0604 13.5835 843 128.279 1259.3 479.639
39 0 64.0429 14.0843 902 128.539 1259.11 476.8
40 0 64.1733 14.118 906 130.046 1258.79 475.279
41 0 68.1916 13.5647 925 130.619 1258.64 474.355
42 0 69.0799 13.2455 915 131.496 1258.1 474.619
43 0 73.0453 14.5663 1064 127.561 1258.56 472.346
44 0 74.1837 13.9923 1038 131.954 1258.35 472.357
45 0 78.154 15.5334 1214 128.185 1258.26 471.242
46 0 78.1299 14.1559 1106 133.327 1257.78 469.652
47 0 82.1375 14.9627 1229 129.753 1257.94 467.251
48 0 87.0874 15.5821 1357 125.166 1258.59 468.326
49 0 88.1054 15.4361 1360 126.503 1258.05 464.996
50 0 92.1302 14.6098 1346 128.137 1258.18 464.422
51 0 95.1302 14.3067 1361 127.035 1258.21 465.17
52 0 97.0637 14.2587 1384 127.78 1258.93 460.224
53 1 50.0912 11.3593 569 125.163 1259.7 485.649
54 0 51.2646 12.3282 632 122.089 1258.41 485.407
55 0 52.049 12.2 635 125.502 1257.79 483.178
56 0 53.108 13.482 716 116.925 1257.62 483.761
57 0 56.1454 13.2513 744 116.375 1258.04 483.621
58 0 57.0949 13.2411 756 117.439 1258.13 482.112
59 0 60.0703 13.7672 827 114.738 1257.84 483.166
60 0 61.1127 13.1724 805 117.504 1257.55 480.804
61 0 61.1127 13.1887 806 148.846 1257.54 480.801
62 0 65.0953 13.7183 893 116.012 1258.25 479.006
63 0 66.0507 13.3988 885 116.768 1257.45 478.995
64 0 70.0781 13.7418 963 115.137 1256.63 477.276
65 0 74.0466 14.2073 1052 113.073 1256.65 477.128
66 0 74.0841 13.3092 986 116.484 1256.58 475.557
67 0 79.1455 13.8353 1095 114.234 1256.77 475.474
68 0 81.0746 14.2091 1152 113.925 1256.33 473.231
69 0 84.1073 13.1855 1109 116.023 1256.64 471.075
70 0 87.0741 14.1718 1234 113.188 1256.71 470.177
71 1 47.0501 12.8799 606 111.749 1257.01 489.843
72 0 47.0161 12.4 583 113.883 1257.71 488.106
73 0 50.0427 13.0688 654 111.024 1257.19 488.852
74 0 51.096 14.2672 729 110.833 1257.27 487.982
75 0 51.0714 12.3161 629 115.957 1257.23 488.081
76 0 53.169 13.5793 722 113.467 1257 486.434
77 0 56.0528 13.1483 737 113.201 1257.41 486.084
78 0 57.1332 12.9872 742 114.067 1257.23 484.993
79 0 60.0563 13.0211 782 112.272 1257.59 484.528
80 0 61.0183 12.7339 777 112.063 1258.1 484.026
81 0 64.0501 13.9266 892 110.359 1258.35 481.48
82 0 65.1314 13.5419 882 112.902 1257.67 479.297
83 0 68.0635 13.0026 885 113.634 1257.87 478.797
84 0 70.0791 13.128 920 114.65 1257.78 479.411
85 0 72.1705 13.482 973 114.225 1257.63 478.564
86 0 77.1209 14.1466 1091 112.096 1257.69 476.113
87 0 78.1376 13.4122 1048 114.443 1257.64 473.931
88 0 82.1082 14.0303 1152 112.529 1257.75 473.03
89 0 84.1271 13.5985 1144 112.858 1257.61 472.233
90 1 43.0748 11.1434 480 116.66 1257.62 491.712
91 0 45.0237 13.7483 619 108.695 1256.92 492.772
92 0 46.0278 12.3838 570 112.958 1256.24 491.761
93 0 48.0295 12.4923 600 113.148 1256.06 490.465
94 0 50.0737 11.9424 598 113.472 1255.99 490.418
95 0 48.1127 12.0135 578 115.574 1256.69 488.215
96 0 51.0678 13.5898 694 109.948 1256.06 487.677
97 0 51.0244 13.5622 692 112.285 1255.85 487.299
98 0 54.0924 11.9056 644 115.747 1255.85 486.963
99 0 56.0936 13.4775 756 111.819 1256.36 486.015
100 0 55.0388 12.1369 668 116.034 1256.57 485.716
101 0 58.0484 12.1795 707 116.441 1255.96 483.494
102 0 63.0195 13.6783 862 110.246 1256.26 482.746
103 0 64.0621 13.5962 871 108.777 1255.86 483.906
104 0 66.086 14.0272 927 110.082 1256.15 479.543
105 0 68.1155 11.7447 800 115.609 1256.05 478.447
106 0 70.083 12.7135 891 113.641 1255.42 477.907
107 0 73.0464 12.7316 930 113.918 1255.65 477.506
108 0 77.0648 13.0929 1009 112.322 1256.09 475.488
109 1 38.0994 11.9687 456 114.349 1255.56 493.535
110 0 40.1399 10.9118 438 115.966 1256.01 494.292
111 0 41.1189 10.9439 450 118.924 1255.84 492.331
112 0 44.0368 12.5804 554 119.948 1256.28 491.442
113 0 45.0586 12.5392 565 121.508 1256.65 492.37
114 0 47.0308 12.1622 572 122.486 1256.61 490.021
115 0 49.0553 12.6388 620 121.211 1254.82 489.855
116 0 47.1493 11.3257 534 118.448 1255.87 490.732
117 0 48.104 11.4336 550 119.424 1255.68 489.351
118 0 48.1226 10.3693 499 123.565 1256.4 488.651
119 0 51.1494 12.0236 615 118.886 1256.63 487.997
120 0 54.1597 13.0355 706 114.938 1255.82 486.38
121 0 54.1095 12.2714 664 117.62 1255.51 486.256
122 0 56.0544 12.2559 687 117.916 1255.36 484.36
123 0 59.0688 13.8144 816 113.179 1255.7 484.252
124 0 61.1242 13.5462 828 112.589 1255.64 483.198
125 0 62.0509 12.4575 773 115.145 1256.19 483.638
126 0 64.0729 12.8916 826 115.209 1256.03 482.292
127 0 67.0524 13.6311 914 113.456 1255.66 481.57
128 0 67.0832 12.6261 847 117.115 1255.81 480.74
129 0 71.0652 12.0031 853 117.314 1255.79 478.883
130 0 70.0575 12.19 854 118.563 1256.28 478.062
131 0 76.0558 14.2133 1081 112.385 1255.87 476.151
132 0 77.0427 13.3043 1025 115.34 1255.6 475.015
133 0 79.116 13.1832 1043 115.251 1255.48 473.932
134 0 81.0806 12.5307 1016 117.511 1255.83 474.048
135 0 86.0663 12.8157 1103 115.578 1255.84 472.989
136 0 88.09 12.7824 1126 117.526 1256.15 469.121
137 0 92.0676 12.7624 1175 117.052 1255.28 467.993
138 0 94.0935 13.6885 1288 117.292 1255.94 465.454
139 1 48.0701 10.7551 517 118.946 1256.53 489.89
140 0 50.1156 11.2939 566 118.981 1255.75 488.217
141 0 50.1611 11.5428 579 120.359 1254.32 485.157
142 0 52.1475 12.0428 628 118.258 1254.28 483.783
143 0 56.1307 12.845 721 114.613 1256.35 484.121
144 0 57.0311 14.4658 825 110.525 1256.44 481.436
145 0 60.048 12.6898 762 114.071 1256.13 481.803
146 0 62.0371 12.5892 781 113.814 1256.37 480.781
147 0 65.1224 11.9007 775 116.174 1255.6 479.916
148 0 67.1419 13.3002 893 122.403 1255.74 478.196
149 0 69.157 13.0572 903 122.558 1255.82 477.663
150 0 70.113 12.0377 844 125.569 1255.24 477.023
151 0 74.1002 12.861 953 122.615 1255.4 474.665
152 0 76.1298 14.0287 1068 120.833 1255.76 473.728
153 0 79.1731 12.7947 1013 124.416 1256.33 472.328
154 0 82.0986 12.5093 1027 124.79 1256.52 471.649
155 0 83.1241 13.0167 1082 123.549 1256.25 469.679
156 0 88.0691 12.4788 1099 123.504 1255.91 468.26
157 0 86.1279 12.5859 1084 125.705 1255.77 465.399
158 0 90.0827 12.6994 1144 125.28 1255.87 465.584
159 0 96.0785 12.7916 1229 122.125 1255.43 463.964
160 0 98.0978 12.4264 1219 122.632 1255.58 462.86
161 0 101.099 11.6717 1180 124.733 1256.26 459.172
162 0 105.307 11.9841 1262 124.482 1256.55 456.562
163 1 55.0155 11.4331 629 119.304 1256.87 485.192
164 0 57.0892 12.4017 708 119.167 1256.44 481.959
165 0 60.0638 13.186 792 118.981 1257.14 480.689
166 0 61.0722 12.9028 788 122.915 1257.04 479.666
167 0 62.0597 12.0851 750 125.453 1257.13 480.875
168 0 67.0921 13.3399 895 120.437 1256.92 478.197
169 0 66.0471 12.1277 801 124.576 1257.21 477.335
170 0 72.0441 13.811 995 119.176 1257.15 475.657
171 0 74.0513 13.6122 1008 120.044 1257 473.823
172 0 76.0839 14.2343 1083 118.525 1256.86 474.331
173 0 78.0662 12.0283 939 115.735 1256.34 474.81
174 0 80.0611 13.7895 1104 111.965 1256.74 472.284
175 0 81.0769 12.297 997 115.626 1256.73 472.233
176 0 84.1205 12.8625 1082 113.755 1256.27 472.564
177 0 90.0449 13.5044 1216 109.225 1255.76 469.271
178 0 91.1179 13.2136 1204 114.264 1256.11 467.404
179 0 94.1718 12.9444 1219 113.033 1255.25 467.13
180 0 98.236 14.2718 1402 110.412 1254.85 464.672
181 0 99.1437 12.5979 1249 117.669 1255.61 460.04
182 0 106.244 14.3349 1523 114.603 1255.47 458.081
183 0 111.371 14.519 1617 113.37 1255.95 458.542
184 0 111.371 14.4472 1609 151.438 1256.94 458.467
185 1 52.2827 12.1455 635 111.29 1256.62 485.51
186 0 54.2215 12.8178 695 110.99 1256.74 483.35
187 0 56.038 12.2595 687 113.297 1255.57 482.579
188 0 58.0551 13.4011 778 108.793 1255.28 482.895
189 0 57.0777 12.3691 706 109.966 1256.44 482.02
190 0 60.0554 12.8049 769 108.174 1256.13 481.826
191 0 63.1614 11.526 728 109.896 1256.06 481.434
192 0 63.0333 12.0889 762 109.559 1256.16 482.056
193 0 66.0455 13.4453 888 107.351 1256.19 479.184
194 0 68.1595 11.3997 777 110.474 1255.67 480.108
195 0 71.0515 12.2446 870 109.932 1255.5 476.922
196 0 73.1028 13.7067 1002 106.098 1255.78 476.552
197 0 74.1616 12.5671 932 110.293 1256.42 473.263
198 0 77.1167 11.6447 898 113.013 1256.15 471.378
199 0 79.1624 11.4575 907 114.065 1256.18 470.486
200 0 83.1306 10.9707 912 113.406 1256.01 472.853
201 0 86.058 12.4567 1072 111.771 1256.55 467.927
202 0 88.0788 12.4775 1099 113.365 1256.78 465.289
203 0 90.1344 12.2706 1106 113.228 1256.53 467.442
204 0 94.1938 12.7503 1201 113.777 1256.57 463.877
205 0 97.1582 13.936 1354 110.954 1256.5 462.134
206 0 100.107 11.1581 1117 116.814 1256.45 463.221
207 0 102.059 12.2576 1251 116.742 1256.42 456.266
208 0 104.113 13.1204 1366 114.646 1256.23 458.212
209 0 109.085 13.5766 1481 113.12 1256.31 454.028
210 0 114.168 13.9619 1594 113.238 1256.52 450.602
211 0 118.213 14.0593 1662 112.335 1256.63 448.925
212 0 121.192 12.542 1520 116.888 1256.92 448.863
213 0 126.167 13.4267 1694 114.391 1256.42 446.826
214 0 130.181 12.9819 1690 115.976 1256.7 443.301
215 0 134.22 13.0234 1748 115.971 1257.18 443.569
216 0 140.181 13.6252 1910 115.992 1256.12 435.934
217 0 145.241 14.0662 2043 114.047 1256.3 437.985
218 0 150.119 13.3827 2009 115.208 1256.28 434.79
219 0 154.184 13.6914 2111 116.147 1256.61 428.587
220 0 159.224 12.8686 2049 118.265 1256.72 430.457
221 0 165.215 14.0786 2326 116.262 1256.22 426.481
222 0 170.308 13.6693 2328 117.628 1256.69 423.229
223 0 177.368 13.6609 2423 118.057 1255.84 418.247
224 0 182.327 13.1741 2402 119.77 1256.23 415.927
225 0 187.203 12.4731 2335 122.113 1256.32 415.59
226 0 194.269 12.6731 2462 122.421 1255.88 409.908
227 0 202.328 13.1568 2662 120.74 1256.4 408.876
228 0 209.309 13.1432 2751 120.775 1256.09 405.004
229 0 217.224 13.6495 2965 118.351 1256.07 400.692
230 0 223.398 14.6555 3274 114.661 1256.28 398.688
231 1 172.196 11.5102 1982 117.665 1257 425.573
232 0 180.286 12.2583 2210 116.199 1256.75 422.478
233 0 185.342 13.2242 2451 115.073 1256.55 416.8
234 0 193.264 12.6201 2439 115.674 1256.51 414.098
235 1 71.108 9.50667 676 111.836 1258.02 471.729
236 0 74.2659 12.0109 892 105.143 1257.78 472.817
237 0 77.1182 12.6948 979 104.94 1256.24 471.865
238 0 78.3136 12.2329 958 106.156 1256.63 469.448
239 0 81.1793 11.5054 934 107.229 1257.62 469.828
240 0 84.2711 11.5579 974 108.761 1257.25 468.103
241 0 86.247 11.7337 1012 108.627 1257.07 465.772
242 0 89.176 11.4829 1024 101.011 1257.49 466.387
243 0 92.1176 12.0498 1110 100.758 1257.56 463.954
244 0 96.1743 11.7599 1131 99.6755 1257.36 465.374
245 0 99.3603 11.5841 1151 101.759 1257.44 462.797
246 1 54.3121 11.7101 636 98.2594 1257.13 483.066
247 0 55.3731 11.1787 619 98.3247 1256.71 479.664
248 0 54.2006 9.92609 538 98.7639 1257.3 484.539
249 0 54.2413 8.62811 468 100.919 1257.48 486.111
250 0 54.0771 9.76384 528 98.3902 1257.56 486.464
251 0 59.2477 10.0932 598 99.1906 1257.22 482.326
252 0 60.1975 10.2994 620 99.1016 1257.28 478.894
253 0 64.2444 9.55725 614 98.627 1257.67 481.84
254 0 66.0723 10.4885 693 98.5325 1257.32 480.267
255 0 68.1716 9.94549 678 100.718 1257.25 478.801
256 0 68.1883 9.8844 674 101.091 1257.4 476.773
257 0 74.0553 11.4239 846 97.0887 1257.29 475.202
258 0 75.1938 10.1072 760 100.739 1256.67 473.958
259 0 78.1707 10.6434 832 100.743 1256.56 471.495
260 0 80.2299 10.3203 828 100.746 1256.62 471.129
261 0 84.2129 11.0434 930 99.6957 1256.97 469.442
262 0 88.385 11.2915 998 108.001 1256.32 467.62
263 1 43.0464 10.1518 437 101.549 1257.95 488.659
264 0 45.0324 10.3703 467 100.782 1257.19 487.976
265 0 47.0762 10.4087 490 99.7102 1257.9 489.188
266 0 48.1628 13.4959 650 98.0431 1254.74 485.905
267 0 51.0394 13.421 685 97.8204 1254.78 487.534
268 0 52.0447 12.8159 667 99.7796 1255.18 485.523
269 0 52.0359 11.9533 622 103.596 1255.25 485.828
270 0 52.0359 11.0308 574 139.385 1255.29 485.134
271 0 54.1172 11.7338 635 102.479 1255.74 483.058
272 0 56.0703 11.2537 631 103.696 1255.13 483.124
273 0 57.0739 13.2635 757 99.1149 1255.6 482.956
274 0 58.1088 12.6143 733 101.9 1255.22 482.16
275 0 61.126 12.7278 778 101.812 1255.15 481.568
276 0 62.1696 12.6107 784 102.236 1255.55 478.862
277 0 63.1824 12.0287 760 103.703 1255.75 479.129
278 0 68.0881 12.5132 852 101.396 1255.49 479.182
279 0 69.0949 14.111 975 98.9313 1255.61 476.611
280 0 71.1283 13.0328 927 101.77 1255.32 476.036
281 0 72.1033 12.2463 883 104.23 1255.82 475.531
282 0 76.1765 13.1274 1000 102.895 1256.08 472.865
283 0 76.1765 13.2324 1008 131.285 1256.07 472.753
284 1 40.0159 11.3955 456 110.925 1255.62 489.553
285 0 43.0407 12.1745 524 107.821 1254.96 491.279
286 0 41.0285 11.3336 465 109.985 1258.03 490.705
287 0 45.0345 11.9908 540 107.526 1257.67 490.481
288 0 45.0584 11.2965 509 108.56 1256.92 490.226
289 0 44.0228 10.5173 463 111.864 1256.96 487.924
290 0 48.0342 12.9075 620 106.673 1257.47 486.161
291 0 49.0749 11.4519 562 110.064 1257.45 486.03
292 0 49.0428 10.8681 533 111.388 1257.54 486.418
293 0 51.0529 11.4979 587 110.836 1257.72 485.789
294 0 53.0878 12.9032 685 106.477 1257.56 485.142
295 0 54.0291 11.8825 642 109.53 1258.28 483.439
296 0 56.0493 12.1143 679 109.262 1257.47 484.405
297 0 57.062 12.5302 715 108.306 1257.81 483.72
298 0 59.0553 11.7009 691 110.402 1257.64 481.78
299 0 62.1476 12.8082 796 105.629 1257.34 483.016
300 0 63.0559 13.0678 824 106.788 1257.12 478.644
301 0 64.0864 12.2023 782 108.702 1257.43 479.107
302 0 69.0897 13.4463 929 104.984 1256.84 476.995
303 0 71.0751 12.9863 923 104.558 1256.72 478.499
304 0 73.1753 13.6522 999 103.619 1256.76 475.179
305 0 74.0796 12.1896 903 106.391 1256.85 474.641
306 0 80.1656 13.1353 1053 103.305 1256.74 472.587
307 0 83.133 13.3521 1110 102.723 1256.83 470.666
308 0 85.1683 13.9019 1184 101.595 1256.5 469.601
309 0 87.1929 12.6501 1103 104.21 1256.89 467.749
310 0 90.1285 11.9718 1079 105.697 1256.54 468.906
311 1 49.034 11.5022 564 103.351 1256.32 486.622
312 0 51.019 10.5255 537 103.678 1256.7 486.972
313 0 53.0539 12.6098 669 101.985 1256.67 484.858
314 0 53.033 11.8605 629 104.409 1256.95 482.574
315 0 55.1343 12.5874 694 103.955 1257.18 482.416
316 0 57.0629 11.9342 681 104.128 1257.18 482.919
317 0 59.038 13.3473 788 101.797 1257.52 479.784
318 0 62.0939 11.1444 692 104.461 1257.78 481.877
319 0 64.0849 11.5784 742 104.903 1257.67 479.318
320 0 66.1276 12.7783 845 102.811 1257.26 477.961
321 0 67.1132 12.9185 867 103.341 1257.35 477.8
322 0 70.1394 13.8724 973 101.092 1257.12 476
323 0 73.112 13.1305 960 101.414 1257.18 476.627
324 0 75.1404 14.3598 1079 99.2947 1256.82 475.274
325 0 76.2074 12.6628 965 103.061 1256.93 473.94
326 0 78.147 12.2334 956 103.951 1257.04 472.793
327 0 81.1399 12.4353 1009 102.756 1257.23 471.422
328 0 84.2185 11.4702 966 104.343 1257.19 471.372
329 1 39.0346 8.71022 340 100.812 1257.21 491.153
330 0 43.0676 10.797 465 97.8129 1257 489.692
331 0 46.091 11.0434 509 98.391 1255.6 488.792
332 0 47.0374 11.459 539 94.1317 1257.37 488.074
333 0 47.0949 11.084 522 94.8621 1257 488.697
334 0 50.0264 12.2535 613 92.2398 1256.96 488.054
335 0 49.0427 11.2351 551 95.706 1257.55 487.031
336 0 49.0421 12.0916 593 94.9477 1256.66 485.241
337 0 52.0437 11.9899 624 94.3333 1257.06 485.449
338 0 53.0175 11.5999 615 95.6374 1256.77 485.605
339 0 55.0931 11.9434 658 95.3921 1256.2 483.822
340 0 56.0639 12.1112 679 96.6097 1256.64 482.259
341 0 58.0714 12.2435 711 96.3502 1257.19 482.197
342 0 58.0653 11.7282 681 98.3495 1257.15 480.954
343 0 62.0242 12.4306 771 96.5772 1257.28 479.445
344 0 65.1169 12.6235 822 95.9355 1257.76 479.444
345 0 68.1398 12.6798 864 96.2731 1258.2 478.096
346 0 68.0843 13.498 919 95.3166 1258.51 479.398
347 0 70.0646 13.2877 931 97.8163 1258.33 475.15
348 0 74.0734 12.8116 949 98.5111 1257.56 475.176
349 0 75.0567 14.136 1061 96.6098 1257.88 473.364
350 0 77.1571 12.4681 962 100.486 1257.6 473.418
351 0 80.108 12.5331 1004 100.513 1258.09 472.957
352 0 79.1293 11.8287 936 103.982 1258.53 470.153
353 0 83.1252 13.3654 1111 100.209 1258.47 468.511
354 0 84.1387 12.5388 1055 103.216 1258.25 468.523
355 0 89.1343 13.6087 1213 100.538 1258.37 467.658
356 0 90.1394 11.0274 994 106.863 1258.47 468.86
357 0 93.1478 12.6788 1181 104.307 1258.19 466.009
358 0 98.1745 12.3352 1211 104.717 1258.02 465.291
359 0 98.1178 13.0863 1284 104.28 1258.6 460.385
360 0 102.15 11.7278 1198 107.652 1258.08 461.097
361 0 106.115 13.2403 1405 104.31 1258.79 457.922
362 1 63.1279 11.6589 736 101.141 1257.68 474.111
363 0 64.1256 10.8069 693 101.517 1257.92 472.924
364 0 68.1136 10.7908 735 102.608 1257.3 474.464
365 0 73.1583 12.3568 904 107.419 1258.42 477.412
366 0 74.1871 11.9832 889 110.672 1258.4 474.252
367 0 78.1203 12.7368 995 108.411 1257.66 473.465
368 0 80.0944 13.4966 1081 108.367 1257.45 471.475
369 0 83.1803 12.3587 1028 110.687 1258.27 470.833
370 0 86.127 13.0737 1126 109.913 1257.98 468.48
371 0 88.2649 12.7344 1124 109.785 1257.41 468.76
372 0 92.1527 12.794 1179 108.763 1257.78 469.841
373 0 94.161 13.2645 1249 109.643 1257.42 465.891
374 0 93.1772 10.7215 999 115.556 1257.44 462.918
375 0 100.057 10.9438 1095 112.882 1257.2 466.299
376 1 54.0603 10.7843 583 109.604 1257.69 486.949
377 0 58.0622 12.1422 705 107.695 1257.7 484.186
378 0 59.1453 13.3738 791 104.372 1257.19 481.491
379 0 60.0179 12.4963 750 98.3947 1256.51 482.317
380 0 62.0619 12.2781 762 98.689 1256.32 480.226
381 0 65.0739 11.7559 765 99.9386 1255.86 479.872
382 0 66.0593 11.9892 792 99.7639 1256.39 479.093
383 0 71.0715 13.3527 949 95.4447 1256.21 477.85
384 0 73.0637 12.0169 878 98.9009 1256.97 478.957
385 0 76.0673 14.382 1094 94.7011 1257.05 475.269
386 0 79.0673 12.736 1007 98.2234 1256.34 474.563
387 0 81.0476 12.1534 985 100.031 1256.69 472.318
388 0 84.0767 12.9525 1089 99.5087 1256.78 471.77
389 0 87.0859 13.6647 1190 98.9378 1256.56 469.74
390 0 88.1213 12.1423 1070 103.167 1256.8 467.792
391 0 93.1072 12.6521 1178 102.419 1256.8 465.846
392 1 45.0304 10.504 473 105.391 1256.75 490.827
393 0 45.0274 10.3493 466 105.092 1256.65 490.427
394 0 48.1361 11.5921 558 101.192 1256.14 489.31
395 0 49.1134 10.8931 535 102.252 1258.13 487.037
396 0 51.0513 12.2426 625 100.502 1258.12 486.714
397 0 51.0875 12.2143 624 101.758 1257.66 485.981
398 0 53.0806 12.773 678 101.159 1258.35 486.058
399 0 54.1076 13.3438 722 100.292 1257.8 485.374
400 0 57.1701 12.3841 708 102.02 1257.7 484.773
401 0 60.0516 12.8889 774 100.245 1257.52 485.603
402 0 61.1156 13.0572 798 101.83 1258.21 482.376
403 0 64.2192 12.5819 808 102.145 1257.74 483.027
404 0 63.1201 12.6901 801 104.041 1258.43 482.19
405 0 66.0397 12.8862 851 104.706 1257.55 480.235
406 0 67.1269 13.5117 907 104.674 1257.75 478.555
407 0 70.1158 12.9643 909 105.834 1258.01 477.067
408 0 74.0707 14.9317 1106 101.268 1258.04 478.952
409 0 77.2046 15.0121 1159 101.931 1257.73 477.38
410 0 76.1507 12.3046 937 111.423 1257.26 473.893
411 0 80.0718 14.2872 1144 106.171 1257.59 475.689
412 0 83.0829 14.2027 1180 107.05 1257.53 474.043
413 0 84.1667 12.5941 1060 111.569 1257.42 472.991
414 0 87.1785 12.8243 1118 111.903 1257.17 470.572
415 0 91.0923 13.1844 1201 110.573 1257.53 469.515
416 0 94.0971 11.9982 1129 114.136 1257.39 466.611
417 1 48.0429 12.7594 613 107.106 1257.91 489.4
418 0 50.1862 13.8285 694 105.805 1256.54 486.771
419 0 52.0689 12.3298 642 109.139 1256.36 489.29
420 0 53.0623 12.7209 675 108.215 1256.29 488.467
421 0 56.0455 12.9894 728 106.264 1256.46 486.35
422 0 57.068 12.7217 726 107.669 1256.75 485.032
423 0 60.052 12.7723 767 106.838 1257.33 484.121
424 0 60.0334 12.3931 744 108.137 1256.45 483.96
425 0 64.0617 12.5816 806 106.408 1256.9 482.35
426 0 66.1264 13.1113 867 106.777 1256.73 481.776
427 0 67.0957 12.4598 836 107.755 1256.74 478.786
428 0 69.0488 12.3101 850 107.48 1256.24 481.694
429 0 73.0623 13.4406 982 105.711 1257.15 478.742
430 0 74.1049 12.3744 917 108.356 1256.78 478.534
431 0 78.0533 12.9399 1010 106.676 1256.86 475.243
432 0 78.0971 11.5369 901 109.031 1257.3 476.161
433 0 82.1091 12.4834 1025 108.13 1257.6 474.66
434 0 85.1582 13.1755 1122 106.544 1256.67 471.82
435 1 45.0301 11.9476 538 107.37 1256.82 492.277
436 0 46.0579 11.9415 550 107.793 1256.68 492.575
437 0 45.0478 11.7431 529 109.488 1256.7 492.342
438 0 47.0453 11.4358 538 109.639 1256.3 491.23
439 0 49.04 12.2553 601 108.062 1256.8 490.584
440 0 52.0532 11.5075 599 108.618 1256.73 490.953
441 0 50.0353 12.2314 612 110.407 1256.86 488.258
442 0 51.0403 10.815 552 112.435 1256.84 489.493
443 0 53.0139 11.8271 627 109.781 1256.74 488.108
444 0 57.0537 12.199 696 108.922 1257.21 486.56
445 0 59.0707 13.6108 804 105.912 1256.85 485.265
446 0 61.0774 12.1649 743 109.439 1257.24 484.603
447 0 63.1445 12.2734 775 109.283 1256.98 483.979
448 0 65.1766 12.0902 788 110.58 1256.8 483.209
449 0 66.072 11.4421 756 112.824 1257.42 480.769
450 0 70.0858 15.2385 1068 77.2846 1257.24 479.165
451 0 73.1581 12.5482 918 110.998 1257.39 479.771
452 0 75.1481 12.0163 903 112.958 1257.66 477.652
453 0 76.1171 11.1276 847 114.851 1256.68 478.822
454 0 79.2086 13.3445 1057 110.421 1257.55 474.289
455 0 81.1169 11.0458 896 115.916 1257.58 473.286
456 0 84.0791 13.3921 1126 110.594 1257.83 471.959
457 0 88.1515 11.6277 1025 113.587 1258.11 471.991
458 1 45.0744 11.1815 504 111.403 1257.65 491.623
459 0 48.0941 14.3677 691 104.318 1257.63 489.676
460 0 48.1344 12.8391 618 107.414 1257.74 489.862
461 0 49.1128 12.9701 637 105.44 1257.5 489.432
462 0 50.054 13.2657 664 104.753 1257.58 487.38
463 0 49.0321 11.3803 558 107.853 1257.58 487.717
464 0 49.089 10.43 512 109.496 1257.58 486.914
465 0 55.0715 9.95071 548 107.626 1257.6 488.69
466 0 55.0255 12.5033 688 105.368 1258.6 485.209
467 0 56.1551 11.1477 626 107.31 1258.19 483.275
468 0 58.0765 12.0703 701 106.081 1257.95 484.441
469 0 61.1097 11.0948 678 107.136 1258.47 484.727
470 0 64.053 12.6145 808 103.433 1258.18 482.905
471 0 65.0902 12.9052 840 103.112 1258.06 480.702
472 0 64.0869 11.8589 760 107.011 1257.85 480.946
473 0 69.0687 13.2766 917 103.227 1257.55 479.868
474 0 69.1015 12.1705 841 107.609 1257.66 478.941
475 0 74.1631 12.8231 951 105.74 1257.12 478.342
476 0 76.0544 12.9907 988 105.034 1257.69 475.798
477 0 78.1404 12.8999 1008 106.111 1258.28 475.123
478 0 80.072 13.8376 1108 104.998 1258.06 474.225
479 0 80.0446 12.1432 972 110.8 1258.25 472.976
480 0 85.0651 13.472 1146 106.462 1258.3 471.897
481 0 89.0928 13.9069 1239 105.199 1258.33 469.189
482 0 91.0867 13.4048 1221 106.922 1258.49 469.417
483 0 91.1052 13.1057 1194 108.744 1257.28 466.232
484 0 96.1022 14.2765 1372 105.1 1257.39 467.643
485 0 98.22 14.1926 1394 105.689 1257.97 465.387
486 0 99.1664 14.1177 1400 106.001 1258.01 463.152
487 0 105.175 15.2698 1606 102.429 1258.09 463.247
488 0 105.127 14.1733 1490 106.092 1258.23 460.507
489 0 110.157 14.9333 1645 104.272 1257.23 459.769
490 0 113.159 13.8566 1568 108.211 1257.5 457.728
491 0 116.139 13.8714 1611 106.529 1257.26 455.511
492 0 120.199 14.0517 1689 107.657 1258.35 456.349
493 0 126.202 14.2708 1801 107.848 1257.7 452.317
494 1 68.2506 13.8314 944 104.353 1258.16 480.57
495 0 70.1933 13.6765 960 105.882 1257.8 479.544
496 0 75.0811 13.2257 993 102.851 1258.24 477.587
497 0 75.0969 12.5305 941 104.586 1258.11 478.233
498 0 77.0731 12.8968 994 104.336 1258.6 477.419
499 0 79.0908 12.7828 1011 105.288 1257.9 474.122
500 0 85.0996 14.1481 1204 103.797 1258.76 471.881
501 0 88.0995 13.4507 1185 108.111 1258.93 471.062
502 0 91.1459 13.5607 1236 107.439 1259 470.786
503 0 92.1289 12.7864 1178 109.777 1259.04 469.64
504 0 95.107 14.2366 1354 107.141 1258.9 464.914
505 0 97.1238 12.8084 1244 110.571 1258.72 464.289
506 0 102.109 14.7 1501 106.317 1259.35 461.193
507 0 105.142 14.3615 1510 106.364 1258.99 462.117
508 0 108.071 14.2961 1545 108.243 1258.75 460.421
509 0 109.147 15.273 1667 106.765 1258.9 460.161
510 0 115.096 15.561 1791 108.145 1259.32 455.225
511 0 120.132 14.8753 1787 107.33 1258.77 454.926
512 0 125.237 14.6682 1837 105.52 1258.86 452.191
513 1 66.0887 11.1971 740 108.285 1257.97 481.322
514 0 66.0737 13.2276 874 106.727 1257.14 479.855
515 0 72.1865 13.0634 943 105.484 1257.32 478.651
516 0 74.0708 13.9596 1034 101.982 1258.31 477.955
517 0 75.1621 12.5196 941 105.44 1258.68 477.388
518 0 78.114 13.3651 1044 103.693 1258.57 474.693
519 0 78.1175 12.7884 999 105.532 1258.45 474.584
520 0 78.1175 12.814 1001 141.916 1258.45 474.617
521 0 84.1125 12.4595 1048 106.166 1258.53 471.541
522 0 84.1287 12.0054 1010 108.414 1258.27 469.198
523 0 88.1884 12.8135 1130 106.484 1257.67 470.167
524 0 92.1385 13.2192 1218 105.343 1257.7 466.632
525 0 96.0893 12.9983 1249 106.848 1258.62 464.948
526 0 100.069 14.1901 1420 103.519 1258.62 464.255
527 0 103.128 12.9353 1334 106.085 1258.12 462.231
528 0 106.089 13.0268 1382 105.457 1256.96 462.088
529 0 107.088 13.3068 1425 105.62 1256.87 459.816
530 1 60.1205 11.294 679 106.021 1256.66 484.411
531 0 59.032 11.8749 701 103.456 1256.38 484.344
532 0 59.1051 12.3001 727 101.171 1257.09 483.314
533 0 61.1738 12.2111 747 99.7992 1257.43 482.414
534 0 63.086 11.3337 715 101.687 1257.9 483.091
535 0 63.1976 11.1713 706 102.484 1256.97 480.146
536 0 66.1041 11.4516 757 102.065 1257.53 480.363
537 0 69.2533 12.2594 849 100.197 1257.36 477.547
538 0 72.12 11.7166 845 101.157 1257.85 476.87
539 0 76.2193 12.1229 924 100.815 1257.8 476.959
540 0 76.1813 12.654 964 101.276 1257.51 474.303
541 0 80.141 12.3782 992 101.615 1257.85 474.754
542 0 82.1257 13.4915 1108 101.54 1257.64 471.633
543 0 84.0983 12.9135 1086 103.088 1258.06 469.751
544 0 87.242 13.1015 1143 103.595 1257.42 466.752
545 0 91.1125 13.3352 1215 102.533 1257.75 466.918
546 0 93.0991 13.6736 1273 102.727 1257.5 464.209
547 0 96.179 13.3293 1282 104.219 1257.7 465.909
548 0 99.1341 12.6697 1256 107.722 1258.11 465.322
549 0 104.235 12.5966 1313 106.546 1257.52 463.967
550 1 55.1238 12.8075 706 100.445 1256.52 485.167
551 0 55.0656 11.0595 609 105.156 1256.18 484.667
552 0 58.0997 13.0121 756 105.247 1256.97 482.37
553 0 59.0354 12.213 721 108.08 1257.74 483.307
554 0 64.109 13.2743 851 98.7309 1258.66 481.954
555 0 64.1023 13.1509 843 134.798 1257.66 481.938
556 0 67.1302 13.1535 883 100.656 1258.34 479.959
557 0 69.1647 12.9401 895 101.726 1258.55 478.165
558 0 70.0997 14.1941 995 100.175 1257.77 477.257
559 0 74.109 13.5881 1007 101.69 1258.09 477.878
560 0 74.0865 13.7002 1015 103.043 1257.35 474.608
561 0 78.0904 13.5612 1059 103.036 1258.11 474.206
562 0 80.2068 13.9764 1121 104.727 1258.21 473.327
563 0 80.0713 12.289 984 108.941 1258.06 473.501
564 0 84.1042 12.865 1082 108.161 1258.05 472.069
565 0 87.0513 12.2801 1069 108.732 1258.55 471.779
566 0 90.1119 13.461 1213 106.925 1258.02 468.79
567 0 91.0941 13.6891 1247 107.115 1257.91 467.511
568 0 95.0808 13.1152 1247 108.24 1257.95 463.998
569 0 98.0981 14.72 1444 104.993 1258.07 464.087
570 0 103.154 14.0082 1445 106.646 1257.74 463.015
571 0 106.127 13.5403 1437 107.406 1258.09 461.192
572 0 109.123 14.3416 1565 112.209 1257.64 458.464
573 0 114.143 13.7284 1567 112.129 1257.85 459.077
574 1 63.059 12.6072 795 107.577 1258.17 483.069
575 0 67.0715 12.688 851 105.224 1258.1 483.161
576 0 66.046 12.6427 835 110.653 1258.64 481.298
577 0 69.079 12.9128 892 109.048 1258.45 479.817
578 0 71.126 12.977 923 108.372 1258.43 478.352
579 0 74.036 13.0072 963 109.317 1258.54 475.713
580 0 77.0466 12.9013 994 108.029 1258.41 476.799
581 0 80.0848 12.9987 1041 106.5 1258.4 476.032
582 0 81.0612 14.3965 1167 103.903 1258.25 474.021
583 0 84.2089 10.9252 920 110.246 1258.67 473.855
584 0 87.1711 11.7585 1025 107.9 1258.34 472.328
585 0 90.1568 12.7445 1149 108.572 1258.32 466.933
586 0 92.2254 11.537 1064 111.703 1257.92 464.912
587 0 95.1381 12.4556 1185 108.579 1257.88 465.473
588 1 47.0723 9.96339 469 106.844 1258.69 491.066
589 0 51.0719 11.5719 591 103.626 1258.53 488.898
590 0 51.0607 12.6712 647 95.3617 1258.57 489.887
591 0 52.1974 13.5256 706 94.5921 1258.18 489.193
592 0 53.0808 11.9629 635 97.6346 1258.63 487.88
593 0 53.0881 11.6787 620 99.3677 1258.46 488.023
594 0 58.1163 14.5054 843 92.1459 1258.03 485.004
595 0 59.0621 12.8509 759 96.1357 1257.99 485.387
596 0 59.0961 12.522 740 98.3932 1258.34 484.964
597 0 60.0962 12.9293 777 97.906 1258.58 484.681
598 0 61.0901 11.6386 711 101.042 1258.12 483.864
599 0 63.0954 12.2513 773 100.577 1257.92 482.609
600 0 66.1476 12.2453 810 100.679 1257.83 481.635
601 0 69.1701 12.9391 895 99.457 1257.45 480.492
602 0 69.1522 11.7567 813 103.776 1257.65 480.681
603 0 72.099 12.1638 877 103.499 1257.37 477.227
604 0 74.1924 12.6159 936 103.685 1257.52 476.895
605 0 77.1776 12.7498 984 103.266 1257.36 474.438
606 0 77.1776 12.7109 981 138.725 1257.38 474.448
607 0 83.1121 12.4531 1035 105.414 1257.63 473.383
608 0 87.1556 12.1048 1055 107.414 1257.74 472.855
609 1 47.1283 11.7764 555 106.995 1258.48 491.335
610 0 50.0249 11.8941 595 106.289 1258.85 490.205
611 0 53.0205 12.5989 668 105.509 1258.01 489.88
612 0 52.0511 11.9306 621 105.195 1258.33 488.253
613 0 56.0277 12.5652 704 103.2 1258.02 486.261
614 0 57.0328 13.3081 759 101.779 1257.93 486.229
615 0 58.0365 12.2682 712 104.614 1257.61 486.088
616 0 59.0822 13.0496 771 103.109 1257.52 484.368
617 0 61.1696 13.1601 805 102.328 1257.6 483.665
618 0 64.0778 11.3456 727 107.022 1257.05 483.391
619 0 67.0666 12.7336 854 103.33 1257.57 482.308
620 0 68.1057 12.3484 841 103.759 1258.25 480.415
621 0 69.0374 13.6737 944 101.689 1257.96 478.68
622 0 72.065 13.0577 941 103.756 1257.74 477.479
623 0 74.1611 11.7312 870 106.951 1257.28 477.657
624 0 76.1146 12.5206 953 106.389 1257.25 475.72
625 0 78.1165 13.6975 1070 104.112 1257.29 474.611
626 0 81.0594 12.3736 1003 107.795 1257.24 472.814
627 0 81.1115 11.8479 961 111.261 1257.1 470.604
628 0 88.1352 13.2524 1168 107.39 1257.37 471.297
629 0 89.1376 12.5873 1122 110.685 1257.06 468.889
630 0 91.1391 11.8829 1083 115.01 1256.78 466.528
631 0 93.1842 10.7958 1006 117.756 1256.81 467.331
632 0 97.1261 12.9831 1261 114.559 1256.88 463.616
633 0 101.07 12.249 1238 115.396 1257 464.968
634 0 102.209 12.3472 1262 116.813 1256.9 463.253
635 0 104.174 12.0472 1255 118.83 1256.97 459.251
636 0 109.221 13.5322 1478 116.141 1256.47 458.049
637 0 109.204 13.0398 1424 118.857 1257.54 456.346
638 0 114.237 13.1131 1498 118.809 1257.58 453.264
639 0 119.252 13.4086 1599 118.017 1256.94 452.6
640 0 121.328 12.8 1553 119.865 1256.42 452.205
641 0 125.17 13.5735 1699 119.26 1257.12 446.81
642 0 130.193 13.0729 1702 119.589 1257.48 447.08
643 0 131.186 12.9206 1695 120.991 1257.57 442.78
644 0 136.274 13.8911 1893 118.392 1256.82 439.937
645 0 138.272 12.3018 1701 122.228 1256.94 442.114
646 0 144.213 12.7173 1834 120.442 1256.84 438.999
647 0 149.287 12.9147 1928 119.26 1257.11 439.393
648 0 155.493 12.5151 1946 121.018 1257.11 434.024
649 0 157.32 12.1154 1906 123.313 1257.08 427.257
650 0 165.497 12.3386 2042 121.916 1256.67 424.415
651 1 86.2001 12.3202 1062 109.969 1257 468.815
652 0 88.2521 12.4416 1098 109.992 1256.82 466.662
653 0 92.0466 13.5475 1247 113.109 1256.22 468.805
654 0 94.0661 11.9491 1124 117.181 1256.42 465.335
655 0 97.0965 10.5874 1028 119.019 1256.35 466.762
656 0 100.155 12.3809 1240 116.213 1257.3 459.855
657 0 104.069 12.0305 1252 116.678 1256.35 460.199
658 0 108.139 12.3452 1335 116.13 1256.27 458.313
659 0 112.132 12.0573 1352 116.465 1256.53 457.666
660 0 116.235 12.1478 1412 116.095 1256.93 455.309
661 0 120.196 12.7625 1534 115.981 1257.04 449.98
662 0 127.297 13.2603 1688 113.668 1257.11 450.642
663 0 131.276 12.7289 1671 114.922 1257.03 447.871
664 0 134.226 11.5402 1549 118.363 1256.86 443.404
665 1 58.0726 11.8128 686 107.749 1258.1 483.494
666 0 59.1181 11.9591 707 109.963 1255.18 483.943
667 0 60.0769 11.9347 717 107.052 1255.45 485.029
668 0 61.0592 12.4306 759 107.706 1255.46 482.798
669 0 64.0479 13.0059 833 106.409 1255.3 481.212
670 0 67.0525 12.5722 843 106.702 1255.66 480.713
671 0 66.065 11.2768 745 111.526 1255.47 479.26
672 0 70.0481 12.5913 882 109.276 1255.33 480.398
673 0 72.1392 12.7393 919 110.111 1255.58 478.026
674 0 75.0842 13.0653 981 109.992 1255.76 477.755
675 0 78.0414 12.8522 1003 111.863 1256.13 475.779
676 0 81.0802 12.5678 1019 112.658 1256.24 474.94
677 0 83.0772 13.1564 1093 111.564 1255.96 474.179
678 0 86.0889 13.8926 1196 111.773 1255.77 473.081
679 0 88.1136 12.8017 1128 115.955 1255.44 469.543
680 0 92.1453 12.2849 1132 117.323 1255.28 469.386
681 1 51.137 11.2834 577 115.201 1255.75 489.842
682 0 51.0484 12.0278 614 112.849 1255.79 490.735
683 0 51.0282 12.0522 615 114.956 1255.31 488.728
684 0 53.12 12.1235 644 114.894 1254.81 487.994
685 0 55.0557 13.3319 734 111.858 1255.16 487.984
686 0 56.0709 13.1084 735 113.697 1255.42 486.494
687 0 59.0356 12.5179 739 114.424 1255.65 486.383
688 0 61.0467 13.3832 817 111.949 1255.9 486.745
689 0 57.0758 12.5798 718 117.283 1255.55 484.494
690 0 62.0637 14.3401 890 112.275 1255.92 482.998
691 0 63.121 14.0365 886 113.949 1255.87 481.262
692 0 67.0586 13.5255 907 112.721 1256.05 482.461
693 0 67.1214 13.5128 907 113.829 1255.79 479.405
694 0 70.0843 13.2127 926 113.836 1255.75 479.394
695 0 72.3268 13.6464 987 112.672 1256.34 477.333
696 0 74.1315 13.1118 972 114.717 1256.15 475.574
697 0 76.123 13.9248 1060 111.464 1256.4 477.496
698 0 78.0956 13.2146 1032 111.799 1257.17 474.641
699 0 79.1076 12.7927 1012 113.347 1257.2 473.133
700 0 84.138 14.3098 1204 109.248 1257.28 470.566
701 0 88.2058 13.3665 1179 110.647 1256.88 470.83
702 1 45.0912 10.9112 492 114.037 1257.86 489.756
703 0 48.1453 12.1923 587 111.359 1257.77 488.411
704 0 50.1665 12.0598 605 113.354 1257.2 487.175
705 0 50.215 12.7651 641 113.526 1257.08 486.003
706 0 54.1584 13.0912 709 112.36 1258.2 486.313
707 0 54.1684 12.5719 681 113.855 1257.94 484.965
708 0 55.0655 13.5475 746 112.619 1258.12 483.68
709 0 56.1321 11.8292 664 111.69 1257.76 484.116
710 0 59.1147 12.1459 718 110.976 1258.05 482.097
711 0 62.1444 13.3077 827 107.237 1258.13 482.895
712 0 62.096 12.529 778 110.607 1258.16 479.486
713 0 65.138 14.0318 914 107.658 1257.73 479.435
714 0 67.0849 14.2953 959 106.708 1257.66 478.372
715 0 69.1403 12.5686 869 110.838 1257.3 477.314
716 0 71.1211 12.8794 916 111.4 1257.49 474.051
717 0 75.2248 13.7455 1034 108.076 1257.52 475.225
718 0 77.2155 13.9091 1074 108.297 1257.81 473.746
719 0 79.2298 13.24 1049 110.972 1256.67 471.134
720 0 83.2061 11.8861 989 112.794 1256.8 472.926
721 0 86.1719 12.9625 1117 111.25 1256.69 471.673
722 0 87.1695 12.2061 1064 115.046 1256.67 469.6
723 0 93.0996 12.8894 1200 112.388 1256.47 466.514
724 0 95.1098 12.1649 1157 113.578 1256.4 466.666
725 0 98.136 12.9616 1272 112.585 1256.82 463.797
726 0 103.1 13.1135 1352 111.214 1256.88 463.277
727 1 49.0382 10.6448 522 113.314 1256.2 487.634
728 0 51.0541 12.1048 618 109.178 1256.17 486.783
729 0 53.0298 12.1252 643 104.787 1256.69 486.667
730 0 53.1079 11.1095 590 106.493 1256.03 487.158
731 0 57.0655 11.6708 666 102.739 1255.27 486.697
732 0 59.0709 11.6809 690 103.643 1255.53 484.854
733 0 60.0677 9.83891 591 106.393 1255.31 484.951
734 0 61.0684 12.1503 742 103.667 1255.73 481.782
735 0 65.0462 12.7755 831 101.768 1255.08 482.526
736 0 68.0642 12.6204 859 102.182 1255.69 480.569
737 0 70.0652 12.4598 873 102.655 1255.23 479.545
738 0 71.0649 11.6654 829 105.704 1255.32 476.691
739 0 73.0461 10.4181 761 108.558 1255.45 476.158
740 0 77.0261 11.6714 899 104.785 1255.8 478.029
741 0 81.0927 12.4549 1010 103.594 1256.05 476.183
742 0 83.1087 11.503 956 106.718 1255.77 472.482
743 0 87.122 12.6948 1106 103.664 1255.62 471.961
744 0 90.2495 12.0998 1092 104.969 1255.8 471.358
745 0 92.1641 12.1088 1116 105.455 1255.93 470.401
746 1 48.0489 10.0731 484 109.217 1256.31 489.372
747 0 50.0683 10.6055 531 107.802 1256.36 489.866
748 0 51.0993 10.4698 535 109.753 1256.21 487.316
749 0 50.0748 11.363 569 103.334 1255.41 486.336
750 0 54.0641 10.7095 579 103.485 1255.29 486.879
751 0 54.0321 11.1785 604 104.222 1255.79 483.72
752 0 57.0429 10.7463 613 104.153 1255.26 484.166
753 0 57.093 10.5617 603 103.234 1255 484.441
754 0 60.0318 11.5106 691 102.515 1255.03 481.671
755 0 63.0758 13.0002 820 97.9061 1255.2 482.134
756 0 64.0678 11.7063 750 102.023 1255 482.672
757 0 67.0308 11.7856 790 101.5 1255.14 479.686
758 0 70.0711 11.6168 814 101.452 1255.21 479.563
759 0 70.0934 12.198 855 101.649 1255.15 479.182
760 0 76.0912 12.4719 949 99.4004 1254.91 478.929
761 0 77.1077 12.3075 949 100.641 1255.3 477.556
762 0 79.082 12.3416 976 102.532 1255.19 474.118
763 0 80.0789 11.4387 916 104.091 1254.94 475.91
764 0 83.0415 10.4406 867 105.572 1255.04 476.013
765 0 86.1285 10.763 927 106.046 1255.82 472.197
766 0 89.0909 12.7173 1133 103.032 1255.53 470.825
767 1 48.0191 10.8707 522 105.575 1254.96 489.268
768 0 51.0614 12.5535 641 103.075 1255.98 487.964
769 0 53.2482 13.5404 721 99.8031 1257.54 485.983
770 0 54.0903 13.5699 734 95.0736 1256.14 487.594
771 0 55.0771 12.31 678 96.91 1257.97 486.369
772 0 55.1443 12.3675 682 97.9472 1257.3 485.195
773 0 58.101 11.5833 673 99.0342 1257.53 485.406
774 0 59.075 12.8142 757 97.6129 1257.45 483.09
775 0 59.078 12.7966 756 98.3399 1258.14 485.238
776 0 64.1402 12.1921 782 98.1714 1257.26 483.412
777 0 63.067 11.8604 748 100.517 1257.68 484.424
778 0 68.0774 13.4847 918 97.3028 1257.82 480.883
779 0 68.1002 12.9515 882 99.8254 1258.23 482.115
780 0 70.1578 12.9708 910 99.8703 1258.43 478.719
781 0 70.1254 12.2495 859 103.007 1258.39 479.478
782 0 75.1226 13.4979 1014 99.289 1258.45 478.737
783 0 76.1456 13.6186 1037 99.9769 1258.11 474.655
784 0 81.152 13.2714 1077 100.083 1258.14 476.13
785 0 82.1678 13.6915 1125 100.895 1257.31 473.4
786 0 85.2064 12.8746 1097 102.245 1257.71 472.965
787 0 87.1189 13.8202 1204 100.867 1257.86 471.076
788 0 89.1102 13.2869 1184 103.514 1257.35 470.343
789 0 91.097 12.7995 1166 104.949 1257.36 468.124
790 0 95.1457 12.7804 1216 103.975 1257.96 468.372
791 0 98.1481 12.9804 1274 104.399 1258.08 466.789
792 0 101.149 13.1884 1334 104.903 1258.23 463.577
793 1 54.1225 10.2176 553 110.776 1258.46 489.761
794 0 56.0424 12.5798 705 104.607 1258.11 487.435
795 0 58.0973 14.2692 829 98.8299 1256.92 487.952
796 0 60.1455 14.282 859 96.2538 1258.83 485.46
797 0 60.0666 11.4706 689 102.537 1258.04 485.872
798 0 62.0558 11.4735 712 103.166 1257.66 485.159
799 0 66.1057 13.6146 900 97.9956 1257.85 482.69
800 0 68.1721 13.4366 916 99.0655 1257.25 481.007
801 0 69.0911 12.8526 888 101.624 1257.15 481.464
802 0 72.2117 13.3081 961 100.822 1257.72 479.373
803 0 73.2002 11.3661 832 105.623 1256.98 478.773
804 0 76.2419 13.2867 1013 102.577 1256.57 476.582
805 0 80.1598 14.1592 1135 100.994 1257.05 474.438
806 0 83.2307 12.9399 1077 104.472 1256.99 473.63
807 0 86.1734 13.4844 1162 104.225 1256.65 474.117
808 1 44.1623 12.5446 554 105.756 1257.53 492.818
809 0 45.0762 11.7135 528 109.311 1257.53 491.839
810 0 48.1568 12.5839 606 107.012 1257.32 491.662
811 0 49.0975 12.9131 634 107.722 1256.54 490.039
812 0 50.0804 13.9376 698 103.348 1256.99 491.341
813 0 52.1067 14.0865 734 103.343 1257.41 489.843
814 0 53.0296 14.0299 744 104.144 1256.82 489.321
815 0 57.0622 15.93 909 97.2893 1257.38 490.444
816 0 57.0501 14.794 844 102.947 1256.38 487.517
817 0 57.1119 13.7625 786 106.193 1256.84 487.104
818 0 60.0803 14.2809 858 106.001 1256.92 485.579
819 0 62.081 14.1589 879 105.879 1256.8 485.465
820 0 63.0416 12.928 815 109.702 1257.12 483.76
821 0 67.0486 14.4075 966 104.388 1257.29 483.179
822 0 68.1516 13.1618 897 108.226 1257.28 480.126
823 0 72.0673 13.9592 1006 105.112 1257.34 479.593
824 0 75.1274 14.6817 1103 102.762 1257.38 477.891
825 0 77.1986 15.1168 1167 101.523 1256.41 477.233
826 0 78.12 12.276 959 107.81 1256.66 477.266
827 0 79.1245 12.4235 983 108.728 1256.96 474.804
828 0 84.1307 13.277 1117 106.854 1256.68 471.908
829 0 86.0896 13.9041 1197 106.826 1256.7 471.123
830 1 45.0694 11.804 532 111.231 1257.74 490.496
831 0 48.0701 12.6066 606 108.695 1257.82 490.244
832 0 50.0889 12.9969 651 107.989 1256.68 488.117
833 0 50.1068 11.5553 579 104.644 1256.99 491.162
834 0 53.05 12.2903 652 103.202 1257.24 489.052
835 0 52.0343 11.5501 601 105.261 1256.79 488.769
836 0 54.0539 12.4135 671 102.9 1256.84 487.891
837 0 55.089 11.7083 645 103.992 1256.69 488.059
838 0 59.0779 13.5753 802 99.5736 1256.04 485.031
839 0 60.0825 10.7519 646 104.91 1255.99 487.249
840 0 63.0432 12.5152 789 101.142 1256.32 485.961
841 0 64.0298 12.0413 771 104.228 1256.22 482.885
842 0 66.0506 13.1717 870 101.907 1256.27 481.86
843 0 71.0599 13.552 963 100.893 1255.46 481.45
844 0 72.1291 12.7826 922 101.842 1256.58 480.205
845 0 73.1021 12.5715 919 103.538 1257.29 479.268
846 0 76.0928 13.0236 991 103.689 1257.62 476.848
847 0 79.1272 12.6632 1002 104.643 1257.06 475.449
848 0 81.1029 13.1931 1070 104.644 1256.95 474.538
849 0 82.1377 12.4425 1022 108.074 1257.28 473.227
850 0 87.1024 12.9158 1125 108.07 1255.75 471.556
851 0 89.1167 12.8708 1147 109.017 1257.01 469.539
852 0 92.2393 12.3375 1138 110.468 1256.78 469.246
853 1 48.0658 11.6091 558 107.928 1257.24 487.321
854 0 52.0684 12.7332 663 103.814 1257.31 487.551
855 0 55.1207 12.137 669 106.235 1256.69 486.825
856 0 58.1419 13.6734 795 103.024 1256.75 485.068
857 0 57.0437 12.5693 717 108.626 1256.27 485.414
858 0 63.1791 14.1977 897 103.528 1256.36 485.043
859 0 62.0852 14.1741 880 105.561 1256.15 483.966
860 0 65.0482 13.2517 862 108.913 1255.99 482.311
861 0 67.0564 14.3312 961 107.208 1255.94 480.732
862 0 68.1456 13.3978 913 110.338 1256.61 481.568
863 0 73.1726 13.229 968 110.097 1256.4 478.901
864 0 74.1627 14.1985 1053 109.848 1255.86 477.259
865 0 77.1371 14.1696 1093 109.832 1256.26 476.966
866 0 79.1393 14.3671 1137 109.898 1256.42 476.489
867 0 81.1857 12.7609 1036 115.538 1256.31 473.669
868 0 86.1508 14.8925 1283 108.496 1256.89 474.019
869 0 88.253 14.2092 1254 112.48 1256.01 471.266
870 0 90.2797 14.9203 1347 110.648 1256.26 469.653
871 0 92.3303 14.5673 1345 111.977 1256.16 469.161
872 0 95.2388 14.2589 1358 113.023 1255.86 466.331
873 0 101.233 15.1926 1538 110.004 1256.22 465.14
874 0 104.236 13.93 1452 114.767 1255.86 461.874
875 0 108.047 13.4386 1452 107.952 1254.99 463.102
876 0 111.123 12.8777 1431 110.633 1256.01 457.927
877 0 116.083 13.8608 1609 110.434 1256.02 455.092
878 1 59.0617 12.7325 752 106.964 1256.42 485.484
879 0 60.0305 11.2776 677 107.1 1255.79 483.245
880 0 63.1219 13.0224 822 102.189 1255.94 483.249
881 0 65.149 12.6019 821 104.471 1255.84 481.678
882 0 65.1009 11.9507 778 107.197 1256.88 481.982
883 0 68.1147 12.7432 868 104.855 1256.17 482.305
884 0 73.0588 12.7295 930 105.328 1255.75 478.048
885 0 73.1488 13.5341 990 104.76 1255.7 478.16
886 0 75.1506 12.3618 929 108.671 1255.82 475.612
887 0 77.0493 11.6289 896 111.89 1256.19 473.124
888 0 79.0593 11.0171 871 112.785 1255.4 475.133
889 0 83.1185 11.9588 994 112.247 1255.47 472.422
890 0 85.2109 12.2637 1045 112.208 1255.35 472.379
891 0 88.2604 12.769 1127 111.744 1254.93 467.528
892 0 92.1877 12.8217 1182 111.223 1254.86 468.018
893 0 93.3261 11.583 1081 114.824 1254.47 464.947
894 0 96.2934 11.9842 1154 115.314 1254.87 460.099
895 0 100.383 12.2331 1228 113.976 1255 460.915
896 0 103.477 12.0799 1250 113.566 1255.16 460.65
897 0 105.3 12.811 1349 113.648 1255.09 458.285
898 0 106.381 11.7408 1249 117.048 1254.75 454.801
899 0 113.356 13.0298 1477 112.777 1255.07 454.357
900 0 117.417 14.0355 1648 111.004 1255.3 449.679
901 1 63.3171 12.0189 761 108.589 1254.93 477.819
902 0 66.291 11.2534 746 109.767 1254.73 478.292
903 0 67.2993 12.0061 808 108.827 1254.94 477.396
904 0 68.2425 10.9609 748 112.049 1255.4 476.175
905 0 73.1179 12.4593 911 108.435 1254.85 478.394
906 0 75.1668 10.5632 794 112.486 1255.36 477.977
907 0 78.0909 11.5763 904 110.673 1255.54 474.898
908 0 81.0919 10.8642 881 112.037 1255.63 474.773
909 0 81.1142 10.7873 875 113.4 1255.69 473.185
910 0 86.1179 12.0416 1037 111.089 1256 470.043
911 0 88.1137 13.0854 1153 109.584 1255.82 465.966
912 0 92.0969 11.7268 1080 111.017 1255.68 468.554
913 0 95.1017 12.0818 1149 109.822 1255.61 465.742
914 0 97.243 11.4661 1115 111.332 1256.07 463.049
915 0 99.2756 11.9465 1186 111.013 1256.29 461.132
916 0 102.394 11.28 1155 111.966 1255.88 459.245
917 0 104.249 11.0313 1150 111.906 1255.8 459.378
918 0 111.323 11.7855 1312 110.178 1255.94 456.681
919 1 58.3001 11.7153 683 104.745 1256.17 481.089
920 0 59.0983 10.9817 649 105.501 1255.23 483.008
921 0 62.111 12.687 788 101.052 1255.29 484.061
922 0 65.0204 12.1654 791 101.938 1255.4 481.071
923 0 65.0497 10.9762 714 104.961 1255.55 481.248
924 0 68.1474 12.2088 832 101.913 1255.44 479.69
925 0 67.0304 11.5321 773 105.398 1255.56 477.282
926 0 73.0806 12.7941 935 101.493 1255.83 477.679
927 0 74.0997 12.5102 927 102.566 1255.96 477.168
928 0 76.1063 12.43 946 103.562 1256.36 474.77
929 0 78.1846 11.767 920 106.736 1256.12 472.926
930 0 83.1362 12.2931 1022 104.214 1256.61 470.693
931 0 86.1354 11.8186 1018 105.262 1256.41 468.949
932 0 88.1042 12.4058 1093 104.167 1256.43 470.446
933 0 91.1736 11.3958 1039 105.77 1256.42 470.73
934 0 94.1671 11.023 1038 107.271 1256.44 463.265
935 0 98.2213 12.8282 1260 104.206 1256.03 465.087
936 1 52.0917 11.2494 586 104.918 1257.32 486.843
937 0 54.0963 11.1838 605 106.03 1257.26 485.286
938 0 58.0911 12.6525 735 101.212 1257.81 484.524
939 0 58.0994 12.1172 704 103.607 1256.92 484.325
940 0 59.039 12.4663 736 103.692 1255.67 485.147
941 0 61.1357 11.3354 693 106.466 1255.16 482.123
942 0 61.1035 10.6704 652 107.836 1255.29 482.54
943 0 65.0936 11.7062 762 106.172 1255.16 479.22
944 0 69.0222 13.6623 943 100.631 1255.7 477.969
945 0 70.0524 10.949 767 108.066 1258 477.574
946 0 72.1338 12.2689 885 104.797 1257.44 477.577
947 0 76.138 12.346 940 104.997 1257.21 475.514
948 0 78.1011 9.94864 777 110.35 1257.74 474.988
949 0 79.1938 12.4757 988 106.212 1258.21 472.438
950 0 85.1184 13.4284 1143 103.815 1257.5 471.679
951 0 86.1838 12.833 1106 105.286 1257.62 471.929
952 0 89.1376 12.2059 1088 107.563 1257.22 468.484
953 0 93.1171 12.2749 1143 108.193 1257.19 468.019
954 0 95.2108 12.6141 1201 108.653 1257.23 466.623
955 0 98.1419 13.8779 1362 106.52 1256.88 462.009
956 0 100.289 11.6863 1172 111.685 1257 462.016
957 0 104.167 12.7295 1326 109.411 1256.8 460.752
958 0 104.278 12.0735 1259 112.891 1256.43 453.926
959 0 111.19 11.5658 1286 112.578 1256.84 456.228
960 1 59.1891 11.2183 664 106.771 1257.14 481.976
961 0 60.1582 11.2703 678 106.851 1256.5 479.282
962 0 65.1339 12.6202 822 102.82 1256.63 477.686
963 0 66.2464 11.5931 768 103.801 1256.85 478.785
964 0 69.1303 12.0208 831 102.261 1256.67 476.716
965 0 70.14 12.3467 866 102.397 1256.55 474.231
966 0 73.2676 12.2291 896 101.979 1256.92 474.138
967 0 74.2588 12.5642 933 101.489 1256.32 472.076
968 0 78.2774 11.9575 936 101.875 1256.39 472.369
969 0 81.2204 12.8539 1044 99.8515 1256.6 469.927
970 0 83.1295 13.0038 1081 99.1674 1256.73 466.981
971 0 85.3233 12.2358 1044 99.8065 1256.46 465.998
972 0 88.1837 12.474 1100 100.27 1256.27 465.095
973 0 91.1206 11.4573 1044 102.162 1256.24 464.183
974 0 93.2002 10.9871 1024 103.274 1256.09 462.536
975 0 96.1213 10.3723 997 103.659 1256.26 461.448
976 0 101.254 12.128 1228 100.079 1256.2 461.045
977 1 53.0964 11.2625 598 98.6204 1256.89 481.06
978 0 53.0966 9.73698 517 101.781 1256.73 478.29
979 0 57.0696 11.5648 660 102.545 1257.23 483.021
980 0 58.0883 12.1883 708 103.37 1257.07 481.473
981 0 61.1972 11.8143 723 104.029 1256.65 479.515
982 0 62.121 12.1859 757 103.168 1256.92 481.054
983 0 66.0907 12.3467 816 104.42 1256.91 478.333
984 0 68.1002 12.834 874 103.069 1256.99 476.72
985 0 70.1054 12.9234 906 103.483 1256.85 476.448
986 0 73.2459 13.4342 984 101.605 1256.9 476.739
987 0 74.1042 13.1302 973 104.234 1256.84 475.359
988 0 76.2558 12.4318 948 107.449 1256.74 473.497
989 0 79.1771 13.9687 1106 104.156 1256.88 472.518
990 0 82.2298 13.8149 1136 105.793 1256.6 470.052
991 0 85.1354 14.3184 1219 104.116 1256.9 472.495
992 0 87.1644 13.4 1168 107.58 1257.26 469.133
993 0 91.1752 14.4008 1313 103.699 1257.71 468.21
994 0 92.125 12.7653 1176 99.6148 1257.07 468.067
995 0 94.0534 11.7168 1102 100.889 1256.95 468.004
996 0 97.1375 11.6124 1128 102.674 1256.75 465.363
997 1 50.2311 10.1133 508 95.3799 1257.59 484.394
998 0 53.1305 13.6645 726 102.759 1257.62 484.605
999 0 55.1138 12.1204 668 105.623 1256.9 487.097
1000 0 58.1687 15.9708 929 92.8493 1257.37 486.537
1001 0 58.1342 14.2429 828 97.8043 1257.1 483.911
1002 0 60.0801 13.249 796 100.352 1256.74 483.741
1003 0 61.1472 13.1486 804 101.289 1256.72 482.035
1004 0 61.0867 13.5381 827 101.185 1256.69 482.538
1005 0 64.0752 13.3593 856 101.481 1257.27 480.986
1006 0 66.1913 13.884 919 100.766 1256.83 479.847
1007 0 67.2038 13.2582 891 102.375 1256.53 479.529
1008 0 69.0876 14.3731 993 100.633 1256.25 477.604
1009 0 70.1866 13.1934 926 103.549 1256.12 478.458
1010 0 75.3415 14.9453 1126 98.5249 1256.44 475.791
1011 0 74.2295 13.0272 967 104.346 1256.63 475.618
1012 0 78.3099 15.0173 1176 99.0697 1256.14 475.873
1013 0 81.2832 13.2623 1078 106.699 1256.05 472.19
1014 0 83.2961 14.3824 1198 103.853 1255.61 470.588
1015 0 85.2089 14.0009 1193 105.539 1255.75 468.383
1016 0 89.3779 14.3883 1286 103.658 1255.54 467.548
1017 0 93.4001 14.8822 1390 102.533 1254.9 464.576
1018 1 49.0442 11.3775 558 96.3011 1254.76 488.387
1019 0 50.2828 11.7933 593 96.231 1254.95 484.361
1020 0 52.133 12.1804 635 96.7591 1255.07 484.998
1021 0 54.0957 13.1804 713 93.0182 1254.78 487.278
1022 0 55.0833 13.3253 734 93.5967 1254.57 484.816
1023 0 56.0998 12.2104 685 96.0307 1254.7 486.006
1024 0 57.1729 12.7683 730 96.8438 1255.05 483.611
1025 0 58.087 12.1886 708 98.2782 1255.41 482.54
1026 0 58.1234 10.8906 633 100.633 1255.11 481.829
1027 0 65.0949 12.2283 796 96.2362 1255.37 480.075
1028 0 64.1508 11.8939 763 97.6881 1255.56 479.265
1029 0 68.1384 12.7681 870 95.8379 1255.66 476.754
1030 0 69.1802 11.8676 821 97.1376 1255.77 478.08
1031 0 70.1142 11.8663 832 98.3017 1255.84 475.46
1032 0 74.0748 12.8114 949 96.8567 1256.12 474.306
1033 0 77.1359 12.9512 999 96.1842 1256.05 473.742
1034 0 76.0276 11.6668 887 99.8399 1255.99 473.055
1035 0 82.0963 13.74 1128 95.7855 1255.66 469.451
1036 0 83.0645 12.6889 1054 97.8216 1255.34 468.706
1037 0 84.0877 11.262 947 101.882 1255.83 469.344
1038 0 89.2121 14.4375 1288 95.2267 1255.49 466.981
1039 0 91.1982 12.8621 1173 99.5848 1255.9 464.788
1040 0 95.3702 13.0754 1247 98.6303 1255.35 464.426
1041 0 99.1965 13.186 1308 99.0902 1255.16 461.32
1042 0 103.299 12.5365 1295 100.46 1255.76 460.277
1043 1 53.2182 10.5227 560 96.5089 1255.97 487.646
1044 0 58.0403 12.0261 698 92.7994 1255.95 484.001
1045 0 59.1414 11.65 689 93.8331 1255.6 481.983
1046 0 60.1174 12.0265 723 92.5477 1257.2 481.768
1047 0 62.1126 12.429 772 91.0479 1256.95 480.793
1048 0 64.0743 10.6283 681 92.8928 1256.81 482.172
1049 0 68.1161 12.141 827 89.8888 1256.42 478.279
1050 0 71.1733 11.8443 843 90.1518 1256.19 478.214
1051 0 71.2438 11.7063 834 91.3501 1256.32 476.971
1052 0 74.1226 12.1555 901 91.7858 1256.26 475.388
1053 0 76.1172 11.3903 867 92.9389 1256.43 475.28
1054 0 79.228 12.1295 961 92.2518 1256.48 472.883
1055 0 82.1136 12.3731 1016 92.9852 1256.45 469.32
1056 0 85.1901 11.7854 1004 93.5667 1256.36 471.225
1057 0 89.1329 11.3875 1015 94.4167 1256.75 470.122
1058 0 91.0522 12.4873 1137 92.8804 1256.39 469.274
1059 0 95.1117 12.1331 1154 94.3293 1255.78 465.396
1060 0 98.1307 12.3305 1210 94.314 1255.97 464.015
1061 1 51.05 9.38297 479 97.5887 1256.81 486.818
1062 0 57.0689 12.1432 693 91.2035 1257.09 486.515
1063 0 57.2882 12.2888 704 93.1747 1256.3 482.849
1064 0 58.1526 12.0201 699 93.4793 1256.98 482.79
1065 0 62.091 11.5798 719 94.2559 1256.64 484.478
1066 0 64.1058 12.105 776 93.8969 1256.47 482.07
1067 0 64.1753 13.0112 835 92.3904 1257.13 481.831
1068 0 68.1159 12.5375 854 93.5843 1256.85 479.691
1069 0 68.0967 10.9697 747 97.6613 1257.2 478.264
1070 0 72.0939 12.9831 936 93.4519 1256.69 477.326
1071 0 74.1704 12.269 910 95.9132 1256.31 476.198
1072 0 76.2168 12.1627 927 96.2643 1256.49 475.154
1073 0 81.1097 13.192 1070 94.3523 1257.08 474.564
1074 0 83.1919 12.4652 1037 96.4783 1257.14 473.763
1075 0 85.1448 12.9544 1103 95.835 1257.12 471.509
1076 0 89.1629 13.2118 1178 95.517 1256.72 468.876
1077 1 46.0669 10.4848 483 100.265 1258.22 492.093
1078 0 48.0373 11.9907 576 98.2361 1257.74 488.878
1079 0 49.0937 11.3049 555 101.703 1255.57 489.521
1080 0 52.117 12.376 645 101.068 1257.64 487.865
1081 0 55.2036 12.6079 696 98.2931 1257.14 487.922
1082 0 53.1097 12.992 690 100.474 1257.39 486.623
1083 0 54.0391 12.1579 657 103.469 1257.52 485.324
1084 0 58.0883 14.2025 825 96.9624 1257.38 484.553
1085 0 61.0554 14.1511 864 97.2222 1256.66 484.573
1086 0 62.0769 14.0471 872 98.4232 1256.47 483.796
1087 0 63.1454 14.0786 889 98.9584 1256.36 483.004
1088 0 63.0799 12.9835 819 102.791 1256.46 482.006
1089 0 66.0635 13.5173 893 100.841 1256.51 481.646
1090 0 68.1614 12.6318 861 103.05 1255.74 480.995
1091 0 71.0669 12.9878 923 102.255 1255.85 477.154
1092 0 73.0888 13.7367 1004 101.241 1256.54 476.545
1093 0 76.3336 13.0218 994 102.009 1256.68 477.542
1094 0 80.2181 14.3484 1151 99.8662 1256.24 474.606
1095 0 82.1169 13.7852 1132 102.18 1255.7 471.613
1096 0 84.1325 13.2767 1117 103.442 1255.5 473.045
1097 0 88.1108 13.4036 1181 103.939 1256.28 470.26
1098 0 91.1277 12.2027 1112 106.816 1255.9 470.279
1099 0 96.1558 13.2389 1273 105.112 1255.8 467.267
1100 1 49.0422 12.112 594 107.507 1256.18 490.069
1101 0 49.0913 12.548 616 103.365 1255.99 489.808
1102 0 51.1197 12.0502 616 103.974 1256.79 488.545
1103 0 54.094 12.9404 700 101.243 1257.28 487.229
1104 0 53.0723 12.9823 689 102.36 1257.06 487.073
1105 0 55.0525 14.2046 782 99.7276 1256.93 484.538
1106 0 58.0875 13.6346 792 100.448 1256.58 483.438
1107 0 61.0759 13.4423 821 99.8855 1256.52 483.168
1108 0 62.0727 13.0009 807 101.242 1256.9 484.291
1109 0 62.0864 13.0785 812 102.138 1256.99 481.569
1110 0 65.072 13.3237 867 101.346 1256.77 481.373
1111 0 69.1145 14.0492 971 98.9197 1256.84 480.104
1112 0 72.1491 13.5553 978 100.971 1256.62 477.843
1113 0 75.1062 13.2479 995 100.936 1256.14 477.514
1114 0 78.2179 13.13 1027 101.124 1257.26 475.787
1115 0 80.1084 12.2085 978 103.037 1256.92 476.661
1116 0 82.1548 13.4746 1107 100.718 1256.77 472.511
1117 0 86.1374 14.0357 1209 99.3739 1256.33 471.194
1118 0 90.1018 14.6723 1322 98.0393 1256.95 468.756
1119 1 47.0408 10.6291 500 103.34 1257.46 488.648
1120 0 47.0323 9.82303 462 103.193 1257.34 485.946
1121 0 51.031 11.9339 609 98.0542 1257.05 486.302
1122 0 50.023 11.3348 567 101.173 1256.83 483.326
1123 0 52.0575 10.2771 535 102.516 1257.33 481.791
1124 0 52.044 9.54962 497 104.288 1257.28 483.183
1125 0 55.0256 11.0494 608 101.191 1257 480.832
1126 0 58.0268 12.184 707 98.338 1256.96 480.859
1127 0 59.0317 11.4853 678 100.386 1257.53 477.445
1128 0 65.0479 12.3755 805 96.4571 1257.2 477.684
1129 0 65.0236 11.1959 728 98.897 1256.72 477.705
1130 0 69.0249 12.1116 836 96.6986 1256.68 476.26
1131 0 71.0388 11.8668 843 96.5753 1256.95 474.893
1132 0 73.0517 10.3899 759 99.6785 1256.71 473.332
1133 0 77.0755 11.1838 862 98.6589 1256.93 471.623
1134 0 78.0685 12.1304 947 97.5597 1256.43 471.221
1135 0 81.1067 10.6526 864 99.8669 1256.59 470.624
1136 0 88.1131 12.2683 1081 95.1859 1256.61 467.914
1137 1 44.0201 11.0631 487 88.9815 1256.29 487.836
1138 0 45.0222 12.0385 542 88.9059 1256.83 487.618
1139 0 47.0494 12.7526 600 93.7183 1255.86 489.893
1140 0 50.0799 13.2588 664 92.4367 1257.25 489.702
1141 0 51.1347 13.7676 704 92.1747 1257.04 487.963
1142 0 53.0295 13.4454 713 92.5891 1257.34 489.236
1143 0 55.117 12.3555 681 94.514 1257.39 487.206
1144 0 57.0492 13.8827 792 92.4078 1257.11 487.874
1145 0 56.1679 13.2104 742 96.004 1256.41 485.039
1146 0 58.018 13.289 771 96.7626 1256.74 484.132
1147 0 60.0282 14.0434 843 95.0664 1256.01 483.05
1148 0 60.0355 13.5253 812 97.5714 1256.09 482.812
1149 0 63.0599 13.622 859 97.6938 1255.48 481.588
1150 0 66.1043 13.6905 905 97.1613 1255.3 480.915
1151 0 69.0729 15.2592 1054 94.685 1254.97 478.574
1152 0 72.1106 14.1311 1019 97.4024 1255.3 479.913
1153 0 74.0896 14.7119 1090 96.9991 1255.54 477.927
1154 0 77.0713 14.013 1080 99.1741 1255.62 475.506
1155 0 77.0991 14.1766 1093 99.9552 1255.78 474.933
1156 0 82.0682 14.951 1227 97.3154 1255.39 472.231
1157 0 84.0772 12.7859 1075 102.65 1255.58 473.518
1158 0 88.1009 14.1656 1248 99.879 1255.6 470.495
1159 0 91.1726 15.191 1385 98.07 1255.75 467.984
1160 1 47.1034 13.0139 613 141.272 1256.35 490.073
1161 0 51.0768 12.3148 629 103.607 1256.06 489.022
1162 0 51.0253 10.583 540 100.583 1255.4 486.669
1163 0 53.143 11.5914 616 97.3636 1255.64 482.633
1164 0 54.0645 11.6158 628 97.8615 1255.86 482.129
1165 0 57.1112 11.714 669 97.8356 1255.7 481.109
1166 0 59.0798 12.6101 745 96.1664 1255.74 481.109
1167 0 59.2157 12.7331 754 95.8501 1255.7 480.107
1168 0 62.1101 10.7873 670 100.612 1255.83 479.909
1169 0 64.1241 11.9144 764 98.4961 1255.55 477.962
1170 0 63.1604 11.2412 710 101.261 1255.73 478.769
1171 0 67.1133 12.5012 839 98.1049 1254.39 476.159
1172 0 71.0745 11.8749 844 100.142 1254.73 476.113
1173 0 74.1874 13.2367 982 96.3666 1255.14 473.851
1174 0 75.2265 12.5488 944 98.5138 1255.38 474.528
1175 0 78.0769 12.603 984 97.8923 1255.01 471.346
1176 0 81.1759 12.4544 1011 98.3284 1254.95 473.361
1177 0 84.0397 12.8273 1078 98.3831 1254.52 469.397
1178 0 89.0377 12.388 1103 97.8123 1255.13 468.696
1179 1 42.0153 10.4248 438 98.5046 1254.14 491.155
1180 0 45.0405 11.5674 521 101.722 1253.57 490.296
1181 0 48.0217 12.2028 586 101.268 1254.06 488.969
1182 0 48.1035 12.4731 600 103.628 1253.93 488.032
1183 0 51.0344 12.2858 627 105.005 1253.9 488.499
1184 0 52.067 12.9257 673 103.088 1254.09 487.507
1185 0 56.0247 12.9943 728 102.913 1253.5 487.331
1186 0 56.0337 13.7953 773 100.947 1254.12 486.62
1187 0 55.0677 12.7661 703 106.826 1254.15 484.215
1188 0 59.0608 13.376 790 105.078 1254.01 484.149
1189 0 59.0775 12.9322 764 107.5 1253.91 482.852
1190 0 62.1206 12.8943 801 106.712 1254.6 483.836
1191 0 63.0343 13.4847 850 106.368 1254.62 482.458
1192 0 66.0554 14.4121 952 104.709 1254.56 479.279
1193 0 67.2144 13.3602 898 108.122 1254.85 478.032
1194 0 70.18 13.6649 959 106.86 1254.06 478.936
1195 0 73.1721 13.5297 990 108.082 1254.86 476.932
1196 0 73.1563 14.0521 1028 108.268 1254.91 475.849
1197 0 78.4078 13.8124 1083 108.259 1254.99 472.766
1198 1 39.3411 10.93 430 113.728 1255.43 490.523
1199 0 39.0569 10.6255 415 110.084 1254.92 488.73
1200 0 40.0427 11.7624 471 107.76 1255.41 486.964
1201 0 42.1075 11.0432 465 109.273 1256.08 488.002
1202 0 43.23 11.6354 503 107.859 1256.25 486.187
1203 0 45.079 11.8459 534 107.049 1255.93 486.603
1204 0 44.0953 10.8628 479 111.775 1255.43 484.551
1205 0 43.0856 10.4907 452 139.155 1254.45 483.918
1206 0 50.0764 13.0601 654 110.199 1256.29 488.679
1207 0 53.0188 12.1844 646 112.333 1255.97 486.156
1208 0 54.0254 12.309 665 112.17 1255.82 485.681
1209 0 56.1046 12.3341 692 111.126 1255.93 485.133
1210 0 56.0479 12.1682 682 112.006 1256 484.258
1211 0 58.0766 12.6557 735 109.507 1256.1 484.268
1212 0 60.1117 12.5932 757 108.885 1255.82 484.725
1213 0 61.0393 12.5821 768 109.441 1256.01 482.243
1214 0 63.1694 12.6485 799 109.274 1255.55 480.599
1215 0 65.1101 12.6401 823 109.842 1255.84 478.881
1216 0 68.1328 13.958 951 104.852 1255.46 478.919
1217 0 68.184 13.0236 888 108.101 1255.59 477.829
1218 0 70.1828 12.097 849 110.809 1256.32 477.485
1219 0 71.2354 12.9711 924 109.694 1256.02 478.152
1220 0 74.2859 12.2904 913 110.502 1255.69 476.739
1221 0 77.1745 13.7351 1060 108.245 1255.68 475.839
1222 0 79.2872 12.9025 1023 109.121 1254.54 474.923
1223 0 84.2136 14.202 1196 107.2 1255 472.992
1224 0 85.2367 13.2455 1129 110.841 1254.68 470.097
1225 0 88.1424 13.7278 1210 110.291 1255.05 468.498
1226 1 46.0461 11.3799 524 109.763 1254.83 490.521
1227 0 48.0452 12.6547 608 102.401 1254.49 488.62
1228 0 48.057 13.047 627 101.756 1256.92 488.518
1229 0 50.0258 12.9533 648 102.219 1256.58 487.668
1230 0 53.1052 12.56 667 101.931 1257.06 487.322
1231 0 52.0808 12.999 677 101.064 1256.95 489.087
1232 0 55.0513 15.2948 842 95.9976 1256.39 486.907
1233 0 56.0729 13.9461 782 99.4808 1256.59 484.284
1234 0 58.1196 12.285 714 103.434 1256.23 484.861
1235 0 62.1039 14.0571 873 98.811 1256.06 484.604
1236 0 61.0481 11.6466 711 105.927 1256.65 483.572
1237 0 66.0555 13.7309 907 100.047 1256.52 481.69
1238 0 67.0662 14.4633 970 99.2361 1256.23 478.874
1239 0 70.1302 13.9312 977 101.81 1256.55 478.123
1240 0 72.1576 13.5675 979 102.889 1256.26 478.286
1241 0 74.123 12.884 955 103.939 1255.96 474.741
1242 0 77.0708 12.7675 984 103.154 1255.93 474.652
1243 0 81.1355 13.0522 1059 102.811 1255.86 471.948
1244 0 84.1834 12.7341 1072 103.584 1256.13 474.197
1245 0 85.1364 11.5579 984 107.336 1255.16 471.688
1246 0 88.0868 12.0676 1063 106.651 1255.32 469.141
1247 0 92.2249 13.0876 1207 104.191 1255.26 470.169
1248 0 94.1666 11.8938 1120 107.265 1255.26 467.038
1249 0 98.1647 12.0002 1178 107.789 1255.48 464.551
1250 1 50.04 9.33253 467 114.529 1256.04 487.525
1251 0 53.0755 10.8148 574 110.044 1255.92 485.512
1252 0 57.0822 12.6134 720 106.315 1255.62 485.489
1253 0 57.1415 12.2503 700 108.017 1255.52 483.917
1254 0 58.0551 13.6594 793 105.354 1255.33 483.436
1255 0 58.0319 10.9422 635 112.142 1255.31 482.839
1256 0 62.0477 13.2156 820 107.004 1256.26 481.521
1257 0 65.048 13.3132 866 105.932 1255.78 480.533
1258 0 67.1651 13.7125 921 105.06 1255.73 479.124
1259 0 69.0671 14.1746 979 104.565 1255.87 477.609
1260 0 73.0658 13.9326 1018 104.477 1256.21 477.759
1261 0 75.0904 13.4904 1013 106.622 1255.44 475.919
1262 0 77.146 13.792 1064 105.573 1255.19 474.66
1263 0 81.0797 13.8136 1120 105.275 1255.24 471.971
1264 0 83.0545 13.8463 1150 105.75 1255.57 470.685
1265 0 87.0748 13.9191 1212 105.096 1255.7 470.786
1266 0 90.126 14.5352 1310 103.679 1255.21 469.786
1267 0 91.117 13.971 1273 106.221 1255.47 468.728
1268 0 94.1188 14.4923 1364 106.036 1255.62 465.088
1269 0 99.1341 16.2608 1612 100.947 1256 465.21
1270 1 48.1663 11.8755 572 112.937 1255.83 488.425
1271 0 51.0524 12.497 638 110.599 1256.23 484.107
1272 0 52.1343 10.9333 570 108.753 1254.74 479.139
1273 0 52.0626 11.1981 583 100.705 1254.33 483.317
1274 0 56.1107 10.604 595 102.563 1254.18 480.993
1275 0 58.0535 10.9899 638 101.691 1254.3 479.428
1276 0 58.1088 11.4268 664 102.14 1254.18 477.593
1277 0 61.111 12.0437 736 99.413 1255.37 478.889
1278 0 63.048 12.3398 778 99.8535 1255.54 477.24
1279 0 65.0851 11.7538 765 101.892 1255.7 474.591
1280 0 68.1241 12.1102 825 100.765 1255.8 474.805
1281 0 71.1228 13.3291 948 99.4124 1256 471.993
1282 0 72.0851 11.5835 835 104.217 1256.42 470.984
1283 0 76.0827 12.7493 970 100.899 1255.47 471.603
1284 0 81.093 12.0232 975 102.753 1256.03 471.25
1285 0 83.0581 12.7381 1058 101.285 1255.55 469.668
1286 0 84.0289 12.4362 1045 104.144 1254.99 466.174
1287 0 87.1244 12.0747 1052 105.516 1255.68 464.661
1288 1 45.0102 10.4421 470 102.364 1254.75 486.506
1289 0 47.1012 11.5708 545 104.406 1254.92 487.147
1290 0 47.025 12.0574 567 110.217 1253.8 489.337
1291 0 50.1367 13.1241 658 105.83 1254.13 487.178
1292 0 51.1588 12.1778 623 107.862 1254.54 485.358
1293 0 51.1345 12.6529 647 107.111 1254.57 486.102
1294 0 54.1092 12.752 690 107.126 1254.73 483.891
1295 0 56.1046 13.4214 753 104.794 1254.72 483.596
1296 0 56.0981 12.2286 686 108.638 1254.85 482.644
1297 0 59.109 12.2993 727 106.992 1254.75 482.67
1298 0 60.0545 12.6219 758 106.054 1255.91 482.214
1299 0 63.127 11.9125 752 107.267 1255.57 482.604
1300 0 65.1306 12.9432 843 103.043 1256.91 479.63
1301 0 66.164 12.8015 847 104.039 1256.15 480.057
1302 0 69.0485 12.9185 892 103.75 1256.69 477.775
1303 0 72.0992 13.2318 954 103.313 1256.86 474.308
1304 0 73.131 12.84 939 105.643 1256.01 474.751
1305 0 77.0715 13.1047 1010 104.784 1255.74 473.326
1306 0 79.1645 12.6193 999 106.603 1255.93 473.738
1307 0 83.2241 13.9022 1157 103.915 1255.69 471.608
1308 0 84.0966 13.2586 1115 106.535 1255.63 470.346
1309 0 86.081 12.7554 1098 108.924 1255.62 469.672
1310 0 89.1188 13.1173 1169 107.826 1256.32 466.963
1311 0 93.1396 13.0127 1212 108.418 1256.16 463.736
1312 0 96.1602 12.188 1172 110.244 1256.28 464.621
1313 0 99.2032 11.8645 1177 110.641 1256.16 462.122
1314 1 49.0524 12.1503 596 108.748 1256.57 486.946
1315 0 51.0143 12.3495 630 105.781 1254.94 486.611
1316 0 51.0651 12.1609 621 107.09 1253.97 484.71
1317 0 53.0851 12.5836 668 105.972 1253.93 483.177
1318 0 56.0523 10.7756 604 108.652 1253.98 483.692
1319 0 57.0605 12.7584 728 104.582 1254.15 482.478
1320 0 61.0906 12.2932 751 103.141 1253.98 481.655
1321 0 62.1186 12.9913 807 103.673 1254.06 480.323
1322 0 63.1894 12.4071 784 106.463 1254.42 480.647
1323 0 66.1045 13.9779 924 104.094 1253.69 479.511
1324 0 66.1716 13.0872 866 106.602 1254.31 477.256
1325 0 69.1217 13.5413 936 107.364 1254.88 476.435
1326 0 71.1322 14.1708 1008 107.533 1254.92 476.062
1327 0 75.103 14.58 1095 105.966 1253.98 476.374
1328 0 73.3457 12.816 940 112.186 1254.08 474.943
1329 0 77.1063 13.1507 1014 111.039 1253.68 472.897
1330 0 80.093 13.2221 1059 110.871 1253.94 473.107
1331 0 82.125 13.2359 1087 112.806 1253.7 469.777
1332 0 85.0988 12.8439 1093 112.207 1254.03 471.843
1333 0 91.124 13.4871 1229 109.191 1254.29 469.962
1334 0 92.0504 12.7104 1170 111.369 1254.11 466.503
1335 0 95.07 12.6433 1202 111.303 1254.49 467.142
1336 0 99.2673 13.2269 1313 111.153 1254.26 464.044
1337 1 51.1482 10.4011 532 115.876 1254.69 484.921
1338 0 54.2032 12.8406 696 105.636 1254.17 479.704
1339 0 56.2675 11.9785 674 106.944 1255.13 478.013
1340 0 60.3231 13.7592 830 105.61 1255.39 480.077
1341 0 62.1595 12.8379 798 106.756 1255.88 480.479
1342 0 62.2966 12.28 765 109.627 1256.05 477.546
1343 0 63.0433 10.929 689 110.19 1256.85 480.07
1344 0 65.0646 11.3887 741 110.487 1256.63 478.278
1345 0 70.0694 13.3582 936 104.622 1256.79 477.271
1346 0 73.0526 12.4842 912 106.81 1256.67 476
1347 0 75.0624 12.3497 927 106.283 1256.62 477.05
1348 0 78.0926 11.4479 894 108.972 1256.79 475.339
1349 0 81.1165 12.1677 987 107.957 1256.3 473.03
1350 0 84.0815 12.6782 1066 107.596 1255.6 470.737
1351 1 46.1167 10.9722 506 110.591 1254.46 487.674
1352 0 43.0252 10.6914 460 107.557 1256.66 485.417
1353 0 46.0471 11.4882 529 103.098 1257.05 484.802
1354 0 45.103 10.1989 460 105.828 1255.92 482.443
1355 0 47.1778 10.6406 502 106.201 1256.34 480.078
1356 0 51.2478 11.4737 588 102.76 1255.69 481.32
1357 0 52.2834 10.1944 533 106.295 1255.75 479.064
1358 0 54.1118 11.8458 641 102.537 1256.25 478.955
1359 0 55.0789 10.9842 605 105.706 1256.3 476.848
1360 0 57.0717 10.9336 624 105.534 1255.89 478.72
1361 0 58.0579 10.2312 594 107.397 1255.69 476.498
1362 0 60.1191 10.7786 648 105.983 1255.67 476.028
1363 0 64.0967 11.1082 712 103.986 1256.51 476.949
1364 0 66.1491 11.6555 771 105.07 1256.65 473.145
1365 0 66.0888 11.5753 765 106.498 1256.35 472.01
1366 0 70.0539 11.7481 823 104.978 1255.8 472.75
1367 0 72.1118 12.4529 898 104.908 1256.17 467.955
1368 0 75.0507 11.7121 879 105.818 1255.67 471.355
1369 0 80.0676 11.4403 916 106.549 1255.5 467.697
1370 0 83.0716 11.7971 980 106.854 1254.77 467.373
1371 1 39.1229 9.17621 359 100.755 1255.31 487.345
1372 0 42.1515 9.60819 405 99.3062 1254.58 488.543
1373 0 44.1058 12.334 544 107.261 1253.56 489.11
1374 0 46.1085 13.0778 603 104.244 1253.65 489.373
1375 0 49.0937 12.9752 637 105.042 1253.81 487.837
1376 0 49.1994 11.7888 580 108.9 1253.93 488.667
1377 0 51.1244 13.3987 685 105.282 1253.66 487.401
1378 0 54.0478 12.3409 667 107.631 1254.06 486.964
1379 0 54.0478 12.3409 667 139.448 1254.06 486.964
1380 0 56.1113 14.293 802 104.074 1254.45 485.495
1381 0 57.0767 13.7184 783 106.493 1254.17 484.636
1382 0 60.0899 13.6795 822 106.545 1254.18 484.625
1383 0 61.0784 13.8347 845 107.825 1253.91 483.733
1384 0 63.0447 13.3715 843 109.642 1254.14 481.019
1385 0 64.0444 14.6305 937 107.279 1254.7 479.263
1386 0 66.0623 13.1997 872 110.568 1254.55 481.454
1387 0 68.0995 14.0677 958 109.954 1254.34 478.812
1388 0 72.0552 14.7665 1064 108.575 1254.28 477.912
1389 0 74.0734 14.2966 1059 111.628 1254.08 475.397
1390 0 77.0543 14.5093 1118 111.11 1254.37 474.057
1391 0 78.1206 13.1975 1031 116.127 1254.02 472.539
1392 0 82.2416 15.5517 1279 109.164 1253.89 471.045
1393 0 83.0686 14.1329 1174 113.933 1253.56 471.035
1394 0 87.1605 14.0889 1228 114.181 1253.84 469.376
1395 1 44.0185 10.4956 462 120.978 1253.75 490.457
1396 0 49.0147 12.5269 614 108.979 1253.77 487.971
1397 0 48.0715 12.003 577 103.842 1254.19 486.586
1398 0 47.161 10.1355 478 104.103 1255.42 484.755
1399 0 49.1454 11.6389 572 101.425 1256.08 484.315
1400 0 50.1727 10.9024 547 103.23 1255.4 484.697
1401 0 55.1399 12.0602 665 99.8842 1255.28 484.731
1402 0 53.1113 12.0125 638 103.207 1255.3 482.063
1403 0 56.1067 12.298 690 101.251 1255.42 483.268
1404 0 58.1013 11.4799 667 102.724 1255.88 481.993
1405 0 60.1557 12.717 765 101.05 1255.59 479.669
1406 0 62.0308 12.2197 758 102.45 1255.12 478.165
1407 0 61.1257 11.3209 692 105.645 1255.09 477.341
1408 0 63.0572 11.9733 755 105.115 1254.34 477.56
1409 0 67.0562 12.9742 870 101.769 1254.84 475.37
1410 0 68.0717 12.3546 841 104.725 1254.95 476.232
1411 0 72.0534 13.2402 954 101.476 1254.56 476.558
1412 0 72.0809 12.486 900 104.576 1254.45 473.048
1413 0 77.0657 12.3142 949 103.929 1255.06 471.976
1414 0 78.0568 12.0041 937 105.782 1254.61 469.797
1415 0 82.0483 12.2733 1007 104.325 1253.97 469.055
1416 0 83.2362 12.6387 1052 109.557 1253.61 469.234
1417 1 44.0643 11.6421 513 107.191 1252.9 486.368
1418 0 47.172 11.9986 566 100.707 1253.09 484.905
1419 0 47.1498 10.244 483 107.337 1254 485.961
1420 0 51.3534 11.6838 600 104.29 1253.87 482.057
1421 0 51.0767 12.3344 630 104.062 1255.34 484.251
1422 0 53.1256 12.2728 652 100.762 1255.82 485.08
1423 0 55.1946 12.3382 681 101.602 1254.92 482.298
1424 0 54.1727 11.408 618 103.822 1255.56 482.178
1425 0 58.1824 11.8077 687 101.336 1256.36 480.38
1426 0 59.0816 11.9157 704 100.815 1256.53 481.408
1427 0 64.1803 13.2128 848 96.8325 1257.19 479.897
1428 0 63.2363 12.3189 779 101.178 1255.68 477.178
1429 0 67.099 13.1447 882 98.4943 1255.89 477.027
1430 0 69.1734 13.3433 923 98.1961 1256.04 474.427
1431 0 69.1734 13.3144 921 127.439 1256.05 474.377
1432 0 74.1353 13.7451 1019 98.9254 1256.79 471.811
1433 0 74.1338 13.7454 1019 130.18 1258.79 471.896
1434 0 77.1255 11.786 909 100.635 1255.87 467.249
1435 0 81.1061 11.5898 940 100.914 1255.46 466.767
1436 0 84.0992 12.5685 1057 99.4059 1254.8 465.113
1437 0 86.0893 13.7067 1180 97.3432 1254.85 463.92
1438 0 89.1819 13.3659 1192 99.552 1254.87 460.531
1439 1 46.074 11.1777 515 99.4718 1256.28 483.732
1440 0 49.0519 10.4583 513 101.616 1256.35 483.041
1441 0 50.1989 11.7931 592 106.448 1256.28 483.157
1442 0 54.1497 12.17 659 104.592 1256.35 482.446
1443 0 54.1662 12.037 652 105.018 1256.39 482.137
1444 0 57.0531 13.1457 750 102.617 1256.63 481.801
1445 0 58.2283 13.1723 767 103.12 1256.77 481.098
1446 0 59.0912 11.6599 689 106.92 1256.88 480.517
1447 0 62.0945 11.6113 721 106.963 1256.44 478.755
1448 0 63.096 12.6632 799 104.541 1256.24 478.447
1449 0 67.1171 13.8415 929 101.183 1256.37 479.845
1450 0 67.0798 12.8653 863 106.154 1256.72 477.166
1451 0 68.091 12.3805 843 108.393 1256.41 478.032
1452 0 72.1484 14.5533 1050 104.144 1256.37 474.908
1453 0 73.148 13.6162 996 112.804 1256.04 471.964
1454 0 76.2426 12.2766 936 115.525 1255.88 473.076
1455 0 81.3806 13.9099 1132 110.275 1256.35 472.848
1456 0 83.1736 13.7544 1144 111.087 1256.05 471.31
1457 0 85.1626 14.4312 1229 110.229 1256 468.488
1458 0 86.1695 12.8468 1107 114.556 1255.74 469.976
1459 1 46.0455 11.923 549 111.078 1256.25 489.583
1460 0 47.0805 11.4272 538 114.47 1257.15 488.039
1461 0 49.0517 12.8436 630 112.603 1256.74 487.087
1462 0 49.0517 12.864 631 145.655 1255.74 487.049
1463 0 51.0268 12.0721 616 99.1412 1254.22 483.834
1464 0 53.0563 11.648 618 99.7977 1254.58 483.464
1465 0 53.1698 11.1341 592 102.321 1255.97 482.041
1466 0 55.031 10.9938 605 101.967 1255.2 483.281
1467 0 58.0718 11.6924 679 101.121 1255.6 480.982
1468 0 58.0748 11.0031 639 103.025 1255.64 481.656
1469 0 62.1086 11.3672 706 101.697 1256.09 481.307
1470 0 64.1187 11.775 755 100.873 1255.57 480.979
1471 0 65.1277 12.2068 795 100.833 1254.99 479.336
1472 0 67.0898 11.7753 790 103.047 1254.44 477.661
1473 0 70.1285 12.7908 897 100.294 1254.98 475.724
1474 0 71.0645 11.5247 819 102.844 1254.72 476.642
1475 0 75.0598 13.3627 1003 98.8255 1254.56 474.676
1476 0 77.1187 12.1242 935 102.205 1254.93 472.947
1477 0 79.0846 12.6953 1004 101.461 1255.2 471.035
1478 0 84.1233 14.4193 1213 97.3693 1255.11 470.068
1479 0 85.1835 12.5494 1069 102.134 1255.18 470.789
1480 0 86.1189 13.1098 1129 101.561 1255.62 468.717
1481 0 89.1932 12.6915 1132 102.648 1255.79 466.017
1482 0 93.2086 12.8207 1195 102.835 1255.12 466.351
1483 0 95.1345 12.8345 1221 103.962 1254.6 461.066
1484 0 99.265 12.2299 1214 104.376 1254.41 463.528
1485 0 102.154 13.1663 1345 101.977 1255.08 460.958
1486 1 55.2245 11.8245 653 101.372 1254.91 485.343
1487 0 57.3121 13.3305 764 108.013 1254.34 483.894
1488 0 59.2572 13.3148 789 104.75 1254.7 485.619
1489 0 62.2058 14.4199 897 105.969 1254.37 483.427
1490 0 63.2785 15.3449 971 104.563 1254.72 481.26
1491 0 65.2123 15.1812 990 104.626 1254.54 479.792
1492 0 65.1441 13.1247 855 113.752 1254.43 478.781
1493 0 70.0985 14.822 1039 108.946 1254.69 479.31
1494 0 71.2362 14.0659 1002 112.237 1255.02 478.632
1495 0 73.3113 14.5135 1064 110.538 1254.06 478.159
1496 0 76.4306 14.2351 1088 111.933 1254.23 476.18
1497 0 80.2186 15.7196 1261 108.078 1254.56 473.585
1498 0 82.2281 13.1828 1084 115.673 1254.24 472.548
1499 0 84.2105 13.87 1168 113.554 1254.03 471.795
1500 0 88.2139 13.9094 1227 113.033 1254.27 468.156
1501 0 91.3358 14.7916 1351 110.349 1254.28 469.893
1502 1 49.2011 12.0729 594 116.747 1254.39 489.872
1503 0 50.3382 13.0517 657 112.486 1255.25 484.463
1504 0 51.0998 14.4815 740 103.738 1254.97 486.042
1505 0 51.0575 11.9473 610 111.457 1253.8 488.398
1506 0 50.0177 12.1757 609 117.934 1254.58 487.378
1507 0 50.0431 12.2894 615 119.554 1254.68 486.883
1508 0 52.053 12.7946 666 118.447 1254.26 486.188
1509 0 53.0629 13.2861 705 119.506 1254.1 485.468
1510 0 55.0838 13.6156 750 116.476 1254.18 487.057
1511 0 55.0673 12.9659 714 119.202 1253.05 484.132
1512 0 59.0502 14.0728 831 114.398 1252.87 481.833
1513 0 60.1088 12.8766 774 115.895 1252.91 482.385
1514 0 61.0428 13.0073 794 115.312 1253.24 481.577
1515 0 64.0978 12.6369 810 114.142 1253.25 480.396
1516 0 67.1085 14.5883 979 108.84 1253.7 478.242
1517 0 69.0738 13.7534 950 110.516 1252.92 478.4
1518 0 70.0683 13.444 942 111.423 1254.17 477.575
1519 0 71.0642 12.9742 922 112.992 1254.26 478.651
1520 0 76.0774 13.4205 1021 112.111 1253.85 476.18
1521 0 77.0592 13.2496 1021 113.787 1254.17 473.274
1522 0 79.1086 12.5144 990 115.934 1254.04 473.06
1523 0 84.0962 12.4381 1046 115.69 1254.63 473.8
1524 0 86.0669 13.8381 1191 113.509 1253.91 471.645
1525 1 44.0462 10.8522 478 117.408 1253.12 491.119
1526 0 44.0614 11.8017 520 115.231 1253.37 488.381
1527 0 44.0697 11.4364 504 114.915 1253.19 487.671
1528 0 45.0726 11.4038 514 103.426 1254.2 489.677
1529 0 47.0395 11.3522 534 105.624 1254.65 487.066
1530 0 47.0655 10.3685 488 108.662 1255.16 487.377
1531 0 50.0898 11.3396 568 107.077 1254.63 486.551
1532 0 52.0354 12.3378 642 105.254 1254.18 485.276
1533 0 53.074 12.134 644 106.955 1254.48 485.761
1534 0 53.1131 11.9556 635 109.606 1254.2 484.854
1535 0 54.0656 11.597 627 110.981 1254.67 484.622
1536 0 57.0395 11.7813 672 110.731 1253.48 483.515
1537 0 58.0592 12.4011 720 108.776 1254.18 482.422
1538 0 60.0411 12.125 728 108.61 1254.37 483.242
1539 0 61.0337 12.1081 739 109.968 1254.12 480.677
1540 0 63.0807 13.8077 871 106.528 1253.77 479.526
1541 0 66.1017 13.5549 896 106.531 1253.5 479.83
1542 0 66.104 12.8434 849 108.198 1254.33 480.744
1543 0 68.0582 13.1358 894 108.589 1254.25 477.263
1544 0 70.0573 12.8752 902 111.029 1252.96 476.076
1545 0 72.1132 12.4388 897 113.727 1252.98 473.1
1546 0 75.1504 12.3486 928 113.279 1253.26 472.728
1547 0 78.0913 13.3178 1040 111.634 1253.72 471.244
1548 0 79.1355 12.5986 997 114.367 1253.05 471.523
1549 1 45.0244 11.3494 511 110.759 1253.02 490.939
1550 0 45.0176 10.2627 462 114.459 1253.16 489.781
1551 0 48.1467 11.8596 571 112.221 1252.32 487.89
1552 0 51.0637 12.1809 622 108.883 1252.79 487.325
1553 0 51.0923 13.1722 673 107.767 1252.76 486.661
1554 0 53.0563 13.9097 738 107.122 1252.58 487.222
1555 0 53.1314 12.6667 673 111.293 1251.69 485.319
1556 0 57.0591 14.003 799 107.153 1252.85 484.856
1557 0 58.1186 13.5241 786 108.863 1252.41 484.81
1558 0 60.0363 13.5918 816 109.792 1251.85 483.901
1559 0 58.0686 12.3302 716 115.265 1251.74 484.098
1560 0 61.0258 13.2567 809 113.257 1252.31 482.593
1561 0 63.0794 13.5068 852 113.555 1252.38 480.871
1562 0 66.033 14.0839 930 111.13 1252.53 479.37
1563 0 68.0462 13.7407 935 113.197 1252.39 478.151
1564 0 71.166 14.7402 1049 111.489 1252.49 477.551
1565 0 72.264 11.9977 867 118.885 1252.77 476.995
1566 0 76.0872 13.8131 1051 115.005 1252.75 475.697
1567 0 78.135 13.4383 1050 117.446 1252.88 475.021
1568 0 80.1539 13.6737 1096 117.272 1252.32 473.12
1569 0 84.1804 13.6849 1152 115.411 1253.42 471.009
1570 0 86.1992 12.8656 1109 121.534 1253.2 468.813
1571 1 46.1337 11.5967 535 121.136 1253.61 487.034
1572 0 49.0949 13.5045 663 123.615 1253.17 489.65
1573 0 50.2018 13.4856 677 124.575 1253 489.315
1574 0 52.0782 13.4797 702 122.007 1253.37 485.469
1575 0 53.075 13.8295 734 117.732 1253.11 488.011
1576 0 56.0459 12.9358 725 118.651 1252.87 488.389
1577 0 57.1225 13.6199 778 117.149 1252.71 486.491
1578 0 59.0565 14.0374 829 115.694 1253.51 484.68
1579 0 63.0718 14.3804 907 113.239 1252.66 484.542
1580 0 63.1307 14.0502 887 115.494 1252.37 484.1
1581 0 65.0413 12.7919 832 118.502 1252.22 482.779
1582 0 67.158 13.8777 932 115.561 1253 481.33
1583 0 70.087 13.9826 980 114.554 1252.84 479.378
1584 0 73.0467 13.9089 1016 111.297 1253.42 477.72
1585 0 75.0335 12.7676 958 113.456 1253.16 476.087
1586 0 79.1273 13.8764 1098 110.381 1252.41 474.865
1587 0 81.086 13.7508 1115 112.038 1252.15 472.288
1588 0 85.0612 13.649 1161 111.947 1252.35 472.661
1589 0 84.0649 12.7045 1068 141.493 1253.23 471.102
1590 0 89.1326 13.3733 1192 114.078 1252.41 469.065
1591 0 90.1188 13.46 1213 116.4 1252.46 466.144
1592 1 46.0111 10.4323 480 122.99 1252.16 487.935
1593 0 51.043 11.4805 586 115.596 1252.73 488.244
1594 0 55.3188 13.6843 757 114.902 1252.66 484.092
1595 0 56.1514 13.8198 776 111.05 1253.5 485.006
1596 0 58.1594 14.1164 821 111.124 1253.41 482.322
1597 0 60.2968 13.4999 814 111.6 1254.17 482.679
1598 0 62.2075 13.5032 840 112.426 1254.18 480.329
1599 0 66.3117 13.3461 885 111.893 1254.14 480.512
1600 0 68.2198 13.7203 936 112.012 1253.6 478.357
1601 0 69.229 12.8848 892 114.596 1253.96 476.071
1602 0 75.2249 13.2536 997 111.336 1253.95 477.605
1603 0 75.1835 14.0057 1053 110.992 1253.75 474.348
1604 0 79.2718 13.9772 1108 110.555 1253.86 473.862
1605 0 80.1105 13.2817 1064 113.352 1253.99 474.043
1606 0 83.0749 13.8309 1149 112.904 1253.62 470.252
1607 0 87.1242 13.8423 1206 112.927 1253.42 469.76
1608 1 45.0388 10.2134 460 113.883 1252.22 489.557
1609 0 48.0862 12.9975 625 107.987 1252.3 489.933
1610 0 51.0743 11.8063 603 111.378 1253.2 488.983
1611 0 52.1348 12.9856 677 109.256 1252.67 487.049
1612 0 55.0901 14.2131 783 105.639 1253.24 486.838
1613 0 54.0731 13.0379 705 109.847 1252.98 485.777
1614 0 54.0289 12.7154 687 111.511 1253.43 483.381
1615 0 58.0808 12.1899 708 112.031 1252.91 483.963
1616 0 60.064 13.0694 785 109.724 1253.64 482.829
1617 0 63.1169 13.5146 853 113.883 1253 481.864
1618 0 63.1169 13.4512 849 140.097 1252.01 481.71
1619 0 66.0975 11.952 790 115.87 1252.82 478.651
1620 0 67.1205 12.1423 815 115.842 1252.89 475.78
1621 0 71.0749 11.5934 824 115.777 1252.25 474.953
1622 0 73.1163 11.8852 869 113.524 1251.82 476.244
1623 0 77.1074 12.7095 980 112.101 1252.92 473.158
1624 0 81.1293 11.8946 965 112.656 1252.46 474.261
1625 0 82.2396 12.6946 1044 112.453 1253.28 468.782
1626 0 85.1487 11.8146 1006 113.876 1253.44 468.944
1627 0 88.2432 12.4542 1099 112.406 1253.61 466.121
1628 0 91.2154 11.9607 1091 103.874 1253.46 466.616
1629 1 48.0636 10.2989 495 108.958 1253.39 488.41
1630 0 50.0699 10.5253 527 109.368 1252.48 487.901
1631 0 51.0325 11.6788 596 107.492 1252.08 487.765
1632 0 53.0848 12.9981 690 101.894 1251.85 486.697
1633 0 52.1277 11.7979 615 107.167 1251.86 485.055
1634 0 55.0385 12.4822 687 104.891 1252.36 483.997
1635 0 57.0315 10.8361 618 108.759 1252.66 484.469
1636 0 59.0469 11.5163 680 106.753 1252.67 483.984
1637 0 60.0826 12.2665 737 113.274 1253.81 482.677
1638 0 62.0534 11.1678 693 116.291 1253.13 482.232
1639 0 65.0905 12.4289 809 113.621 1253.31 480.979
1640 0 65.1362 12.2052 795 115.765 1253.78 479.948
1641 0 69.1009 12.1127 837 116.168 1253.68 478.226
1642 0 69.182 12.3732 856 115.627 1253.69 478.207
1643 0 74.114 12.1434 900 107.752 1253.85 477.413
1644 0 75.1647 12.466 937 107.795 1253.75 476.603
1645 0 77.0966 12.7502 983 108.593 1253.26 472.555
1646 0 79.1934 13.5744 1075 109.088 1253.31 471.794
1647 0 82.1901 12.2521 1007 113.364 1252.94 473.353
1648 0 83.2146 12.7021 1057 115.605 1253.13 469.522
1649 1 46.187 9.89456 457 113.184 1254.27 489.147
1650 0 47.1436 9.39681 443 113.524 1254.39 489.968
1651 0 45.1743 10.3599 468 115.637 1254.18 487.6
1652 0 48.1561 10.3414 498 114.731 1254.45 486.9
1653 0 50.1422 10.6896 536 114.92 1254.56 485.938
1654 0 53.054 12.4779 662 109.798 1254.52 486.79
1655 0 55.1069 12.6844 699 108.469 1252.48 485.219
1656 0 55.3162 12.076 668 113.329 1252.69 483.934
1657 0 58.1824 12.5124 728 114.948 1252.73 482.418
1658 0 63.1333 14.699 928 110.763 1252.21 480.848
1659 0 63.2279 13.5541 857 119.476 1252.62 478.625
1660 0 66.2395 12.8624 852 119.786 1252.49 479.266
1661 0 67.1507 14.4302 969 118.071 1252.17 476.503
1662 0 69.0793 12.4784 862 120.036 1252.83 474.171
1663 0 71.2616 13.1908 940 116.209 1253.19 471.089
1664 0 71.1079 12.024 855 119.488 1253.41 469.96
1665 0 74.2176 13.1909 979 116.447 1252.66 471.097
1666 0 76.1943 12.1794 928 122.209 1252.7 466.416
1667 0 78.2767 12.6219 988 120.801 1252.56 466.682
1668 0 81.2358 13.5162 1098 118.567 1252.61 465.001
1669 0 83.2561 13.5005 1124 119.981 1253.22 463.139
1670 0 85.2841 13.6485 1164 119.893 1252.84 463.641
1671 0 90.1157 14.0486 1266 117.086 1252.64 461.652
1672 0 92.2473 12.4773 1151 120.873 1252.01 460.488
1673 0 97.2174 14.4316 1403 116.159 1252.13 460.303
1674 1 51.0568 10.2631 524 112.769 1251.68 485.815
1675 0 53.0386 11.7839 625 111.126 1251.82 483.669
1676 0 52.2141 12.0465 629 106.997 1252.2 481.305
1677 0 53.0737 10.7398 570 109.888 1252.53 481.837
1678 0 54.2214 11.7112 635 122.685 1253.4 487.164
1679 0 58.1054 12.5117 727 122.164 1253.51 483.028
1680 0 57.0268 12.0119 685 124.14 1253.33 482.594
1681 0 62.0156 11.9809 743 120.059 1253.01 484.377
1682 0 63.0448 12.6259 796 120.848 1253.54 479.742
1683 0 63.0647 11.3851 718 123.397 1253.98 481.028
1684 0 67.0652 12.2269 820 121.293 1253.68 479.278
1685 0 70.0424 12.1355 850 119.564 1254.3 481.175
1686 0 71.0703 13.0294 926 119.964 1253.6 476.715
1687 0 75.0589 12.1238 910 120.547 1253.61 476.633
1688 0 76.103 12.9824 988 120.077 1254.09 473.51
1689 0 79.092 13.1619 1041 119.244 1253.32 472.937
1690 0 82.1695 12.742 1047 121.164 1252.48 475.224
1691 0 84.2281 12.3593 1041 122.67 1252.88 474.407
1692 0 85.2091 13.7779 1174 122.204 1252.69 470.249
1693 0 89.0864 12.7741 1138 122.519 1252.56 468.062
1694 1 46.0097 10.7803 496 122.208 1250.94 488.284
1695 0 48.1008 10.8314 521 118.9 1251.32 485.37
1696 0 48.0792 10.8987 524 119.742 1251.73 484.878
1697 0 50.0717 12.6818 635 112.663 1251.69 483.71
1698 0 53.0606 12.1936 647 122.181 1252.57 489.077
1699 0 56.0513 13.5947 762 118.434 1251.92 485.888
1700 0 58.0449 13.6963 795 118.014 1251.81 484.433
1701 0 60.0512 12.4727 749 120.491 1252.08 484.714
1702 0 62.0594 12.8425 797 120.123 1251.57 482.513
1703 0 63.0134 12.9814 818 119.692 1251.75 482.438
1704 0 65.0398 13.3918 871 115.565 1252.07 480.094
1705 0 67.0514 13.9147 933 113.473 1251.46 478.478
1706 0 68.0805 12.9553 882 115.551 1251.25 478.566
1707 0 72.1581 14.0248 1012 111.669 1250.67 479.159
1708 0 73.1446 12.7829 935 115.925 1250.68 477.101
1709 0 75.0766 13.1333 986 114.638 1251.64 475.063
1710 0 78.0829 12.8581 1004 114.701 1250.89 474.505
1711 0 83.1375 13.3634 1111 112.559 1250.62 472.926
1712 0 84.119 13.1718 1108 114.623 1251.25 470.746
1713 0 86.1157 13.0522 1124 115.392 1251.38 469.825
1714 0 87.1167 12.5693 1095 115.92 1251.49 470.728
1715 0 90.163 13.1096 1182 115.431 1251.87 468.662
1716 1 49.239 10.8857 536 112.369 1252.95 489.789
1717 0 50.152 13.9974 702 101.665 1253.46 488.358
1718 0 50.0489 13.287 665 102.403 1253.57 487.931
1719 0 51.0414 11.9903 612 105.4 1253.64 488.935
1720 0 55.0482 13.3156 733 101.427 1253.36 488.194
1721 0 59.1046 12.4187 734 102.158 1253.22 487.591
1722 0 58.0516 13.0573 758 102.288 1253.56 484.949
1723 0 61.0454 13.3016 812 101.399 1253.5 485.989
1724 0 62.1141 13.6684 849 100.624 1253.51 483.804
1725 0 62.0358 12.8313 796 105.118 1253.79 483.227
1726 0 66.0909 14.6465 968 100.853 1253.82 480.566
1727 0 66.0378 13.144 868 105.986 1253.56 481.112
1728 0 71.0368 13.7957 980 104.201 1253.66 478.718
1729 0 74.1507 14.5919 1082 101.351 1254.01 479.835
1730 0 74.0977 12.8884 955 108.133 1253.59 477.224
1731 0 80.0832 13.3986 1073 107.454 1253.66 475.743
1732 0 81.0788 13.0737 1060 109.873 1253.67 472.342
1733 0 84.0761 15.1767 1276 104.654 1254.37 473.585
1734 0 86.2341 13.9968 1207 108.299 1254.36 472.241
1735 0 88.3507 15.0423 1329 107.137 1253.53 468.661
1736 0 91.2345 13.5037 1232 111.549 1253.25 468.428
1737 1 48.0582 11.8814 571 115.391 1254.14 488.725
1738 0 50.0298 12.2927 615 113.974 1253.52 487.603
1739 0 52.0324 12.7613 664 116.221 1253.34 486.542
1740 0 53.0856 12.2444 650 117.837 1253.9 487.158
1741 0 53.033 12.2754 651 119.458 1253.73 486.074
1742 0 57.035 12.2732 700 117.766 1253.76 485.41
1743 0 59.0635 11.513 680 119.888 1253.71 483.747
1744 0 60.0901 12.2816 738 118.453 1253.8 483.042
1745 0 60.0637 12.0872 726 118.284 1253.41 482.387
1746 0 64.0632 13.4711 863 114.444 1253.91 480.504
1747 0 65.1445 13.2475 863 115.855 1253.54 479.006
1748 0 69.1791 13.1398 909 113.289 1253.05 478.834
1749 0 69.1201 12.1383 839 116.949 1253.23 478.527
1750 0 73.1084 13.8698 1014 112.219 1253.66 477.089
1751 0 74.0847 13.0256 965 114.955 1253.39 473.811
1752 0 79.1734 12.8326 1016 113.614 1253.62 473.344
1753 0 81.109 12.477 1012 114.792 1253.33 472.322
1754 0 82.1662 12.0366 989 115.819 1253.2 472.436
1755 0 86.1649 14.1473 1219 110.852 1252.97 470.34
1756 1 44.0149 10.9281 481 112.649 1251.31 492.318
1757 0 45.0337 11.0806 499 114.531 1250.56 490.715
1758 0 46.065 12.4172 572 111.969 1250.27 488.717
1759 0 47.0411 12.521 589 114.959 1253.15 490.328
1760 0 50.069 13.6212 682 111.893 1253.8 488.283
1761 0 52.0738 13.0584 680 114.16 1253.88 487.868
1762 0 49.0321 12.3185 604 111.147 1252.56 488.425
1763 0 52.0256 11.9749 623 110.213 1252.48 489.329
1764 0 52.027 11.8208 615 129.325 1252.44 489.299
1765 0 54.0739 11.5952 627 112.431 1253.9 487.925
1766 0 58.102 12.6674 736 109.135 1254.07 486.26
1767 0 60.0789 13.1161 788 108.345 1253.52 485.004
1768 0 61.076 12.5417 766 111.663 1253.81 483.448
1769 0 63.0533 11.6885 737 113.837 1253.31 482.802
1770 0 66.0561 14.3969 951 107.008 1253.22 480.919
1771 0 68.0889 14.2608 971 107.766 1253.87 480.929
1772 0 70.1097 12.9226 906 111.451 1253.59 479.587
1773 0 73.0324 13.3366 974 111.445 1253.5 477.2
1774 0 75.1406 14.3331 1077 109.631 1253.41 476.635
1775 0 77.0888 12.6218 973 104.691 1252.52 473.292
1776 0 80.1149 12.3697 991 105.049 1252.78 470.909
1777 0 83.1229 13.3056 1106 103.117 1252.87 469.925
1778 0 83.1704 12.4804 1038 103.523 1252.98 467.963
1779 0 87.1727 12.7792 1114 102.908 1252.72 467.692
1780 0 87.1727 12.6989 1107 135.391 1252.7 467.752
1781 0 92.0975 11.9439 1100 105.485 1251.87 463.385
1782 0 99.1674 13.0386 1293 101.205 1252.79 464.856
1783 1 50.1176 9.53756 478 105.31 1252.49 486.985
1784 0 52.0983 11.1712 582 102.208 1252.6 485.959
1785 0 53.1916 11.8064 628 106.006 1252.73 480.505
1786 0 57.1923 13.5857 777 110.676 1251.89 484.134
1787 0 57.1923 13.6557 781 136.088 1250.91 484.291
1788 0 62.1283 14.4701 899 108.931 1251.84 483.133
1789 0 62.2261 13.692 852 110.541 1252.2 481.324
1790 0 64.217 12.193 783 113.723 1252.31 481.243
1791 0 66.1855 12.465 825 113.128 1252.56 479.879
1792 0 70.1824 14.2486 1000 107.734 1252.28 479.339
1793 0 72.1551 13.8036 996 109.194 1252.52 478.266
1794 0 74.257 14.5576 1081 107.969 1252.44 475.498
1795 0 78.2433 14.2121 1112 108.156 1252.12 475.511
1796 0 81.192 13.856 1125 108.983 1251.94 474.992
1797 0 83.2504 12.5044 1041 111.708 1252.56 475.092
1798 0 85.1265 14.1672 1206 108.877 1252.29 471.65
1799 0 88.2118 12.8214 1131 111.787 1252.81 471.885
1800 0 91.3217 13.655 1247 109.155 1252.05 468.512
1801 0 93.3403 12.749 1190 111.139 1252.23 466.871
1802 1 48.0673 13.6059 654 105.313 1252.41 489.044
1803 0 48.0339 11.3253 544 107.899 1253.43 489.568
1804 0 51.1145 11.3275 579 104.656 1253.45 488.827
1805 0 50.0861 10.6417 533 108.752 1253.47 483.743
1806 0 53.069 12.0221 638 104.245 1254.03 487.958
1807 0 57.0905 12.2612 700 103.749 1253.88 487.103
1808 0 57.087 12.6474 722 104.084 1253.27 485.084
1809 0 59.0955 12.7759 755 103.931 1253.46 484.879
1810 0 62.1091 13.7822 856 101.071 1253.33 481.799
1811 0 64.235 13.0925 841 101.627 1253.41 482.143
1812 0 67.0938 14.6064 980 98.6806 1253.35 480.987
1813 0 69.0605 14.5814 1007 98.5899 1253.32 478.841
1814 0 71.0991 12.2505 871 103.978 1252.93 478.073
1815 0 74.1424 12.9346 959 102.391 1253.03 478.483
1816 0 75.064 13.7216 1030 101.709 1252.84 475.949
1817 0 77.1557 12.222 943 104.563 1252.91 476.769
1818 0 84.159 13.522 1138 100.179 1253.6 474.714
1819 0 86.0969 14.5069 1249 99.5012 1253.68 471.922
1820 0 90.1423 13.7338 1238 100.619 1252.67 471.582
1821 0 91.2086 12.2028 1113 104.312 1252.96 470.65
1822 1 47.0946 11.2752 531 105.697 1253.11 491.991
1823 0 50.1193 14.8446 744 100.956 1251.9 487.591
1824 0 50.0732 12.3619 619 107.263 1251.89 487.814
1825 0 55.0636 13.3119 733 100.484 1253 488.805
1826 0 58.1151 14.9531 869 95.7699 1253 489.285
1827 0 58.1534 13.258 771 100.804 1253.25 486.92
1828 0 59.0634 13.0368 770 102.444 1253.2 484.535
1829 0 63.1297 13.496 852 100.723 1252.93 484.667
1830 0 64.103 14.7263 944 99.6303 1253.18 482.789
1831 0 67.0308 13.4863 904 102.216 1253.64 482.039
1832 0 68.2361 14.3033 976 101.293 1253.49 480.475
1833 0 71.2342 15.063 1073 99.7148 1253.19 481.473
1834 0 75.0954 13.8224 1038 103.298 1252.74 477.926
1835 0 77.0971 14.5012 1118 102.473 1253.07 478.886
1836 0 81.1865 15.5445 1262 99.9271 1252.44 476.064
1837 0 83.1074 14.2827 1187 103.202 1252.7 476.943
1838 0 85.0981 13.1495 1119 107.256 1252.62 473.559
1839 0 89.1728 13.9392 1243 105.154 1252.52 473.203
1840 0 90.1977 12.9715 1170 109.637 1252.73 471.011
1841 0 93.1977 12.5218 1167 110.903 1252.09 470.68
1842 0 97.1068 14.932 1450 106.814 1252.92 467.974
1843 1 48.0888 12.4769 600 113.027 1253.17 492.562
1844 0 52.0404 13.5856 707 111.818 1252.39 489.803
1845 0 52.1097 14.9684 780 109.036 1253.23 489.54
1846 0 53.0798 14.2427 756 111.833 1253.64 487.472
1847 0 53.0798 14.205 754 159.183 1253.64 487.452
1848 0 56.0362 12.831 719 114.505 1253.85 487.232
1849 0 59.0238 14.2485 841 111.102 1253.72 485.251
1850 0 62.0475 14.0699 873 111.197 1253.21 485.181
1851 0 63.0577 14.8277 935 111.689 1252.77 481.849
1852 0 66.0564 14.6844 970 111.704 1252.72 482.587
1853 0 67.1058 13.9481 936 115.585 1252.51 480.236
1854 0 71.0504 14.2434 1012 114.161 1253.1 479.7
1855 0 73.0873 15.1189 1105 112.795 1253.42 477.939
1856 0 73.0998 14.7606 1079 116.312 1253.34 476.677
1857 0 77.0811 14.7896 1140 116.315 1253.24 474.901
1858 0 78.1359 13.7709 1076 119.962 1253.62 474.612
1859 0 81.1252 13.5839 1102 120.829 1253.62 475.867
1860 0 83.0592 13.4844 1120 122.19 1253.31 473.464
1861 0 87.0618 14.1049 1228 120.7 1253.45 472.213
1862 0 89.1416 14.4938 1292 121.046 1253.34 471.027
1863 0 91.1194 13.9378 1270 124.346 1253.32 467.503
1864 0 96.2005 14.8232 1426 120.547 1253.36 468.033
1865 0 98.0655 13.7459 1348 125.046 1253.29 465.326
1866 1 53.1064 11.7123 622 126.682 1252.9 487.325
1867 0 54.059 13.3743 723 123.627 1253.6 484.391
1868 0 56.0836 13.3194 747 120.02 1251.93 477.637
1869 0 59.0472 14.0904 832 122.112 1250.67 479.364
1870 0 58.0115 12.7906 742 127.702 1250.43 479.881
1871 0 62.0303 13.8803 861 124.877 1250.02 478.256
1872 0 63.0972 13.9626 881 124.485 1251.25 474.432
1873 0 66.0847 14.6025 965 121.492 1250.85 475.964
1874 0 68.0842 15.1136 1029 121.807 1251.15 475.314
1875 0 67.103 13.606 913 129.635 1251.57 474.904
1876 0 70.1045 14.079 987 129.818 1251.33 476.372
1877 0 74.1262 14.192 1052 127.803 1251.61 474.831
1878 0 76.135 13.8832 1057 128.533 1252.07 472.914
1879 0 76.174 14.4275 1099 128.521 1251.6 469.244
1880 0 79.0873 15.3122 1211 126.645 1250.95 467.901
1881 0 82.1126 13.7251 1127 130.916 1250.69 469.408
1882 0 83.1141 14.462 1202 124.245 1250.56 467.395
1883 0 87.3049 15.3829 1343 123.601 1251.64 470.144
1884 0 90.3151 13.4861 1218 128.433 1252.03 468.522
1885 0 94.2175 14.2543 1343 126.994 1251.19 462.865
1886 1 47.1488 12.047 568 131.616 1251.07 483.572
1887 0 49.1865 13.276 653 128.492 1251.72 484.014
1888 0 51.2147 11.3249 580 121.295 1251.89 486.005
1889 0 52.1076 13.0307 679 120.18 1251.85 487.644
1890 0 57.1073 13.8511 791 115.721 1251.63 486.951
1891 0 58.1087 13.7673 800 116.31 1252.24 487.964
1892 0 58.067 13.3983 778 119.03 1251.99 485.859
1893 0 60.0338 13.4757 809 119.271 1251.92 485.088
1894 0 63.079 13.4435 848 118.404 1252.24 484.572
1895 0 66.0225 13.8286 913 118.202 1252.26 482.087
1896 0 68.0648 13.2815 904 119.825 1252.04 480.704
1897 0 69.0526 13.7576 950 119.868 1251.96 478.171
1898 0 73.0541 12.8535 939 120.553 1251.95 478.309
1899 0 73.046 12.9781 948 121.467 1252.29 475.941
1900 0 78.1547 15.0471 1176 114.489 1253.18 476.496
1901 0 78.1299 13.3112 1040 120.056 1252.91 475.081
1902 0 84.0672 13.5249 1137 117.989 1253.51 474.367
1903 0 85.202 13.2626 1130 121.577 1253.03 470.659
1904 0 89.1821 12.9735 1157 122.666 1253.39 470.85
1905 1 46.141 10.9881 507 122.572 1254.05 491.434
1906 0 46.149 12.6113 582 122.074 1253.4 488.112
1907 0 49.2026 12.3977 610 121.459 1252.81 487.159
1908 0 52.1536 12.4824 651 119.631 1253.35 488.281
1909 0 54.1696 12.6455 685 118.285 1253.1 487.591
1910 0 55.1021 12.7037 700 119.05 1252.98 486.951
1911 0 57.1162 12.5533 717 120.158 1252.75 485.34
1912 0 57.1046 13.5891 776 118.384 1252.82 486.861
1913 0 60.1414 13.1856 793 119.849 1252.18 484.233
1914 0 62.165 13.3676 831 118.652 1253.08 481.961
1915 0 64.1872 13.1023 841 119.346 1253.23 481.818
1916 0 68.212 14.3963 982 114.173 1253.31 480.449
1917 0 67.0685 12.7482 855 120.032 1253.53 479.304
1918 0 72.1539 12.9861 937 118.396 1253.34 476.448
1919 0 73.1403 12.9887 950 119.376 1253.31 476.4
1920 0 78.1852 13.046 1020 118.405 1252.84 474.436
1921 0 82.1195 12.8958 1059 120.378 1253.09 473.776
1922 1 41.0603 9.91225 407 123.211 1253.08 493.921
1923 0 43.0806 12.349 532 119.336 1252.99 491.318
1924 0 43.1558 11.4701 495 121.897 1253.25 492.309
1925 0 47.1236 12.7325 600 121.807 1252.97 489.568
1926 0 49.1038 13.5224 664 123.447 1252.35 488.529
1927 0 50.0404 12.5299 627 124.396 1252.35 489.059
1928 0 52.0863 14.4376 752 119.273 1253.18 485.755
1929 0 54.0715 13.0383 705 123.409 1253.6 483.24
1930 0 54.1306 13.5598 734 124.499 1253.29 482.552
1931 0 56.0755 13.1965 740 127.197 1251.14 485.438
1932 0 59.1224 13.1084 775 130.013 1251.05 484.306
1933 0 62.2224 13.7732 857 127.588 1251.23 482.197
1934 0 62.2074 13.5675 844 130.037 1251.81 482.336
1935 0 64.1127 14.0066 898 130.364 1251.5 479.979
1936 0 68.1081 13.8603 944 127.676 1251.44 481.443
1937 0 71.2652 14.4671 1031 126.76 1251.64 477.635
1938 0 72.0905 14.7592 1064 128.472 1251.73 477.682
1939 0 75.2123 13.6281 1025 130.944 1251.14 476.438
1940 0 77.0711 13.8184 1065 131.577 1251.74 474.46
1941 0 80.1601 14.2839 1145 130.088 1251.61 472.836
1942 0 84.1386 14.3573 1208 129.677 1251.8 471.127
1943 0 85.1411 13.7067 1167 131.564 1251.35 472.67
1944 0 88.2545 12.9285 1141 134.613 1251.7 471.318
1945 1 45.0719 11.3152 510 134.512 1250.76 490.394
1946 0 49.1087 12.5232 615 130.034 1251.61 489.317
1947 0 49.07 12.5942 618 144.204 1251.62 489.353
1948 0 50.1083 13.4509 674 118.361 1251.66 489.117
1949 0 52.206 11.7994 616 122.742 1250.97 488.912
1950 0 54.1406 12.5599 680 121.243 1251.29 487.129
1951 0 55.0893 13.5053 744 118.294 1251.8 486.454
1952 0 56.1675 12.2135 686 121.864 1252.18 486.555
1953 0 59.0711 12.3749 731 116.878 1251.96 486.101
1954 0 57.0907 11.9985 685 120.655 1251.33 482.676
1955 0 58.0868 11.3623 660 124.898 1252.01 483.277
1956 0 60.1596 11.2035 674 124.777 1252.06 482.451
1957 0 63.0659 11.5752 730 122.764 1252.73 481.647
1958 0 65.0726 12.4323 809 121.044 1252.13 479.602
1959 0 68.1214 11.9199 812 120.777 1251.33 478.302
1960 0 71.221 12.2717 874 119.564 1251.68 476.76
1961 0 75.2246 12.7219 957 117.086 1251.63 476.002
1962 0 73.1125 11.708 856 121.507 1251.53 473.847
1963 0 78.127 13.1197 1025 117.468 1251.51 471.459
1964 0 81.1097 12.6865 1029 118.735 1251.29 470.196
1965 0 83.1053 12.6466 1051 119.144 1251.86 469.527
1966 0 88.0873 12.8509 1132 117.678 1252.24 470.102
1967 0 89.1107 11.7719 1049 122.12 1251.71 468.073
1968 1 48.1472 10.8833 524 119.097 1250.88 485.981
1969 0 51.123 12.5188 640 114.831 1250.88 484.502
1970 0 52.2984 11.9507 625 115.925 1251.56 483.598
1971 0 54.0946 10.8883 589 117.343 1251.22 483.205
1972 0 55.0427 11.2095 617 107.491 1252.7 480.052
1973 0 55.0757 10.4039 573 108.981 1252.8 480.344
1974 0 59.1307 11.297 668 106.458 1253.33 479.127
1975 0 59.0262 11.8253 698 106.228 1253.16 478.457
1976 0 62.0759 11.4054 708 106.144 1252.79 474.114
1977 0 63.1631 11.2724 712 107.281 1252.38 473.933
1978 0 66.063 11.1712 738 106.48 1252.58 472.602
1979 0 69.163 12.2031 844 104.005 1253.19 471.812
1980 0 72.0872 11.7774 849 104.198 1252.9 471.597
1981 0 73.1514 11.442 837 106.578 1252.27 468.404
1982 0 76.2438 12.7486 972 102.485 1252.39 467.591
1983 0 79.197 11.3641 900 105.328 1252.94 465.087
1984 0 80.1251 12.1061 970 103.759 1252.12 463.754
1985 1 41.1315 11.208 461 100.306 1252.59 483.269
1986 0 43.1656 11.2126 484 105.153 1252.14 483.5
1987 0 45.2212 11.9855 542 112.194 1252.66 486.983
1988 0 48.1199 11.4506 551 117.699 1253.77 487.927
1989 0 50.0652 12.3639 619 114.384 1253.94 488.926
1990 0 52.0885 12.9395 674 113.292 1253.92 487.384
1991 0 54.0916 12.2755 664 114.449 1253.35 486.688
1992 0 53.0861 13.1673 699 115.585 1253.17 484.054
1993 0 56.0633 12.1113 679 117.785 1252.61 484.208
1994 0 58.0757 11.9843 696 117.168 1253.22 484.402
1995 0 58.222 13.2252 770 115.494 1252.87 482.265
1996 0 60.2318 12.1199 730 117.31 1253.13 481.437
1997 0 62.2532 12.3367 768 116.27 1252.81 482.349
1998 0 64.1893 12.8682 826 116.643 1252.95 479.298
1999 0 66.2134 12.8826 853 116.501 1253.11 479.038
2000 0 70.2627 13.1506 924 114.472 1252.85 478.535
2001 0 71.4375 12.4584 890 116.378 1251.86 477.516
2002 0 72.5842 12.978 942 115.765 1252.62 473.813
2003 0 76.5857 12.548 961 116.019 1251.68 471.303
2004 0 79.2647 12.1365 962 106.975 1251.96 471.17
2005 1 41.1411 8.09409 333 109.865 1252.76 491.661
2006 0 45.2976 10.4641 474 104.578 1252.73 488.852
2007 0 45.2543 10.4962 475 103.872 1253.19 488.192
2008 0 46.1626 10.398 480 105.035 1253.16 486.223
2009 0 49.1596 11.0253 542 102.965 1253.2 485.902
2010 0 47.0549 9.30828 438 98.5982 1252.69 481.847
2011 0 51.1162 11.4836 587 93.5877 1252.46 479.47
2012 0 54.1529 10.7289 581 94.8399 1252.7 480.057
2013 0 53.0462 9.70852 515 97.7961 1252.71 478.289
2014 0 56.1558 10.2037 573 96.5724 1252.68 477.44
2015 0 58.1067 12.0984 703 93.9147 1251.32 478.674
2016 0 60.1181 11.5606 695 102.616 1251.03 482.46
2017 0 62.1507 11.9065 740 100.034 1251.06 478.264
2018 0 65.1466 12.0651 786 99.3346 1251.18 480.408
2019 0 65.1292 11.838 771 101.228 1251.13 477.939
2020 0 66.1017 11.9967 793 101.216 1251.62 476.536
2021 0 72.0727 12.9175 931 96.6842 1251.53 477.69
2022 0 74.0983 13.0502 967 97.0993 1251.7 473.427
2023 0 73.1728 10.1677 744 104.87 1251.38 472.907
2024 0 75.1804 11.0135 828 104.069 1251.59 473.866
2025 0 80.0713 11.1151 890 103.011 1252.04 470.774
2026 0 83.1135 13.7763 1145 97.0279 1251.66 468.883
2027 0 87.0756 13.6548 1189 96.4828 1251.74 470.371
2028 1 46.03 10.9277 503 100.592 1250.73 489.41
2029 0 45.0468 10.5446 475 103.697 1250.7 487.823
2030 0 47.0492 10.9885 517 100.532 1250.82 488.433
2031 0 47.132 10.3963 490 94.8429 1251.72 484.902
2032 0 49.029 10.402 510 92.5294 1252.49 482.049
2033 0 52.1853 11.6508 608 89.7418 1252.34 481.952
2034 0 51.0942 9.78584 500 95.21 1252.32 480.972
2035 0 54.0873 11.2966 611 92.5696 1251.79 481.782
2036 0 55.0843 11.3644 626 92.7859 1251.61 481.524
2037 0 55.0929 10.6003 584 94.6096 1251.09 481.173
2038 0 56.0721 10.7362 602 95.4834 1251.47 479.704
2039 0 60.121 10.6286 639 95.4304 1251.54 479.064
2040 0 59.0401 11.0942 655 95.3603 1251.89 476.524
2041 0 63.0602 11.4652 723 94.8645 1252.05 475.202
2042 0 66.1157 10.648 704 95.1946 1252.22 477.766
2043 0 67.0573 10.6774 716 95.926 1251.77 475.123
2044 0 67.1589 10.5868 711 97.6259 1251.82 473.536
2045 0 71.1449 11.4414 814 95.3034 1251.74 472.235
2046 0 72.2184 10.8975 787 96.7903 1252.07 470.419
2047 0 74.1116 10.8485 804 97.4366 1251.65 470.295
2048 0 77.1777 11.3116 873 97.0997 1252.19 469.607
2049 0 80.1228 10.8209 867 98.3691 1252.59 466.396
2050 0 84.1135 11.1635 939 97.2396 1252.96 468.922
2051 0 82.1695 10.2715 844 101.627 1252.53 465.387
2052 0 87.1348 11.0289 961 100.266 1252 466.08
2053 0 90.1704 11.1234 1003 100.101 1252.59 465.795
2054 0 93.1503 11.6264 1083 100.106 1252.72 463.522
2055 0 94.1408 11.6846 1100 101.085 1252.26 457.931
2056 0 99.1542 13.1109 1300 96.9931 1252.77 457.951
2057 0 103.114 11.4727 1183 99.8859 1252.33 458.693
2058 0 104.16 11.9815 1248 100.011 1252.54 455.862
2059 1 51.0219 10.3681 529 98.5425 1253.07 481.486
2060 0 53.0229 10.3729 550 97.5327 1251.51 484.498
2061 0 55.1515 11.4049 629 104.943 1251.42 485.375
2062 0 56.1629 10.6298 597 108.037 1251.65 484.652
2063 0 58.0419 11.8707 689 105.351 1251.01 483.25
2064 0 61.0845 12.8511 785 102.278 1250.86 481.796
2065 0 64.0961 12.2784 787 103.681 1251.56 478.225
2066 0 65.0237 12.4109 807 104.796 1250.82 479.665
2067 0 68.0546 13.0483 888 103.123 1251 480.12
2068 0 69.1025 13.111 906 104.127 1251.34 477.279
2069 0 71.0804 12.6054 896 105.472 1250.86 477.077
2070 0 73.0838 13.0125 951 104.458 1250.52 476.1
2071 0 76.0626 11.7272 892 107.388 1250.53 474.841
2072 0 78.0356 12.6609 988 105.815 1250.77 473.453
2073 0 82.0768 12.9025 1059 104.484 1250.97 471.253
2074 0 85.2415 12.7168 1084 104.732 1250.09 472.478
2075 0 87.0698 12.6795 1104 105.757 1251.28 468.56
2076 0 92.1936 12.9727 1196 103.887 1251.91 467.125
2077 0 92.2463 12.3257 1137 107.478 1251.49 466.981
2078 1 48.4761 12.3979 601 109.398 1251.67 484.441
2079 0 46.1776 11.4341 528 110.305 1252.56 482.708
2080 0 48.0944 11.1655 537 102.806 1252.68 482.264
2081 0 51.1798 12.1141 620 103.698 1252.62 479.216
2082 0 52.1151 10.7838 562 106.698 1252.18 479.6
2083 0 54.0951 10.8513 587 105.777 1252.49 481.652
2084 0 56.0644 9.7388 546 108.456 1252.53 480.013
2085 0 56.0404 10.4032 583 107.475 1253.01 478.739
2086 0 61.0891 10.5583 645 104.895 1252.76 479.375
2087 0 64.0458 11.929 764 102.492 1252.88 478.144
2088 0 64.1053 12.2923 788 103.302 1252.73 476.147
2089 0 66.0972 10.3181 682 106.911 1253.11 476.415
2090 0 69.0791 11.1466 770 105.944 1252.57 475.29
2091 0 73.2063 11.9252 873 99.5143 1252.55 473.706
2092 0 74.1358 12.5041 927 99.5437 1252.22 472.62
2093 0 76.1675 12.6301 962 100.863 1252.36 472.632
2094 0 80.1493 12.0775 968 101.916 1252.13 472.501
2095 1 43.1288 11.6164 501 99.6547 1253.14 492.335
2096 0 43.1338 10.1776 439 104.157 1253.59 490.387
2097 0 45.0159 11.396 513 102.439 1253.52 489.394
2098 0 48.1173 11.4927 553 100.749 1253.07 488.288
2099 0 50.0413 12.6096 631 99.9033 1252.34 488.838
2100 0 48.1381 10.7399 517 105.145 1252.79 487.52
2101 0 52.1097 12.0899 630 99.9921 1253.16 485.908
2102 0 53.1393 12.3825 658 99.9164 1253.22 485.336
2103 0 54.0708 12.4282 672 100.402 1253.35 486.051
2104 0 54.0942 11.4615 620 103.127 1253.74 485.066
2105 0 57.1183 12.2553 700 101.397 1253.13 483.067
2106 0 57.1414 12.6003 720 101.589 1253.11 483.553
2107 0 60.1075 11.9286 717 103.294 1252.5 481.487
2108 0 61.1185 12.0422 736 102.501 1253.01 482.721
2109 0 64.0965 12.5124 802 101.829 1252.93 479.261
2110 0 66.229 13.4533 891 99.771 1252.59 478.675
2111 0 67.1347 12.6015 846 102.693 1251.76 479.369
2112 0 70.1842 12.9516 909 102.081 1251.98 478.38
2113 0 70.0853 12.7273 892 104.683 1251.72 476.05
2114 0 74.16 12.2843 911 104.743 1251.73 475.946
2115 0 77.2048 12.6676 978 104.104 1252.1 473.785
2116 0 79.1575 12.0014 950 114.733 1251.65 473.067
2117 0 82.2015 12.5667 1033 114.153 1250.98 469.933
2118 0 84.3062 12.1581 1025 116.713 1251.01 467.609
2119 0 86.4701 11.3912 985 117.814 1250.9 469.15
2120 0 91.2966 13.6916 1250 113.218 1250.06 465.582
2121 1 47.0819 11.1295 524 113.884 1250.35 487.311
2122 0 47.1163 11.0577 521 109.747 1250.82 481.76
2123 0 49.0182 11.4447 561 117.007 1249.68 486.471
2124 0 51.0748 12.002 613 115.967 1250.26 485.509
2125 0 53.0305 12.2005 647 115.855 1250.56 484.436
2126 0 56.065 12.9493 726 112.893 1249.52 483.851
2127 0 58.0683 13.243 769 111.78 1249.95 484.101
2128 0 61.1703 12.3589 756 113.569 1249.43 482.816
2129 0 60.1355 12.0894 727 114.451 1249.67 482.883
2130 0 63.0859 12.0946 763 115.337 1249.8 479.588
2131 0 64.1472 12.5337 804 113.82 1249.35 480.432
2132 0 66.0946 13.2083 873 113.422 1249.41 478.716
2133 0 69.1132 13.0221 900 113.513 1249.83 477.661
2134 0 72.0984 14.1889 1023 109.801 1249.83 476.114
2135 0 75.0903 13.7967 1036 110.416 1250.04 475.806
2136 0 77.0869 15.2814 1178 107.063 1249.99 475.069
2137 0 78.0887 14.253 1113 111.398 1250.2 472.048
2138 0 81.0869 13.7013 1111 113.416 1250.38 471.407
2139 0 83.1729 13.6823 1138 113.949 1250.19 468.79
2140 0 86.1561 13.9166 1199 113.776 1250.07 468.939
2141 0 87.1332 12.4178 1082 111.114 1251.1 470.107
2142 0 87.1373 12.486 1088 134.725 1252.08 470.056
2143 0 93.0759 12.9464 1205 111.059 1250.21 466.291
2144 0 97.0848 13.5552 1316 110.331 1250.4 462.841
2145 0 100.12 13.244 1326 111.334 1250.11 464.08
2146 1 52.0623 10.8716 566 115.191 1250.33 485.346
2147 0 53.1672 11.0406 587 102.344 1251.46 482.082
2148 0 51.0627 10.869 555 102.71 1250.96 483.993
2149 0 54.0442 11.8792 642 102.657 1251.21 480.695
2150 0 57.0445 10.5532 602 104.224 1251.14 480.718
2151 0 58.0506 11.3177 657 102.893 1251.58 477.921
2152 0 62.0965 12.078 750 100.819 1252.34 477.867
2153 0 64.0829 11.3759 729 101.934 1251.2 477.224
2154 0 66.0676 11.6245 768 101.656 1251.48 476.111
2155 0 68.0373 11.5966 789 102.463 1250.42 474.657
2156 0 72.0695 11.1143 801 102.313 1251.07 476.823
2157 0 72.1021 11.4005 822 103.438 1250.93 473.813
2158 0 76.0912 11.6439 886 101.369 1251.85 474.661
2159 0 78.0985 11.2422 878 102.399 1251.85 472.89
2160 0 81.0549 11.9425 968 100.961 1252.1 469.175
2161 0 84.0919 10.881 915 101.607 1251.3 471.252
2162 0 88.0901 11.4542 1009 101.266 1251.22 470.309
2163 0 90.0585 10.793 972 102.763 1251.27 467.96
2164 0 92.1407 11.0158 1015 102.539 1251.45 466.173
2165 0 96.2 11.7568 1131 99.5791 1251.44 466.364
2166 0 99.2355 11.5483 1146 100.517 1250.78 461.849
2167 0 102.237 12.07 1234 99.3006 1251.42 456.686
2168 1 51.0743 11.8259 604 94.2831 1251.36 481.5
2169 0 52.1095 9.38408 489 102.342 1251.44 477.671
2170 0 56.2228 12.9129 726 101.488 1250.46 476.39
2171 0 56.0697 10.6475 597 104.961 1251.18 486.183
2172 0 60.1112 11.9612 719 100.125 1251.63 482.095
2173 0 60.1044 11.1306 669 103.422 1251.92 483.287
2174 0 64.1309 11.7572 754 100.069 1251.52 480.089
2175 0 69.0909 11.4776 793 99.1084 1251.16 479.836
2176 0 67.0493 9.1127 611 98.6579 1251.03 476.301
2177 0 72.1203 10.8014 779 95.5712 1251.5 474.933
2178 0 75.0909 11.6526 875 95.3954 1251 473.101
2179 0 74.1072 9.48625 703 99.2518 1251.05 472.228
2180 0 80.0769 11.8136 946 95.8055 1251.31 469.05
2181 0 80.1868 11.8473 950 106.124 1252.21 472.574
2182 0 85.1449 12.0266 1024 105.096 1251.69 472.119
2183 0 86.2366 10.993 948 107.266 1251.77 470.128
2184 0 93.301 13.494 1259 101.491 1251.34 468.705
2185 0 93.3608 12.6606 1182 104.371 1251.87 465.8
2186 0 97.2572 12.3178 1198 105.624 1251.76 460.684
2187 0 102.206 12.7879 1307 102.968 1251.38 462.149
2188 0 103.313 12.2153 1262 106.601 1250.81 455.949
2189 0 106.126 12.4663 1323 106.659 1251.2 453.336
2190 0 108.277 11.5352 1249 105.61 1251.28 450.82
2191 0 115.381 11.9257 1376 105.485 1251.32 445.566
2192 0 115.218 12.2984 1417 106.309 1251.25 444.267
2193 0 123.247 11.7812 1452 106.685 1251.21 443.543
2194 0 123.235 11.7012 1442 109.003 1251.69 437.809
2195 0 131.306 12.2995 1615 109.346 1251.3 438.227
2196 0 133.252 11.497 1532 111.495 1251.43 438.278
2197 0 133.262 11.6237 1549 137.54 1251.42 438.25
2198 0 145.273 12.7484 1852 106.454 1251.18 428.805
2199 0 149.251 11.149 1664 106.219 1250.88 427.072
2200 0 155.21 12.8922 2001 103.668 1252.14 427.748
2201 0 161.272 13.9144 2244 101.418 1251.58 426.785
2202 0 167.398 14.1817 2374 101.727 1251.66 420.603
2203 0 171.22 12.3818 2120 106.452 1250.89 421.778
2204 0 179.423 15.522 2785 100.236 1251.18 415.127
2205 0 182.299 12.1613 2217 109.615 1251.23 413.581
2206 0 190.281 12.5656 2391 108.862 1250.87 411.731
2207 0 196.513 14.0245 2756 106.971 1251.34 409.753
2208 0 204.367 14.7822 3021 110.099 1251.58 409.1
2209 0 210.578 13.2587 2792 112.272 1251.45 411.689
2210 1 154.219 13.6494 2105 113.295 1250.63 428.671
2211 0 158.215 14.0189 2218 112.297 1250.93 430.151
2212 0 163.311 14.8551 2426 110.26 1250.34 426.997
2213 0 169.11 13.4942 2282 113.853 1250.63 425.151
2214 0 176.25 14.2525 2512 111.296 1250.76 415.907
2215 0 183.355 16.0508 2943 107.618 1250.32 412.786
2216 0 189.379 14.4789 2742 111.558 1250.35 409.166
2217 0 193.269 13.9339 2693 114.198 1250.29 404.619
2218 0 201.281 14.0152 2821 113.424 1250.43 405.12
2219 0 212.328 14.4399 3066 112.061 1250.11 399.615
2220 1 48.1641 10.1735 490 90.7735 1251.79 482.296
2221 0 49.2078 10.5065 517 89.2534 1250.89 480.708
2222 0 46.0932 9.0252 416 94.2957 1251.82 480.887
2223 0 50.1286 9.23624 463 93.1361 1252.15 481.026
2224 0 50.0419 8.43294 422 93.8578 1251.95 478.287
2225 0 55.0997 12.4865 688 86.0189 1252.27 477.897
2226 0 57.1319 10.9571 626 89.8259 1252.79 477.911
2227 0 59.0488 11.5328 681 94.7298 1250.41 485.468
2228 0 62.1353 12.2797 763 92.8401 1250.44 483.051
2229 0 62.1092 10.8358 673 98.4562 1250.64 482.426
2230 0 66.1818 11.8613 785 90.3834 1251.4 477.257
2231 0 67.0961 9.80684 658 99.7644 1252.51 475.371
2232 0 67.181 9.58604 644 100.669 1252.03 475.345
2233 0 71.1722 10.1585 723 100.076 1251.91 473.95
2234 0 75.1964 11.1043 835 98.818 1251.86 472.739
2235 0 78.1745 13.4059 1048 92.875 1251.96 468.464
2236 1 35.0112 9.79686 343 90.9388 1251.91 491.872
2237 0 38.0381 10.7787 410 89.0341 1251.64 487.612
2238 0 40.0358 10.3158 413 91.4504 1251.34 477.741
2239 0 40.2042 9.05378 364 93.2775 1251.73 486.97
2240 0 44.1129 12.1053 534 87.7472 1251.16 474.29
2241 0 45.0608 10.8964 491 90.8086 1251.49 481.365
2242 0 46.048 10.7931 497 92.0966 1251.45 465.863
2243 0 47.0602 10.306 485 93.8186 1251.79 462.163
2244 0 48.1929 10.7277 517 94.1509 1251.27 460.712
2245 0 49.1524 10.2335 503 96.006 1250.86 468.493
2246 0 50.117 11.2337 563 94.2984 1250.82 479.137
2247 0 54.1018 12.7537 690 99.1014 1252.39 488.275
2248 0 54.112 13.01 704 100.803 1252.79 487.376
2249 0 55.0832 13.7792 759 98.6021 1251.51 486.344
2250 0 56.0682 12.7167 713 101.457 1251.83 486.705
2251 0 59.0142 13.3188 786 99.7646 1252.58 484.69
2252 0 59.0458 12.2786 725 102.67 1252.02 485.257
2253 0 62.0493 13.4409 834 100.116 1252.38 482.198
2254 0 62.0699 13.0981 813 101.755 1252.03 483.138
2255 0 66.0514 13.5652 896 97.3371 1252.2 479.902
2256 0 69.0737 13.8113 954 95.9665 1252.86 479.17
2257 0 71.1296 11.936 849 100.545 1252.54 478.567
2258 0 73.0796 13.5332 989 97.7998 1252.11 478.585
2259 0 76.2035 12.2567 934 100.54 1252.37 479.743
2260 0 77.3211 13.2305 1023 100.208 1251.86 476.928
2261 0 81.2193 13.6544 1109 98.4175 1252.18 480.486
2262 0 82.189 11.8386 973 104.293 1252.05 477.952
2263 0 86.2265 13.1514 1134 102.877 1251.54 476.811
2264 1 46.1229 10.6455 491 111.409 1251.62 496.542
2265 0 48.1237 12.738 613 110.108 1251.26 497.276
2266 0 49.0887 13.5673 666 106.185 1251.11 497.919
2267 0 49.0987 12.3629 607 99.575 1248.9 495.357
2268 0 51.0973 11.9967 613 100.028 1248.65 497.233
2269 0 50.119 11.5724 580 103.093 1248.03 496.255
2270 0 54.1755 12.2565 664 99.8765 1248.2 496.104
2271 0 55.0937 11.8344 652 102.578 1248.36 495.35
2272 0 58.1675 11.8279 688 101.182 1248.27 494.858
2273 0 58.1034 12.6671 736 100 1248.1 493.815
2274 0 62.0768 13.29 825 97.8764 1247.92 493.175
2275 0 63.0891 13.1401 829 99.1182 1248.05 490.814
2276 0 65.051 12.8207 834 99.4412 1247.9 489.779
2277 0 67.106 12.1897 818 100.756 1247.75 487.581
2278 0 71.0637 12.721 904 98.8927 1247.64 486.94
2279 0 73.2071 12.8813 943 99.3256 1247 487.915
2280 0 74.0497 12.3836 917 100.606 1246.82 483.916
2281 0 78.2216 12.9248 1011 98.913 1245.99 480.836
2282 0 81.2165 13.5441 1100 97.5273 1245.95 480.427
2283 0 84.2205 12.5741 1059 99.4693 1245.74 478.916
2284 0 87.1909 12.9142 1126 99.0302 1245.39 476.961
2285 0 90.2409 13.9848 1262 97.4453 1245.38 475.886
2286 0 93.381 13.7608 1285 99.0685 1245.02 472.327
2287 0 94.1779 13.5382 1275 101.077 1245.2 473.275
2288 1 50.229 10.7109 538 104.691 1244.99 494.238
2289 0 52.1502 11.8887 620 103.737 1244.93 494.076
2290 0 54.1718 11.6481 631 102.257 1245.32 495.192
2291 0 55.1395 11.8608 654 99.9908 1245.64 496.249
2292 0 56.0972 11.8901 667 102.358 1245.65 493.72
2293 0 58.0947 11.3952 662 101.92 1245.55 495.983
2294 0 59.1231 11.7044 692 102.26 1245.33 493.85
2295 0 63.1019 12.7888 807 99.6097 1245.72 491.668
2296 0 67.0893 12.3418 828 99.2415 1245.79 492.582
2297 0 67.1731 12.6688 851 100.53 1246.13 492.053
2298 0 69.0968 12.2003 843 102.263 1246.01 488.875
2299 0 73.1046 12.913 944 99.375 1245.07 487.806
2300 0 74.0685 13.2175 979 100.775 1245.3 484.456
2301 0 78.0822 12.2435 956 101.66 1245.35 486.024
2302 0 80.1776 12.2478 982 102.517 1244.79 484.134
2303 0 82.1783 12.0105 987 103.829 1244.67 482.315
2304 0 85.0609 13.2846 1130 104.407 1243.98 479.404
2305 0 89.1019 11.5037 1025 108.433 1244.87 477.945
2306 0 91.2662 12.4471 1136 106.66 1244.51 477.695
2307 0 95.2058 12.2787 1169 107.607 1244.51 474.717
2308 0 99.1463 14.06 1394 103.741 1244.23 472.427
2309 1 53.0825 10.5496 560 101.15 1244.52 497.345
2310 0 54.0691 10.838 586 103.154 1243.97 494.816
2311 0 56.0569 10.8996 611 105.25 1243.85 496.108
2312 0 60.0969 12.4133 746 110.625 1243.8 497.291
2313 0 61.0482 13.3665 816 108.174 1243.93 495.438
2314 0 63.0966 12.9643 818 108.242 1243.54 496.099
2315 0 66.1522 12.6678 838 108.732 1243.73 495.26
2316 0 68.0568 13.4594 916 108.043 1243.74 491.83
2317 0 70.1177 13.8196 969 107.112 1243.76 491.428
2318 0 74.1768 14.6002 1083 104.533 1244.32 489.888
2319 0 74.1084 13.5612 1005 108.72 1244.07 487.086
2320 0 78.056 13.7594 1074 107.821 1244.39 487.098
2321 0 81.2116 14.0005 1137 106.887 1244.45 486.981
2322 0 83.1558 14.7434 1226 106.158 1244.69 484.387
2323 0 85.3493 14.47 1235 106.158 1244.77 485.096
2324 0 86.2209 14.7876 1275 106.274 1244.81 483.608
2325 0 90.1982 14.069 1269 107.548 1244.89 480.14
2326 0 94.3781 13.8591 1308 107.088 1245.56 477.364
2327 0 96.3203 13.2994 1281 108.668 1245 474.973
2328 1 50.1431 10.6695 535 105.761 1245.06 497.493
2329 0 54.2279 11.3042 613 97.3801 1245.58 493.907
2330 0 54.1727 11.9248 646 98.8328 1246.09 492.065
2331 0 55.2226 10.6659 589 102.903 1247.06 496.762
2332 0 57.1914 11.6451 666 100.638 1246.82 496.425
2333 0 59.284 10.8967 646 100.2 1247.26 497.659
2334 0 60.233 10.974 661 102.101 1246.74 493.03
2335 0 61.2463 10.8251 663 103.208 1246.13 489.902
2336 0 67.1311 11.0828 744 99.7366 1246.7 491.081
2337 0 65.2974 10.7202 700 102.449 1246.21 488.73
2338 0 68.2574 9.49347 648 103.228 1246.29 490.164
2339 0 71.3251 10.1227 722 103.047 1245.74 484.807
2340 0 74.2957 10.6736 793 101.507 1246.2 482.604
2341 0 77.1622 10.614 819 101.718 1246.65 482.567
2342 0 81.3505 12.526 1019 99.1865 1246.6 479.188
2343 0 83.1845 11.3242 942 101.72 1246.59 477.882
2344 0 85.2838 11.3972 972 102.353 1246.88 478.453
2345 0 89.2369 11.4975 1026 104.192 1246.27 472.955
2346 0 90.2072 11.3849 1027 105.323 1247.03 470.487
2347 0 92.2246 10.5395 972 106.508 1247.39 470.137
2348 0 97.3367 12.6982 1236 102.5 1247.47 464.381
2349 0 101.289 11.8571 1201 103.61 1247.17 465.063
2350 0 103.269 12.3174 1272 103.191 1247.69 461.24
2351 1 51.1296 9.54437 488 99.0041 1248.58 490.477
2352 0 53.2193 11.5747 616 95.7857 1248.3 487.817
2353 0 53.1744 11.0391 587 95.6899 1249.29 490.533
2354 0 55.128 11.8089 651 95.3978 1248.98 489.127
2355 0 56.0264 11.3339 635 96.2976 1248.39 487.416
2356 0 59.1443 11.5649 684 95.1433 1248.62 486.098
2357 0 62.0724 10.6166 659 96.8558 1248.3 484.338
2358 0 62.1634 11.8398 736 94.7989 1249.02 481.323
2359 0 64.1399 11.5061 738 95.3631 1249.29 480.576
2360 0 68.2069 12.3155 840 92.7262 1249.47 477.706
2361 0 69.1677 11.754 813 94.6273 1249.44 476.192
2362 0 73.364 12.5538 921 93.0597 1249.76 476.139
2363 0 72.1556 11.6692 842 96.272 1249.16 474.803
2364 0 76.3434 13.0856 999 93.978 1248.75 474.126
2365 0 76.2024 12.06 919 97.2753 1248.84 475.459
2366 0 79.1733 11.6201 920 99.1272 1249.18 472.417
2367 0 82.09 12.4863 1025 97.361 1249.07 473.151
2368 0 86.2212 13.8133 1191 93.817 1249.3 470.047
2369 0 87.2699 12.4327 1085 96.9217 1248.75 471.791
2370 0 91.1717 13.2278 1206 96.5556 1249.19 466.897
2371 0 94.2761 13.1847 1243 96.6211 1249.04 465.044
2372 0 97.2949 12.7756 1243 97.8294 1250.15 464.597
2373 0 100.264 13.1453 1318 97.6639 1249.92 464.927
2374 0 102.315 12.8427 1314 100.43 1250.29 460.738
2375 0 104.256 13.0448 1360 100.936 1250.23 459.924
2376 0 109.309 13.3933 1464 99.8463 1249.58 459.385
2377 1 59.1719 10.9343 647 102.09 1250.14 485.586
2378 0 61.2034 12.7117 778 100.505 1250.17 482.132
2379 0 61.1597 11.3637 695 99.1036 1250.26 479.079
2380 0 62.2209 11.7003 728 98.8887 1249.57 476.827
2381 0 63.3259 10.138 642 102.858 1249.13 475.86
2382 0 66.2063 11.2527 745 100.544 1249.9 477.16
2383 0 67.1948 10.7746 724 103.479 1249.51 473.385
2384 0 72.1919 11.1924 808 102.49 1249.35 473.696
2385 0 73.203 11.4613 839 102.799 1248.91 474.752
2386 0 75.3493 10.6703 804 105.061 1249.77 473.252
2387 0 78.2841 11.3816 891 104.908 1250.02 471.337
2388 0 80.3781 11.3961 916 106.059 1249.52 469.426
2389 0 82.2704 11.7053 963 107.546 1249.46 467.191
2390 0 86.2954 12.2486 1057 106.609 1249.51 464.968
2391 0 88.289 11.587 1023 107.299 1249.23 467.647
2392 0 90.247 11.6791 1054 108.958 1248.94 459.634
2393 0 96.3056 11.8373 1140 108.952 1249.15 463.548
2394 1 53.1982 9.4928 505 107.238 1249.92 481.109
2395 0 55.1895 11.4877 634 109.416 1249.7 478.726
2396 0 56.1178 10.3176 579 113.054 1249.55 476.725
2397 0 57.0406 11.2902 644 113.842 1248.6 478.317
2398 0 59.025 11.402 673 113.878 1248.69 478.801
2399 0 61.0553 11.6943 714 114.183 1248.31 477.004
2400 0 63.0492 12.0541 760 113.162 1248.01 476.657
2401 0 65.0444 12.0379 783 112.854 1248.39 476.825
2402 0 68.1571 10.8719 741 115.758 1248.33 474.159
2403 0 73.0321 11.091 810 113.369 1248.16 476.517
2404 0 73.0481 12.5397 916 110.794 1248.56 475.796
2405 0 74.0424 12.0877 895 114.521 1248.15 471.971
2406 0 76.0425 13.2557 1008 112.146 1248.36 471.356
2407 0 76.1081 11.5099 876 118.002 1248.52 470.836
2408 0 82.1181 12.5307 1029 113.321 1248.8 468.942
2409 0 82.2164 12.2603 1008 115.483 1249.64 466.526
2410 0 86.2717 12.3215 1063 114.982 1249.71 466.079
2411 0 88.1939 11.384 1004 118.884 1249.23 463.766
2412 0 92.2944 12.471 1151 116.552 1248.82 461.146
2413 1 51.1122 10.5846 541 107.799 1250.05 483.429
2414 0 53.2468 10.9678 584 109.724 1250.75 483.791
2415 0 55.1059 9.99894 551 108.829 1249.98 480.336
2416 0 57.1734 10.6868 611 106.311 1249.99 479.502
2417 0 60.1073 12.278 738 101.879 1249.44 479.598
2418 0 61.0986 11.686 714 103.545 1248.9 478.312
2419 0 63.1613 12.8876 814 100.129 1249.67 477.769
2420 0 64.1364 10.696 686 105.536 1249.46 477.516
2421 0 67.2058 11.8293 795 103.571 1249.2 475.439
2422 0 69.1279 11.9344 825 104.019 1249.46 474.721
2423 0 72.4826 13.0514 946 100.759 1249.49 473.489
2424 0 73.1093 10.8878 796 107.062 1249.51 469.116
2425 0 74.2388 10.6817 793 106.84 1249.07 470.719
2426 0 76.184 10.2778 783 110.822 1248.99 470.231
2427 0 83.4082 11.8094 985 105.691 1249.76 467.279
2428 0 86.2506 11.3043 975 106.99 1249.41 464.894
2429 0 88.1952 11.3498 1001 105.504 1249.45 465.793
2430 1 46.1546 10.9198 504 99.375 1249.63 486.347
2431 0 45.1129 9.97498 450 103.404 1249.98 485.798
2432 0 50.0799 11.8411 593 103.55 1249.61 486.43
2433 0 53.0635 12.9091 685 106.534 1248.89 486.307
2434 0 53.077 12.8869 684 106.667 1248.81 485.016
2435 0 54.0828 12.2405 662 107.069 1248.32 485.823
2436 0 55.1113 12.2298 674 106.466 1249.25 485.521
2437 0 57.118 12.4654 712 106.777 1248.74 483.011
2438 0 57.0685 12.5113 714 107.119 1248.9 482.514
2439 0 61.0639 13.1502 803 104.244 1249.69 483.193
2440 0 65.1319 12.7434 830 104.24 1249.08 484.582
2441 0 66.0552 13.7158 906 103.02 1249.61 482.646
2442 0 67.0865 13.3857 898 103.591 1249.64 481.977
2443 0 69.0944 13.9375 963 102.749 1249.55 481.245
2444 0 71.086 12.7451 906 105.141 1249.79 482.494
2445 0 73.1012 12.8315 938 106.794 1249.14 480.385
2446 0 75.0767 13.5461 1017 104.827 1249.61 478.521
2447 0 78.188 13.4164 1049 105.248 1249.58 477.633
2448 0 80.0723 13.7001 1097 105.302 1248.94 476.159
2449 0 83.1622 13.7683 1145 105.913 1248.86 474.063
2450 0 86.0876 13.556 1167 106.338 1249.88 474.668
2451 0 87.1238 13.1652 1147 107.219 1248.99 474.015
2452 0 92.179 14.3525 1323 104.457 1249.07 472.515
2453 1 50.0673 12.1237 607 112.456 1249.22 491.16
2454 0 49.053 12.4763 612 113.629 1248.2 489.389
2455 0 50.1596 13.158 660 110.659 1249.85 489.938
2456 0 54.0822 14.404 779 105.308 1249.54 488.408
2457 0 55.0829 12.0909 666 105.362 1249.91 490.29
2458 0 56.0271 13.2971 745 104.56 1250.04 487.426
2459 0 58.0587 12.9696 753 104.304 1249.74 487.057
2460 0 60.0956 13.9278 837 102.564 1249.67 485.68
2461 0 62.0565 14.3579 891 101.678 1249.32 485.114
2462 0 63.0938 13.6146 859 103.097 1249.41 485.638
2463 0 65.139 13.5096 880 102.15 1249.62 483.738
2464 0 68.1215 14.1512 964 101.252 1248.99 481.677
2465 0 71.1025 13.1782 937 102.702 1249 480.844
2466 0 74.081 14.4571 1071 99.3455 1248.91 479.201
2467 0 76.0729 13.9077 1058 100.461 1249.69 478.928
2468 0 78.1619 12.6916 992 103.972 1249.09 476.493
2469 0 80.0791 15.0227 1203 99.0798 1249.54 475.663
2470 0 81.1447 12.7303 1033 103.828 1250.73 473.421
2471 0 87.1976 14.8169 1292 99.8615 1250.45 470.496
2472 0 86.1036 13.1586 1133 103.096 1250.21 467.041
2473 0 92.2025 13.2643 1223 103.15 1250.78 470.868
2474 0 96.2591 12.456 1199 106.582 1250.44 467.868
2475 0 99.2269 12.033 1194 107.482 1250.32 464.838
2476 0 103.192 12.9177 1333 103.769 1250.44 466.61
2477 1 55.0561 14.1129 777 99.704 1251.14 484.502
2478 0 55.0467 13.5703 747 101.932 1251.27 483.71
2479 0 58.0703 14.3619 834 99.8249 1251.19 485.158
2480 0 59.0609 14.121 834 101.649 1251.56 482.245
2481 0 62.0474 14.1827 880 100.756 1251.57 482.212
2482 0 63.1699 13.8674 876 102.145 1251.49 481.838
2483 0 66.0727 14.03 927 101.584 1251.59 481.289
2484 0 67.0472 12.8417 861 106.564 1250.18 481.384
2485 0 70.0471 14.8186 1038 102.068 1250.66 479.649
2486 0 72.1555 14.1777 1023 103.501 1250.58 477.448
2487 0 76.0952 14.1665 1078 102.475 1250.31 477.864
2488 0 77.1352 13.5606 1046 105.109 1250.3 476.175
2489 0 81.0814 13.6899 1110 104.544 1249.29 473.831
2490 0 83.0873 13.8048 1147 105.289 1249.64 473.197
2491 0 85.0891 13.6915 1165 106.318 1249.39 472.999
2492 0 88.2076 13.2642 1170 103.872 1250.42 467.348
2493 0 90.1237 13.9808 1260 103.306 1250.3 466.036
2494 0 92.2515 13.0513 1204 106.828 1250.35 465.591
2495 0 97.0897 13.7502 1335 105.436 1250.65 462.759
2496 1 53.1916 11.3176 602 106.159 1250.24 486.294
2497 0 54.1315 11.7492 636 106.149 1250.35 483.346
2498 0 57.196 12.6058 721 105.208 1250.46 483.741
2499 0 58.0381 13.4394 780 104.937 1251.03 480.845
2500 0 60.0737 12.8009 769 105.861 1251.58 481.047
2501 0 63.1827 13.6271 861 104.03 1251.03 479.588
2502 0 63.143 12.638 798 107.82 1250.89 477.822
2503 0 67.1051 11.5788 777 109.699 1250.51 478.229
2504 0 69.3581 13.5817 942 106.134 1250.62 475.512
2505 0 70.1076 14.278 1001 104.08 1249.83 475.053
2506 0 74.1534 13.998 1038 104.126 1249.82 475.919
2507 0 75.1089 12.888 968 108.719 1250.07 473.709
2508 0 78.0756 14.0505 1097 106.902 1250.58 472.239
2509 0 80.1236 12.5306 1004 110.309 1250.42 471.02
2510 0 82.1269 12.9312 1062 109.853 1250.27 470.567
2511 0 87.2176 14.8708 1297 105.354 1250.04 467.601
2512 0 89.1215 13.5658 1209 109.749 1250.12 466.568
2513 0 91.1484 12.3645 1127 114.245 1250.37 467.413
2514 0 95.1389 11.541 1098 113.636 1251.22 465.39
2515 0 97.1455 12.7026 1234 111.974 1251.58 462.019
2516 1 51.1487 12.9818 664 105.708 1251.55 485.575
2517 0 53.2393 13.2797 707 107.273 1251.53 485.47
2518 0 55.192 14.5492 803 111.437 1251.3 483.597
2519 0 57.0965 13.7311 784 115.48 1250.31 484.393
2520 0 57.0367 14.7975 844 114.227 1249.92 483.727
2521 0 58.1558 14.0313 816 115.196 1250.56 483.963
2522 0 62.0724 14.3542 891 112.669 1249.74 482.728
2523 0 63.0696 14.6822 926 112.847 1251 481.094
2524 0 67.0677 14.8208 994 110.751 1250.82 482.517
2525 0 68.0546 14.5178 988 111.794 1251.2 480.793
2526 0 69.0897 14.0542 971 114.614 1251.32 478.137
2527 0 73.0531 15.961 1166 108.655 1251.14 476.782
2528 0 73.0554 13.565 991 111.235 1250.96 476.435
2529 0 78.1525 14.702 1149 107.408 1251.62 476.173
2530 0 79.0737 14.3031 1131 110.763 1250.89 474.188
2531 0 82.1034 15.8702 1303 106.477 1251.44 474.985
2532 0 83.0785 14.5645 1210 111.774 1252.2 469.162
2533 0 88.1989 15.6238 1378 107.942 1251.97 468.789
2534 0 90.1583 14.5078 1308 110.985 1250.85 466.787
2535 1 45.0418 11.6114 523 113.296 1250.86 488.321
2536 0 46.0679 12.0474 555 111.076 1251.56 486.818
2537 0 49.0321 13.5829 666 109.362 1251.03 486.191
2538 0 52.054 12.9097 672 116.722 1250.05 486.118
2539 0 51.0691 12.4537 636 118.736 1250.8 485.816
2540 0 56.0825 13.0344 731 115.295 1250.72 484.643
2541 0 55.043 14.2979 787 113.837 1250.95 483.898
2542 0 57.1115 15.3909 879 111.513 1250.7 480.642
2543 0 62.1083 14.8289 921 109.565 1251.28 480.448
2544 0 61.0829 14.7668 902 112.229 1250.86 479.829
2545 0 63.049 15.1628 956 111.655 1251.15 480.504
2546 0 66.0675 14.8485 981 112.069 1251.02 478.928
2547 0 68.1112 14.5791 993 113.77 1251.01 477.109
2548 0 69.0496 14.1348 976 115.465 1251.26 476.787
2549 0 71.0431 14.1463 1005 115.548 1251.72 477.065
2550 0 73.0663 15.1096 1104 113.275 1252.14 473.551
2551 0 77.0892 14.3859 1109 114.515 1251.52 473.79
2552 0 78.1386 14.3847 1124 115.489 1251.47 473.154
2553 0 83.1341 15.6494 1301 111.98 1251.72 469.675
2554 0 84.0971 14.5189 1221 115.894 1252.21 468.192
2555 1 44.0553 12.8248 565 117.512 1253.15 488.117
2556 0 44.1314 12.8933 569 117.847 1252.67 487.097
2557 0 47.103 12.6531 596 115.661 1253.35 488.513
2558 0 47.1095 13.8613 653 116.173 1251.81 485.398
2559 0 49.095 12.7508 626 119.941 1251.2 485.222
2560 0 52.1968 14.3878 751 114.04 1252.03 483.313
2561 0 53.1165 14.4023 765 114.625 1252.59 481.928
2562 0 55.0619 14.2385 784 114.596 1252.59 481.978
2563 0 57.0814 14.2253 812 114.931 1252.06 482.682
2564 0 59.0874 14.4701 855 114.544 1252.09 482.353
2565 0 61.092 14.7319 900 114.557 1252.11 480.069
2566 0 62.0907 14.2211 883 115.79 1252.73 479.788
2567 0 66.1786 15.0049 993 113.977 1252.75 477.457
2568 0 66.0713 14.1514 935 117.968 1251.95 477.536
2569 0 68.0835 14.1297 962 118.256 1252.01 477.176
2570 0 70.0613 13.7594 964 115.205 1253.04 475.918
2571 0 73.1124 14.1836 1037 114.172 1251.92 476.325
2572 0 75.0721 14.546 1092 114.452 1252.14 474.641
2573 0 77.1056 12.5153 965 120.395 1252.12 473.847
2574 0 81.0709 13.6547 1107 117.469 1251.97 471.537
2575 0 83.0693 14.5421 1208 116.538 1251.89 471.4
2576 0 84.0986 13.6744 1150 118.291 1251.19 471.23
2577 0 86.0545 14.2119 1223 117.099 1251.83 468.562
2578 0 89.1521 14.3575 1280 117.483 1251.24 468.048
2579 0 93.2205 14.9967 1398 115.156 1251.5 466.398
2580 1 48.0107 12.5181 601 118 1250.9 485.532
2581 0 49.0251 12.9526 635 118.274 1250.95 486.543
2582 0 50.0806 11.7011 586 114.623 1251.01 482.689
2583 0 51.0457 13.1451 671 107.079 1252.12 484.261
2584 0 52.0712 13.2511 690 108.314 1251.92 482.491
2585 0 55.0369 13.4092 738 106.516 1251.67 483.607
2586 0 56.0309 11.8149 662 111.746 1251.34 482.455
2587 0 58.0806 13.9461 810 108.389 1252.07 481.089
2588 0 58.047 10.7499 624 116.244 1251.48 483.058
2589 0 60.0641 12.6698 761 114.739 1251.6 480.402
2590 0 63.0858 13.9334 879 111.775 1252.09 478.522
2591 0 64.1105 12.884 826 115.426 1251.91 479.005
2592 0 64.1105 12.8216 822 142.354 1250.92 479.033
2593 0 69.0813 14.1427 977 112.942 1252.27 476.123
2594 0 72.1135 14.0612 1014 114.337 1251.45 474.639
2595 0 77.1151 14.8609 1146 111.839 1251.83 472.99
2596 0 77.0975 14.2287 1097 115.099 1251.39 471.232
2597 0 81.1813 14.1781 1151 115.6 1252.16 470.039
2598 0 83.0926 15.5369 1291 113.758 1252.04 469.926
2599 0 85.1042 15.1579 1290 115.54 1251.48 470.373
2600 0 87.0861 13.5498 1180 121.642 1251.48 468.49
2601 0 92.036 15.1788 1397 116.89 1251.87 463.359
2602 0 94.1199 16.1602 1521 115.645 1252 463.821
2603 0 97.104 13.9644 1356 121.425 1251.87 465.117
2604 0 103.102 15.6738 1616 117.908 1251.76 461.512
2605 1 55.0455 14.4426 795 125.932 1252.55 484.208
2606 0 57.085 13.2785 758 126.044 1252.75 483.839
2607 0 59.0266 14.3156 845 126.871 1252.26 483.244
2608 0 61.059 15.4441 943 123.323 1252.29 481.357
2609 0 62.135 14.4363 897 127.668 1252.64 480.748
2610 0 66.0776 14.9672 989 125.234 1253.02 479.37
2611 0 68.1409 14.47 986 126.867 1251.78 478.572
2612 0 70.0821 14.6114 1024 127.34 1252.02 478.955
2613 0 74.2029 14.7029 1091 126.485 1252.31 475.471
2614 0 76.2444 14.3486 1094 128.248 1252.1 475.873
2615 0 79.0945 14.6154 1156 128.564 1252.16 474.403
2616 0 80.0916 14.883 1192 129.955 1252.11 474.027
2617 0 84.1452 15.3069 1288 128.066 1252.57 474.004
2618 0 88.1276 16.0109 1411 125.771 1252.37 470.803
2619 0 91.1631 16.7612 1528 123.224 1252.23 470.002
2620 0 92.1449 14.6183 1347 128.687 1251.6 469.384
2621 0 94.0584 15.3096 1440 125.694 1252.15 469.6
2622 1 49.0645 13.3498 655 132.037 1252.19 489.446
2623 0 51.0921 12.8787 658 130.02 1250.84 485.758
2624 0 53.1334 14.3601 763 127.806 1251.31 483.055
2625 0 55.0872 14.2864 787 129.548 1250.97 484.105
2626 0 58.0502 14.6253 849 127.362 1250.08 483.102
2627 0 59.134 13.5962 804 130.728 1250.67 485.822
2628 0 62.137 14.7899 919 127.196 1250.51 482.923
2629 0 65.2684 15.3367 1001 125.014 1249.57 479.195
2630 0 68.2282 16.5181 1127 120.646 1249.94 476.439
2631 0 67.2279 16.5407 1112 143.317 1249.94 476.54
2632 0 70.1511 14.9249 1047 127.187 1250.19 477.474
2633 0 73.4079 15.6795 1151 125.676 1249.56 474.767
2634 0 76.206 15.4581 1178 126.505 1249.72 474.142
2635 0 79.3861 16.1363 1281 124.547 1249.59 473.955
2636 0 79.1807 14.4732 1146 130.873 1249.9 471.086
2637 0 83.1415 15.0707 1253 129.158 1249.77 471.251
2638 0 85.2302 14.6662 1250 131.045 1249.37 469.392
2639 0 89.2604 15.8973 1419 126.956 1250.04 468.856
2640 0 90.1947 15.0896 1361 131.261 1249.37 467.165
2641 0 96.1664 16.0971 1548 126.977 1249.17 466.133
2642 1 49.2281 13.5898 669 128.239 1249.56 488.634
2643 0 51.1221 13.4775 689 131.81 1249.73 485.766
2644 0 54.0413 13.6747 739 129.854 1249.38 486.691
2645 0 56.2088 13.7345 772 130.361 1249.64 483.56
2646 0 58.1239 14.3831 836 127.303 1249.56 484.358
2647 0 59.1848 14.9532 885 126.858 1249.35 481.88
2648 0 63.3851 14.1989 900 127.109 1250.06 481.042
2649 0 64.2847 14.778 950 126.443 1249.93 480.176
2650 0 67.253 15.5532 1046 122.222 1249.58 480.845
2651 0 67.0957 14.0397 942 129.322 1249.46 477.705
2652 0 71.35 14.4639 1032 126.512 1249.62 476.888
2653 0 75.3378 14.9858 1129 125.847 1249.5 476.492
2654 0 77.3706 15.9621 1235 123.919 1248.81 475.351
2655 0 79.4013 14.0174 1113 130.125 1248.59 475.118
2656 0 82.3958 14.1269 1164 129.911 1248.63 472.863
2657 0 85.3836 15.5182 1325 126.906 1249.33 470.542
2658 0 88.4132 14.534 1285 129.548 1250.08 469.83
2659 0 92.3134 15.1549 1399 128.995 1248.85 467.285
2660 1 46.1857 12.0167 555 128.811 1248.5 489.321
2661 0 48.1193 12.1781 586 128.242 1248.92 488.123
2662 0 52.276 12.7018 664 125.395 1249.26 486.968
2663 0 53.1249 13.9859 743 122.786 1249.7 486.748
2664 0 54.1155 13.4897 730 127.668 1249.2 485.973
2665 0 57.2107 14.4903 829 124.809 1249.26 483.634
2666 0 58.1612 14.8896 866 123.241 1249.58 481.486
2667 0 63.2392 13.7098 867 122.475 1249.56 482.249
2668 0 64.2196 14.4037 925 123.157 1249.69 480.342
2669 0 68.1077 13.3171 907 125.293 1249.49 479.313
2670 0 68.2991 13.7776 941 126.279 1249.84 476.763
2671 0 70.2012 14.2733 1002 125.217 1249.56 476.685
2672 0 74.2612 15.3781 1142 122.371 1249.4 473.243
2673 0 74.2069 14.6213 1085 125.948 1248.94 473.198
2674 0 77.4417 14.0493 1088 128.167 1249.42 470.219
2675 0 81.3313 13.7954 1122 127.701 1249.6 469.927
2676 0 83.2858 14.3602 1196 126.792 1248.9 468.813
2677 0 87.2941 14.6058 1275 126.385 1249.33 468.264
2678 0 89.2264 14.9059 1330 125.217 1248.86 468.607
2679 0 89.233 14.972 1336 150.202 1247.85 468.632
2680 0 95.3503 14.8295 1414 126.721 1248.98 461.9
2681 0 99.2639 14.4967 1439 126.616 1249.33 462.056
2682 0 100.385 13.249 1330 129.988 1249.28 459.762
2683 0 105.372 13.1439 1385 130.197 1249.39 458.126
2684 0 112.585 14.8511 1672 124.962 1249.59 455.248
2685 0 116.364 14.403 1676 124.699 1249.34 452.011
2686 1 65.139 12.8802 839 116.311 1249.32 480.626
2687 0 67.2194 13.0617 878 116.702 1249.3 479.46
2688 0 68.2439 11.8985 812 119.558 1249.04 478.522
2689 0 72.1912 12.4946 902 118.367 1248.97 477.065
2690 0 74.2683 12.4548 925 119.018 1249.4 473.446
2691 0 77.2034 11.7741 909 120.606 1248.98 473.942
2692 0 81.2224 13.1368 1067 117.989 1249.2 471.496
2693 0 83.1285 14.0505 1168 115.835 1249.12 469.831
2694 0 86.1293 13.503 1163 118.74 1248.57 469.228
2695 0 88.181 12.962 1143 122.024 1248.49 468.234
2696 0 92.1867 13.234 1220 120.47 1248.79 466.699
2697 0 93.2705 13.1017 1222 122.888 1248.39 464.624
2698 0 96.2552 12.3006 1184 125.367 1248.51 463.5
2699 0 100.245 13.3473 1338 122.475 1249.28 462.368
2700 0 104.265 12.8135 1336 124.868 1248.66 460.119
2701 0 107.255 13.0997 1405 124.596 1248.94 459.088
2702 0 111.247 12.6475 1407 125.606 1249.04 457.557
2703 1 62.0779 10.3096 640 118.93 1248.9 482.095
2704 0 63.0596 10.7359 677 115.66 1249.1 481.563
2705 0 65.0428 11.6539 758 114.868 1249.11 479.053
2706 0 70.1439 12.3033 863 111.95 1249.25 477.292
2707 0 70.0908 10.4008 729 117.31 1249.03 476.401
2708 0 74.0807 12.6079 934 112.286 1248.97 474.007
2709 0 75.1767 11.586 871 114.772 1248.2 473.847
2710 0 78.133 11.7492 918 115.889 1248.13 474.207
2711 0 81.1519 12.6799 1029 114.471 1248.9 471.672
2712 0 83.1408 12.3766 1029 115.976 1248.62 471.755
2713 0 87.0968 12.4344 1083 116.189 1249.57 469.858
2714 0 91.0885 11.5492 1052 117.559 1249.55 470.44
2715 0 92.0865 13.4547 1239 114.715 1250.01 466.895
2716 0 97.201 11.8929 1156 118.574 1249.55 462.904
2717 0 97.201 11.8209 1149 139.022 1248.52 462.867
2718 0 97.201 11.8003 1147 138.522 1247.53 462.904
2719 1 53.3044 10.0742 537 111.95 1250.77 485.27
2720 0 55.1726 10.5306 581 111.265 1250.87 483.501
2721 0 57.1689 10.6002 606 104.573 1250.79 480.99
2722 0 58.0712 10.1772 591 110.506 1251.35 484.223
2723 0 61.0794 10.7074 654 109.639 1250.63 481.237
2724 0 64.183 12.2774 788 105.19 1251.11 480.435
2725 0 66.2017 12.3411 817 103.737 1251.79 480.084
2726 0 67.1196 11.5317 774 106.205 1251.77 478.061
2727 0 68.1865 11.4392 780 107.167 1252.1 477.758
2728 0 71.1448 11.8772 845 105.736 1252.11 474.118
2729 0 76.1907 12.0487 918 104.331 1251.38 475.148
2730 0 77.2783 12.3579 955 104.498 1251.64 472.27
2731 0 78.1917 12.0985 946 106.837 1252.15 469.098
2732 0 81.1822 10.9753 891 108.847 1252.41 467.982
2733 0 83.2184 10.875 905 108.209 1252.15 469.667
2734 0 86.1484 11.7936 1016 107.684 1251.21 469.139
2735 0 91.1992 11.6448 1062 107.58 1251.99 464.372
2736 0 93.2185 11.8753 1107 107.521 1251.91 461.596
2737 1 47.0323 10.3546 487 106.671 1252.95 487.696
2738 0 48.0324 9.34785 449 110.02 1252.72 486.39
2739 0 48.0316 10.0559 483 107.94 1252.65 485.443
2740 0 49.0212 11.6888 573 103.538 1253.19 484.55
2741 0 52.1115 10.9189 569 107.838 1252.4 486.566
2742 0 53.066 10.4964 557 109.197 1251.66 486.262
2743 0 54.1604 11.5583 626 107.858 1251.67 484.968
2744 0 56.1547 10.667 599 108.942 1251.69 485.124
2745 0 56.0756 9.2732 520 111.673 1252.1 485.717
2746 0 58.1065 9.36212 544 112.938 1251.98 482.333
2747 0 62.1262 11.9595 743 106.572 1252.33 480.841
2748 0 62.1128 12.5417 779 105.804 1252.41 479.361
2749 0 63.0995 10.3963 656 111.311 1252.14 478.559
2750 0 66.168 11.8184 782 107.606 1252.12 478.904
2751 0 69.085 11.551 798 108.48 1252.53 476.761
2752 0 70.2978 11.3232 796 109.112 1252.54 474.66
2753 0 72.3553 11.1395 806 109.676 1252.12 474.339
2754 0 73.3228 11.388 835 110.558 1251.57 470.725
2755 0 77.2581 10.4455 807 112.19 1251.98 472.887
2756 0 79.3626 11.6428 924 111.263 1251.68 470.276
2757 0 80.1989 11.9328 957 111.129 1252.2 469.429
2758 0 83.3085 12.6278 1052 108.747 1251.93 470.385
2759 0 83.1842 11.8292 984 112.026 1252.08 467.712
2760 0 88.2089 12.8445 1133 109.893 1251.41 467.68
2761 0 93.1742 12.3747 1153 109.539 1251.74 467.342
2762 0 93.2788 11.0314 1029 113.563 1252.63 466.75
2763 0 93.2788 10.9671 1023 141.111 1254.64 466.898
2764 1 53.2803 11.8618 632 109.172 1251.08 484.498
2765 0 54.0625 12.3191 666 101.665 1252.71 485.574
2766 0 55.1652 11.8553 654 103.641 1252.57 484.557
2767 0 58.0535 12.5229 727 102.813 1252.82 482.671
2768 0 58.0704 12.967 753 102.244 1252.77 483.368
2769 0 60.0489 12.8395 771 102.879 1252.53 483.384
2770 0 62.091 12.4495 773 103.793 1253.79 484.829
2771 0 65.0761 13.3997 872 101.177 1253.45 483.062
2772 0 66.0502 13.8228 913 102.003 1253.47 480.586
2773 0 69.0923 12.2011 843 106.705 1252.96 479.499
2774 0 71.0779 12.5918 895 104.886 1252.61 477.678
2775 0 74.163 12.7018 942 104.623 1252.63 475.656
2776 0 77.191 12.7735 986 104.89 1252.43 476.002
2777 0 80.0681 12.8391 1028 106.683 1251.68 474.604
2778 0 83.1226 15.038 1250 101.544 1251.44 474.546
2779 1 42.0682 10.792 454 106.795 1252.21 488.385
2780 0 43.1453 9.5723 413 98.3414 1250.27 488.76
2781 0 44.121 10.5165 464 97.431 1250.07 487.907
2782 0 48.0932 11.4153 549 95.6084 1250.94 487.12
2783 0 49.0483 11.6212 570 94.5 1251.54 484.732
2784 0 50.1295 12.2882 616 94.5519 1251.2 483.586
2785 0 51.0679 12.1799 622 95.0547 1251.34 483.442
2786 0 52.048 12.5269 652 95.434 1250.87 483.992
2787 0 53.0729 11.8705 630 97.3317 1251.38 481.878
2788 0 56.0472 11.9899 672 95.9554 1251.13 483.403
2789 0 57.0572 11.0766 632 98.5095 1251.16 482.122
2790 0 57.0672 11.7581 671 98.8733 1251.18 481.44
2791 0 61.0574 12.5292 765 96.4941 1251 480.333
2792 0 62.2258 12.3421 768 98.6172 1250.87 478.915
2793 0 62.0852 12.499 776 98.7655 1251.09 475.861
2794 0 64.2185 11.8813 763 100.82 1250.42 478.107
2795 0 66.0711 11.866 784 102.172 1250.65 476.542
2796 0 68.1365 12.5924 858 101.192 1249.89 473.04
2797 0 71.3735 13.1561 939 101.119 1250.49 472.597
2798 0 73.1751 12.8596 941 102.421 1250.59 470.276
2799 0 76.1448 12.8571 979 102.82 1250.68 468.223
2800 0 78.1279 11.9548 934 105.338 1250.4 466.904
2801 0 83.1152 13.4873 1121 101.32 1249.97 467.864
2802 0 85.2254 13.0008 1108 104.054 1250.63 464.999
2803 1 39.0818 10.107 395 108.623 1250.01 491.481
2804 0 44.0409 13.0106 573 107.717 1249.93 493.857
2805 0 44.0824 11.5919 511 110.589 1249.48 491.728
2806 0 46.0654 12.5691 579 107.554 1249.73 490.041
2807 0 44.0555 11.7125 516 111.767 1249.37 489.211
2808 0 48.0522 12.1743 585 108.484 1249.6 489.68
2809 0 51.0208 13.8179 705 105.058 1250.2 488.865
2810 0 53.0472 12.9696 688 105.969 1249.73 487.978
2811 0 51.0253 12.4252 634 109.844 1250.43 488.727
2812 0 54.0336 12.1776 658 110.397 1250.7 487.734
2813 0 54.056 12.672 685 108.083 1250.06 486.323
2814 0 58.0322 13.0272 756 104.741 1249.53 485.95
2815 0 60.0423 13.1907 792 104.239 1249.72 481.756
2816 0 60.0598 12.3877 744 106.602 1249.57 482.81
2817 0 60.0873 11.5166 692 109.315 1249.26 481.454
2818 0 64.0461 13.4278 860 104.629 1249.08 480.103
2819 0 68.136 12.431 847 105.255 1249.77 481.738
2820 0 69.0457 14.3528 991 101.972 1250.1 480.205
2821 0 70.0605 13.3741 937 104.687 1249.43 479.244
2822 0 73.0755 13.7529 1005 104.508 1249.21 477.744
2823 0 74.0902 12.5253 928 108.135 1249.23 477.607
2824 0 77.0648 13.041 1005 108.276 1248.98 475.595
2825 0 79.0409 12.8161 1013 108.309 1249.59 475.078
2826 0 82.0382 13.0061 1067 107.712 1249.6 476.297
2827 0 85.106 13.2893 1131 107.249 1249.41 474.275
2828 0 88.138 13.1158 1156 109.505 1249.35 471.914
2829 0 89.0629 13.3838 1192 110.379 1249.3 472.343
2830 0 93.0555 13.4113 1248 109.593 1249.54 470.263
2831 0 95.0824 13.2201 1257 110.928 1249.07 469.538
2832 1 52.0151 12.1888 634 113.792 1248.71 488.014
2833 0 54.1152 13.1201 710 110.903 1248.65 488.317
2834 0 55.1451 13.401 739 111.976 1250.27 484.398
2835 0 58.0841 14.1691 823 110.269 1250.6 483.529
2836 0 58.1165 12.9223 751 113.988 1250.87 483.696
2837 0 63.0985 13.3125 840 111.614 1250.77 482.807
2838 0 64.0597 12.8942 826 113.155 1250.02 480.511
2839 0 66.1491 14.3615 950 110.523 1250.49 479.903
2840 0 68.2016 13.0349 889 113.929 1249.93 477.964
2841 0 69.0905 12.4764 862 115.35 1250.11 478.169
2842 0 72.1475 13.0704 943 114.737 1250.07 476.773
2843 0 76.1158 13.6765 1041 113.35 1250.34 474.679
2844 0 76.1014 13.0878 996 115.658 1251.04 474.135
2845 0 80.3547 13.4777 1083 114.697 1251.04 472.162
2846 0 84.1899 13.2676 1117 114.903 1250.63 471.501
2847 0 86.2851 13.9769 1206 114.085 1250.2 468.894
2848 1 45.1283 11.4119 515 113.181 1251.34 491.249
2849 0 44.0977 12.7444 562 111.815 1249.46 492.963
2850 0 45.0863 12.4428 561 105.242 1249.62 488.096
2851 0 47.0639 10.8151 509 108.595 1249.02 486.544
2852 0 49.0346 11.033 541 107.279 1248.88 485.303
2853 0 50.0357 12.0514 603 105.604 1249.26 483.879
2854 0 51.1386 10.6769 546 107.132 1250.26 486.897
2855 0 54.0719 11.3737 615 100.629 1250.87 483.776
2856 0 56.0947 12.6215 708 107.199 1251.36 487.434
2857 0 57.0544 12.3566 705 107.753 1251.27 487.749
2858 0 62.0911 13.3675 830 104.236 1250.8 486.564
2859 0 62.185 12.7362 792 107.573 1250.19 485.307
2860 0 63.0557 13.3533 842 107.026 1250.58 483.575
2861 0 66.3007 12.6695 840 108.239 1249.36 482.311
2862 0 69.1023 13.111 906 106.432 1249.72 481.475
2863 0 70.0885 12.8837 903 107.694 1250.03 480.72
2864 0 73.2024 13.6608 1000 106.266 1250.26 478.019
2865 0 76.2314 13.1573 1003 107.378 1249.85 477.203
2866 0 78.1642 12.4482 973 109.72 1249.76 476.414
2867 0 81.1431 12.1637 987 110.399 1250.12 477.797
2868 0 83.0698 12.1946 1013 112.275 1250.05 475.176
2869 0 87.195 13.682 1193 109.573 1249.22 472.028
2870 0 89.2128 12.7 1133 110.883 1249.78 472.432
2871 1 48.1892 12.1189 584 110.305 1249.95 492.274
2872 0 48.1302 12.5493 604 113.005 1249.95 490.043
2873 0 50.2261 12.0455 605 114.547 1250.06 487.603
2874 0 52.3355 13.8529 725 109.77 1249.25 486.556
2875 0 54.3959 13.126 714 113.94 1249.5 486.601
2876 0 55.3072 12.4577 689 118.779 1249.79 486.289
2877 0 57.4291 13.5123 776 114.429 1249.79 486.639
2878 0 57.2688 14.074 806 116.69 1249.39 483.01
2879 0 58.3212 13.2027 770 119.471 1249.19 483.965
2880 0 62.2631 13.2342 824 118.28 1249.32 485.695
2881 0 63.1744 12.4734 788 121.841 1248.91 483.816
2882 0 66.3245 13.8712 920 116.982 1249.35 480.651
2883 0 67.4603 13.2671 895 119.028 1249.4 480.416
2884 0 71.3892 14.0217 1001 116.523 1249.46 478.325
2885 0 71.5126 13.578 971 119.521 1249.22 476.596
2886 0 73.2434 14.4177 1056 117.836 1250.03 475.83
2887 0 77.3436 13.0069 1006 118.763 1249.38 471.079
2888 0 80.4407 14.0973 1134 115.538 1249.37 468.899
2889 0 82.575 14.2295 1175 115.562 1249.28 468.531
2890 0 86.3387 13.0185 1124 112.246 1249.36 472.738
2891 0 88.248 13.5754 1198 112.039 1249.35 471.31
2892 1 47.1433 10.4575 493 113.014 1249.81 493.562
2893 0 47.1841 11.2326 530 113.796 1249.47 490.43
2894 0 49.1954 11.6068 571 113.203 1250.03 490.287
2895 0 49.2423 12.3065 606 114.211 1249.61 488.378
2896 0 49.1837 11.2029 551 112.065 1249.94 485.403
2897 0 51.0861 10.9619 560 109.388 1250.19 485.114
2898 0 52.0962 11.7091 610 108.066 1249.95 484.169
2899 0 53.0594 10.9688 582 111.249 1249.88 484.144
2900 0 56.0399 11.8665 665 107.711 1250.54 481.189
2901 0 57.1021 11.4882 656 108.963 1250 481.075
2902 0 61.0729 12.2313 747 105.744 1249.22 480.137
2903 0 61.0699 10.709 654 110.261 1249.48 476.81
2904 0 65.0524 12.4669 811 105.522 1249.52 477.242
2905 0 68.057 12.2251 832 106.222 1249.99 476.895
2906 0 69.0834 12.0289 831 108.587 1249.25 475.634
2907 0 70.1776 11.9269 837 108.137 1249.75 469.802
2908 0 73.1039 12.0924 884 109.485 1249.37 469.957
2909 0 76.0975 11.643 886 110.256 1249.36 467.521
2910 0 81.2179 12.4111 1008 107.201 1250.53 468.101
2911 0 81.2179 12.3002 999 136.527 1252.51 468.056
2912 0 86.0944 12.3818 1066 110.995 1249.67 472.143
2913 0 86.0835 12.3949 1067 137.858 1246.68 471.894
2914 0 90.0548 12.5035 1126 112.335 1249.67 466.649
2915 0 96.1642 11.9275 1147 112.143 1248.66 467.358
2916 0 99.1969 13.7605 1365 108.544 1250.08 463.986
2917 0 102.161 13.1753 1346 110.274 1248.75 460.993
2918 1 51.1234 10.68 546 113.617 1248.75 485.954
2919 0 53.0956 12.2232 649 109.569 1248.75 485.1
2920 0 55.0769 12.5461 691 106.314 1248.46 486.473
2921 0 57.0932 12.2431 699 107.263 1248.77 483.258
2922 0 60.1093 12.8599 773 106.586 1248.27 481.995
2923 0 60.0978 11.9139 716 107.609 1248.42 483.135
2924 0 64.1214 12.8662 825 105.021 1249.43 481.167
2925 0 67.2418 12.4625 838 105.18 1249.35 479.705
2926 0 69.1882 12.6178 873 105.143 1249.26 477.927
2927 0 71.0968 12.7572 907 103.519 1249.19 474.668
2928 0 74.0741 13.311 986 103 1248.6 473.055
2929 0 76.1097 12.7185 968 104.434 1248.46 474.515
2930 0 79.0672 14.3043 1131 103.085 1248.95 470.5
2931 0 84.1599 14.318 1205 99.9544 1248.78 470.815
2932 0 84.1066 11.2833 949 108.28 1248.51 471.958
2933 0 85.1689 11.4831 978 110.459 1248.42 468.505
2934 0 90.2088 11.5288 1040 109.668 1248.5 470.118
2935 1 47.0716 10.3884 489 112.374 1249 486.431
2936 0 51.1209 12.265 627 100.997 1248.43 485.426
2937 0 52.1073 11.841 617 104.848 1248.83 483.24
2938 0 52.3103 11.3171 592 109.613 1248.84 485.514
2939 0 55.1359 12.1518 670 106.875 1249.86 484.449
2940 0 56.1829 11.427 642 109.681 1250.5 484.232
2941 0 58.2215 11.3188 659 110.381 1250.57 482.639
2942 0 59.3793 12.3107 731 107.808 1249.73 482.908
2943 0 63.2299 12.415 785 107.502 1250.32 480.02
2944 0 63.3621 12.7679 809 106.6 1250.18 481.488
2945 0 66.303 11.8396 785 108.38 1249.66 479.545
2946 0 70.3197 12.6423 889 106.589 1250.06 477.377
2947 0 70.3566 12.7067 894 139.153 1251.06 477.337
2948 0 73.3544 12.3783 908 108.036 1249.66 477.01
2949 0 75.4284 11.786 889 109.795 1250.03 475.787
2950 0 81.3399 13.376 1088 105.74 1250.05 473.043
2951 0 82.2643 12.0465 991 108.679 1250.03 473.852
2952 0 84.371 11.9472 1008 109.731 1248.93 472.057
2953 1 41.0475 10.9873 451 109.475 1250.49 488.847
2954 0 45.274 11.8611 537 105.456 1248.53 487.361
2955 0 46.2433 11.6125 537 107.097 1249.13 484.724
2956 0 46.3033 12.7853 592 106.194 1248.49 487.123
2957 0 49.2736 13.1308 647 105.071 1248.83 487.451
2958 0 49.25 11.797 581 109.836 1248.09 487.785
2959 0 52.2924 12.8317 671 107.961 1248.67 486.443
2960 0 52.084 10.8287 564 114.2 1249.71 488.566
2961 0 55.1381 11.8974 656 111.378 1250.31 486.235
2962 0 56.0656 12.307 690 110.117 1250.67 485.552
2963 0 58.0906 13.4789 783 108.628 1249.84 484.109
2964 0 60.1227 13.1731 792 109.538 1250.18 483.612
2965 0 61.114 12.9921 794 110.37 1250.42 481.979
2966 0 62.1413 13.1636 818 110.637 1250.13 481.62
2967 0 66.1473 14.5131 960 107.715 1249.92 480.154
2968 0 64.0863 13.8719 889 110.998 1250.41 481.204
2969 0 69.1401 13.4076 927 110.389 1250.27 480.729
2970 0 70.1871 13.2503 930 112.705 1250.21 479.786
2971 0 73.1995 13.4017 981 113.778 1250.65 476.905
2972 0 74.2241 13.6479 1013 113.819 1250.4 477.444
2973 0 77.2382 13.3095 1028 114.777 1250.27 475.338
2974 0 82.2479 14.9183 1227 110.896 1249.74 475.064
2975 0 82.3116 14.433 1188 113.513 1249.42 473.526
2976 0 82.4069 13.7124 1130 118.393 1248.59 472.58
2977 0 88.2913 13.8179 1220 116.896 1248.63 472.978
2978 0 91.5719 15.1684 1389 113.751 1249.9 467.425
2979 0 91.3194 12.0566 1101 117.825 1249.72 471.83
2980 0 97.4141 13.6941 1334 114.896 1249.74 467.323
2981 1 52.316 11.1629 584 117.204 1250.46 487.336
2982 0 52.267 12.5318 655 105.96 1249.64 485.296
2983 0 51.311 11.8883 610 111.78 1249.29 483.108
2984 0 55.1678 11.9816 661 105.163 1249.56 485.492
2985 0 54.1354 11.6375 630 107.375 1249.9 484.798
2986 0 58.091 12.7386 740 105.004 1249.95 483.554
2987 0 59.1976 12.112 717 107.273 1249.73 483.724
2988 0 61.1502 11.8233 723 107.931 1249.19 483.472
2989 0 61.149 11.9381 730 109.284 1248.33 483.69
2990 0 64.0824 11.6569 747 108.19 1248.83 477.183
2991 0 65.1437 11.6205 757 107.864 1248.87 476.889
2992 0 68.1428 12.239 834 105.508 1249.23 477.43
2993 0 69.1406 12.3372 853 106.987 1249.54 474.713
2994 0 71.0967 12.4478 885 106.251 1249.83 474.276
2995 0 76.1275 12.5973 959 104.546 1248.34 472.599
2996 0 77.2054 12.0458 930 106.038 1248.7 471.327
2997 0 77.1249 10.8266 835 109.79 1249.12 469.202
2998 0 80.1784 11.6116 931 107.417 1249.28 467.029
2999 0 83.1492 10.9682 912 108.273 1248.9 467.41
3000 0 86.178 11.9288 1028 105.46 1249.17 466.169
3001 0 90.2846 11.6077 1048 105.746 1248.73 464.684
3002 0 94.233 13.127 1237 101.833 1248.83 461.381
3003 0 98.2908 13.8365 1360 100.119 1249.13 455.711
3004 0 98.3397 12.6805 1247 103.263 1249.1 459.236
3005 0 102.536 12.8931 1322 102.48 1249.25 455.461
3006 0 107.328 13.2584 1423 100.748 1248.9 456.823
3007 0 107.273 13.0321 1398 102.581 1249 451.453
3008 0 111.256 12.9521 1441 103.278 1248.4 448.636
3009 0 113.204 13.0738 1480 104.497 1248.41 447.05
3010 0 119.282 13.0196 1553 104.502 1248.85 445.263
3011 0 123.249 13.0874 1613 107.623 1248.25 442.931
3012 1 54.0478 10.0467 543 104.685 1249.68 478.516
3013 0 52.041 10.1074 526 142.063 1249.72 479.146
3014 0 58.1993 13.0758 761 101.092 1248.84 479.631
3015 0 61.1457 11.399 697 104.686 1249.21 478.575
3016 0 61.1798 11.3436 694 104.617 1249.46 478.898
3017 0 63.4078 10.7558 682 101.535 1249.88 479.265
3018 0 64.1491 11.0212 707 102.01 1249.2 476.233
3019 0 66.1451 11.0212 729 103.174 1250.02 473.709
3020 0 70.2239 11.506 808 102.631 1249.14 473.485
3021 0 70.2682 10.1753 715 105.804 1248.82 471.876
3022 0 78.2844 11.9692 937 101.267 1248.72 471.384
3023 0 81.226 11.031 896 103.181 1248.92 470.997
3024 0 84.2613 12.1527 1024 102.429 1249.03 464.822
3025 0 87.1889 11.6414 1015 104.271 1248.34 465.632
3026 1 42.1104 8.76268 369 101.558 1247.95 488.848
3027 0 42.0399 10.7755 453 99.6578 1249.06 488.74
3028 0 44.0769 8.75743 386 102.412 1249.66 489.775
3029 0 43.0575 9.91696 427 103.426 1250.08 487.981
3030 0 49.1175 11.6048 570 97.986 1249.52 486.681
3031 0 50.0838 10.123 507 102.176 1249.52 487.105
3032 0 51.1417 11.5757 592 99.527 1249.55 485.64
3033 0 53.0837 11.8492 629 99.1765 1249.26 485.304
3034 0 51.1319 11.089 567 102.898 1249.43 483.012
3035 0 55.1506 11.6227 641 101.665 1249.18 483.437
3036 0 56.1533 11.6645 655 101.89 1249.71 481.695
3037 0 58.0812 10.4853 609 104.86 1250.1 481.703
3038 0 61.1535 12.8365 785 98.8561 1248.75 480.357
3039 0 61.1045 11.7504 718 101.957 1249.05 480.379
3040 0 62.1905 12.2044 759 102.875 1249.39 475.704
3041 0 63.1411 11.6089 733 104.697 1249.75 474.712
3042 0 67.0709 11.704 785 104.415 1249.32 474.692
3043 0 68.146 11.0645 754 105.71 1249.67 473.731
3044 0 71.0942 12.2654 872 103.477 1250.16 472.739
3045 0 72.1603 10.8093 780 109.312 1250.63 474.137
3046 0 74.1499 11.5307 855 114.189 1250.77 476.241
3047 0 78.129 12.3642 966 115.853 1250.15 476.327
3048 0 78.0543 11.5689 903 122.984 1250.54 474.482
3049 1 41.0904 10.9758 451 108.501 1251.03 493.142
3050 0 40.0153 11.7455 470 115.474 1252.14 491.521
3051 0 40.0153 11.7455 470 143.264 1254.13 491.551
3052 0 40.0099 12.022 481 114.501 1251.34 492.8
3053 0 42.0637 12.6237 531 111.23 1250.37 494.279
3054 0 40.0702 11.405 457 117.239 1251.21 494.582
3055 0 42.092 10.4058 438 117.516 1251.43 493.909
3056 0 44.0295 11.1062 489 115.115 1251.48 493.548
3057 0 47.0405 12.181 573 111.211 1251.37 491.237
3058 0 45.0841 10.0701 454 115.663 1251.09 491.3
3059 0 47.079 11.7037 551 111.985 1251.4 490.129
3060 0 50.0475 10.9896 550 110.918 1251.2 490.251
3061 0 50.0349 11.0723 554 112.606 1251.2 487.282
3062 0 52.0239 10.5336 548 113.714 1251.03 487.679
3063 0 55.1092 10.5427 581 112.711 1251.42 486.933
3064 0 54.0141 9.3309 504 116.343 1251.25 488.121
3065 0 59.1122 11.9265 705 109.645 1251.79 483.633
3066 0 66.0712 13.9849 924 102.231 1251.41 479.665
3067 0 69.1432 15.2293 1053 98.2013 1251.02 477.776
3068 0 64.0629 12.3004 788 111.486 1251.41 482.044
3069 0 66.1267 11.3721 752 114.762 1250.53 480.975
3070 1 34.0058 10.0571 342 117.532 1251.9 495.091
3071 0 34.0522 10.9832 374 115.369 1251.83 496.417
3072 0 37.0121 11.4557 424 111.123 1251.84 496.248
3073 0 35.1519 11.5783 407 113.373 1251.11 494.15
3074 0 37.0959 11.2411 417 113.487 1250.75 493.777
3075 0 39.0767 13.1024 512 108.275 1250.9 491.781
3076 0 39.0494 11.3958 445 113.465 1250.57 493.919
3077 0 41.054 11.7406 482 112.857 1251.54 492.384
3078 0 41.0168 10.4835 430 117.912 1251.01 492.27
3079 0 44.0402 12.3297 543 112.648 1250.53 493.405
3080 0 44.0588 12.5741 554 113.94 1250.74 491.518
3081 0 45.0383 12.4561 561 115.114 1251.32 491.194
3082 0 44.027 11.8109 520 118.865 1250.91 490.694
3083 0 46.0595 12.4187 572 116.923 1251.27 489.692
3084 0 47.0516 12.5182 589 117.562 1251.6 488.693
3085 0 50.0333 13.3511 668 113.383 1251.36 490.073
3086 0 50.0471 12.9079 646 116.636 1251.1 487.777
3087 0 51.0956 13.0344 666 116.11 1251.18 488.029
3088 0 55.0991 13.4667 742 113.606 1250.77 486.852
3089 0 55.1687 12.8515 709 115.694 1251.08 485.681
3090 0 55.0219 13.0312 717 116.695 1251.05 486.068
3091 0 59.0861 13.4719 796 113.786 1250.58 485.599
3092 0 61.0901 13.7502 840 112.482 1250.65 484.296
3093 0 63.1077 13.3264 841 113.989 1251.48 483.615
3094 0 63.0922 13.7101 865 114.791 1250.27 481.712
3095 0 65.0421 12.1614 791 117.98 1250.51 480.87
3096 0 69.0901 12.708 878 116.367 1250.91 480.282
3097 0 70.0392 13.6209 954 114.297 1250.33 477.409
3098 0 73.0788 13.246 968 115.076 1250.92 477.243
3099 0 75.0541 12.1912 915 117.107 1250.73 475.067
3100 0 78.0815 13.1401 1026 113.48 1250.66 476.779
3101 0 81.0826 12.9004 1046 115.602 1250.87 471.315
3102 0 83.0762 12.5668 1044 116.754 1250.66 472.537
3103 1 44.036 12.3308 543 121.068 1250.55 490.698
3104 0 45.0591 12.761 575 116.117 1250.57 489.532
3105 0 48.0851 13.3513 642 118.791 1251.11 489.715
3106 0 48.0851 13.4137 645 141.919 1251.13 489.719
3107 0 51.0532 13.8091 705 118.692 1251.59 488.274
3108 0 51.0422 12.6366 645 122.614 1251.37 488.349
3109 0 54.057 13.3378 721 120.494 1252.07 486.691
3110 0 55.0282 12.9752 714 121.485 1251.9 485.577
3111 0 54.04 13.5825 734 121.094 1251.91 485.27
3112 0 59.0417 14.0917 832 117.025 1251.21 483.905
3113 0 61.037 13.7785 841 116.445 1251.5 484.151
3114 0 63.0784 14.1411 892 116.067 1251.85 480.864
3115 0 66.0788 14.5584 962 114.246 1250.78 480.153
3116 0 66.0418 12.6132 833 119.182 1251.44 480.288
3117 0 70.0471 14.8757 1042 113.31 1251.46 477.058
3118 0 71.0517 13.8069 981 115.691 1251.51 477.947
3119 0 74.032 13.17 975 116.722 1250.74 475.607
3120 0 76.0416 12.5326 953 119.157 1251.05 474.949
3121 0 80.0354 13.7439 1100 115.286 1251.4 472.135
3122 0 81.0642 12.9034 1046 118.279 1250.98 469.875
3123 0 86.2427 13.0678 1127 117.423 1251.43 468.673
3124 0 88.1651 12.7715 1126 119.306 1251.28 467.301
3125 0 92.0829 12.7602 1175 118.691 1250.33 469.696
3126 0 94.1754 12.1582 1145 120.597 1250.16 468.763
3127 1 51.0766 12.3736 632 115.324 1249.83 489.307
3128 0 50.0403 11.9504 598 115.764 1250.17 487.803
3129 0 52.0603 13.5612 706 110.647 1250.71 486.354
3130 0 54.1185 13.9878 757 110.065 1250.91 486.067
3131 0 55.0364 13.9726 769 109.893 1250.78 485.953
3132 0 55.0089 12.907 710 113.311 1251.16 485.056
3133 0 58.0423 12.3875 719 113.387 1250.7 484.662
3134 0 60.0951 12.397 745 113.329 1251.94 481.13
3135 0 64.0715 13.3757 857 109.783 1251.29 482.623
3136 0 65.0888 13.2895 865 111.431 1251.7 480.58
3137 0 69.0927 14.0681 972 109.162 1250.66 480.036
3138 0 69.0927 14.0102 968 134.616 1249.66 480.009
3139 0 72.1618 14.9664 1080 108.408 1251.34 477.379
3140 0 74.1231 14.1117 1046 110.249 1251.88 477.486
3141 0 77.1549 13.2979 1026 112.702 1251.08 476.009
3142 0 80.1466 12.8265 1028 113.922 1251.06 475.88
3143 0 82.1692 13.5939 1117 112.643 1251.19 471.126
3144 0 86.1769 13.4607 1160 113.632 1251.42 469.342
3145 0 87.1737 13.5132 1178 114.997 1251.83 467.856
3146 0 92.196 13.5906 1253 114.952 1251.08 467.354
3147 1 47.0692 12.0673 568 121.275 1252.29 486.477
3148 0 48.045 12.2802 590 120.181 1249.38 489.819
3149 0 49.0801 11.3692 558 122.717 1249.56 490.446
3150 0 52.0266 14.0697 732 113.863 1249.92 489.037
3151 0 53.1099 14.1028 749 115.549 1249.73 489.561
3152 0 55.0659 13.2932 732 117.348 1250.38 489.067
3153 0 55.0599 12.4047 683 122.038 1249.67 487.75
3154 0 58.0553 13.6594 793 118.108 1249.68 486.889
3155 0 61.0415 15.7925 964 112.156 1249.68 487.453
3156 0 61.0418 14.7276 899 115.861 1249.59 486.992
3157 0 65.0334 14.1773 922 117.234 1249.65 484.524
3158 0 64.0915 14.6665 940 118.27 1249.54 482.112
3159 0 67.1304 13.511 907 120.374 1249.68 482.202
3160 0 69.081 13.9257 962 119.026 1249.19 482.051
3161 0 73.1099 14.6355 1070 115.864 1249.49 481.616
3162 0 73.1307 13.7152 1003 119.531 1249.12 480.465
3163 0 76.1281 14.804 1127 116.208 1249.31 480.316
3164 0 80.1514 14.7596 1183 116.309 1249.34 478.189
3165 0 82.2143 14.6082 1201 116.187 1249.83 475.461
3166 0 84.2111 14.7249 1240 116.249 1250.25 472.994
3167 0 88.2134 14.0908 1243 117.559 1249.67 473.175
3168 0 90.323 14.4481 1305 115.903 1249.41 471.014
3169 0 94.2744 14.2032 1339 116.037 1249.81 468.842
3170 1 48.0538 11.3207 544 122.252 1248.91 492.735
3171 0 51.0319 12.9331 660 115.124 1248.68 490.127
3172 0 51.1886 11.0767 567 107.22 1249.62 483.635
3173 0 53.1563 12.04 640 103.723 1250.02 480.88
3174 0 54.0609 12.1345 656 104.447 1250 481.386
3175 0 55.1413 11.6972 645 105.637 1250.38 480.278
3176 0 59.1907 12.1303 718 104.396 1250.34 479.189
3177 0 61.0912 12.4732 762 103.672 1249.3 479.07
3178 0 63.1541 12.1132 765 105.063 1249.47 477.797
3179 0 66.2116 13.4417 890 102.17 1249.94 476.766
3180 0 65.1566 12.2935 801 107.637 1249.01 473.494
3181 0 69.2134 12.9166 894 105.424 1249.03 475.688
3182 0 69.0936 11.8101 816 110.089 1248.9 474.301
3183 0 72.2408 12.929 934 107.738 1249.29 473.148
3184 0 76.2385 13.2086 1007 108.507 1249.02 472.752
3185 0 78.4333 13.6932 1074 107.487 1249.39 472.357
3186 0 78.1502 12.9878 1015 112.238 1249.39 469.372
3187 0 79.1055 12.3885 980 116.066 1249.19 467.52
3188 0 84.1733 13.888 1169 112.391 1248.87 466.63
3189 0 86.1342 13.6531 1176 115.574 1249.51 468.492
3190 0 89.1608 13.9523 1244 120.656 1249.49 470.302
3191 0 90.1969 14.0471 1267 121.4 1249.28 466.448
3192 0 94.1069 14.6429 1378 119.096 1249.56 465.039
3193 0 96.2543 14.9396 1438 119.054 1249.33 460.604
3194 0 98.1601 13.2946 1305 124.101 1249.27 459.93
3195 0 103.215 14.4166 1488 119.568 1249.56 454.282
3196 1 52.1924 12.2815 641 123.145 1249.5 484.526
3197 0 52.1282 14.1574 738 118.538 1249.4 481.97
3198 0 54.0846 13.7932 746 116.984 1250.08 486.21
3199 0 57.1451 12.687 725 119.185 1249.52 486.401
3200 0 58.0612 13.2791 771 118.506 1249.6 484.492
3201 0 61.3503 14.1972 871 114.336 1249.29 485.326
3202 0 62.1325 14.1633 880 114.917 1248.58 483.415
3203 0 66.1523 14.1492 936 114.759 1248.32 482.877
3204 0 65.1829 14.2522 929 117.212 1248.57 480.183
3205 0 69.2813 14.3762 996 115.741 1248.17 479.401
3206 0 71.1343 13.9454 992 117.054 1248.89 479.73
3207 0 74.1379 13.5963 1008 119.095 1248.88 478.211
3208 0 76.2987 15.2689 1165 115.35 1249 475.103
3209 0 78.2797 14.1671 1109 118.648 1248.48 476.119
3210 0 80.205 13.6774 1097 121.743 1248.57 474.032
3211 0 85.2009 13.5327 1153 121.642 1248.61 473.297
3212 0 86.28 13.9198 1201 120.933 1249.47 471.497
3213 0 90.1874 13.6937 1235 120.905 1248.7 471.401
3214 0 93.076 13.7415 1279 121.274 1248.74 471.162
3215 1 49.0385 12.1333 595 130.4 1249.22 489.508
3216 0 52.0357 12.4338 647 128.255 1249.56 489.009
3217 0 52.0557 14.3692 748 123.989 1249.93 487.328
3218 0 56.0224 13.8159 774 125.172 1250.2 483.729
3219 0 56.0502 13.809 774 125.766 1249.18 485.632
3220 0 56.0644 13.2348 742 128.817 1249.58 483.113
3221 0 57.0396 13.7273 783 128.989 1249.06 483.752
3222 0 60.0469 14.3221 860 125.595 1249.44 482.722
3223 0 60.0783 12.9331 777 131.006 1248.89 482.538
3224 0 62.124 13.5696 843 129.327 1249.16 481.376
3225 0 66.1708 14.2359 942 126.339 1248.84 479.66
3226 0 67.1732 14.604 981 123.954 1249.79 478.069
3227 0 69.1091 14.0068 968 126.291 1249.21 478.931
3228 0 72.0581 13.7805 993 126.798 1249.52 477.555
3229 0 74.129 14.0161 1039 126.489 1249.88 476.211
3230 0 77.1396 13.9747 1078 125.438 1249.59 474.797
3231 0 78.0872 14.1124 1102 125.917 1249.26 471.852
3232 0 81.0694 14.5554 1180 124.268 1249.31 470.424
3233 0 84.1613 14.2346 1198 124.919 1249.56 470.211
3234 0 86.1348 13.6182 1173 126.7 1248.66 468.085
3235 0 87.2097 14.2874 1246 124.851 1249.37 461.53
3236 0 92.1825 16.1419 1488 116.362 1249.22 461.999
3237 1 47.1682 11.724 553 122.127 1249.26 484.783
3238 0 49.1441 11.1916 550 122.904 1249.96 484.06
3239 0 49.0863 11.7344 576 122.878 1251.2 482.962
3240 0 50.0664 11.4648 574 125.561 1250.64 481.575
3241 0 51.086 12.7628 652 122.252 1250.51 488.063
3242 0 54.1865 11.7926 639 122.454 1249.93 487.864
3243 0 58.0767 13.0689 759 119.319 1249.39 485.748
3244 0 60.2107 13.3365 803 121.377 1249.84 484.257
3245 0 61.1842 13.3204 815 120.325 1249.77 484.671
3246 0 64.1894 12.4787 801 119.175 1249.53 482.533
3247 0 66.1628 13.1645 871 118.067 1249.92 480.941
3248 0 69.1368 12.3523 854 119.591 1249.95 480.244
3249 0 72.1112 13.3544 963 116.225 1249.83 480.178
3250 0 73.2143 13.0849 958 119.472 1248.88 478.793
3251 0 76.0736 13.4344 1022 116.865 1249.8 476.408
3252 0 77.0815 11.9354 920 119.783 1250.24 475.562
3253 0 81.1575 12.8023 1039 115.598 1250.29 471.811
3254 0 83.0995 12.2744 1020 118.333 1250.28 473.851
3255 0 86.13 12.5972 1085 118.1 1250.11 470.359
3256 0 90.2566 12.542 1132 117.115 1250.03 470.261
3257 0 94.1201 13.3659 1258 115.942 1249.69 468.12
3258 1 46.1132 10.214 471 120.96 1250.69 489.713
3259 0 48.0716 11.0668 532 118.254 1250.64 487.656
3260 0 53.0899 12.3376 655 112.079 1250.27 489.777
3261 0 52.0786 11.3482 591 110.557 1250.13 486.704
3262 0 55.176 13.3573 737 106.242 1250.39 484.269
3263 0 59.1212 12.8888 762 104.882 1250.07 484.945
3264 0 60.2105 12.5227 754 107.34 1250.03 480.966
3265 0 62.1242 13.135 816 111.808 1250.1 481.8
3266 0 63.121 12.6741 800 106.201 1250.21 478.781
3267 0 65.0619 11.343 738 109.977 1250.03 477.144
3268 0 69.135 13.1048 906 104.288 1249.7 476.705
3269 0 69.0878 11.9268 824 108.836 1250.33 475.318
3270 0 73.1212 12.1032 885 107.529 1249.83 476.884
3271 0 76.0611 12.3585 940 107.25 1249.31 473.286
3272 0 79.0994 12.6423 1000 105.606 1249.88 471.158
3273 0 81.0648 11.5833 939 108.141 1249.56 469.681
3274 0 84.1013 11.724 986 107.813 1249.58 469.355
3275 0 87.1989 11.9038 1038 107.229 1249.92 467.537
3276 0 90.1744 12.2873 1108 106.392 1249.56 466.611
3277 1 45.0305 11.4145 514 104.323 1250.48 489.154
3278 0 45.0559 11.6744 526 103.203 1250.17 486.251
3279 0 46.0773 10.4173 480 106.144 1250.5 484.1
3280 0 49.1023 11.7306 576 103.288 1250.16 483.332
3281 0 50.1288 12.049 604 102.919 1250.22 483.459
3282 0 52.1181 12.9322 674 101.988 1250.05 483.398
3283 0 53.0999 12.4106 659 121.815 1249.54 485.297
3284 0 56.1292 13.0235 731 117.157 1249.64 486.766
3285 0 59.1885 13.2627 785 116.908 1249.57 483.364
3286 0 59.2041 12.2964 728 119.982 1249.35 483.576
3287 0 62.1305 13.0693 812 117.383 1249.22 482.528
3288 0 64.0811 12.2969 788 118.662 1248.34 481.566
3289 0 66.1743 13.8422 916 115.668 1249.46 479.906
3290 0 67.2922 12.3045 828 120.819 1249.12 479.027
3291 0 70.1599 12.7993 898 118.107 1249.25 478.855
3292 0 75.1395 12.6698 952 118.358 1249.26 477.487
3293 0 77.1653 13.024 1005 117.09 1249.48 476.202
3294 0 80.3435 13.2307 1063 116.912 1249.37 474.124
3295 1 41.1121 11.6024 477 116.805 1250.69 493.392
3296 0 42.1779 12.2813 518 116.763 1250.75 491.546
3297 0 47.0804 12.5105 589 113.036 1251.49 492.273
3298 0 46.3396 12.5379 581 117.978 1250.01 489.105
3299 0 47.246 13.1228 620 117.3 1250.13 489.319
3300 0 54.2808 16.1567 877 103.961 1250.13 484.94
3301 0 56.2358 15.6128 878 108.648 1249.9 484.716
3302 0 56.2992 15.1867 855 111.736 1250.14 485.291
3303 0 56.2085 15.0511 846 114.125 1249.53 484.783
3304 0 56.2782 12.9002 726 121.178 1251 486.898
3305 0 58.1783 15.2119 885 115.53 1250.53 485.067
3306 0 58.1792 12.7881 744 123.352 1250.03 482.438
3307 0 61.1502 13.1152 802 121.362 1250.46 483.817
3308 0 63.1511 14.5207 917 118.203 1250.38 481.853
3309 0 65.2273 14.5645 950 117.677 1250.31 481.989
3310 0 68.1767 14.4037 982 118.095 1250.35 480.858
3311 0 69.1901 13.8459 958 120.313 1250.22 478.676
3312 0 69.1978 13.8588 959 138.888 1251.2 478.604
3313 0 75.1267 13.8832 1043 119.339 1250.23 478.143
3314 0 74.1091 14.5866 1081 119.254 1250.6 476.786
3315 0 80.1693 14.5941 1170 116.892 1250.29 475.925
3316 0 82.1395 13.4892 1108 120.541 1250.14 474.487
3317 0 84.1269 14.6921 1236 118.794 1250.67 472.415
3318 0 87.0921 13.5374 1179 121.405 1251.2 472.568
3319 0 90.1445 14.0663 1268 120.578 1251.1 470.489
3320 1 46.0291 12.6876 584 123.288 1251.76 490.125
3321 0 47.0532 12.4752 587 125.07 1251.76 490.944
3322 0 49.0569 11.823 580 114.25 1251.79 488.221
3323 0 50.2273 11.1294 559 117.785 1250.61 487.175
3324 0 52.2381 13.2087 690 116.243 1250.4 487.07
3325 0 53.1991 11.6919 622 121.658 1249.91 484.305
3326 0 54.2565 12.6989 689 121.894 1249.44 482.183
3327 0 57.1845 13.3428 763 121.149 1249.3 480.224
3328 0 58.2876 12.2325 713 124.776 1249.14 480.23
3329 0 62.2326 11.8748 739 123.704 1249.34 482.037
3330 0 63.1716 12.6164 797 123.871 1249.43 478.533
3331 0 65.3044 11.7297 766 127.337 1248.73 478.266
3332 0 68.176 13.4945 920 123.743 1249.07 475.868
3333 0 71.3654 13.9423 995 123.279 1249.14 474.974
3334 0 74.2561 13.2245 982 125.43 1248.77 473.959
3335 0 76.3267 13.7829 1052 124.988 1249 472.793
3336 0 78.2052 13.861 1084 124.72 1249.17 473.629
3337 0 80.2559 14.379 1154 123.699 1250 473.457
3338 0 83.2959 13.6261 1135 127.345 1249.21 470.024
3339 0 86.2642 15.07 1300 123.555 1249.14 468.852
3340 0 86.2749 13.7352 1185 129.339 1248.8 468.167
3341 0 92.2392 14.083 1299 127.727 1248.39 467.03
3342 1 46.156 12.3928 572 133.745 1248.91 487.278
3343 0 48.2592 13.3653 645 131.78 1249.48 485.594
3344 0 50.1214 13.2877 666 131.282 1249.42 485.979
3345 0 50.0444 12.8885 645 128.96 1249.23 487.527
3346 0 53.0687 12.7759 678 125.847 1250.28 487.872
3347 0 55.1282 14.0944 777 121.692 1250.37 487.474
3348 0 55.0963 13.6488 752 125.673 1249.93 484.812
3349 0 56.0996 13.4404 754 129.782 1249.52 487.359
3350 0 57.05 13.4969 770 133.871 1250.03 487.173
3351 0 57.05 13.4619 768 160.518 1250.03 487.092
3352 0 62.041 13.3944 831 134.532 1249.6 485.095
3353 0 64.0629 13.6897 877 134.062 1250.13 483.318
3354 0 67.0847 15.7562 1057 127.318 1250.34 481.848
3355 0 68.0267 13.4653 916 134.51 1249.82 483.157
3356 0 70.1133 14.2911 1002 133.046 1250.15 480.565
3357 0 73.1608 13.7505 1006 133.16 1249.96 480.627
3358 0 76.0633 13.5545 1031 134.043 1250.41 477.858
3359 0 81.0906 15.1806 1231 127.799 1249.9 477.226
3360 0 81.0954 13.441 1090 134.653 1250.25 475.785
3361 0 86.1974 13.9563 1203 132.14 1250.55 473.477
3362 0 86.097 13.7287 1182 134.184 1250.32 471.893
3363 1 50.0275 14.7119 736 130.394 1250.56 489.731
3364 0 51.0187 13.5636 692 133.066 1249.93 490.632
3365 0 53.0239 14.1446 750 132.744 1250.18 487.783
3366 0 54.1004 14.8612 804 129.262 1248.98 486.203
3367 0 54.1105 14.7661 799 130.796 1248.67 484.681
3368 0 57.0542 13.7939 787 131.503 1248.91 484.546
3369 0 59.0533 13.6826 808 130.173 1249.86 485.207
3370 0 62.0486 14.3275 889 118.146 1248.8 481.49
3371 0 65.062 14.417 938 116.903 1249.22 480.243
3372 0 63.0908 13.3617 843 122.8 1248.6 477.189
3373 0 67.0739 13.4628 903 121.406 1249.32 475.864
3374 0 69.0804 14.085 973 119.458 1249.22 476.396
3375 0 72.1431 14.9148 1076 116.843 1249.58 474.537
3376 0 73.0833 14.7913 1081 119.094 1249.45 472.618
3377 0 76.1117 14.3605 1093 119.873 1249.05 473.282
3378 0 78.1102 14.2619 1114 120.697 1249.55 471.538
3379 0 78.1102 14.2875 1116 167.823 1249.53 471.453
3380 0 80.1045 13.9942 1121 124.393 1249.8 471.508
3381 0 85.1109 15.7324 1339 119.462 1249.63 467.854
3382 0 87.1926 14.1411 1233 125.11 1249.96 466.139
3383 0 91.0509 15.6067 1421 122.4 1249.61 464.923
3384 0 94.1925 14.4916 1365 126.39 1249.12 464.689
3385 0 97.1431 15.2147 1478 123.321 1249.54 463.373
3386 1 49.0575 12.2102 599 128.616 1249.69 489.187
3387 0 53.0889 14.0707 747 124.309 1248.74 488.517
3388 0 53.1907 13.5738 722 127.702 1249.2 485.787
3389 0 55.1526 14.0519 775 126.124 1249.58 482.403
3390 0 58.2979 13.9799 815 124.806 1249.91 482.27
3391 0 58.1482 13.8611 806 127.099 1249.59 481.504
3392 0 61.0999 13.7644 841 126.164 1249.85 482.163
3393 0 61.2489 14.4166 883 126.61 1249.54 480.248
3394 0 64.2622 13.8495 890 128.178 1249.55 478.481
3395 0 68.1343 14.8383 1011 122.88 1249.8 477.17
3396 0 68.1092 13.5371 922 129.934 1249.68 473.762
3397 0 70.1576 12.8853 904 133.136 1249.4 473.872
3398 0 75.2099 15.4235 1160 123.521 1249.86 473.179
3399 0 75.2122 15.3964 1158 151.023 1249.85 473.129
3400 0 76.2062 13.3716 1019 133.662 1249.57 469.923
3401 0 77.1785 13.3327 1029 135.441 1249.35 467.965
3402 0 82.1385 15.1451 1244 129.399 1249.91 466.404
3403 0 83.243 14.1513 1178 133.634 1249.73 465.143
3404 0 89.1758 13.0192 1161 136.134 1249.53 463.554
3405 0 87.1456 14.4012 1255 135.699 1250.36 461.073
3406 0 91.233 14.5123 1324 135.637 1250.39 459.505
3407 0 93.1979 14.9574 1394 134.093 1250.74 458.82
3408 0 94.2934 14.0095 1321 138.655 1249.89 457.494
3409 0 100.296 15.0156 1506 133.875 1249.66 457.814
3410 0 101.404 14.3881 1459 137.245 1250.32 454.864
3411 0 105.198 15.2569 1605 134.815 1250.13 452.07
3412 0 110.231 15.023 1656 135.399 1249.81 449.079
3413 0 115.27 15.8498 1827 132.524 1250.59 446.203
3414 0 117.303 13.6484 1601 142.597 1250.02 444.655
3415 1 65.1789 12.1972 795 139.73 1250.34 474.826
3416 0 70.2686 13.0926 920 134.986 1250.92 475.313
3417 0 71.0394 12.7676 907 135.447 1249.68 474.809
3418 0 73.0598 13.5369 989 131.817 1249.82 474.088
3419 0 76.0506 12.9782 987 133.159 1250.08 468.714
3420 0 77.0409 11.5263 888 137.718 1249.3 466.971
3421 0 80.0433 12.6806 1015 133.404 1249.9 466.972
3422 0 85.0825 11.9884 1020 134.846 1249.48 463.849
3423 0 86.1087 12.6933 1093 134.055 1249.92 459.61
3424 0 88.0894 12.3851 1091 135.476 1249.76 459.346
3425 0 92.0992 12.6277 1163 133.483 1249.36 458.217
3426 0 93.0798 10.9691 1021 138.302 1249.69 454.69
3427 0 98.0364 11.7405 1151 135.399 1249.38 452.604
3428 0 104.137 12.0802 1258 133.816 1249.74 452.021
3429 1 57.0504 10.6397 607 119.397 1249.79 485.208
3430 0 59.0706 11.4947 679 114.094 1249.7 483.483
3431 0 58.0742 11.6231 675 118.424 1249.92 481.529
3432 0 62.1214 10.9946 683 118.356 1249.66 482.334
3433 0 64.1075 11.9331 765 116.603 1249.15 480.954
3434 0 66.0931 10.7727 712 119.732 1248.82 479.678
3435 0 69.0368 12.2109 843 115.394 1249.21 478.51
3436 0 71.1733 11.9708 852 118.971 1248.65 477.039
3437 0 76.1649 13.7859 1050 113.856 1248.53 474.912
3438 0 76.1685 13.5095 1029 115.008 1248.71 473.95
3439 0 79.0806 12.2154 966 117.756 1249.08 471.79
3440 0 81.2325 10.9193 887 120.608 1249.23 469.986
3441 0 82.2408 11.6609 959 117.888 1249.03 468.821
3442 1 45.0585 8.94393 403 117.072 1248.92 491.744
3443 0 44.1722 8.48951 375 116.323 1249.33 490.147
3444 0 49.1012 10.7329 527 109.195 1249.75 490
3445 0 46.0546 8.53334 393 109.593 1252.7 491.191
3446 0 46.0347 9.55801 440 108.668 1251.79 490.143
3447 0 46.0145 7.91055 364 110.451 1251.62 492.429
3448 0 50.0406 8.33324 417 110.18 1249.83 487.974
3449 0 51.027 7.21187 368 111.424 1250.66 488.603
3450 0 54.0344 9.90111 535 106.929 1250.13 485.232
3451 0 55.0273 9.54071 525 108.379 1250.47 482.75
3452 0 60.0616 10.3061 619 105.111 1250.53 484.204
3453 0 61.0443 9.73064 594 107.875 1250.6 481.67
3454 0 62.0497 9.49239 589 107.497 1249.99 482.952
3455 0 63.0272 10.3606 653 106.888 1250.4 480.827
3456 0 66.0634 10.0964 667 108.454 1248.99 480.421
3457 0 68.0301 9.5987 653 109.894 1248.24 478.709
3458 0 70.0998 9.74326 683 110.379 1248.02 478.99
3459 0 72.0478 8.92462 643 112.792 1248 476.941
3460 0 73.0834 9.52337 696 112.499 1247.89 476.289
3461 0 75.1274 8.18609 615 115.517 1248.21 475.876
3462 0 78.1215 8.21796 642 118.741 1246.52 471.893
3463 1 45.0994 9.31277 420 114.986 1247.76 489.29
3464 0 41.1076 8.61154 354 115.466 1250.16 483.562
3465 0 45.0729 9.51791 429 113.576 1249.73 484.103
3466 0 48.3013 9.62707 465 113.219 1248.93 485.284
3467 0 47.2109 11.2686 532 111.169 1248.61 484.665
3468 0 50.2089 10.9343 549 111.925 1248.93 483.523
3469 0 51.2553 9.81363 503 116.014 1249.19 481.429
3470 0 53.2889 10.565 563 114.81 1248.29 479.773
3471 0 53.136 9.89913 526 118.783 1248.86 479.842
3472 0 55.1489 10.3538 571 117.655 1247.45 487.091
3473 0 57.0833 9.72263 555 118.823 1247.19 486.254
3474 0 60.1154 10.7793 648 115.992 1247.34 485.696
3475 0 60.1563 9.6083 578 114.232 1249.5 481.033
3476 0 61.1318 9.04602 553 116.519 1249.87 481.77
3477 0 64.1237 10.6981 686 114.261 1249.24 479.136
3478 0 67.1001 10.9091 732 113.384 1248.99 480.82
3479 0 68.0851 10.7366 731 115.464 1249.25 479.677
3480 0 71.1011 10.0702 716 118.179 1249.77 478.397
3481 0 72.1487 10.5338 760 117.958 1249.74 478.72
3482 0 74.1216 10.3883 770 119.713 1249.33 477.352
3483 0 77.1503 11.6007 895 117.539 1250.13 473.674
3484 0 80.1737 11.0385 885 120.287 1250.14 471.651
3485 0 85.131 11.2532 958 117.925 1248.85 470.567
3486 1 41.0716 10.3478 425 121.621 1247.6 492.969
3487 0 44.1678 12.611 557 115.562 1247.39 492.126
3488 0 45.1383 11.21 506 119.16 1248.02 493.472
3489 0 46.1517 10.5955 489 121.569 1247.98 492.249
3490 0 49.1762 12.5264 616 114.886 1248.01 490.33
3491 0 48.1154 11.9296 574 118.434 1248.41 489.993
3492 0 52.0927 12.6313 658 114.983 1248 488.473
3493 0 52.0895 11.3267 590 118.719 1248.09 489.049
3494 0 54.1418 11.4699 621 118.356 1248.8 488.506
3495 0 56.1222 12.9182 725 113.77 1248.94 488.217
3496 0 57.048 12.5158 714 115.507 1249.11 487.445
3497 0 59.0869 12.1347 717 116.522 1248.74 487.152
3498 0 60.1787 13.4765 811 114.501 1249.19 484.729
3499 0 63.2201 13.0813 827 114.491 1249.54 483.144
3500 0 65.0923 12.9508 843 114.011 1249 483.433
3501 0 66.163 12.3785 819 116.411 1248.73 480.404
3502 0 67.1584 12.7013 853 112.693 1249.68 477.474
3503 0 72.2356 12.833 927 112.933 1249.99 479.472
3504 0 73.1941 12.0092 879 114.524 1249.98 479.166
3505 0 74.171 12.3498 916 115.041 1249.8 477.342
3506 0 76.089 13.1425 1000 114.86 1249.7 475.756
3507 0 79.3575 12.2358 971 116.312 1249.55 477.103
3508 0 82.2164 12.4428 1023 115.733 1249.58 475.243
3509 0 84.1642 13.7113 1154 112.339 1250.25 476.208
3510 1 45.0197 12.017 541 115.595 1250.13 493.144
3511 0 46.0736 11.7421 541 114.551 1250.12 493.486
3512 0 47.1913 11.0826 523 113.166 1249.24 488.002
3513 0 47.1103 11.1228 524 112.483 1248.72 484.324
3514 0 48.1743 12.1019 583 111.036 1249.11 481.043
3515 0 49.2231 11.8237 582 112.235 1249.69 483.813
3516 0 52.1211 11.8954 620 111.035 1249.1 480.998
3517 0 52.2579 12.2278 639 113.033 1249.05 479.022
3518 0 54.2183 12.2837 666 112.653 1248.79 479.45
3519 0 55.355 12.3566 684 113.782 1249.16 478.374
3520 0 58.2293 12.1073 705 113.618 1249.27 477.47
3521 0 60.106 13.5427 814 110.596 1249.09 477.065
3522 0 59.1979 12.4498 737 115.735 1248.94 473.885
3523 0 63.1354 12.8612 812 113.915 1249.44 474.134
3524 0 67.1971 12.9768 872 112.982 1249.19 473.218
3525 0 69.2358 12.4646 863 114.121 1249.94 473.167
3526 0 72.2892 13.3907 968 110.867 1249.94 469.805
3527 0 74.2133 12.1003 898 115.566 1249.13 468.861
3528 0 75.3216 12.8516 968 113.898 1249.36 467.264
3529 0 77.2196 12.458 962 114.63 1249.64 467.136
3530 0 81.2371 12.125 985 115.069 1250.2 464.872
3531 0 82.2388 11.5517 950 117.094 1249.88 466.587
3532 0 85.1178 11.9247 1015 116.823 1250.25 465.746
3533 0 90.147 12.7126 1146 113.132 1250.02 461.855
3534 0 93.2072 13.5397 1262 113.006 1250.12 460.971
3535 1 48.0669 11.7961 567 119.608 1249.27 486.326
3536 0 49.0671 11.1684 548 120.651 1248.72 480.272
3537 0 50.162 11.9214 598 115.56 1250.45 479.488
3538 0 53.097 11.6767 620 112.026 1251.11 482.963
3539 0 55.1394 11.5525 637 112.995 1250.57 480.841
3540 0 56.0467 12.3825 694 111.957 1251.01 481.478
3541 0 58.0362 12.3027 714 112.845 1250.45 480.057
3542 0 60.175 11.9983 722 112.788 1250.5 479.85
3543 0 62.2488 11.9681 745 102.793 1250.99 478.208
3544 0 62.0902 11.7249 728 115.676 1250.51 477.808
3545 0 66.0695 12.5777 831 113.415 1250.88 477.462
3546 0 68.1342 12.7249 867 114.963 1250.81 474.636
3547 0 69.2809 12.0957 838 117.654 1249.78 473.986
3548 0 70.276 11.9956 843 142.802 1249.78 473.822
3549 0 75.1151 12.7138 955 117.621 1250.33 471.41
3550 0 79.2321 13.9716 1107 114.643 1250.47 470.912
3551 0 83.283 13.7603 1146 115.934 1250.26 469.729
3552 0 83.286 12.9554 1079 120.206 1250.48 468.791
3553 0 87.252 13.5584 1183 120.203 1250.05 465.008
3554 0 88.2802 12.7322 1124 123.655 1249.68 465.957
3555 0 93.3107 14.3606 1340 124.008 1250.27 463.482
3556 0 96.4218 13.6899 1320 126.471 1249.54 461.62
3557 1 52.2704 11.804 617 122.183 1250.21 486.509
3558 0 55.0628 13.2394 729 114.51 1250.39 487.346
3559 0 54.1098 12.5855 681 117.314 1250.86 485.95
3560 0 55.0497 11.8438 652 120.992 1251.27 485.66
3561 0 59.0766 12.4923 738 118.458 1250.77 483.19
3562 0 60.09 11.799 709 119.674 1250.77 484.551
3563 0 62.0693 11.2133 696 122.132 1250.73 483.428
3564 0 66.0504 12.5813 831 118.413 1250.84 481.243
3565 0 67.0548 12.6613 849 119.998 1250.94 479.463
3566 0 67.1343 11.6036 779 124.273 1250.26 479.035
3567 0 71.1191 12.1346 863 120.933 1250.86 479.852
3568 0 74.1049 12.1314 899 120.904 1250.57 478.778
3569 0 74.322 11.8942 884 119.801 1250.5 474.825
3570 0 77.1488 12.8323 990 118.53 1250.19 472.979
3571 0 80.1157 12.8564 1030 118.572 1249.97 472.592
3572 0 83.1046 12.0812 1004 121.151 1250.44 471.106
3573 0 86.1259 12.1218 1044 120.509 1250.89 470.846
3574 0 89.1488 12.0473 1074 121.649 1250.95 466.515
3575 1 46.0805 10.8072 498 118.096 1251.79 490.357
3576 0 48.0824 11.5011 553 116.251 1251.84 489.429
3577 0 49.0192 11.6281 570 114.293 1252.38 486.402
3578 0 50.0728 12.6416 633 113.995 1251.45 487.133
3579 0 50.2031 12.1307 609 116.12 1251.67 483.358
3580 0 53.17 12.1309 645 114.369 1251.87 484.58
3581 0 53.1664 12.9593 689 113.522 1251.87 483.507
3582 0 56.0375 12.1169 679 114.437 1251.09 485.404
3583 0 58.1165 13.7655 800 110.284 1251.77 481.834
3584 0 60.1409 12.3044 740 113.8 1251.68 480.718
3585 0 64.1844 12.8692 826 110.54 1251.44 480.478
3586 0 63.1259 12.7048 802 113.037 1251.14 477.865
3587 0 65.0939 11.3989 742 115.992 1251.75 475.367
3588 0 68.1775 12.0274 820 114.629 1251.2 475.321
3589 0 70.1242 12.5349 879 114.341 1251.51 474.353
3590 0 73.273 12.7196 932 113.178 1251.51 474.114
3591 0 76.2283 12.7249 970 113.951 1251.11 473.805
3592 0 78.2312 13.3834 1047 113.408 1251.51 472.955
3593 0 80.1332 12.7662 1023 116.184 1251.62 472.36
3594 0 83.3079 12.964 1080 117.46 1251.86 470.663
3595 0 87.2359 13.1712 1149 117.69 1251.34 467.077
3596 0 90.2269 12.4353 1122 118.183 1251.02 468.351
3597 0 92.2333 11.0589 1020 122.229 1251.45 467.434
3598 0 95.1555 11.7492 1118 121.418 1251.53 463.407
3599 0 99.3149 12.3345 1225 120.64 1250.93 459.69
3600 1 47.1339 12.072 569 117.707 1250.74 486.25
3601 0 48.103 12.7851 615 115.38 1249.99 487.224
3602 0 50.0937 11.6582 584 118.481 1250.35 486.361
3603 0 51.124 12.6751 648 115.688 1250.45 486.948
3604 0 55.2743 13.424 742 111.749 1250.42 486.646
3605 0 57.1085 13.378 764 111.64 1250.23 484.025
3606 0 61.1488 13.8842 849 109.804 1250 483.376
3607 0 61.1309 14.4608 884 109.982 1251.34 481.414
3608 0 64.1355 14.0172 899 109.424 1250.75 482.763
3609 0 66.1199 14.3678 950 109.557 1250.88 478.968
3610 0 67.154 13.9381 936 111.911 1250.88 477.462
3611 0 70.0922 13.468 944 112.774 1250.92 474.926
3612 0 74.2648 14.583 1083 109.21 1250.55 476.752
3613 0 73.271 14.1666 1038 105.896 1250.43 475.312
3614 0 78.4091 14.1693 1111 104.497 1250.41 472.959
3615 0 81.4471 13.7267 1118 105.666 1250.91 471.446
3616 0 84.4031 14.2175 1200 103.739 1251.09 470.344
3617 0 87.5154 13.8033 1208 105.22 1250.86 467.577
3618 0 89.3384 14.4954 1295 103.578 1251.62 466.147
3619 0 90.4893 12.8523 1163 106.882 1250.93 464.592
3620 1 46.2406 11.6564 539 109.169 1251.65 484.354
3621 0 45.0614 11.1847 504 107.659 1250.34 484.312
3622 0 50.2547 12.3172 619 106.775 1250.99 484.435
3623 0 50.1795 13.2724 666 104.992 1251.28 481.517
3624 0 51.3006 13.5476 695 104.984 1250.97 480.265
3625 0 53.1164 14.7789 785 101.316 1251.13 479.511
3626 0 56.1426 12.8601 722 104.188 1251.08 479.609
3627 0 56.1471 13.144 738 104.454 1250.85 476.103
3628 0 60.1218 12.8406 772 103.62 1251.04 476.358
3629 0 61.1493 12.9846 794 101.656 1250.33 474.589
3630 0 63.1689 13.6143 860 100.649 1249.92 476.455
3631 0 65.1386 13.525 881 100.73 1250.69 473.22
3632 0 67.1028 13.0546 876 101.797 1251.03 471.128
3633 0 70.205 13.6742 960 99.7375 1250.86 471.011
3634 0 69.2821 11.8645 822 104.696 1250.5 470.292
3635 0 72.146 13.0707 943 101.99 1250.53 469.012
3636 0 76.2723 14.3171 1092 98.0174 1250.97 467.315
3637 0 77.21 13.392 1034 99.411 1250.64 467.524
3638 0 82.2573 13.4456 1106 98.2441 1250.74 464.803
3639 1 42.2013 10.1182 427 103.014 1250.63 483.122
3640 0 44.1727 10.2552 453 101.589 1250.16 484.185
3641 0 46.1355 10.1657 469 95.5672 1251.18 481.644
3642 0 49.2039 12.0925 595 102.146 1249.78 487.627
3643 0 51.0987 12.0355 615 102.202 1249.19 485.798
3644 0 50.1773 11.6985 587 104.848 1249.37 482.974
3645 0 51.102 11.9956 613 104.062 1249.32 484.949
3646 0 54.1008 12.3473 668 103.311 1249.14 483.546
3647 0 56.1959 12.9725 729 102.078 1249.24 483.281
3648 0 56.1743 12.39 696 104.635 1249.23 481.145
3649 0 59.0915 11.863 701 102.552 1249.67 480.359
3650 0 59.0485 13.0571 771 102.313 1249.74 479.476
3651 0 61.0524 12.1371 741 105.962 1249.49 477.032
3652 0 62.0562 12.7948 794 105.506 1249.33 475.788
3653 0 63.1784 12.9158 816 106.625 1249.54 474.55
3654 0 67.0368 12.247 821 107.145 1248.65 475.81
3655 0 68.1903 11.5119 785 110.654 1250.09 471.494
3656 0 70.253 11.9568 840 110.225 1249.79 471.03
3657 0 73.2608 12.162 891 110.153 1250.25 470.378
3658 0 75.242 12.812 964 109.78 1250.1 468.591
3659 0 79.2076 12.3725 980 110.154 1250.11 466.729
3660 0 82.2282 12.5261 1030 109.764 1250.45 465.793
3661 0 85.2189 12.1217 1033 112.3 1250.55 460.433
3662 1 43.0542 8.33833 359 99.1922 1250.65 488.73
3663 0 46.0829 9.39612 433 96.1247 1250.55 488.732
3664 0 48.2005 11.5974 559 91.2826 1249.81 484.832
3665 0 50.1239 9.91543 497 94.3722 1249.27 486.121
3666 0 49.1586 10.0084 492 95.1728 1249.02 484.778
3667 0 49.0769 9.96396 489 96.4683 1248.97 483.145
3668 0 54.0683 10.5792 572 93.2657 1249.5 484.294
3669 0 52.107 10.0179 522 95.7893 1249.18 484.169
3670 0 55.1529 10.2442 565 95.3575 1249.22 482.841
3671 0 57.0665 9.63788 550 95.8291 1248.87 479.707
3672 0 60.0455 11.1582 670 92.2925 1248.91 480.233
3673 0 63.1139 10.3781 655 93.374 1248.31 478.461
3674 0 65.0808 11.3244 737 91.692 1248.04 480.069
3675 0 66.1366 11.3402 750 98.7573 1247.86 482.871
3676 0 71.1284 12.7094 904 98.0332 1250.12 481.614
3677 0 71.0615 11.9896 852 100.839 1249.78 482.403
3678 0 73.0512 11.006 804 102.944 1249.64 478.405
3679 0 79.0905 12.4667 986 98.645 1249.92 473.608
3680 0 81.1022 12.5027 1014 97.5878 1250.11 475.543
3681 0 83.0684 12.5198 1040 99.0865 1247.84 476.401
3682 1 43.0139 8.9041 383 105.937 1246.64 491.386
3683 0 48.0465 10.7812 518 99.8629 1246.59 490.301
3684 0 49.0402 12.6223 619 97.79 1248.09 491.069
3685 0 49.048 11.6009 569 97.6608 1249.04 490.439
3686 0 50.0309 11.6728 584 98.2894 1249.19 489.979
3687 0 52.102 11.2088 584 99.1507 1249.46 489.349
3688 0 53.0447 11.9899 636 98.522 1249.62 488.846
3689 0 54.0631 10.8577 587 109.394 1249.58 489.646
3690 0 57.1241 11.7814 673 106.771 1249.36 488.909
3691 0 57.0864 11.0534 631 109.864 1249.01 487.027
3692 0 60.0943 10.8995 655 109.666 1248.88 486.976
3693 0 63.2079 12.7357 805 106.343 1249.09 484.598
3694 0 62.0901 11.0807 688 100.548 1248.64 486.343
3695 0 67.0598 11.199 751 109.455 1249.34 484.316
3696 0 67.0749 10.7641 722 112.295 1249.47 481.292
3697 0 71.0844 12.9283 919 106.948 1249.59 481.467
3698 0 72.1313 12.3802 893 109.69 1249.22 478.8
3699 0 76.1239 12.7818 973 108.018 1249.44 478.743
3700 0 78.0813 12.2565 957 109.197 1249.6 478.884
3701 0 82.0885 11.7678 966 110.057 1249.63 475.681
3702 1 40.077 9.98077 400 108.157 1248.42 496.507
3703 0 41.0222 11.2622 462 100.366 1247.88 495.786
3704 0 42.0279 10.8261 455 102.624 1249.58 494.53
3705 0 42.0217 10.5184 442 104.774 1249.95 494.88
3706 0 44.0288 10.8111 476 103.916 1249.42 496.048
3707 0 45.0515 9.96637 449 107.249 1250.13 493.445
3708 0 47.0484 11.4775 540 104.12 1250.16 494.378
3709 0 49.0151 10.8946 534 105.135 1249.69 492.742
3710 0 47.0492 10.6272 500 107.554 1249.83 493.268
3711 0 49.0372 10.5838 519 106.052 1250.48 494.304
3712 0 52.0349 10.9926 572 104.729 1250.2 491.615
3713 0 54.114 11.2171 607 105.458 1249.74 490.974
3714 0 55.0159 10.506 578 107.548 1249.49 489.785
3715 0 56.0719 10.2725 576 108.707 1250.15 489.417
3716 0 57.0247 11.1881 638 107.118 1250.05 487.469
3717 0 62.0347 12.3479 766 103.341 1249.91 486.346
3718 0 62.1259 9.91535 616 110.206 1249.66 488.045
3719 0 63.1096 10.6323 671 111.206 1248.66 482.124
3720 0 70.0884 10.9291 766 107.779 1249.12 483.488
3721 0 71.1119 11.5452 821 105.432 1249.43 483.094
3722 0 71.0859 10.2974 732 107.926 1249.69 481.869
3723 1 36.0326 10.7125 386 105.811 1250.16 498.443
3724 0 38.0429 10.9087 415 104.549 1250.31 496.294
3725 0 39.0375 11.886 464 102.276 1249.57 494.985
3726 0 40.0229 11.4185 457 103.414 1249.69 495.468
3727 0 40.0731 12.4522 499 102.102 1250.16 494.399
3728 0 40.0804 12.0258 482 104.239 1250.01 492.22
3729 0 44.1863 12.2436 541 102.268 1250.06 489.835
3730 0 46.1075 12.1889 562 102.671 1249.53 488.064
3731 0 46.1075 13.0347 601 101.428 1250.19 488.126
3732 0 47.0913 12.8686 606 102.078 1250.39 488.574
3733 0 47.1282 11.3945 537 106.097 1250.13 487.927
3734 0 50.1033 11.8755 595 104.101 1250.35 485.721
3735 0 50.1641 11.6019 582 105.519 1250.91 486.314
3736 0 53.1262 12.0468 640 103.719 1250.2 485.394
3737 0 54.1056 11.5145 623 105.063 1250.86 483.581
3738 0 56.0519 12.2387 686 102.268 1250.1 486.442
3739 0 57.1242 13.882 793 99.2169 1249.91 482.037
3740 0 59.1781 13.1974 781 100.093 1250.6 480.196
3741 0 62.1129 13.0891 813 99.7626 1250.61 481.744
3742 0 64.0788 13.8267 886 99.3679 1250.64 480.262
3743 0 66.0828 13.6949 905 99.4497 1250.67 478.466
3744 0 67.1354 11.8715 797 104.876 1250.28 478.097
3745 0 70.0549 13.6464 956 101.797 1250.99 474.566
3746 0 71.1222 13.7932 981 102.659 1250.83 474.66
3747 0 73.134 12.7164 930 105.93 1251.49 472.135
3748 0 76.151 11.7924 898 107.513 1250.91 470.272
3749 1 39.0067 8.79336 343 112.391 1252.01 490.638
3750 0 41.0442 10.8907 447 103.096 1251.84 490.799
3751 0 42.0701 11.2669 474 102.357 1251.97 490.08
3752 0 44.0964 11.9738 528 100.786 1251.38 490.009
3753 0 44.0386 11.0131 485 102.897 1252.04 487.431
3754 0 44.1095 11.4714 506 102.87 1251.13 487.33
3755 0 48.1084 11.6196 559 100.977 1251.29 487.787
3756 0 49.0379 11.7052 574 101.568 1251.2 487.035
3757 0 50.1554 13.3186 668 97.7904 1251.47 485.109
3758 0 52.1454 11.909 621 101.676 1251.97 484.546
3759 0 54.0619 12.6707 685 99.4453 1251.49 485.248
3760 0 54.0893 11.1482 603 102.965 1251.72 485.375
3761 0 56.0778 13.2494 743 99.7577 1251.21 481.256
3762 0 57.0506 12.5678 717 101.397 1251.42 481.45
3763 0 62.1397 13.2283 822 99.1022 1251.88 482.023
3764 0 61.1102 12.5838 769 101.91 1251.88 481.337
3765 0 63.0834 13.2206 834 101.664 1251.64 479.285
3766 0 66.1172 12.9921 859 101.888 1251.62 480.584
3767 0 66.1518 12.8341 849 103.814 1251.31 480.141
3768 0 67.1556 12.3445 829 106.15 1252.09 479.391
3769 0 70.1412 12.8598 902 104.718 1251.96 477.388
3770 0 72.1203 13.2972 959 104.692 1251.98 476.965
3771 0 74.1285 13.3552 990 105.278 1251.98 475.942
3772 0 77.0652 14.1568 1091 104.229 1251.52 475.162
3773 0 78.1407 13.0022 1016 107.835 1251.71 474.938
3774 0 81.1194 13.1535 1067 108.595 1251.96 472.161
3775 0 83.0698 13.3863 1112 108.23 1251.82 469.881
3776 0 86.1409 13.5243 1165 108.598 1251.44 470.676
3777 0 91.1872 14.07 1283 106.39 1251.84 470.151
3778 0 93.1661 14.4795 1349 106.837 1251.63 467.259
3779 0 94.1188 13.0473 1228 111.19 1251.76 466.046
3780 0 98.1527 14.3042 1404 109.534 1250.97 459.917
3781 0 102.165 14.2416 1455 109.449 1251.46 461.865
3782 0 105.12 13.7748 1448 111.317 1251.32 460.316
3783 0 107.196 14.1517 1517 111.61 1251.41 457.846
3784 0 112.144 13.9017 1559 111.475 1251.51 459.111
3785 0 116.17 14.8748 1728 109.973 1251.42 454.211
3786 0 118.328 13.6147 1611 114.012 1251.19 452.587
3787 0 123.245 14.1913 1749 112.583 1251.8 450.887
3788 1 65.3022 11.6688 762 116.47 1252.48 477.743
3789 0 67.1084 12.368 830 117.339 1251.72 475.601
3790 0 69.4113 13.6865 950 114.386 1251.56 474.468
3791 0 71.2606 13.6541 973 115.247 1251.53 473.259
3792 0 73.2339 13.2316 969 117.112 1252.22 471.028
3793 0 73.241 11.9469 875 121.712 1251.98 470.246
3794 0 79.2207 13.6202 1079 115.487 1251 469.486
3795 0 81.0961 13.6998 1111 116.554 1251.07 467.338
3796 0 83.2863 13.9158 1159 117.084 1251.58 465.349
3797 0 85.2362 13.3629 1139 118.849 1251.24 464.068
3798 0 89.2375 12.9206 1153 120.234 1250.67 461.976
3799 0 92.2535 13.4954 1245 118.363 1250.72 460.369
3800 0 94.2798 13.2584 1250 118.969 1250.4 460.613
3801 1 54.147 10.2129 553 121.134 1250.27 477.743
3802 0 56.0594 11.8267 663 116.229 1250.73 478.805
3803 0 59.063 12.2242 722 114.925 1249 478.532
3804 0 59.1096 12.8236 758 115.583 1249.59 480.35
3805 0 64.1112 13.2426 849 113.078 1249.85 480.482
3806 0 66.0664 13.774 910 111.323 1249.62 478.8
3807 0 69.1007 14.0085 968 110.644 1250.04 478.396
3808 0 68.2259 12.0042 819 117.099 1249.89 478.181
3809 0 71.0819 13.0272 926 114.258 1250.12 476.276
3810 0 76.1984 14.4885 1104 109.981 1249.85 473.879
3811 0 76.1021 13.7841 1049 113.532 1250.12 474.101
3812 0 77.3114 13.9307 1077 113.9 1249.93 472.145
3813 0 80.317 14.1191 1134 113.31 1249.76 472.036
3814 0 84.3206 14.6702 1237 111.636 1250.22 469.283
3815 0 86.1812 13.7385 1184 114.514 1250.14 468.621
3816 0 90.228 14.3858 1298 112.723 1249.71 468.388
3817 0 90.467 12.8003 1158 118.218 1249.78 465.415
3818 0 96.1749 14.1721 1363 112.516 1250.28 461.441
3819 0 97.3872 13.4515 1310 115.669 1249.62 462.8
3820 0 103.275 14.5727 1505 113.292 1249.7 461.877
3821 1 52.3089 10.4571 547 118.212 1250.41 486.009
3822 0 54.4309 11.3906 620 117.132 1250.37 483.406
3823 0 54.0482 10.5461 570 111.474 1249.26 482.809
3824 0 58.0517 11.6276 675 115.105 1250.33 484.081
3825 0 59.202 12.1111 717 114.273 1250.51 484.279
3826 0 58.1116 11.7188 681 117.552 1250 480.047
3827 0 63.1486 12.0034 758 114.491 1251.02 482.152
3828 0 63.1486 12.0351 760 147.363 1252.01 482.266
3829 0 68.1961 13.8718 946 111.691 1250.05 476.338
3830 0 67.133 12.006 806 117.854 1250.49 477.261
3831 0 69.0323 12.0523 832 114.184 1250.81 478.685
3832 0 72.0851 12.5824 907 114.641 1249.65 476.025
3833 0 74.1012 12.294 911 115.337 1249.2 475.764
3834 0 78.1049 12.8801 1006 114.726 1249.6 475.651
3835 0 80.0437 14.0173 1122 113.029 1249.18 473.325
3836 0 82.152 12.7568 1048 117.569 1249.21 472.383
3837 0 84.1165 13.2673 1116 117.877 1248.91 471.916
3838 0 89.1483 14.661 1307 114.649 1249.1 470.046
3839 0 92.0995 13.9523 1285 117.795 1248.74 468.134
3840 0 96.1483 16.7554 1611 110.355 1248.89 463.001
3841 0 98.234 15.2595 1499 115.304 1248.89 463.592
3842 0 100.106 15.3836 1540 115.523 1249.38 461.59
3843 0 104.159 14.9772 1560 116.206 1248.75 460.584
3844 0 106.202 15.7154 1669 115.257 1249.13 460.586
3845 1 58.0342 10.9418 635 117.575 1248.27 486.159
3846 0 58.1234 10.3057 599 107.689 1251.26 481.371
3847 0 59.0232 10.911 644 108.234 1250.63 479.469
3848 0 61.0976 10.3932 635 107.142 1250.36 477.066
3849 0 65.2887 11.5334 753 103.871 1249.18 477.458
3850 0 66.2098 11.0407 731 106.242 1249.27 474.379
3851 0 69.1149 11.0975 767 104.694 1249.54 474.847
3852 0 73.1715 11.3569 831 102.063 1249.5 475.9
3853 0 72.2448 10.4644 756 106.47 1250.36 471.435
3854 0 78.1905 11.715 916 102.487 1249.82 469.856
3855 0 79.1164 12.1467 961 103.431 1250.57 472.506
3856 0 82.1223 12.3961 1018 101.193 1250.28 469.25
3857 0 84.112 11.8414 996 102.484 1249.87 469.487
3858 0 88.1509 13.3861 1180 106.097 1250.42 470.974
3859 0 90.1749 12.0765 1089 109.208 1249.62 469.601
3860 0 92.1397 11.5802 1067 110.969 1249.84 467.168
3861 1 49.0448 9.37919 460 113.92 1250.82 487.12
3862 0 53.0697 12.0219 638 106.882 1251.58 484.694
3863 0 52.0089 10.902 567 110.071 1250.66 486.12
3864 0 56.1099 11.6379 653 105.62 1251.3 485.24
3865 0 56.0431 11.7588 659 106.341 1250.15 484.165
3866 0 59.1247 13.9536 825 100.999 1248.76 484.462
3867 0 61.0304 11.6827 713 98.5007 1250.72 477.522
3868 0 61.0462 10.8115 660 101.132 1250.31 477.227
3869 0 65.0667 12.8637 837 95.5329 1250.37 477.848
3870 0 67.0689 11.7044 785 99.5439 1250.4 474.992
3871 0 69.0963 12.4609 861 99.1928 1250.19 473.388
3872 0 73.0974 11.984 876 99.8687 1250.06 473.436
3873 0 74.237 11.0322 819 103.954 1249.94 468.954
3874 0 76.2775 11.0911 846 104.173 1248.95 468.017
3875 0 78.2218 11.0966 868 105.404 1249.51 469.762
3876 0 80.2567 11.3012 907 107.405 1249.48 467.205
3877 0 85.1954 10.9396 932 111.308 1249.56 468.226
3878 0 84.1221 9.41488 792 115.961 1249.88 465.525
3879 1 46.1034 9.60883 443 105.007 1249.88 486.964
3880 0 49.2107 11.0342 543 108.779 1248.66 487.418
3881 0 49.1744 12.2015 600 110.477 1248.72 486.437
3882 0 52.041 11.0105 573 104.082 1249.31 483.476
3883 0 52.1294 11.7208 611 102.881 1249.87 482.966
3884 0 54.1062 10.9414 592 105.502 1249.89 481.701
3885 0 56.0983 11.1233 624 104.583 1249.89 483.401
3886 0 55.0566 11.4609 631 105.544 1249.67 480.759
3887 0 58.1244 11.8195 687 103.952 1249.69 480.942
3888 0 58.0644 10.6089 616 107.703 1249.5 479.31
3889 0 61.0817 12.0167 734 103.623 1249.15 480.187
3890 0 61.1081 11.1605 682 106.315 1249.5 477.365
3891 0 64.0831 10.5176 674 106.494 1248.83 475.823
3892 0 67.0858 11.9995 805 102.827 1249.69 476.184
3893 0 70.1088 12.0242 843 102.667 1248.63 474.114
3894 0 71.0814 12.6756 901 100.38 1249.68 474.929
3895 0 75.0366 11.5011 863 102.599 1249.06 472.659
3896 0 76.0912 11.4468 871 102.613 1249.74 471.852
3897 0 79.1338 11.2973 894 103.465 1249.97 469.93
3898 0 83.1807 12.4909 1039 100.437 1249.39 469.656
3899 0 84.0907 10.2389 861 105.841 1249.85 468.823
3900 0 85.1871 9.6963 826 107.414 1248.96 467.498
3901 0 88.2549 10.7416 948 105.844 1248.91 465.04
3902 0 90.389 10.1561 918 108.164 1248.69 460.828
3903 0 93.2869 11.3628 1060 106.25 1248.32 461.775
3904 0 94.2957 11.0397 1041 108.663 1249.06 459.869
3905 0 99.2497 10.3073 1023 109.95 1248.63 458.385
3906 1 53.2145 12.1583 647 97.1437 1249.61 484.575
3907 0 53.1159 12.0679 641 98.1638 1249.2 484.192
3908 0 55.1714 10.2952 568 102.5 1248.89 483.407
3909 0 55.0602 12.2411 674 96.5415 1249.18 484.76
3910 0 59.0561 11.4637 677 97.2836 1249.97 481.482
3911 0 60.1041 11.6132 698 96.8625 1249.41 479.703
3912 0 61.0734 10.4465 638 99.8574 1249.31 479.337
3913 0 62.0729 11.9215 740 97.3824 1250.09 477.619
3914 0 67.075 12.1357 814 96.344 1249.67 476.356
3915 0 66.1086 11.2391 743 99.3917 1249.5 477.174
3916 0 67.0483 11.1561 748 100.924 1249.01 473.43
3917 0 71.0429 12.0913 859 98.8522 1249.78 474.719
3918 0 72.0434 11.4376 824 101.583 1249.74 472.603
3919 0 74.0603 11.3286 839 101.646 1249.73 471.819
3920 0 78.0751 11.6682 911 101.025 1249.82 469.784
3921 0 81.0657 12.1876 988 100.632 1249.18 470.108
3922 0 83.1171 11.7665 978 102.867 1249.26 466.7
3923 0 87.0599 12.164 1059 101.883 1249.27 465.927
3924 0 89.1839 10.5064 937 105.386 1249.14 465.51
3925 0 92.1945 11.5408 1064 104.795 1248.76 460.787
3926 0 95.2066 12.6882 1208 103.099 1248.67 458.989
3927 1 46.0589 11.1162 512 105.611 1248.85 482.498
3928 0 52.0562 11.7373 611 112.448 1246.8 488.876
3929 0 51.2307 12.4925 640 113.055 1247.92 486.188
3930 0 53.1259 11.4069 606 116.414 1247.54 486.657
3931 0 57.0966 13.6611 780 109.795 1248.1 483.845
3932 0 58.2123 13.7256 799 110.889 1247.74 483.797
3933 0 58.1854 12.5977 733 113.761 1247.73 485.289
3934 0 60.2055 12.6733 763 114.295 1248.01 483.996
3935 0 64.118 12.5238 803 114.587 1247.23 482.894
3936 0 65.1591 13.3366 869 112.543 1247.75 483.839
3937 0 68.1345 12.6514 862 113.558 1248.29 483.429
3938 0 70.1665 12.8409 901 114.956 1248.68 480.456
3939 0 69.3036 12.3226 854 117.568 1248.2 478.053
3940 0 73.1778 13.3511 977 114.313 1248.91 475.747
3941 0 78.1844 13.7495 1075 111.327 1248.87 476.97
3942 0 79.3645 12.3985 984 115.16 1248.8 475.404
3943 0 84.3935 12.4417 1050 113.126 1248.78 475.933
3944 0 88.2528 14.3225 1264 108.053 1248.92 470.817
3945 1 47.2663 11.4881 543 108.284 1249.13 491.116
