time division length width area intensity CMx CMy
0 0 50.0479 11.0494 553 125.638 1338.98 475.253
1 0 50.068 11.4644 574 123.112 1339.19 476.627
2 0 51.0294 11.1308 568 124.694 1338.7 474.519
3 0 52.0641 11.7739 613 121.688 1338.86 475.06
4 0 52.0333 12.3959 645 121.104 1338.96 474.695
5 0 54.0275 12.3641 668 120.34 1339.53 474.037
6 0 56.0182 12.7816 716 118.404 1339.1 473.471
7 0 56.0514 11.8106 662 120.678 1338.81 473.681
8 0 58.0693 12.6056 732 118.217 1338.28 472.589
9 0 57.0593 12.4782 712 118.105 1338.43 473.24
10 0 62.0711 12.3568 767 116.091 1338.75 473.787
11 0 62.0531 12.9889 806 113.748 1339.07 474.423
12 0 63.027 12.5184 789 116.166 1339 471.651
13 0 65.0386 14.0839 916 111.191 1338.77 471.721
14 0 66.0701 13.5613 896 113.379 1338.32 468.77
15 0 68.1163 11.6419 793 117.44 1337.76 470.532
16 0 69.1384 11.166 772 118.948 1338 468.541
17 0 74.0495 12.6807 939 113.639 1337.44 468.999
18 0 75.0756 12.8803 967 114.111 1337.25 467.286
19 1 37.0514 11.8484 439 114.216 1337.33 485.702
20 0 39.0517 11.8305 462 111.396 1336.57 486.545
21 0 41.0629 13.8812 570 107.863 1335.92 484.904
22 0 42.0643 11.8628 499 113.429 1335.3 485.122
23 0 44.0451 14.2581 628 106.806 1335.79 485.239
24 0 45.0918 11.6873 527 113.879 1336.39 483.342
25 0 46.028 13.7959 635 107.912 1335.84 482.946
26 0 49.1052 14.7235 723 104.556 1335.03 481.993
27 0 48.0495 13.4029 644 109.599 1334.21 482.051
28 0 52.1656 13.6488 712 107.062 1335.11 482.076
29 0 53.077 14.3188 760 105.566 1335.06 480.378
30 0 56.0855 14.0856 790 110.809 1334.8 478.975
31 0 57.0641 13.2483 756 113.238 1334.75 479.065
32 0 59.0586 14.0877 832 111.46 1334.4 477.012
33 0 62.1115 14.796 919 108.672 1334.03 476.064
34 0 61.0355 14.0574 858 112.444 1333.84 477.064
35 0 64.0699 13.9067 891 112.076 1333.74 475.863
36 0 67.0928 14.3831 965 110.247 1334.64 473.318
37 0 68.0624 14.0753 958 112.276 1334.55 472.469
38 0 72.1032 13.9938 1009 111.361 1334.52 470.788
39 0 75.0531 13.8435 1039 112.82 1334.3 470.313
40 0 76.2214 13.5001 1029 114.822 1333.77 469.05
41 0 79.1545 13.96 1105 113.685 1333.61 468.595
42 0 83.0962 14.405 1197 111.105 1333.41 469.344
43 0 87.0571 15.8517 1380 108.039 1334.17 465.783
44 0 89.0634 14.8995 1327 109.714 1334.19 464.313
45 0 92.1602 15.0499 1387 109.125 1334 464.673
46 0 95.0473 14.8558 1412 109.809 1333.54 462.223
47 0 98.0821 14.702 1442 109.846 1333.46 461.446
48 0 101.247 13.6992 1387 111.673 1334.03 458.42
49 0 104.07 13.7215 1428 111.726 1333.44 455.845
50 1 53.0708 12.2478 650 112.175 1332.99 481.794
51 0 56.0795 12.9637 727 108.618 1332.96 482.088
52 0 56.0299 12.065 676 111.481 1333.94 480.827
53 0 58.0664 13.364 776 105.406 1334.35 479.845
54 0 60.0449 12.1076 727 107.073 1333.74 479.631
55 0 63.0607 12.7655 805 105.25 1332.9 479.174
56 0 64.0421 13.3818 857 105.181 1332.57 477.44
57 0 66.094 12.346 816 107.021 1332.73 477.169
58 0 69.0179 13.5617 936 104.87 1333 475.127
59 0 70.0853 13.5549 950 105.968 1332.64 474.932
60 0 72.0629 13.0025 937 108.206 1332.32 472.431
61 0 72.0629 13.0442 940 146.415 1332.32 472.29
62 0 77.0801 13.5703 1046 110.077 1332.99 470.392
63 0 81.0857 13.7139 1112 108.884 1333.29 468.553
64 0 83.1546 14.1303 1175 107.957 1332.32 469.193
65 0 86.0664 13.1294 1130 110.012 1332 467.485
66 0 90.0392 14.3493 1292 107.292 1331.98 463.147
67 0 90.053 13.1256 1182 110.399 1332 461.53
68 0 94.1836 13.7922 1299 109.169 1332.16 461.908
69 0 98.0429 13.8919 1362 107.048 1332.6 462.032
70 0 101.168 15.1431 1532 104.524 1332.47 458.871
71 0 105.169 14.1677 1490 105.079 1332 457.654
72 0 106.057 13.9925 1484 105.751 1331.99 453.59
73 0 113.173 15.0831 1707 101.912 1331.67 454.12
74 0 115.182 15.2888 1761 101.886 1331.72 449.748
75 0 117.198 13.5412 1587 104.699 1331.96 449.642
76 0 123.159 14.5503 1792 102.405 1331.88 447.798
77 0 127.298 14.957 1904 101.614 1332.21 446.069
78 0 133.196 14.3849 1916 101.276 1331.98 444.415
79 0 138.287 16.3428 2260 97.0522 1332.39 438.147
80 0 141.244 14.7476 2083 100.476 1332.67 435.69
81 0 146.123 14.433 2109 100.063 1332.86 431.966
82 0 151.125 14.1935 2145 99.5277 1332.2 429.754
83 0 154.102 13.8091 2128 100.315 1332.34 426.352
84 0 156.253 15.2445 2382 99.4895 1332.3 422.23
85 0 161.15 13.8195 2227 102.697 1332.09 417.66
86 0 165.228 13.6962 2263 103.476 1332.35 414.927
87 0 175.219 14.2621 2499 102.435 1332.39 411.247
88 0 180.206 13.2904 2395 105.233 1332.74 408.167
89 0 187.27 14.8822 2787 102.791 1332.57 405.57
90 0 196.592 13.9019 2733 104.434 1332.61 405.522
91 0 202.255 13.9527 2822 106.313 1332.45 397.549
92 0 211.42 14.8945 3149 104.956 1331.84 398.133
93 0 218.291 14.5677 3180 107.268 1331.58 392.335
94 0 227.526 14.7895 3365 107.253 1331.56 390.743
95 0 234.392 12.1932 2858 112.594 1331.57 390.923
96 0 242.473 15.9936 3878 101.026 1331.12 381.031
97 1 205.339 8.29848 1704 110.896 1331.31 417.799
98 0 201.291 10.4774 2109 109.602 1331.57 412.649
99 0 204.361 12.8303 2622 109.555 1332.05 397.604
100 0 203.315 11.4699 2332 115.17 1332.16 385.411
101 0 219.254 13.1446 2882 110.189 1331.73 388.072
102 0 223.197 10.8917 2431 110.159 1332.42 407.322
103 0 219.273 9.22592 2023 107.357 1331.96 413.714
104 1 64.0147 10.0602 644 88.2609 1333.42 469.888
105 0 69.0653 11.2647 778 92.1697 1332.47 475.147
106 0 70.1073 12.5807 882 97.4943 1329.57 475.59
107 0 74.0689 11.4623 849 99.6961 1330.85 474.763
108 0 72.1288 9.89895 714 94.4006 1333.51 475.37
109 0 74.0906 10.1227 750 93.5107 1333.1 475.82
110 0 79.0766 11.2043 886 92.2664 1333.18 473.03
111 0 80.0992 9.66302 774 94.9716 1333.09 474.049
112 0 84.1202 10.9843 924 94.052 1332.73 471.584
113 0 82.1284 9.49732 780 98.2013 1332.87 469.786
114 0 88.1195 10.4063 917 95.8637 1332.91 466.879
115 0 91.1616 10.5966 966 95.3996 1332.11 465.625
116 0 94.1963 10.2764 968 95.2169 1333.01 467.034
117 0 97.2455 10.8283 1053 95.1121 1332.52 461.418
118 0 99.175 9.86135 978 97.0542 1333.13 459.684
119 0 111.133 13.5154 1502 83.3475 1332.66 444.736
120 0 115.243 15.6104 1799 82.4742 1331.84 448.011
121 1 52.0518 9.87478 514 93.5019 1330.2 484.99
122 0 57.0892 10.7376 613 92.4584 1329.85 482.372
123 0 59.0751 11.3754 672 91.6429 1330.37 480.824
124 0 58.1597 9.86937 574 89.9373 1331.5 479.88
125 0 60.1582 10.2895 619 89.1955 1332.1 481.019
126 0 63.0843 10.6841 674 92.7878 1331.03 481.172
127 0 66.0841 11.44 756 88.1349 1332.02 477.033
128 0 65.0906 11.6299 757 90.2206 1332.03 478.897
129 0 67.0727 10.347 694 93.5245 1332.16 476.561
130 0 66.0527 9.09879 601 96.5774 1332.4 474.647
131 0 72.0541 11.8106 851 92.9906 1331.19 476.047
132 0 71.1154 11.2915 803 95.1171 1330.93 474.562
133 0 76.1361 11.8341 901 93.0166 1330.75 476.014
134 0 79.091 13.2379 1047 91.021 1331.2 472.34
135 0 80.0276 13.6703 1094 89.8921 1331.07 475.397
136 0 80.0729 11.1523 893 97.0638 1331.13 470.116
137 0 85.0952 12.1629 1035 95.199 1330.71 469.802
138 0 89.1361 13.844 1234 93.0186 1331.5 468.694
139 0 91.1862 13.0941 1194 95.3291 1331.78 466.184
140 0 92.0658 11.8176 1088 99.0074 1331.18 465.044
141 0 96.1325 12.4516 1197 97.2531 1330.79 464.373
142 0 96.0595 11.9405 1147 100.442 1330.87 463.397
143 0 101.239 14.3917 1457 95.4077 1331.58 460.514
144 1 52.1069 10.2098 532 94.3553 1332.21 486.137
145 0 56.1816 11.1602 627 95.3062 1330.41 481.249
146 0 57.1296 12.2003 697 94.7575 1330.79 477.585
147 0 61.3004 11.7128 718 95.2911 1330 479.412
148 0 59.0494 11.5327 681 95.6079 1330.74 482.206
149 0 61.0779 12.8361 784 93.9834 1330.82 480.258
150 0 64.0778 11.8762 761 95.9264 1330.22 481.113
151 0 66.1095 12.8877 852 94.0739 1330.46 478.919
152 0 67.0411 11.9926 804 97.0597 1330.97 479.09
153 0 70.1316 13.4176 941 94.5866 1331.38 476.849
154 0 73.0766 12.7674 933 96.314 1331.61 476.099
155 0 74.0742 13.23 980 96.5776 1331.33 474.553
156 0 77.0506 13.887 1070 95.9701 1331.14 472.728
157 0 79.089 14.5785 1153 96.2255 1330.98 469.396
158 0 83.0963 15.0067 1247 96.0786 1330.94 470.788
159 0 86.1709 13.45 1159 98.5928 1330.61 469.833
160 0 88.2788 12.6078 1113 102.752 1330.31 464.604
161 0 91.2223 13.9768 1275 99.9765 1330.58 463.631
162 1 47.16 9.79644 462 100.186 1330.5 486.643
163 0 48.0848 12.062 580 96.8897 1331.1 486.766
164 0 50.0557 11.687 585 96.5778 1330.88 485.747
165 0 53.073 11.9835 636 100.192 1332.01 483.788
166 0 54.0714 13.0198 704 94.5284 1331.03 484.374
167 0 55.1349 11.1726 616 98.1656 1331.24 485.172
168 0 56.1112 10.7822 605 99.2149 1331.02 484.25
169 0 59.1016 12.9269 764 94.5157 1331.27 482.732
170 0 62.1022 13.0591 811 93.9457 1331.37 480.472
171 0 63.0548 12.6398 797 95.0163 1331.26 480.021
172 0 66.1207 12.205 807 95.6617 1331.1 480.214
173 0 68.1154 12.3467 841 94.8704 1330.89 480.297
174 0 70.1505 12.9436 908 94.7874 1331.4 475.916
175 0 70.0735 12.758 894 95.9083 1331.41 474.007
176 0 74.1687 12.9839 963 95.406 1331.1 473.296
177 0 76.1279 12.7417 970 95.9876 1331.04 473.481
178 0 79.0998 13.2364 1047 95.1566 1331.19 472.625
179 0 81.0591 12.9165 1047 96.6839 1330.64 468.881
180 0 84.1383 11.8377 996 102.373 1330.33 468.58
181 0 85.0937 11.9633 1018 102.612 1331.21 464.209
182 0 88.1052 11.5771 1020 104.323 1330.91 463.799
183 0 94.1282 12.2174 1150 96.1783 1331.44 463.163
184 0 94.1282 12.2917 1157 131.447 1331.42 463.162
185 0 102.108 12.5357 1280 98.1352 1331.69 460.205
186 1 53.3044 10.8809 580 92.2431 1332.75 479.541
187 0 54.2899 12.1938 662 90.3867 1332.65 480.086
188 0 56.123 10.8868 611 92.3208 1332.17 483.368
189 0 58.1597 11.3137 658 89.8526 1332.66 484.308
190 0 59.1046 11.5896 685 90.7197 1332.27 481.534
191 0 61.1318 10.9763 671 90.7556 1332.25 481.86
192 0 64.1868 11.4977 738 90.3252 1332.17 479.413
193 0 67.0956 12.4747 837 88.3775 1332.18 478.962
194 0 68.0846 10.3841 707 92.0905 1331.98 479.382
195 0 68.143 10.8302 738 93.7371 1331.57 476.244
196 0 73.1384 11.0612 809 92.0902 1331.94 476.625
197 0 75.1479 12.2159 918 91.2396 1332.7 473.575
198 0 77.1656 13.0628 1008 90.5823 1332.26 470.945
199 0 79.1515 10.5115 832 95.4219 1332.34 471.35
200 0 82.2513 12.1943 1003 93.8634 1332.15 469.33
201 0 86.1155 11.9375 1028 94.25 1332.52 468.257
202 0 87.159 11.5192 1004 96.7759 1332.38 466.729
203 0 90.1633 11.7564 1060 97.4462 1332.3 464.206
204 0 95.1961 12.1223 1154 96.708 1332.13 464.567
205 0 96.2983 13.1882 1270 97.2252 1332.13 461.632
206 1 50.056 11.4871 575 93.0852 1333.04 486.988
207 0 50.0755 11.263 564 94.7872 1332.84 485.273
208 0 53.028 10.749 570 95.9386 1332.71 485.407
209 0 54.2323 11.7826 639 94.9374 1332.34 482.387
210 0 56.0708 11.7352 658 103.172 1333.09 483.573
211 0 57.0817 12.8412 733 101.327 1332.93 483.067
212 0 62.0997 12.5927 782 101.856 1333.22 480.867
213 0 61.1346 13.0859 800 100.841 1332.51 480.484
214 0 63.1193 11.8347 747 104.378 1332.91 479.391
215 0 66.1141 13.2952 879 101.545 1333.38 475.792
216 0 67.0507 12.0357 807 104.886 1332.49 474.798
217 0 71.0875 13.9265 990 99.9606 1332.49 474.479
218 0 72.0599 12.9614 934 101.545 1332.37 473.252
219 0 76.088 13.4581 1024 100.031 1332.58 472.57
220 0 75.1778 11.506 865 104.027 1332.6 473.214
221 0 79.0657 13.4192 1061 100.191 1332.12 470.256
222 0 81.0493 12.1408 984 101.241 1332.66 470.578
223 0 82.0904 12.4619 1023 97.7986 1331.49 467.523
224 0 85.0822 9.86106 839 98.23 1331.05 468.613
225 0 88.0548 11.5042 1013 95.2873 1331.65 467.518
226 1 42.0073 11.6884 491 91.4073 1331.15 490.31
227 0 45.0347 10.4364 470 94.7128 1331.63 488.108
228 0 45.2643 10.0079 453 96.4724 1332.53 484.336
229 0 50.0538 12.6464 633 89.1738 1332.32 485.408
230 0 49.086 12.0197 590 90.6763 1332.67 486.178
231 0 52.0259 11.3213 589 92.0815 1332.96 485.326
232 0 53.0282 11.3336 601 92.7338 1332.69 483.463
233 0 52.0228 11.3412 590 95.0508 1331.65 483.727
234 0 55.0359 13.046 718 91.5891 1332.38 481.699
235 0 58.02 12.6336 733 91.8063 1332.41 482.192
236 0 59.0312 11.8581 700 93.7114 1332.21 481.907
237 0 58.0444 12.0597 700 96.2857 1331.41 479.054
238 0 64.0723 13.2507 849 92.8422 1331.57 478.247
239 0 66.0341 13.0539 862 94.0696 1332.27 479.69
240 0 69.0934 12.9824 897 94.68 1332.09 478.447
241 0 69.0424 12.2244 844 98.16 1331.98 474.622
242 0 74.0575 13.9081 1030 94.2456 1331.49 474.142
243 0 75.0683 12.7884 960 97.749 1331.69 473.028
244 0 80.0386 13.5809 1087 95.6881 1331.49 472.213
245 0 82.0659 13.3064 1092 100.736 1331.82 470.223
246 0 84.1009 12.592 1059 106.062 1331.24 471.239
247 1 42.0853 11.7143 493 100.884 1331.09 490.523
248 0 44.0122 11.3378 499 97.0601 1332.64 489.846
249 0 43.0859 13.3687 576 96.849 1331.23 489.72
250 0 43.0616 11.7738 507 102.122 1331.13 488.314
251 0 45.0667 11.9601 539 100.647 1330.99 487.532
252 0 47.0146 13.8042 649 95.6132 1331.17 486.92
253 0 51.097 12.9753 663 96.7104 1331.51 485.905
254 0 52.0249 13.4743 701 96.2611 1331.3 484.411
255 0 52.0214 12.8024 666 98.2297 1331.25 484.635
256 0 54.0127 13.682 739 96.0487 1331.5 483.779
257 0 58.05 13.8846 806 95.2767 1331.18 483.973
258 0 56.056 12.434 697 100.4 1330.87 483.224
259 0 60.0525 12.2393 735 99.6272 1331.15 482.03
260 0 62.0228 11.8344 734 100.729 1331.01 481.95
261 0 61.025 12.6669 773 100.78 1331.63 480.285
262 0 65.0869 12.0147 782 101.606 1330.96 480.972
263 0 67.0494 13.2291 887 100.365 1331.06 477.26
264 0 69.0939 12.5626 868 101.706 1330.21 477.211
265 0 73.0602 12.0996 884 101.171 1330.64 477.575
266 0 75.059 13.3228 1000 98.882 1331.08 476.395
267 0 79.0937 11.6571 922 103.726 1330.73 473.872
268 0 80.0673 12.7892 1024 101.969 1330.63 470.279
269 0 82.0723 12.2087 1002 102.644 1331.62 472.041
270 0 82.0723 12.2453 1005 141.182 1331.63 472.04
271 0 88.1341 11.7208 1033 104.492 1332.02 466.476
272 1 50.0141 11.8767 594 98.2155 1332.34 488.14
273 0 49.0799 10.7376 527 101.898 1333.23 485.898
274 0 49.0127 12.3845 607 98.5074 1332.98 486.496
275 0 51.0534 12.3204 629 95.7552 1331.78 486.723
276 0 51.0142 11.4674 585 97.5812 1332.08 486.627
277 0 53.0617 10.6668 566 98.2756 1332.9 485.733
278 0 55.1006 13.067 720 94.1583 1332.88 483.69
279 0 57.0737 11.2486 642 97.4907 1332.92 482.889
280 0 59.0426 11.0937 655 98.0305 1332.37 483.406
281 0 60.0295 11.2278 674 99.0668 1332.98 480.711
282 0 61.0821 11.3945 696 99.1897 1333.05 480.461
283 0 61.0821 11.4927 702 131.403 1333.1 480.178
284 0 69.0184 11.8519 818 97.7787 1332.91 478.833
285 0 71.1859 11.8703 845 97.0864 1332.18 476.859
286 0 73.1321 12.9492 947 96.0496 1332.85 477.033
287 0 77.0466 12.0317 927 97.2751 1332.67 476.079
288 0 79.1025 11.8707 939 97.6635 1331.85 473.476
289 1 41.007 10.608 435 97.508 1332.11 492.846
290 0 43.0361 12.0364 518 92.2664 1331.46 491.934
291 0 41.0233 11.2375 461 95.6616 1332.89 491.132
292 0 43.0241 11.296 486 94.0597 1332.63 490.103
293 0 45.0178 12.2174 550 91.8782 1333.48 489.2
294 0 45.0363 10.8801 490 94.8531 1333.28 490.055
295 0 48.0342 12.0331 578 92.5173 1334.14 485.708
296 0 49.0538 11.7626 577 94.026 1333.07 487.217
297 0 51.0376 12.2655 626 93.4425 1332.86 486.335
298 0 52.0468 13.2957 692 91.8555 1332.99 484.34
299 0 54.0799 13.0917 708 91.8503 1333.32 484.795
300 0 54.0291 11.864 641 95.1903 1332.6 483.855
301 0 55.0282 10.5219 579 98.9931 1332.75 485.321
302 0 58.0532 11.7134 680 96.5191 1332.55 483.682
303 0 57.0558 11.6027 662 98.0921 1332.65 482.412
304 0 59.1162 10.9445 647 98.5719 1332.54 479.216
305 0 64.1531 11.6128 745 97.0483 1332.39 478.799
306 0 65.0309 11.4868 747 96.7992 1332.61 479.648
307 0 65.0289 10.7029 696 98.0905 1332.8 479.68
308 0 70.0462 11.7637 824 96.1517 1332.22 475.811
309 0 71.1122 10.9826 781 97.0845 1331.62 476.981
310 0 74.1671 12.0404 893 96.0258 1331.26 473.065
311 0 76.1601 11.489 875 97.3383 1330.66 472.847
312 0 78.1871 11.805 923 96.558 1331.23 470.125
313 0 83.0979 12.2626 1019 95.0432 1330.93 469.165
314 1 43.0712 10.5871 456 92.8772 1330.89 488.346
315 0 42.0174 9.75786 410 93.9024 1331.04 482.683
316 0 43.1633 9.52198 411 94.674 1331.6 480.99
317 0 45.0907 10.6674 481 93.8129 1330.86 488.707
318 0 47.1324 11.6056 547 91.7605 1331.28 487.384
319 0 48.0703 10.0478 483 93.882 1331.24 490.238
320 0 50.065 10.9857 550 94.1 1330.87 486.329
321 0 49.0706 11.9623 587 93.1704 1331.05 484.966
322 0 52.0621 11.6207 605 93.9851 1330.77 485.463
323 0 55.0964 12.3783 682 92.9458 1331 484.29
324 0 56.096 12.7104 713 93.6522 1330.76 484.007
325 0 56.0954 10.9278 613 96.8189 1330.66 485.522
326 0 59.0314 10.7231 633 97.8499 1331.05 484.796
327 0 62.1288 12.0878 751 95.968 1331.19 482.655
328 0 63.0362 12.3104 776 97.4085 1331.36 481.643
329 0 66.0787 12.2581 810 97.9025 1330.74 479.581
330 0 70.0639 13.4592 943 96.1697 1330.45 478.926
331 0 69.0193 11.8373 817 102.71 1329.88 477.717
332 0 74.1773 13.4677 999 97.3504 1330.96 476.528
333 0 76.0667 12.8703 979 99.7845 1330.96 475.037
334 0 78.0637 12.1695 950 101.4 1330.88 473.639
335 0 81.0707 12.1869 988 102.013 1331.44 471.602
336 0 83.0411 12.4878 1037 102.378 1330.42 470.445
337 1 47.0381 11.31 532 101.836 1330.42 488.545
338 0 49.0259 12.0752 592 101.066 1330.47 488.228
339 0 50.0886 12.9371 648 99.8982 1330.15 487.214
340 0 49.017 12.5875 617 96.7472 1332.75 488.99
341 0 48.0243 11.4734 551 101.363 1332.67 487.875
342 0 51.0363 13.0691 667 97.6717 1332.6 485.915
343 0 52.0308 11.9929 624 99.7212 1332.8 485.944
344 0 53.0558 10.9696 582 101.277 1333.21 487.103
345 0 57.0671 12.091 690 99.2913 1333.75 484.639
346 0 59.0569 12.2594 724 98.9378 1333.97 483.801
347 0 59.0664 11.1061 656 103.308 1333.83 481.017
348 0 63.0308 12.5336 790 99.7127 1332.87 480.654
349 0 67.0558 13.9734 937 95.7567 1333.41 481.212
350 0 68.0713 13.956 950 97.4337 1333.14 479.766
351 0 70.0396 13.7351 962 98.4875 1333.41 478.743
352 0 73.0366 13.3905 978 98.7055 1334.05 479.025
353 0 76.1191 13.2161 1006 98.4553 1333.84 477.459
354 0 78.0721 12.9624 1012 101.653 1333.84 473.792
355 0 80.1267 13.2041 1058 102.265 1332.75 474.874
356 0 82.1395 11.9431 981 105.773 1332.9 473.801
357 0 86.1638 13.2306 1140 102.669 1332.93 473.144
358 0 90.2045 13.2144 1192 102.917 1333.09 467.914
359 1 47.0077 11.4875 540 97.1778 1332.78 487.77
360 0 48.0479 11.4053 548 95.8029 1332.58 482.349
361 0 49.1894 11.6489 573 92.63 1333.79 481.731
362 0 53.0716 12.3607 656 94.1174 1332.68 484.358
363 0 53.033 12.5582 666 94.7853 1332.93 485.967
364 0 55.0976 11.5794 638 100.491 1332.62 486.679
365 0 57.0314 12.572 717 98.9024 1332.79 484.492
366 0 58.1118 13.3192 774 97.7468 1332.91 484.187
367 0 59.0486 13.074 772 98.1658 1332.93 482.763
368 0 61.074 12.0673 737 100.3 1332.69 481.723
369 0 64.0592 12.4728 799 98.761 1333.09 479.934
370 0 65.0714 12.4786 812 100.261 1332.91 479.22
371 0 68.0594 11.7544 800 100.734 1332.45 480.151
372 0 70.0824 12.7279 892 99.0134 1332.93 477.865
373 0 75.1583 14.3963 1082 95.2348 1332.59 477.919
374 0 74.1559 13.0806 970 99.6134 1332.52 476.223
375 0 77.1041 13.9552 1076 99.145 1332.11 474.003
376 0 78.2324 11.8749 929 103.694 1332.08 474.127
377 0 83.2055 13.1361 1093 101.491 1332.28 470.973
378 0 84.2126 12.9078 1087 102.016 1332.31 469.04
379 0 90.1595 15.0178 1354 95.5288 1332.13 469.495
380 0 92.1287 13.9045 1281 98.9282 1332.13 466.112
381 0 94.0603 12.8003 1204 101.048 1331.62 466.727
382 1 49.0824 12.1632 597 98.871 1331.95 488.422
383 0 50.0305 12.2725 614 95.7704 1331.69 487.827
384 0 54.0489 13.1733 712 96.9017 1332.32 487.31
385 0 55.1091 13.0287 718 98.0696 1332.33 486.277
386 0 56.091 13.2642 744 98.5645 1331.77 484.446
387 0 58.0544 13.4357 780 98.4654 1332.36 482.642
388 0 59.1163 12.0271 711 102.454 1332.56 483.084
389 0 61.1155 15.0044 917 96.4362 1332.3 481.976
390 0 62.1724 11.9346 742 103.067 1332.52 481.879
391 0 65.1835 14.206 926 98.8488 1332.64 479.265
392 0 66.1513 13.9075 920 100.003 1332.78 481.277
393 0 69.0914 13.2578 916 101.775 1332.65 479.912
394 0 69.1193 13.8312 956 102.457 1332.5 478.766
395 0 72.1849 13.7425 992 101.862 1332.52 476.967
396 0 76.1778 14.558 1109 100.745 1332.62 474.941
397 0 76.2404 13.0115 992 104.083 1332.24 474.665
398 0 78.1785 13.5843 1062 103.381 1332.92 474.18
399 0 82.1039 14.8227 1217 100.923 1332.64 471.613
400 0 83.1917 13.9677 1162 104.325 1332.46 468.001
401 0 88.1809 14.9012 1314 100.887 1332.69 469.196
402 0 90.1888 14.5583 1313 102.177 1333.46 467.425
403 0 92.262 16.0521 1481 99.4146 1333.31 464.167
404 0 96.1461 12.9802 1248 103.137 1333.12 466.09
405 0 98.1625 13.9565 1370 101.513 1332.68 464.701
406 0 101.177 13.7679 1393 101.109 1332.7 460.808
407 1 55.0766 10.095 556 99.696 1333.36 487.914
408 0 55.0569 12.5143 689 96.4804 1333.31 486.141
409 0 59.1056 12.926 764 95.6806 1332.33 484.035
410 0 61.0738 12.6404 772 97.1127 1332.04 484.619
411 0 63.0887 13.9803 882 95.5227 1331.92 482.288
412 0 63.0502 12.8152 808 98.4493 1333.08 479.465
413 0 66.1298 14.4413 955 91.777 1333.63 479.128
414 0 69.1086 14.224 983 92.9003 1333.09 477.901
415 0 70.064 13.9444 977 92.7892 1333.53 478.767
416 0 72.105 14.2986 1031 92.8623 1333.12 476.146
417 0 74.1233 12.7355 944 96.0614 1332.97 474.508
418 0 76.0818 13.6432 1038 94.2235 1333.41 476.131
419 0 79.0654 13.6596 1080 93.9741 1333.25 474.31
420 0 81.09 13.7748 1117 93.632 1333.15 473.736
421 0 81.0941 12.9479 1050 96.3952 1333.18 471.222
422 0 85.1236 13.4393 1144 94.4301 1333.69 472.527
423 0 90.1075 13.7502 1239 93.9161 1333.92 469.479
424 0 92.1074 12.5397 1155 96.7965 1333.23 466.901
425 0 96.1759 14.172 1363 92.8019 1333.56 467.025
426 0 96.0561 12.1596 1168 98.714 1333.34 463.137
427 0 103.198 13.6533 1409 94.8297 1333.29 461.189
428 0 104.105 11.0562 1151 100.665 1332.67 459.156
429 1 56.0349 11.8141 662 95.1828 1333.35 485.384
430 0 59.0912 13.4199 793 91.3316 1333.18 482.866
431 0 61.0557 12.3166 752 91.8577 1333.32 484.69
432 0 63.0469 12.4986 788 91.948 1333.21 482.06
433 0 62.0628 10.3766 644 96.5947 1333.85 482.7
434 0 66.0645 11.5796 765 93.9556 1332.98 481.097
435 0 68.0978 11.4101 777 93.9112 1333.93 479.459
436 0 72.1654 14.1204 1019 89.4132 1333.68 476.107
437 0 75.124 14.3496 1078 88.1558 1333.99 476.206
438 0 78.1646 13.5995 1063 90.5155 1333.59 475.246
439 0 82.1472 13.4758 1107 89.6802 1333.45 475.985
440 0 86.1023 13.7743 1186 89.7319 1333.93 472.705
441 0 88.1452 14.3059 1261 88.7026 1333.97 470.412
442 0 91.1186 13.038 1188 91.4613 1333.84 467.052
443 0 95.0773 14.0412 1335 89.2644 1333.66 466.548
444 1 50.0281 11.7134 586 91.7816 1333.6 489.415
445 0 52.0207 10.9187 568 92.257 1333.04 489.632
446 0 52.0264 12.4552 648 88.7901 1334.6 486.778
447 0 53.0514 14.0053 743 86.2517 1334.07 488.674
448 0 55.0706 13.5281 745 87.2993 1334.32 487.38
449 0 56.0791 11.9831 672 90.9211 1334.43 485.071
450 0 62.0757 16.5926 1030 61.3078 1333.63 483.135
451 0 60.0248 12.5948 756 90.1812 1334.25 482.907
452 0 62.0683 12.6957 788 90.3515 1334.45 482.763
453 0 63.086 13.2676 837 90.3059 1333.6 480.346
454 0 67.1177 12.7537 856 90.4696 1334.41 479.687
455 0 69.0336 13.4862 931 88.7615 1334.11 480.258
456 0 71.0604 14.8465 1055 85.9735 1335.06 478.69
457 0 71.0612 12.1726 865 91.8994 1334.84 477.328
458 0 75.1014 13.1955 991 90.774 1334.93 476.964
459 0 77.116 13.0971 1010 91.5802 1334.89 475.423
460 0 79.0624 13.3312 1054 92.0446 1335.12 472.635
461 0 83.0722 12.6878 1054 92.5996 1335.02 473.568
462 0 83.067 13.0497 1084 92.8635 1334.78 472.834
463 0 87.0984 13.6512 1189 92.0092 1334.41 471.269
464 0 87.0546 12.6587 1102 95.4074 1334.5 469.49
465 0 92.1106 13.0495 1202 94.5225 1334.45 465.507
466 0 93.0871 14.2447 1326 93.8032 1335.15 465.268
467 0 97.0439 13.2105 1282 95.1162 1334.68 464.571
468 0 98.0968 13.242 1299 95.6282 1334.47 463.871
469 0 104.074 14.0381 1461 93.4442 1334.86 465.247
470 0 107.2 14.8414 1591 92.6631 1334.49 462.083
471 0 108.068 14.7684 1596 93.589 1334.17 460.499
472 0 112.055 13.297 1490 97.6443 1333.86 456.543
473 0 118.126 13.765 1626 96.4877 1333.16 454.223
474 0 123.214 13.2777 1636 101.262 1333.52 452.496
475 1 67.2279 11.9742 805 97.3652 1334.03 480.75
476 0 68.1863 12.1285 827 94.4498 1333.04 480.553
477 0 72.0822 13.665 985 92.0254 1332.95 479.115
478 0 73.123 13.4157 981 93.8328 1332.88 476.749
479 0 73.1004 11.8741 868 97.9044 1333.1 476.816
480 0 77.1663 13.7495 1061 94.8238 1333.15 473.391
481 0 79.1385 13.7986 1092 95.033 1334.02 474.202
482 0 83.1496 12.7842 1063 97.6303 1334.12 473.907
483 0 87.0777 15.0211 1308 93.5398 1332.84 470.78
484 0 89.2495 13.6583 1219 98.2297 1332.84 468.365
485 0 92.1546 14.4865 1335 97.424 1333.33 466.623
486 0 95.1346 15.5674 1481 97.2066 1332.91 466.802
487 0 99.2179 15.8036 1568 96.2105 1333.56 464.105
488 0 103.225 15.626 1613 97.2777 1333.66 463.211
489 1 53.1123 11.5792 615 101.384 1332.96 488.302
490 0 56.1993 11.7261 659 96.3657 1332.78 488.244
491 0 57.1708 12.8912 737 95.5712 1332.64 485.343
492 0 58.0588 11.9362 693 97.899 1332.65 485.167
493 0 61.1376 13.8867 849 94.3216 1332.67 485.196
494 0 62.0976 12.4159 771 98.677 1333.02 484.621
495 0 65.0743 14.0148 912 95.6645 1332.61 481.528
496 0 67.0607 12.4812 837 98.859 1332.9 481.087
497 0 69.1007 13.5889 939 97.4984 1332.61 480.284
498 0 69.1396 13.3787 925 99.0346 1332.94 481.283
499 0 72.057 12.5317 903 102.377 1332.43 477.27
500 0 76.251 12.131 925 104.587 1333.05 478.445
501 0 78.1364 13.2717 1037 105.954 1333.34 477.151
502 0 81.0688 12.4339 1008 108.207 1333.4 477.847
503 0 84.0402 13.0176 1094 109.09 1333.32 474.725
504 0 87.1734 13.2494 1155 109.904 1333.23 473.303
505 0 90.1376 14.1118 1272 107.909 1333.12 470.515
506 0 94.1551 13.5946 1280 108.568 1333.64 467.693
507 1 52.0809 11.7317 611 108.764 1333.06 490.391
508 0 53.1006 13.013 691 106.116 1333.13 489.145
509 0 52.0348 14.0867 733 107.004 1332.78 488.295
510 0 54.0978 10.7768 583 101.484 1334.7 487.712
511 0 54.1159 10.7916 584 102.385 1334.32 486.572
512 0 57.131 10.5897 605 103.352 1334.64 486.509
513 0 59.1737 11.3226 670 102.245 1334.11 485.212
514 0 59.0494 11.5327 681 104.604 1333.89 482.802
515 0 61.0968 11.0317 674 105.464 1334.23 482.187
516 0 65.1473 12.4487 811 102.523 1333.58 480.948
517 0 67.0636 11.3922 764 105.179 1333.58 481.107
518 0 68.0728 12.2957 837 104.346 1333.81 480.791
519 0 70.1393 10.6787 749 109.632 1333.6 478.96
520 0 70.1393 10.5504 740 142.003 1332.56 478.984
521 0 79.2845 13.0795 1037 104.886 1333.57 476.781
522 0 80.0942 12.2481 981 109.066 1333.45 473.851
523 0 82.0846 12.7429 1046 108.599 1332.84 472.927
524 0 86.0901 13.149 1132 108.669 1332.93 471.496
525 0 88.1562 12.6934 1119 110.467 1333.43 469.554
526 0 93.1754 12.9648 1208 108.971 1333.01 467.979
527 0 95.1313 13.0767 1244 109.043 1332.52 466.055
528 1 46.3072 10.8838 504 111.111 1334.09 488.76
529 0 49.175 11.2862 555 110.683 1333.77 489.142
530 0 51.1244 11.4231 584 109.812 1334.08 490.327
531 0 52.1055 10.9585 571 111.186 1333.47 490.31
532 0 55.0681 12.6207 695 113.363 1333.03 486.563
533 0 56.1334 11.5083 646 111.695 1333.28 485.591
534 0 58.1334 11.9725 696 109.58 1333.23 486.059
535 0 59.0727 11.9514 706 109.728 1332.96 485.221
536 0 61.1414 12.5283 766 107.967 1333.24 483.634
537 0 65.2151 12.8191 836 108.073 1332.5 481.444
538 0 67.0618 12.0784 810 108.875 1333.29 480.531
539 0 69.1641 12.839 888 106.775 1333.17 479.682
540 0 71.1794 11.8012 840 109.415 1333.03 478.748
541 0 74.1186 11.5356 855 109.605 1333.26 476.885
542 0 76.1281 11.9141 907 108.734 1333.2 475.172
543 0 80.2766 11.3234 909 109.251 1333.28 475.465
544 1 39.1771 11.2821 442 106.826 1333.29 492.873
545 0 41.0578 10.9115 448 106.368 1333.5 494.328
546 0 44.1388 12.6646 559 104.122 1333.33 491.792
547 0 45.1238 13.4962 609 104.161 1332.41 492.123
548 0 46.1097 13.3161 614 103.886 1333.14 491.604
549 0 47.0748 12.8307 604 105.368 1333.22 490.068
550 0 48.1825 12.2451 590 106.38 1334.24 489.375
551 0 51.1592 12.51 640 105.822 1333.78 489.047
552 0 52.0588 13.4655 701 103.609 1334.06 487.335
553 0 55.1102 14.3894 793 100.984 1333.49 487.672
554 0 56.0878 13.5145 758 104.11 1333.77 487.471
555 0 56.0878 13.5323 759 139.714 1334.79 487.542
556 0 59.0657 13.7135 810 106.137 1333.62 484.026
557 0 63.1186 13.6568 862 105.508 1333.81 483.991
558 0 63.1202 13.5773 857 107.337 1333.11 482.336
559 0 65.0772 12.8924 839 109.327 1333.4 483.256
560 0 67.0936 14.9344 1002 105.34 1332.63 480.227
561 0 69.1395 13.3643 924 110.086 1333.25 479.984
562 0 72.1594 13.387 966 111.647 1333.52 479.39
563 0 74.1665 14.2113 1054 109.975 1333.41 477.62
564 0 77.1554 13.3497 1030 112.404 1333.28 476.587
565 0 80.1816 14.2926 1146 109.532 1333.68 475.901
566 1 38.0783 11.6864 445 108.245 1333.9 496.485
567 0 38.221 11.1195 425 110.494 1333.79 495.802
568 0 40.1439 12.0566 484 108.101 1333.82 495.155
569 0 41.0196 12.5306 514 107.996 1333.96 494.459
570 0 42.1228 12.2024 514 108.776 1333.42 494.171
571 0 44.1444 13.0481 576 106.622 1333.92 493.477
572 0 44.0166 12.6998 559 108.479 1333.27 492.826
573 0 47.0911 13.3996 631 108.994 1333.34 491.372
574 0 49.1189 13.1925 648 110.086 1332.86 492.264
575 0 53.0809 13.4889 716 110.198 1333.04 489.496
576 0 54.0979 12.7362 689 111.894 1333.14 488.615
577 0 56.0892 12.9258 725 111.462 1333 486.57
578 0 57.2212 13.4915 772 110.916 1332.98 484.24
579 0 59.1454 13.2217 782 112.581 1332.99 483.215
580 0 61.1187 13.9237 851 111.417 1333.03 481.365
581 0 62.3346 14.374 896 111.575 1333.04 480.748
582 0 65.2319 13.0151 849 114.074 1332.93 482.245
583 0 65.3441 14.8751 972 111.963 1333.49 479.816
584 0 67.1207 14.1238 948 114.765 1333.04 478.709
585 0 69.5606 13.3121 926 119.113 1333.19 476.506
586 0 70.2596 13.934 979 117.68 1332.87 476.845
587 0 74.3263 14.6247 1087 116.001 1332.96 474.696
588 0 77.2227 13.8172 1067 117.437 1333.23 475.675
589 0 77.2498 12.7379 984 121.583 1333.01 473.968
590 0 83.4306 13.5082 1127 117.933 1332.98 473.883
591 0 85.5019 13.6839 1170 118.213 1332.67 473.124
592 0 87.4536 14.1904 1241 118.577 1333.26 467.754
593 0 91.4387 14.2172 1300 118.757 1333.02 467.494
594 1 45.2306 13.7517 622 119.719 1332.84 487.59
595 0 46.2181 12.2247 565 115.299 1332.23 489.752
596 0 46.2181 12.2463 566 154.813 1333.22 489.763
597 0 51.039 12.6178 644 114.623 1333.46 489.688
598 0 53.0477 13.8178 733 111.229 1333.7 487.801
599 0 56.2636 13.8989 782 109.867 1333.64 486.821
600 0 58.215 13.5532 789 112.071 1333.59 484.508
601 0 59.1187 13.7858 815 112.427 1333.23 484.13
602 0 61.3626 13.3143 817 112.813 1333.49 485.291
603 0 61.1956 13.0238 797 115.945 1333.26 482.792
604 0 65.3435 12.6868 829 116.502 1333.48 481.812
605 0 67.1252 13.661 917 114.523 1333.33 480.852
606 0 67.1252 13.527 908 158.454 1333.33 480.801
607 0 72.3407 13.5055 977 116.384 1333.55 478.628
608 0 74.2614 13.4659 1000 117.926 1333.69 476.136
609 0 75.2498 13.6877 1030 116.448 1333.84 477.983
610 0 78.2208 13.6537 1068 119.009 1333.84 473.797
611 0 82.298 13.4511 1107 119.191 1332.86 472.38
612 0 85.3411 13.7448 1173 117.038 1333.45 473.09
613 0 86.2264 13.0702 1127 121.075 1333.04 470.861
614 0 92.2128 13.6207 1256 118.157 1332.95 471.654
615 0 94.1388 13.7563 1295 120.015 1332.69 467.185
616 0 97.1023 12.1006 1175 124.278 1332.62 466.568
617 0 101.086 13.6221 1377 123.404 1332.63 461.36
618 1 55.1132 11.177 616 113.972 1332.08 487.985
619 0 56.0375 11.2246 629 112.776 1332.44 488.278
620 0 58.0564 11.5061 668 108.6 1332.92 486.53
621 0 60.0741 10.8366 651 110.028 1332.7 485.123
622 0 63.0422 12.2775 774 108.503 1332.72 483.05
623 0 65.1081 12.4562 811 108.121 1332.43 482.116
624 0 68.0245 10.5256 716 110.698 1332.44 483.036
625 0 71.0456 12.6398 898 107.535 1332.16 480.454
626 0 74.0495 12.5051 926 108.107 1332.28 478.548
627 0 75.0583 11.9374 896 113.134 1332.16 474.5
628 0 79.1027 11.011 871 113.479 1332.65 474.584
629 0 82.154 12.4157 1020 110.53 1332.27 473.146
630 0 84.0742 10.8595 913 114.018 1332 472.911
631 0 88.0868 11.5795 1020 112.463 1331.96 471.206
632 0 92.1413 11.8188 1089 112.871 1331.98 467.254
633 1 49.0194 9.79204 480 104.358 1332.09 491.535
634 0 49.0734 9.76089 479 104.236 1332 490.754
635 0 50.0881 8.9642 449 106.871 1331.6 490.216
636 0 55.0787 10.839 597 103.744 1331.38 487.653
637 0 56.0714 10.8255 607 103.048 1332.43 487.29
638 0 59.127 10.3844 614 102.958 1332.41 487.042
639 0 60.0952 11.4652 689 102.916 1331.83 483.312
640 0 62.0732 10.0688 625 105.931 1331.42 482.821
641 0 65.1226 10.1962 664 105.176 1332.14 483.256
642 0 68.1366 11.0807 755 104.183 1332.6 480.381
643 0 69.1684 11.0744 766 104.383 1332.8 477.849
644 0 73.0704 11.5642 845 102.383 1332.32 479.417
645 0 75.0783 10.6156 797 106.072 1332.45 475.429
646 0 79.0817 11.9497 945 103.556 1332.42 474.89
647 0 82.1404 10.8716 893 107.427 1332.74 473.736
648 1 38.068 7.95944 303 104.967 1332.9 494.752
649 0 42.0397 11.0134 463 99.1641 1332.67 493.639
650 0 44.0515 11.4411 504 99.2163 1331.59 494.056
651 0 46.0538 11.9425 550 99.2327 1331.59 491.764
652 0 48.0503 10.2601 493 104.018 1331.17 491.564
653 0 48.022 11.4739 551 102.682 1330.73 489.889
654 0 50.1615 10.2469 514 105.043 1330.86 489.506
655 0 52.0755 10.4848 546 103.181 1331.59 489.319
656 0 53.0459 10.538 559 102.399 1332.22 489.161
657 0 56.0484 11.2224 629 101.366 1331.47 486.17
658 0 57.0631 12.1094 691 99.9884 1331.36 485.779
659 0 60.0798 10.8855 654 102.24 1331.14 484.723
660 0 63.1513 11.2903 713 100.452 1331.55 483.895
661 0 63.1502 10.9263 690 101.432 1332.04 482.561
662 0 67.1129 10.0279 673 113.383 1331.95 482.094
663 0 70.1424 9.30964 653 114.317 1331.72 481.092
664 0 73.1338 9.94068 727 114.083 1331.09 478.85
665 0 73.2449 10.8813 797 109.345 1331.31 479.46
666 0 77.1695 10.924 843 109.537 1330.78 477.364
667 0 77.1743 10.8715 839 144.775 1329.78 477.505
668 1 43.0279 9.13361 393 110.219 1330.49 493.985
669 0 45.03 12.3473 556 104.707 1330.5 492.016
670 0 46.0611 10.9854 506 100.518 1330.9 492.312
671 0 48.104 11.0178 530 106.126 1333.71 492.696
672 0 49.1092 11.8511 582 106.227 1333.47 490.352
673 0 51.0349 10.4242 532 108.942 1333.77 490.831
674 0 55.1208 10.3228 569 108.844 1333.57 490.415
675 0 54.0609 10.1552 549 111.208 1333.78 488.219
676 0 53.1346 11.8002 627 108.978 1334.43 488.247
677 0 57.3409 10.952 628 111.084 1333.36 486.352
678 0 57.0548 10.3234 589 114.48 1330.96 484.981
679 0 62.0932 10.4359 648 113.48 1331.18 485.4
680 0 62.1302 10.7999 671 114.358 1330.74 484.794
681 0 63.0347 11.5809 730 112.149 1330.81 484.708
682 0 64.0551 12.0365 771 112.051 1331 484.392
683 0 66.029 11.9947 792 111.785 1330.32 483.678
684 0 64.0584 11.0368 707 114.557 1330.17 483.909
685 0 69.0633 11.3519 784 114.494 1330.46 480.787
686 0 72.0498 11.2006 807 116.057 1330.32 480.674
687 0 73.1065 11.6132 849 115.485 1330.58 479.833
688 0 75.2573 12.4772 939 111.216 1333.06 480.402
689 0 77.2102 11.6953 903 115.079 1332.36 476.495
690 0 78.1892 10.4106 814 118.633 1332.87 476.001
691 1 40.0203 9.12036 365 114.233 1333.18 495.077
692 0 40.0246 10.2687 411 112.039 1333.75 495.046
693 0 44.0828 11.5918 511 108.401 1332.94 492.92
694 0 45.0963 12.2627 553 98.1175 1333.02 492.684
695 0 46.158 11.569 534 100.255 1333.39 490.949
696 0 47.1203 12.7546 601 97.8286 1333.41 490.985
697 0 49.1498 11.9024 585 99.2974 1333.43 490.002
698 0 50.0499 11.029 552 101.558 1333.23 487.357
699 0 51.1284 12.3806 633 98.6935 1333.27 489.101
700 0 51.1218 11.0325 564 101.399 1333.43 489.787
701 0 53.0764 11.9262 633 99.2322 1332.92 487.359
702 0 56.2041 12.4546 700 97.1957 1333.15 485.753
703 0 57.0882 11.7012 668 98.7859 1333.2 485.946
704 0 59.1431 12.1231 717 97.5649 1333.12 483.11
705 0 59.0807 12.2206 722 99.1884 1332.78 483.129
706 0 63.09 12.506 789 96.7579 1333.77 484.427
707 0 63.0453 13.0541 823 95.7752 1333.44 484.069
708 0 63.1413 11.8781 750 100.088 1333.59 481.479
709 0 65.0383 11.5317 750 99.9267 1333.28 481.464
710 0 69.1044 13.6171 941 95.8597 1333.52 480.194
711 0 70.1354 12.4188 871 98.8542 1333.39 479.387
712 0 72.1514 11.5452 833 101.15 1333.62 476.289
713 0 76.137 12.3987 944 98.822 1332.99 477.184
714 0 78.0892 12.5113 977 99.1116 1332.93 475.475
715 0 78.1171 11.47 896 102.952 1332.58 473.802
716 0 80.2169 12.8153 1028 100.517 1332.64 473.424
717 0 85.1066 13.442 1144 98.2841 1332.74 471.344
718 0 88.0982 13.5644 1195 99.0695 1332.9 469.828
719 0 91.1768 13.3587 1218 99.5353 1333.12 468.081
720 0 93.1541 13.3972 1248 99.6226 1333.29 469.139
721 0 98.1677 13.6297 1338 100.288 1333.23 465.529
722 0 104.138 15.3835 1602 96.3739 1333.19 462.432
723 1 52.0799 11.3095 589 104.419 1333.75 488.643
724 0 54.3341 11.1716 607 109.005 1333.19 487.147
725 0 55.1754 12.8862 711 106.684 1333.39 486.467
726 0 58.2003 12.5601 731 107.516 1333.48 485.77
727 0 60.2053 13.2048 795 106.164 1333.29 484.938
728 0 61.1359 11.8915 727 109 1333.27 484.241
729 0 63.1505 12.6523 799 108.67 1333.14 482.299
730 0 68.1905 13.6969 934 103.632 1333.32 483.014
731 0 70.2167 13.5153 949 104.573 1332.57 480.691
732 0 72.2109 13.4744 973 104.472 1332.68 480.483
733 0 75.2146 14.2393 1071 102.201 1332.29 478.725
734 0 75.1358 13.3092 1000 105.842 1332.71 475.349
735 0 77.2096 12.6798 979 106.033 1332.15 475.491
736 0 80.202 13.1667 1056 104.341 1332.69 474.351
737 0 85.1466 14.2578 1214 101.184 1332.09 473.166
738 0 87.2497 13.6276 1189 102.471 1332.28 472.442
739 0 88.2009 13.2085 1165 104.4 1332.13 470.869
740 0 91.2401 12.922 1179 104.803 1332.48 470.422
741 0 92.1748 11.8145 1089 107.866 1332.41 467.336
742 0 95.281 12.4054 1182 106.425 1331.82 465.712
743 0 101.422 13.6657 1386 102.68 1331.36 462.242
744 0 101.186 11.4344 1157 97.86 1331.52 462.443
745 0 106.101 12.3185 1307 95.3466 1331.46 463.164
746 0 109.139 12.1863 1330 96.879 1331.91 460.923
747 0 110.183 12.3975 1366 96.3236 1331.76 454.503
748 1 65.1205 11.425 744 93.1626 1331.23 483.194
749 0 67.0854 12.1636 816 94.2414 1331.6 481.52
750 0 70.1532 11.4036 800 90.9312 1331.5 480.772
751 0 70.0662 11.375 797 91.5169 1331.94 478.522
752 0 74.0794 12.3651 916 89.2205 1331.61 478.73
753 0 74.0831 11.2036 830 90.641 1331.19 478.27
754 0 77.1005 11.5045 887 90.0823 1331.19 477.766
755 0 81.053 11.9181 966 87.7153 1331.26 476.41
756 0 85.0858 12.6461 1076 87.2203 1331.31 471.876
757 0 87.1054 12.835 1118 85.9642 1331.46 471.301
758 0 88.1312 10.3028 908 87.6101 1332.3 465.628
759 0 93.09 10.5167 979 86.3228 1332.42 467.322
760 0 96.1338 11.2239 1079 84.9898 1332.12 465.643
761 0 101.105 11.4337 1156 84.0597 1332.26 462.891
762 0 104.14 11.475 1195 84.8268 1332.07 462.658
763 0 111.146 12.749 1417 82.8052 1332.12 457.406
764 1 47.113 11.4193 538 79.8643 1332 488.519
765 0 50.1383 10.8101 542 80.4483 1332.71 487.247
766 0 49.1703 11.4907 565 77.9345 1331.35 489.635
767 0 53.0731 11.0602 587 78.552 1331.41 486.802
768 0 54.2063 13.3933 726 74.7645 1332.36 485.35
769 0 54.1072 10.627 575 79.2209 1331.55 487.014
770 0 58.0663 11.5213 669 76.9552 1331.66 485.907
771 0 60.1273 12.6565 761 76.0618 1331.87 484.736
772 0 60.1071 10.265 617 80.5883 1331.09 483.357
773 0 65.1418 12.1427 791 76.493 1331.28 483.989
774 0 65.0586 11.8355 770 78.3429 1331.55 482.606
775 0 69.1573 11.8859 822 77.927 1332.03 480.932
776 0 72.1499 11.684 843 78.9442 1331.4 477.138
777 0 72.1563 10.505 758 81.3298 1331.56 477.003
778 0 77.0769 11.1058 856 80.3271 1331.73 477.265
779 0 79.1502 10.9791 869 81.2474 1332.29 475.031
780 0 82.2275 11.529 948 81.5485 1332.61 474.031
781 0 85.2621 11.4236 974 82.8881 1332.51 473.68
782 1 44.0893 11.4087 503 81.9742 1332.27 492.797
783 0 46.0998 12.4295 573 80.1361 1332.14 491.637
784 0 45.1181 11.6583 526 81.3593 1332.06 491.523
785 0 47.068 11.9827 564 81.7482 1331.46 490.452
786 0 48.1082 11.1623 537 83.5587 1331.83 489.981
787 0 49.1091 11.7494 577 83.5165 1332.08 490.513
788 0 50.1084 10.7567 539 86.8089 1331.56 490.456
789 0 50.0809 10.7426 538 87.9331 1331.56 489.247
790 0 52.0663 10.9476 570 87.7561 1332.2 488.116
791 0 55.0896 12.0894 666 86.539 1332.55 488.614
792 0 57.1314 11.9549 683 87.3982 1332.76 486.676
793 0 59.1093 12.0793 714 87.3712 1332.65 486.133
794 0 61.122 12.7286 778 87.4974 1332.47 485.045
795 0 62.1347 11.9579 743 89.677 1332.54 486.655
796 0 65.0739 13.0621 850 88.0976 1332.93 482.704
797 0 64.0513 11.522 738 93.351 1332.16 482.481
798 0 68.0837 12.9106 879 90.6428 1331.83 480.738
799 0 71.0834 12.9707 922 90.2787 1332 482.499
800 0 73.0796 15.2026 1111 87.0333 1331.81 477.682
801 0 75.1044 13.2083 992 92.3649 1331.62 478.44
802 0 78.1241 14.9762 1170 89.7 1332.32 476.329
803 0 82.084 13.6446 1120 93.4589 1331.67 475.972
804 0 82.115 13.2375 1087 96.035 1331.46 474.385
805 0 87.1896 14.1875 1237 93.1188 1332.13 474.035
806 1 45.0697 10.4727 472 91.8814 1333.05 491.663
807 0 46.0429 10.4251 480 93.3042 1333.01 490.938
808 0 47.1094 10.465 493 92.6268 1333.25 490.46
809 0 50.0536 12.2069 611 96.4419 1331.87 490.511
810 0 51.0535 11.9287 609 96.3711 1331.83 491.691
811 0 53.0935 12.2049 648 96.4645 1331.01 488.759
812 0 54.0293 11.901 643 97.2908 1331.3 487.491
813 0 56.0823 12.4282 697 96.1521 1331.36 487.44
814 0 56.071 12.4485 698 98.1132 1330.99 487.327
815 0 59.0636 11.3606 671 99.0373 1331.66 486.24
816 0 62.1224 12.3949 770 97.6948 1331.02 484.031
817 0 66.0535 12.4445 822 96.1898 1331.22 483.984
818 0 66.0437 12.9308 854 96.6639 1331.41 483.347
819 0 69.0726 13.4786 931 96.0881 1331.3 480.603
820 0 71.0434 13.1187 932 96.4217 1331.82 481.932
821 0 73.0955 13.7354 1004 95.5239 1331.85 479.561
822 0 75.0563 13.0569 980 98.1326 1331.99 476.672
823 0 79.073 13.7974 1091 95.0376 1331.87 476.79
824 0 82.0762 13.7921 1132 95.3004 1332.17 475.794
825 0 82.1048 13.0199 1069 99.1057 1331.12 472.661
826 0 85.1515 14.1865 1208 95.9818 1331.56 474.816
827 0 89.0953 13.1769 1174 97.4864 1331.96 473.049
828 0 92.2395 13.118 1210 98.1479 1331.79 469.059
829 0 95.2306 13.4516 1281 97.861 1332.29 468.173
830 1 49.0476 12.5388 615 91.4163 1333.56 491.538
831 0 49.1473 12.5541 617 91.6159 1333.59 489.668
832 0 52.1611 12.0013 626 92.0767 1333.41 490.934
833 0 54.226 11.5812 628 93.3774 1332.57 489.126
834 0 53.1744 12.3744 658 92.0684 1332.84 488.313
835 0 56.1975 12.5273 704 91.3679 1332.61 486.253
836 0 58.2046 11.6314 677 91.8213 1332.53 487.149
837 0 58.2679 12.4769 727 90.7483 1332.48 484.212
838 0 59.1947 12.5687 744 90.9879 1331.99 482.801
839 0 63.158 12.54 792 90.322 1331.95 483.057
840 0 62.2058 11.9764 745 91.1946 1332.58 484.162
841 0 65.1594 11.0498 720 93.475 1332.18 483.054
842 0 66.228 12.0795 800 91.395 1332.36 480.782
843 0 70.2025 13.2474 930 89.529 1331.67 479.68
844 0 72.2101 11.5635 835 92.0491 1331.88 477.672
845 0 71.2427 11.2854 804 93.9316 1332.52 476.795
846 0 75.2332 11.8166 889 93.0652 1332.98 474.488
847 0 79.2203 11.8025 935 93.2834 1332.43 474.679
848 0 80.2641 11.4123 916 97.012 1332.19 472.595
849 0 83.1696 10.9535 911 101.929 1332.51 473.73
850 0 86.2097 12.3768 1067 100.311 1331 467.963
851 0 90.3683 12.8806 1164 98.0782 1332.22 468.879
852 0 93.3876 13.4921 1260 97.3087 1331.89 465.295
853 0 94.4429 12.4096 1172 100.181 1331.77 465.663
854 0 99.2952 12.2564 1217 99.1044 1331.81 464.316
855 0 102.29 13.0903 1339 97.3226 1331.16 463.152
856 1 52.175 8.83566 461 94.7158 1331.82 488.694
857 0 57.303 11.0814 635 90.537 1331.39 486.945
858 0 57.0814 10.4412 596 90.9899 1331.78 486.732
859 0 61.0689 11.0695 676 89.0991 1332.31 485.404
860 0 62.1922 10.8856 677 91.6839 1331.29 484.137
861 0 63.1721 10.7801 681 93.0338 1331.98 482.843
862 0 64.0428 11.2112 718 93.0404 1332.72 481.614
863 0 68.1988 11.7011 798 90.9386 1332.72 481.472
864 0 69.1382 11.2818 780 93.6449 1332.03 480.146
865 0 72.263 13.7138 991 90.2089 1332.43 477.432
866 0 73.3505 10.4157 764 96.3325 1332.59 478.949
867 0 75.2534 11.8799 894 95.849 1332.27 476.356
868 0 79.2968 12.0055 952 95.3372 1332.86 475.519
869 0 79.3385 11.9362 947 98.1383 1331.95 472.375
870 0 84.1788 11.5587 973 99.2744 1332.29 474.486
871 1 43.073 11.1903 482 96.0208 1332.74 492.465
872 0 43.0495 10.2905 443 98.2641 1332.53 494.131
873 0 44.06 12.1425 535 95.8075 1333.05 490.993
874 0 45.0172 10.7959 486 99.7222 1332.88 491.603
875 0 50.1388 13.8017 692 92.1792 1332.15 490.092
876 0 51.0901 12.2137 624 95.9407 1333.23 490.434
877 0 51.0689 12.4146 634 97.0962 1333.13 488.576
878 0 50.0775 12.8601 644 97.1537 1332.57 490.539
879 0 52.0916 12.8811 671 97.2504 1332.29 487.624
880 0 54.1441 12.8177 694 96.9164 1332.17 488.04
881 0 54.1441 12.7992 693 145.999 1331.16 487.941
882 0 56.1078 13.9018 780 95.4833 1333.08 484.672
883 0 58.1552 12.8106 745 97.4201 1332.45 485.2
884 0 60.1556 12.8168 771 97.192 1332.08 484.966
885 0 62.1433 13.1309 816 97.0613 1332.24 482.982
886 0 65.1501 14.1212 920 94.7044 1332.71 482.227
887 0 65.138 13.7554 896 97.0792 1332.81 481.364
888 0 66.083 12.8324 848 99.237 1332.18 480.519
889 0 69.0607 12.9451 894 98.9284 1332.15 479.509
890 0 72.0937 13.427 968 98.7521 1332.12 479.702
891 0 74.0272 13.414 993 99.2377 1331.65 476.54
892 0 78.1049 13.7635 1075 97.707 1331.67 475.82
893 0 79.0338 11.8683 938 102.829 1331.33 474.58
894 0 82.0911 13.7165 1126 98.5764 1331.93 471.687
895 0 84.046 13.4569 1131 99.5066 1331.94 468.378
896 0 89.1122 13.6569 1217 98.5472 1332.17 469.615
897 1 48.1336 11.0526 532 100.038 1331.73 491.562
898 0 48.1681 12.2072 588 96.3792 1332.26 489.279
899 0 50.1126 13.0706 655 94.142 1332.23 487.6
900 0 52.1259 12.4698 650 92.7554 1332.33 488.595
901 0 51.1689 12.6053 645 93.8775 1332.01 488.445
902 0 52.1138 11.686 609 96.8654 1331.86 487.294
903 0 55.1194 12.228 674 94.8071 1331.93 487.999
904 0 56.1017 11.3722 638 96.4953 1332.37 486.429
905 0 58.0839 11.6039 674 95.9036 1331.71 485.54
906 0 61.0564 10.564 645 96.0992 1332.23 485.51
907 0 63.1289 12.324 778 93.4113 1332.09 483.454
908 0 65.1559 12.8308 836 92.3122 1332.26 482.605
909 0 65.0975 11.7823 767 95.8774 1331.92 479.844
910 0 70.0485 11.2779 790 95.181 1332.27 480.206
911 0 72.1114 10.6502 768 96.819 1332.24 479.438
912 0 75.1527 11.8958 894 94.0872 1331.86 479.287
913 0 76.0347 12.5338 953 94.6716 1331.64 475.017
914 0 81.1163 11.9951 973 94.629 1331.36 473.938
915 0 83.1094 12.5618 1044 93.6868 1331.53 473.444
916 1 43.0096 11.6951 503 91.2465 1331.43 492.131
917 0 44.0079 10.1345 446 92.5695 1332.67 491.778
918 0 48.0405 11.1156 534 89.1629 1332.51 490.581
919 0 45.1237 10.5488 476 90.3718 1331.31 490.183
920 0 48.0234 12.8687 618 85.301 1331.43 489.105
921 0 49.0681 11.535 566 88.6961 1331.41 489.253
922 0 50.0111 11.6174 581 89.3735 1331.93 488.241
923 0 50.0741 9.18638 460 93.3217 1332.12 489.039
924 0 53.0315 9.42836 500 91.842 1331.76 490.038
925 0 55.0814 10.7477 592 88.9443 1332.86 484.218
926 0 56.1288 10.5294 591 89.4162 1333.13 485.014
927 0 59.1356 10.9917 650 88.2538 1332.41 482.938
928 0 59.092 10.9152 645 89.5767 1332.98 482.088
929 0 64.1549 11.8775 762 88.4265 1332.6 480.84
930 0 65.116 12.7311 829 85.8673 1332.98 480.551
931 0 67.2096 11.7394 789 88.5082 1332.71 477.821
932 0 70.165 13.3542 937 85.1142 1332.67 477.482
933 0 70.0722 10.1467 711 90.6343 1332.6 480.806
934 0 74.0902 12.4443 922 88.0727 1332.67 474.677
935 0 76.0653 11.569 880 91.6784 1330.25 476.993
936 0 79.0867 13.0996 1036 89.6863 1330.56 473.391
937 0 82.126 11.8598 974 92.0308 1331.14 473.677
938 0 85.1315 13.0269 1109 90.6925 1331.62 471.187
939 0 87.2109 11.2027 977 94.5916 1330.86 468.787
940 0 93.0735 12.2806 1143 92.4304 1330.88 469.872
941 1 47.0562 12.857 605 90.8446 1330.54 491.623
942 0 49.0645 11.8212 580 95.8672 1330.52 488.479
943 0 51.0674 12.6304 645 93.8884 1331.02 488.674
944 0 51.0465 12.0282 614 95.3778 1331.18 489.161
945 0 53.1026 13.2197 702 93.7721 1332.07 487.813
946 0 53.1267 12.7996 680 95.5441 1331.22 487.279
947 0 55.1062 12.8116 706 95.0567 1331.12 485.646
948 0 57.0716 12.423 709 95.9901 1331.57 484.179
949 0 57.0699 13.2995 759 95.1094 1331.97 482.852
950 0 58.056 11.9368 693 97.9697 1331.22 483.967
951 0 63.0962 13.4873 851 93.1692 1331.37 483.108
952 0 65.0552 14.0035 911 92.3096 1331.34 480.282
953 0 65.1266 12.8519 837 96.0275 1330.59 480.608
954 0 69.0365 12.4427 859 96.4563 1330.57 478.324
955 0 69.1148 12.9784 897 95.5396 1330.34 477.641
956 0 74.1007 13.3872 992 93.7006 1330.43 477.796
957 0 73.0603 12.4692 911 97.7201 1330.33 476.024
958 0 77.0374 12.1759 938 98.4008 1330.39 475.865
959 0 80.1079 13.5317 1084 95.3284 1331.02 473.22
960 0 81.1496 12.6433 1026 98.0663 1330.37 473.561
961 0 84.1352 13.3 1119 96.6542 1329.95 471.219
962 0 86.0678 13.0827 1126 98.333 1330.17 468.231
963 0 89.2255 11.9248 1064 99.1504 1331.83 470.061
964 0 91.2408 11.5957 1058 100.158 1331.71 466.232
965 0 94.2306 12.3633 1165 98.4481 1331.74 464.555
966 1 48.0422 9.38757 451 96.4945 1333.33 488.104
967 0 48.0654 11.7132 563 91.4263 1332.8 484.579
968 0 49.0337 11.176 548 90.0894 1330.51 482.989
969 0 52.0544 11.3343 590 88.8186 1330.38 481.624
970 0 53.0392 11.3312 601 89.3378 1330.58 481.058
971 0 54.0516 11.637 629 89.1971 1330.29 479.45
972 0 54.2175 9.99677 542 85.2066 1331.24 480.972
973 0 56.1778 9.59455 539 86.3803 1331.37 478.369
974 0 61.0364 11.9273 728 88.7596 1332.04 483.978
975 0 64.1064 13.5088 866 85.9527 1332.28 481.954
976 0 65.0764 13.1538 856 87.7488 1332.23 480.388
977 0 67.1224 11.7099 786 89.7659 1332.82 481.537
978 0 68.1282 11.8893 810 91.4728 1332.14 477.969
979 0 72.1104 12.3422 890 90.464 1332.04 478.269
980 0 74.153 12.6225 936 90.1111 1332.09 478.255
981 0 75.0937 12.3978 931 91.956 1331.6 476.2
982 0 78.1577 12.4236 971 92.5479 1331.83 476.186
983 0 80.1326 12.9286 1036 92.8224 1331.9 473.353
984 0 83.2399 12.2417 1019 93.8214 1332.08 472.33
985 0 86.1175 11.8791 1023 94.8729 1332.07 469.994
986 0 90.1351 12.8807 1161 92.7735 1332 469.628
987 0 95.1635 12.6519 1204 93.6719 1331.88 466.603
988 1 50.0886 12.8373 643 91.4728 1332.06 489.012
989 0 50.0315 12.2123 611 91.0491 1332.86 487.989
990 0 53.1366 12.6655 673 86.5617 1332.72 486.936
991 0 54.1038 14.8418 803 83.3362 1333.17 486.89
992 0 54.08 12.5925 681 88.536 1333.41 485.347
993 0 56.1018 12.9942 729 88.2785 1333.7 487.106
994 0 57.1074 12.2226 698 90.1318 1333.58 484.875
995 0 60.1074 14.0249 843 86.7544 1333.39 484.867
996 0 60.1394 13.6849 823 87.842 1332.84 483.801
997 0 65.1154 14.0059 912 86.8136 1333.02 483.305
998 0 63.1014 13.1851 832 90.3594 1332.95 480.941
999 0 68.0925 13.3201 907 89.5612 1332.35 480.619
1000 0 69.0648 13.6249 941 89.1243 1332.63 480.656
1001 0 72.0588 13.7665 992 89.0081 1332.37 478.597
1002 0 75.1135 13.4996 1014 89.1972 1331.93 476.534
1003 0 76.0583 12.6482 962 91.5634 1331.94 476.344
1004 0 77.1316 12.174 939 92.6443 1331.86 477.188
1005 0 78.1406 12.8998 1008 92.1062 1332.29 473.738
1006 0 83.0957 13.8515 1151 90.0043 1332.04 472.953
1007 0 88.2773 13.9334 1230 89.5374 1331.73 472.69
1008 0 89.3375 12.3576 1104 93.2038 1331.46 470.308
1009 0 91.1547 13.5045 1231 90.3989 1331.35 466.338
1010 0 96.1634 13.4667 1295 90.0734 1331.91 466.762
1011 0 96.2831 12.5048 1204 93.7135 1332.01 464.681
1012 0 101.124 12.8357 1298 91.6132 1331.82 466.272
1013 0 103.342 12.8312 1326 92.2783 1331.65 461.808
1014 1 55.0912 12.6336 696 93.5072 1331.72 485.803
1015 0 61.1906 13.7113 839 91.6007 1331.79 484.446
1016 0 62.1749 12.304 765 99.332 1331.56 481.625
1017 0 64.1661 14.0417 901 95.5405 1331.37 481.496
1018 0 66.1004 13.8275 914 96.7691 1332.21 478.553
1019 0 69.1677 14.8913 1030 94.5097 1332.02 477.596
1020 0 71.3123 13.3918 955 98.0209 1331.84 477.342
1021 0 75.1098 14.9781 1125 94.8622 1331.76 475.924
1022 0 77.3996 13.3076 1030 98.599 1331.23 475.513
1023 0 79.3514 13.7994 1095 99.1269 1331.38 471.567
1024 0 81.3003 13.4686 1095 100.89 1331.02 470.61
1025 0 86.444 14.2173 1229 98.0887 1331.35 469.114
1026 0 88.3228 14.7187 1300 97.8738 1330.97 466.771
1027 0 92.3177 14.3418 1324 98.4396 1331.11 465.014
1028 0 95.3907 14.5192 1385 98.0238 1331.33 465.081
1029 0 98.3374 14.0028 1377 100.521 1331.26 460.288
1030 0 100.146 12.8113 1283 97.8488 1331.82 460.557
1031 0 105.146 13.6762 1438 95.4924 1331.9 461.259
1032 1 51.0215 9.79978 500 93.09 1331.8 488.96
1033 0 53.0679 11.099 589 89.6859 1331.84 487.1
1034 0 54.1736 11.7216 635 89.0803 1332.96 487.032
1035 0 56.1068 12.1554 682 89.6246 1332.59 484.463
1036 0 59.1766 12.7077 752 88.7979 1332.29 485.219
1037 0 60.0635 11.4712 689 91.9768 1332.45 484.016
1038 0 62.0563 12.8593 798 89.896 1332.16 481.909
1039 0 64.067 12.6586 811 91.6498 1332.31 480.199
1040 0 67.0656 12.5996 845 91.4568 1331.5 480.633
1041 0 68.1011 11.5564 787 94.9339 1331.52 479.451
1042 0 72.0685 13.1264 946 92.3594 1332.07 477.153
1043 0 74.2893 13.7436 1021 91.76 1332.47 474.318
1044 0 77.1943 13.317 1028 93.9222 1332.51 473.397
1045 0 80.205 12.7798 1025 94.8224 1331.76 470.973
1046 0 82.2037 12.542 1031 95.6605 1332.68 470.146
1047 0 85.2668 14.0148 1195 94.5146 1332.62 469.32
1048 0 88.1824 13.7329 1211 94.2552 1332.33 469.595
1049 0 90.1179 12.9497 1167 97.2408 1331.83 469.076
1050 0 92.2413 11.3615 1048 103.325 1331.34 465.271
1051 0 97.2154 13.6604 1328 98.8102 1331.88 461.233
1052 1 49.0417 9.74681 478 97.7092 1331.35 489.044
1053 0 52.1098 10.1324 528 97.767 1331.01 487.913
1054 0 54.2216 11.0288 598 97.6706 1330.58 484.963
1055 0 56.0602 12.2904 689 92.8592 1331.79 486.948
1056 0 59.1531 12.9495 766 92.1306 1330.41 483.57
1057 0 62.1433 12.1654 756 93.4537 1330.53 482.003
1058 0 63.24 11.8438 749 93.7503 1330.31 481.14
1059 0 64.093 12.9187 828 92.0978 1329.86 481.739
1060 0 67.1514 12.8664 864 92.2106 1330.18 480.324
1061 0 68.2042 11.6122 792 94.9419 1330.1 478.02
1062 0 71.1122 12.7967 910 92.3703 1330.33 477.268
1063 0 74.1147 13.2497 982 92.0733 1330.13 477.383
1064 0 77.1054 13.8382 1067 89.9653 1330.68 476.355
1065 0 80.06 14.1894 1136 89.6312 1330.24 475.476
1066 0 82.1134 13.2621 1089 92.1873 1330.26 472.516
1067 0 83.1027 13.7059 1139 91.7261 1331.19 470.728
1068 1 45.0623 10.9404 493 95.9533 1331.14 492.099
1069 0 44.0438 10.6939 471 94.3949 1330.63 491.017
1070 0 46.1028 12.4071 572 89.8584 1329.86 488.643
1071 0 46.0483 11.2274 517 94.1141 1329.47 490.176
1072 0 48.0548 10.6337 511 94.998 1329.85 489.642
1073 0 50.0908 12.1779 610 92.077 1330.35 487.754
1074 0 51.0581 12.5152 639 91.6745 1330.58 487.562
1075 0 52.0548 12.0642 628 92.8631 1330.75 486.817
1076 0 53.0138 12.0535 639 92.9327 1330.59 486.601
1077 0 55.1063 13.2834 732 90.6926 1331.33 485.298
1078 0 56.0987 13.1197 736 91.7636 1331.33 485.848
1079 0 57.0858 13.5761 775 91.1974 1331.12 485.147
1080 0 60.0683 15.2493 916 90.1638 1331.2 482.513
1081 0 63.1397 14.7926 934 88.4914 1330.77 483.179
1082 0 65.0796 13.9214 906 92.3278 1331.24 482.728
1083 0 67.175 14.0528 944 91.6091 1331.5 479.67
1084 0 69.0755 13.174 910 93.5374 1331.46 479.802
1085 0 70.0366 13.2217 926 94.4363 1330.62 477.988
1086 0 75.0509 12.9246 970 94.3825 1330.52 478.098
1087 0 76.1257 13.1493 1001 95.5694 1330.46 475.655
1088 0 78.0746 13.7048 1070 95.072 1330.68 476.92
1089 0 80.0894 12.7108 1018 98.889 1330.7 473.433
1090 0 81.034 12.4392 1008 100.443 1329.92 471.968
1091 0 86.0676 13.5475 1166 97.8756 1330.13 471.53
1092 0 89.1506 13.3931 1194 97.8132 1330.68 469.243
1093 1 49.0696 14.0413 689 94.6763 1330.47 489.576
1094 0 50.0558 13.3851 670 95.5448 1330.07 489.248
1095 0 51.0266 13.3264 680 100.932 1329.52 488.728
1096 0 52.026 13.301 692 102.451 1329.18 487.091
1097 0 53.0604 12.7967 679 103.405 1330.12 487.421
1098 0 55.0708 13.1649 725 103.283 1329.71 486.732
1099 0 55.0983 12.7953 705 104.315 1329.63 487.186
1100 0 59.079 14.4045 851 100.042 1329.59 484.986
1101 0 59.0296 13.417 792 103.46 1330.2 484.295
1102 0 60.0847 14.2299 855 101.33 1330.18 484.626
1103 0 63.0229 14.9945 945 100.339 1330.42 482.259
1104 0 63.0882 13.4573 849 104.853 1330.18 481.634
1105 0 65.0188 12.7348 828 106.339 1330.09 480.92
1106 0 68.0461 12.5944 857 106.588 1329.8 479.567
1107 0 71.0138 13.7016 973 104.088 1329.8 478.186
1108 0 73.1089 13.7603 1006 103.54 1330.13 476.433
1109 0 76.1199 13.5576 1032 104.031 1330.23 475.13
1110 0 80.0811 14.5977 1169 101.498 1330.17 475.4
1111 0 82.146 14.036 1153 103.173 1330.31 473.261
1112 0 83.078 13.6498 1134 105.504 1330.26 470.155
1113 0 87.1508 13.3791 1166 103.642 1331.52 470.784
1114 1 44.0508 10.6241 468 103.011 1333.51 492.068
1115 0 45.0842 11.6227 524 100.431 1332.96 489.561
1116 0 48.1148 11.1608 537 96.6015 1332.69 490.52
1117 0 46.0452 11.9882 552 94.4891 1332.5 489.795
1118 0 50.093 12.8761 645 91.1535 1332.99 489.437
1119 0 50.0529 12.2271 612 93.6895 1332.79 489.739
1120 0 52.1111 12.7804 666 92.6051 1332.84 488.661
1121 0 54.1852 11.7929 639 93.3959 1332.54 487.897
1122 0 54.0825 13.1651 712 92.2514 1332.07 485.618
1123 0 56.0752 13.7494 771 90.6524 1332.64 485.575
1124 0 55.0649 12.2038 672 95.3452 1332.34 483.774
1125 0 59.0811 12.559 742 93.6779 1332.29 483.477
1126 0 61.0766 12.0668 737 94.4193 1332.28 483.715
1127 0 62.1259 13.6497 848 91.9505 1332.8 480.587
1128 0 64.0988 13.4792 864 92.6539 1332.42 479.176
1129 0 66.17 12.891 853 93.9672 1332.04 478.176
1130 0 70.0381 13.3499 935 92.139 1331.98 477.441
1131 0 71.1157 13.3163 947 93.0908 1332.29 478.579
1132 0 72.129 12.2835 886 95.9458 1332.25 478.413
1133 0 75.0784 14.6247 1098 91.929 1332.24 475.306
1134 0 76.1177 11.8895 905 98.1547 1331.89 475.759
1135 0 80.131 15.3499 1230 91.2846 1332.05 472.929
1136 0 82.168 13.7523 1130 95.0389 1332.34 471.949
1137 0 84.1204 12.2444 1030 98.7049 1331.94 470.517
1138 0 87.106 13.2253 1152 96.9375 1332.11 469.997
1139 0 89.1143 13.2414 1180 97.4983 1331.92 467.606
1140 0 92.1327 12.33 1136 98.75 1331.93 466.626
1141 0 97.3965 12.7212 1239 97.5052 1331.72 465.24
1142 0 99.1804 13.1881 1308 97.0879 1331.74 463.024
1143 0 102.14 11.9933 1225 97.3959 1330.9 464.545
1144 1 53.045 11.5939 615 97.2406 1330.5 487.79
1145 0 56.024 12.334 691 93.7945 1330.62 485.92
1146 0 59.078 13.0336 770 91.0909 1330.33 485.344
1147 0 59.0766 11.7982 697 94.4247 1329.82 481.072
1148 0 63.0795 13.5543 855 90.345 1329.95 481.728
1149 0 65.1383 12.604 821 92.9367 1329.47 480.214
1150 0 67.0817 12.522 840 93.144 1329.38 480.686
1151 0 69.0908 12.679 876 93.137 1329.07 478.975
1152 0 71.1369 13.6638 972 91.2757 1329.4 476.49
1153 0 73.1056 13.7199 1003 91.1595 1329.73 475.46
1154 0 75.1128 11.8355 889 94.9156 1330.09 473.214
1155 0 78.1904 11.9708 936 94.6132 1330.19 474.519
1156 0 80.1643 13.884 1113 91.7044 1329.89 470.703
1157 0 84.1154 13.0773 1100 92.64 1330.03 470.864
1158 0 86.0718 14.4298 1242 90.4147 1330.22 468.207
1159 0 89.1292 11.7806 1050 100.45 1330.19 468.26
1160 0 89.1292 11.7694 1049 135.658 1330.18 468.121
1161 0 95.093 12.8085 1218 99.4392 1330.62 466.606
1162 0 99.0804 12.2729 1216 99.8824 1330.68 463.301
1163 1 53.0261 11.1455 591 96.3181 1330.74 485.915
1164 0 56.0842 12.1959 684 92.2982 1330.02 486.102
1165 0 58.1991 11.4091 664 94.1175 1330.29 484.393
1166 0 59.1413 12.394 733 92.8977 1330.42 481.93
1167 0 59.1089 12.2147 722 94.0042 1330.11 481.055
1168 0 61.0373 10.4362 637 97.3061 1330.27 482.89
1169 0 64.0625 12.238 784 94.9821 1330.12 478.663
1170 0 67.0931 12.7137 853 94.313 1330.33 479.777
1171 0 70.0902 13.5682 951 93.3491 1329.11 477.542
1172 0 74.1195 12.4394 922 95.8308 1329.62 477.132
1173 0 74.0815 13.6336 1010 94.803 1330.35 477.004
1174 0 77.254 14.3294 1107 94.2791 1330.22 475.055
1175 0 80.076 13.7245 1099 95.4823 1329.83 474.224
1176 0 81.0556 13.1391 1065 98.9784 1330.11 470.469
1177 0 84.1006 13.8643 1166 98.6286 1329.84 471.521
1178 0 84.1293 12.2668 1032 103.344 1330.47 469.776
1179 0 90.1197 13.9148 1254 99.1834 1329.81 469.783
1180 0 90.144 12.5688 1133 104.218 1329.61 468.417
1181 0 92.1402 12.5895 1160 105.649 1329.74 468.803
1182 0 98.2496 14.3105 1406 101.458 1330.06 465.403
1183 0 98.068 12.9604 1271 106.555 1330.14 463.113
1184 0 101.209 13.1115 1327 106.246 1330.16 461.889
1185 0 106.111 14.2964 1517 104.083 1329.75 459.409
1186 0 111.163 13.5387 1505 104.342 1330.13 462.095
1187 0 114.177 14.2936 1632 104.4 1330.32 456.868
1188 0 115.098 13.0932 1507 105.207 1330.15 452.717
1189 0 119.196 12.9451 1543 107.129 1330.19 451.105
1190 0 124.134 12.4221 1542 108.799 1330.7 447.354
1191 0 128.058 12.9238 1655 108.599 1330.57 446.773
1192 0 133.143 13.0161 1733 110.259 1330.28 445.816
1193 0 138.17 14.1492 1955 109.367 1330.35 442.03
1194 0 144.29 13.0986 1890 112.038 1329.57 438.596
1195 1 76.0948 11.6171 884 105.656 1329.96 472.02
1196 0 77.175 13.8776 1071 103.348 1330.24 475.918
1197 0 79.1583 13.6815 1083 103.463 1331.8 472.561
1198 0 81.1644 12.6657 1028 104.711 1331.84 470.457
1199 0 85.116 12.8178 1091 102.277 1332.71 470.808
1200 0 88.1045 13.3705 1178 102.036 1332.65 468.058
1201 0 91.1095 13.1929 1202 103.146 1332.08 468.082
1202 0 93.1125 12.1681 1133 105.867 1332.22 466.734
1203 0 97.1363 12.4773 1212 104.443 1332.09 464.686
1204 0 99.1762 12.5333 1243 104.805 1331.4 461.933
1205 0 99.1695 12.4938 1239 135.876 1330.39 461.87
1206 1 56.0223 10.3352 579 104.047 1332.46 483.888
1207 0 58.0373 11.0274 640 102.662 1331.45 483.778
1208 0 59.0552 11.7517 694 104.517 1332.02 482.353
1209 0 62.0832 12.0322 747 103.133 1332.46 480.261
1210 0 66.0776 12.4399 822 100.838 1332.4 480.713
1211 0 69.151 12.9282 894 98.0582 1332.56 479.22
1212 0 68.1749 11.6172 792 102.136 1332.06 477.432
1213 0 71.1558 12.044 857 100.606 1332.23 476.788
1214 0 75.0487 11.9389 896 99.9621 1332.54 475.04
1215 0 77.1005 14.1374 1090 95.2018 1332.8 474.081
1216 0 79.1491 12.5586 994 97.673 1332.48 472.24
1217 0 82.0743 13.439 1103 95.3509 1332.56 470.925
1218 0 84.1035 13.1505 1106 96.0597 1332.51 469.181
1219 0 88.149 12.6264 1113 96.0593 1332.09 469.807
1220 0 89.1408 11.7567 1048 98.6565 1331.42 467.243
1221 1 47.0243 10.3776 488 98.3955 1331.89 487.723
1222 0 46.0772 10.2003 470 95.4426 1331.31 480.128
1223 0 48.0256 9.43247 453 98.4128 1328.74 480.951
1224 0 47.0534 10.4987 494 96.7004 1328.82 480.484
1225 0 53.0386 11.7839 625 99.5248 1329.07 484.384
1226 0 54.0568 11.8394 640 99.8203 1329.18 483.677
1227 0 55.0332 11.1387 613 100.814 1329.62 483.7
1228 0 57.0547 12.5143 714 98.3137 1329.85 482.374
1229 0 58.0499 12.1275 704 99.6548 1329.62 481.767
1230 0 60.1019 12.3623 743 98.6474 1330.28 479.564
1231 0 63.0797 13.4275 847 94.6907 1330.01 480.342
1232 0 64.0911 11.8425 759 98.975 1329.5 480.026
1233 0 67.1198 12.9023 866 97.5346 1329.69 479.324
1234 0 68.1065 12.9944 885 98.9537 1329.94 476.713
1235 0 71.1849 13.6967 975 97.4441 1329.7 476.846
1236 0 73.1853 14.4155 1055 97.0436 1330.45 474.349
1237 0 75.2609 12.5297 943 102.122 1330.38 473.778
1238 0 80.1869 13.4436 1078 98.5937 1330.29 474.752
1239 0 83.2632 13.8356 1152 99.0113 1330.75 472.766
1240 0 86.364 14.4968 1252 97.9289 1330.74 468.187
1241 0 85.3141 12.7998 1092 103.43 1330.49 463.881
1242 1 46.1858 11.1506 515 90.1418 1331.3 486.373
1243 0 44.0622 10.5533 465 93.0301 1332 483.699
1244 0 44.098 9.54691 421 88.1354 1330.47 486.739
1245 0 46.0529 9.90166 456 88.3048 1329.57 485.204
1246 0 47.037 9.69449 456 89.375 1329.83 485.217
1247 0 50.0717 10.3052 516 87.7345 1329.95 485.729
1248 0 51.1532 9.16854 469 90.2836 1330.19 486.836
1249 0 53.188 11.732 624 94.984 1331.51 485.933
1250 0 56.081 11.7509 659 93.1032 1331.51 488.41
1251 0 56.0768 10.9136 612 98.4493 1331.21 484.492
1252 0 59.1804 12.7914 757 94.2906 1331.05 485.498
1253 0 56.1748 10.4851 589 101.343 1331.22 484.053
1254 0 63.0461 12.8319 809 97.1372 1330.8 483.71
1255 0 63.1377 12.8291 810 96.9185 1330.54 482.19
1256 0 64.0808 12.6871 813 98.4514 1331.52 481.929
1257 0 69.102 12.865 889 96.1822 1331 480.531
1258 0 71.042 12.0633 857 94.8215 1331.19 482.275
1259 0 72.0512 13.3377 961 95.5088 1331.08 477.39
1260 0 75.0919 12.5047 939 96.7849 1331.52 475.826
1261 0 76.136 12.3069 937 98.7279 1331.07 474.336
1262 0 80.0577 11.7915 944 99.2998 1330.81 476.118
1263 0 81.0852 11.9874 972 99.679 1330.51 473.079
1264 0 85.1356 12.5799 1071 98.2605 1331.01 473.828
1265 0 88.1689 13.7237 1210 97.2281 1331.21 470.89
1266 1 48.0468 12.1132 582 102.32 1331.34 490.301
1267 0 50.0483 13.487 675 97.9037 1331.32 489.113
1268 0 51.0501 12.9285 660 98.2848 1331.44 487.998
1269 0 50.0319 13.1516 658 99.2128 1332.19 488.377
1270 0 53.0607 12.9474 687 98.5138 1331.25 487.763
1271 0 55.049 13.2064 727 98.0371 1331.73 486.389
1272 0 56.0829 12.6063 707 99.2447 1332.01 486.105
1273 0 59.0185 14.4362 852 95.4577 1331.36 484.082
1274 0 60.0501 14.5379 873 96.0011 1331.58 482.339
1275 0 59.0456 13.5658 801 99.5031 1331.57 482.194
1276 0 64.0989 12.8551 824 101.576 1331.22 479.756
1277 0 66.0842 14.1486 935 97.6909 1332.36 481.212
1278 0 69.1265 14.5241 1004 97.762 1332.36 479.965
1279 0 70.1031 14.9209 1046 98.0727 1331.83 479.424
1280 0 74.1152 14.0862 1044 99.7692 1331.79 478.615
1281 0 75.0895 13.5705 1019 102.038 1331.98 476.364
1282 0 79.1716 15.0306 1190 98.5983 1332.45 475.512
1283 0 82.1104 14.5901 1198 100.663 1331.58 473.886
1284 0 86.1135 13.3312 1148 104.255 1331.96 471.829
1285 0 88.1537 14.0777 1241 100.965 1331.84 470.016
1286 0 91.2092 14.9766 1366 100.951 1331.2 468.084
1287 0 94.1454 15.3274 1443 99.3777 1331.66 467.543
1288 1 48.013 11.5594 555 107.494 1332.07 486.49
1289 0 52.0661 14.1743 738 101.008 1332.65 486.89
1290 0 50.1105 12.7718 640 101.652 1331.36 486.131
1291 0 54.0775 13.9984 757 97.8534 1331.71 488.037
1292 0 58.0355 14.5428 844 96.1078 1332.29 485.735
1293 0 59.0943 13.9607 825 97.1503 1332.09 484.983
1294 0 61.0214 13.7657 840 97.7833 1332.22 484.354
1295 0 63.038 14.753 930 95.5839 1332.17 483.5
1296 0 65.0387 15.2678 993 95.0644 1332.15 480.439
1297 0 66.0531 13.5497 895 99.8447 1332.06 481.754
1298 0 68.0853 13.3656 910 100.046 1332.58 481.084
1299 0 70.072 13.6003 953 100.492 1332.09 477.833
1300 0 73.0755 15.0803 1102 95.4946 1332.29 478.294
1301 0 77.0588 14.4695 1115 96.8565 1331.41 477.546
1302 0 78.0915 13.2665 1036 99.2519 1332.03 476.5
1303 0 81.0814 14.5903 1183 96.7912 1332.33 474.391
1304 0 83.063 13.9774 1161 98.4686 1331.78 472.763
1305 0 87.0651 14.5523 1267 97.1168 1331.47 469.456
1306 0 88.1375 13.6151 1200 99.9825 1331.5 467.394
1307 0 94.1122 14.5571 1370 97.1993 1331.18 469.658
1308 1 50.0545 12.4664 624 100.487 1331.76 490.938
1309 0 49.1221 12.7641 627 101.761 1331.32 489.675
1310 0 51.2778 13.7877 707 97.6407 1331.98 487.537
1311 0 52.1001 13.8963 724 96.8923 1332.21 485.989
1312 0 55.0268 13.8296 761 95.4008 1332.32 488.422
1313 0 56.0894 13.2289 742 97.9367 1332.18 486.991
1314 0 55.0747 13.6723 753 99.2404 1331.65 484.251
1315 0 59.1045 14.229 841 97.2604 1332.06 484.729
1316 0 60.0935 13.7619 827 98.2491 1331.83 485.481
1317 0 61.1038 13.7471 840 99.7274 1331.45 481.114
1318 0 65.1067 13.1169 854 99.8162 1331.45 480.766
1319 0 66.0971 12.8145 847 101.98 1331.28 480.364
1320 0 69.1172 13.9184 962 99.6934 1331.21 480.102
1321 0 69.1123 13.0802 904 103.164 1331.26 479.201
1322 0 74.1995 13.4906 1001 101.409 1331.67 478.988
1323 0 76.2494 14.5313 1108 100.066 1331.02 476.653
1324 0 78.1799 13.648 1067 102.932 1331.49 474.855
1325 0 81.1831 13.3033 1080 103.692 1331.94 473.217
1326 0 85.1222 13.7097 1167 103.371 1332.04 472.509
1327 0 87.2172 13.7817 1202 104.941 1330.66 470.539
1328 0 92.1699 14.2454 1313 103.747 1331.26 469.199
1329 0 96.2501 15.0961 1453 102.198 1330.56 466.412
1330 0 97.1408 13.5679 1318 106.451 1330.56 464.886
1331 1 52.1284 12.6035 657 108.784 1330.11 487.352
1332 0 52.0744 11.5028 599 102.896 1331.73 482.219
1333 0 52.1602 10.7553 561 103.683 1331.36 483.171
1334 0 54.0749 11.8354 640 101.895 1331.25 481.62
1335 0 58.1083 12.2874 714 99.9706 1331.74 480.878
1336 0 58.0463 11.9387 693 102.729 1331.33 476.815
1337 0 61.0346 11.0921 677 103.484 1331.38 478.038
1338 0 64.0572 12.6606 811 101.247 1330.82 474.541
1339 0 66.1102 10.7699 712 105.475 1331.28 475.091
1340 0 68.1766 11.3382 773 103.647 1331.2 474.608
1341 0 71.0494 12.8221 911 100.424 1331.46 473.976
1342 0 73.0739 12.0426 880 102.789 1331.95 472.933
1343 0 76.1117 12.232 931 102.866 1331.51 470.876
1344 0 79.1659 12.1896 965 102.607 1331.29 470.041
1345 0 82.076 12.7199 1044 101.726 1331.33 468.33
1346 0 83.1417 11.4383 951 104.594 1331.64 464.955
1347 0 88.193 11.112 980 97.6796 1330.56 469.861
1348 0 91.0992 12.437 1133 96.0397 1331.23 466.42
1349 1 46.0442 10.5768 487 104.7 1331.76 490.782
1350 0 49.1107 11.3825 559 101.385 1331.12 488.934
1351 0 52.0093 11.2288 584 99.411 1330.88 489.021
1352 0 52.1265 11.2802 588 103.196 1330.43 488.549
1353 0 53.1509 11.4391 608 101.163 1330.67 489.094
1354 0 53.1488 12.3239 655 100.947 1330.45 486.589
1355 0 55.1353 12.7142 701 100.053 1330.65 486.013
1356 0 60.1821 11.7311 706 100.941 1329.78 486.316
1357 0 59.1027 12.9267 764 99.699 1330.14 484.662
1358 0 62.0868 12.402 770 100.435 1330.5 484.139
1359 0 63.2066 11.4229 722 104.909 1330.4 482.364
1360 0 65.2121 12.0836 788 104.362 1330.04 482.365
1361 0 68.0839 13.9534 950 100.199 1329.84 479.676
1362 0 71.3488 13.1467 938 101.885 1329.85 480.456
1363 0 70.16 12.5142 878 103.77 1330.67 481.663
1364 0 74.1301 12.6399 937 103.493 1330.9 478.756
1365 0 75.1291 12.3521 928 102.009 1330.64 477.218
1366 0 79.2496 12.6057 999 101.636 1330.36 475.927
1367 0 82.337 13.6998 1128 100.032 1330.69 475.365
1368 0 86.1776 12.8572 1108 101.282 1330.27 474.542
1369 1 45.1182 11.9021 537 102.834 1330.66 492.708
1370 0 46.3538 12.8576 596 101.216 1330.14 490.252
1371 0 49.1123 12.8888 633 104.817 1330.12 491.392
1372 0 49.0513 13.4961 662 104.665 1329.73 491.476
1373 0 49.1181 13.0298 640 107.205 1329.57 490.803
1374 0 52.0903 15.262 795 100.821 1329.83 488.964
1375 0 52.0765 13.2881 692 106.085 1329.74 489.416
1376 0 54.0504 14.2645 771 103.847 1330.11 487.99
1377 0 56.074 14.9089 836 101.992 1329.6 486.902
1378 0 57.045 15.1109 862 101.736 1330.16 486.755
1379 0 57.045 15.1109 862 143.299 1330.16 486.61
1380 0 60.0964 14.094 847 102.063 1330.42 484.132
1381 0 64.0745 14.4987 929 98.113 1330.21 485.677
1382 0 65.0966 14.7473 960 98.1635 1330.31 483.509
1383 0 67.2132 13.42 902 100.879 1330.05 485.483
1384 0 69.0476 13.8455 956 100.717 1330.37 481.504
1385 0 69.1101 14.5276 1004 99.7291 1330.88 481.968
1386 0 71.1794 14.4143 1026 101.112 1330.85 479.263
1387 0 74.1131 15.2335 1129 99.0806 1330.6 479.112
1388 0 77.1458 14.2458 1099 99.99 1330.98 479.091
1389 0 78.0732 14.5376 1135 100.614 1330.79 477.589
1390 0 80.102 12.9834 1040 103.706 1331.04 476.729
1391 0 84.2144 13.7031 1154 101.865 1330.61 475.085
1392 0 85.2058 12.8278 1093 103.836 1330.43 473.903
1393 0 90.0923 14.6849 1323 100.793 1330.27 469.941
1394 0 91.2108 12.2573 1118 105.853 1330.39 471.622
1395 0 95.1362 13.6646 1300 101.291 1331.11 469.553
1396 0 95.09 11.3051 1075 104.346 1330.91 466.447
1397 0 101.172 13.7982 1396 98.2142 1330.75 464.621
1398 0 103.171 12.077 1246 95.2769 1330.07 457.652
1399 1 53.0631 11.9669 635 91.137 1330.86 483.959
1400 0 55.1472 12.929 713 90.2651 1330.38 482.731
1401 0 58.1029 11.8927 691 91.8206 1330.14 482.618
1402 0 59.0803 12.7284 752 91.8444 1330.26 480.439
1403 0 62.1584 13.7069 852 89.0845 1330.39 481.331
1404 0 62.1879 13.9255 866 90.6109 1330.94 478.343
1405 0 64.1433 12.9554 831 93.4958 1330.49 477.289
1406 0 65.1086 11.9953 781 96.5186 1330.19 475.895
1407 0 69.1788 13.2411 916 93.8526 1330.09 475.787
1408 0 70.1415 11.7192 822 97.489 1330.03 475.979
1409 0 74.1908 12.7913 949 96.0516 1330.39 473.057
1410 0 76.1235 13.1891 1004 96.6683 1330.41 471.823
1411 0 78.1876 15.3989 1204 100.412 1330.51 475.424
1412 0 82.1499 15.5204 1275 99.5741 1330.1 472.471
1413 0 85.2826 14.2585 1216 102.419 1330.3 470.861
1414 0 88.4551 15.3637 1359 104.222 1330 468.7
1415 0 90.2454 14.5935 1317 108.543 1330.08 463.478
1416 0 94.2349 13.9969 1319 105.666 1330.19 465.117
1417 0 95.1901 15.1171 1439 102.438 1330.33 462.489
1418 0 97.239 13.4103 1304 106.14 1329.84 460.091
1419 0 100.302 12.8811 1292 106.781 1330.82 460.262
1420 0 107.485 13.8904 1493 103.53 1330.39 458.271
1421 1 53.0995 12.2977 653 106.926 1330.55 486.504
1422 0 56.0999 13.3868 751 102.256 1330.79 484.822
1423 0 58.0276 13.0455 757 103.756 1330.31 482.431
1424 0 59.0368 12.0772 713 104.059 1330.92 484.532
1425 0 61.0571 12.8404 784 102.806 1331.56 481.857
1426 0 65.2123 12.5437 818 102.872 1331.84 480.056
1427 0 66.0731 13.1218 867 102.18 1332.45 478.52
1428 0 67.1685 11.955 803 105.601 1331.1 477.194
1429 0 71.1864 13.5841 967 101.485 1331.36 477.676
1430 0 73.1743 12.805 937 103.644 1331.43 474.839
1431 0 73.1743 12.887 943 146.606 1332.43 474.703
1432 0 79.1723 13.0854 1036 103.197 1332.12 473.535
1433 0 79.1723 13.1106 1038 148.731 1331.14 473.701
1434 0 83.1621 11.9526 994 106.624 1331.39 470.909
1435 0 86.2057 13.5954 1172 104.661 1330.94 467.932
1436 0 90.218 14.2322 1284 103.569 1330.32 467.055
1437 0 94.2609 14.3856 1356 104.726 1330.44 466.412
1438 0 98.1611 14.0789 1382 105.098 1330.38 462.316
1439 0 100.177 12.8373 1286 107.611 1330.86 462.871
1440 0 104.373 12.6182 1317 108.491 1330.86 458.732
1441 0 108.234 12.5654 1360 108.854 1330.63 457.042
1442 0 113.289 15.0588 1706 103.428 1330.6 454.362
1443 1 58.043 14.1102 819 105.915 1330.43 481.18
1444 0 59.2077 13.782 816 107.114 1330.26 478.458
1445 0 61.0421 14.3671 877 104.099 1331.52 482.482
1446 0 63.1032 15.6886 990 101.863 1331.8 479.542
1447 0 66.0461 14.2779 943 105.799 1331.35 479.391
1448 0 68.0772 14.3954 980 105.241 1331.13 480.008
1449 0 71.0442 14.681 1043 105.59 1331.25 479.242
1450 0 70.0888 13.754 964 109.637 1331.6 477.212
1451 0 74.1021 13.8458 1026 110.004 1331.31 475.626
1452 0 78.1295 14.028 1096 110.499 1331.53 473.709
1453 0 81.0845 15.1324 1227 108.751 1331.15 472.151
1454 0 84.0636 14.5961 1227 110.188 1331.04 471.57
1455 0 86.0848 15.0201 1293 110.096 1331.48 469.523
1456 0 87.119 13.8431 1206 113.399 1331.27 470.635
1457 0 91.1319 13.5847 1238 113.959 1331.34 468.072
1458 1 46.2049 12.2281 565 111.995 1331.03 490.048
1459 0 48.0864 13.3926 644 110.46 1330.91 488.812
1460 0 50.1396 13.7616 690 110.899 1331.76 486.112
1461 0 49.0503 12.8236 629 117.588 1331.05 484.897
1462 0 53.1171 12.896 685 116.264 1330.64 484.255
1463 0 55.0571 13.9492 768 111.633 1330.17 485.19
1464 0 57.1577 14.2763 816 111.52 1330.6 482.176
1465 0 60.0767 15.2305 915 108.595 1331.77 480.59
1466 0 60.1554 13.914 837 113.496 1331.18 478.932
1467 0 64.0799 14.7784 947 110.315 1331.49 479.196
1468 0 65.1274 15.2777 995 110.488 1331.39 476.875
1469 0 66.0843 14.1637 936 114.278 1331.93 475.528
1470 0 70.1339 14.5721 1022 112.631 1331.33 475.361
1471 0 73.1604 14.393 1053 112.887 1330.71 474.841
1472 0 75.1232 14.5095 1090 113.217 1330.23 473.577
1473 0 79.2215 15.3367 1215 110.857 1330.65 471.547
1474 0 81.1771 14.4745 1175 113.671 1330.67 469.592
1475 0 83.1809 15.4362 1284 111.403 1330.56 469.016
1476 0 86.1256 15.0594 1297 112.535 1330.93 467.745
1477 0 89.1816 15.2161 1357 112.61 1331.18 465.04
1478 0 90.2083 15.9852 1442 111.047 1331.08 463.592
1479 0 92.1378 14.8582 1369 114.083 1331.05 461.695
1480 0 97.1442 14.8645 1444 112.803 1331.1 460.8
1481 0 100.164 14.7658 1479 113.141 1331.41 457.671
1482 0 105.194 14.8963 1567 111.592 1330.8 457.209
1483 0 107.093 14.6321 1567 109.053 1330.08 458.043
1484 1 57.1564 13.0344 745 110.154 1329.9 479.393
1485 0 58.1036 12.3744 719 112.026 1330.36 478.812
1486 0 62.194 13.9724 869 105.418 1330.89 481.16
1487 0 63.1434 12.4162 784 109.927 1330.63 480.74
1488 0 64.1287 13.6444 875 107.574 1330.73 478.994
1489 0 68.1042 12.7158 866 107.969 1330.92 480.871
1490 0 71.0487 13.9763 993 105.815 1331.07 477.958
1491 0 75.0909 13.9964 1051 105.197 1330.77 475.926
1492 0 76.0924 13.5493 1031 107.952 1330.73 475.176
1493 0 80.1396 13.1895 1057 108.963 1330.82 472.434
1494 0 84.1347 15.0473 1266 105.189 1331.15 470.203
1495 0 87.1104 14.5677 1269 106.619 1330.42 469.476
1496 0 91.1189 14.5195 1323 106.175 1330.37 466.138
1497 0 93.0804 13.9557 1299 107.834 1330.82 467.557
1498 0 99.131 14.274 1415 106.057 1330.64 463.899
1499 0 102.271 14.2856 1461 105.576 1330.55 462.308
1500 1 54.1199 13.3223 721 107.85 1331.25 484.706
1501 0 54.0895 13.2558 717 109.494 1331.11 483.914
1502 0 58.1123 14.3859 836 97.8313 1330.77 483.433
1503 0 60.1494 12.6352 760 98.025 1330.82 483.304
1504 0 61.0809 13.1465 803 95.8755 1330.38 480.401
1505 0 64.0462 13.0218 834 96.506 1330.6 481.255
1506 0 63.0604 12.7655 805 102.545 1331.25 479.853
1507 0 63.0318 12.5175 789 104.082 1331.48 479.42
1508 0 62.105 12.7848 794 105.152 1331.35 479.079
1509 0 65.0805 14.1056 918 103.032 1331.06 479.617
1510 0 67.0271 14.2032 952 103.397 1331.15 479.105
1511 0 66.0926 13.3146 880 106.533 1330.28 476.548
1512 0 72.0925 13.6075 981 103.108 1329.93 476.327
1513 0 74.3043 13.9157 1034 101.701 1329.91 475.153
1514 0 77.0917 13.9444 1075 100.413 1330.12 474.089
1515 0 78.0943 13.7654 1075 100.622 1330 473.426
1516 0 83.0711 14.1686 1177 98.2387 1330.78 471.732
1517 0 85.1278 13.051 1111 102.073 1330.12 468.422
1518 0 85.1387 12.8966 1098 102.967 1330.7 467.092
1519 0 89.1856 12.659 1129 103.64 1330.78 466.125
1520 1 47.2612 11.8914 562 108.804 1330.88 482.333
1521 0 47.1088 12.1209 571 108.625 1331.21 483.543
1522 0 50.1681 12.2189 613 108.228 1331.28 481.75
1523 0 51.1337 13.5332 692 100.773 1331.58 486.942
1524 0 54.0522 14.1345 764 99.3456 1330.72 485.842
1525 0 53.0555 13.3634 709 103.85 1330.72 483.779
1526 0 55.1483 13.4909 744 103.888 1330.86 482.823
1527 0 57.0457 12.9195 737 106.976 1329.15 481.275
1528 0 57.0474 12.6211 720 108.668 1329.05 482.519
1529 0 60.0253 12.3281 740 110.82 1329.31 478.246
1530 0 61.0996 12.2259 747 111.339 1330.24 479.095
1531 0 63.1584 12.8566 812 111.048 1329.7 475.601
1532 0 65.2085 13.6485 890 109.762 1329.46 474.435
1533 0 66.2511 13.63 903 110.889 1329.55 473.143
1534 0 67.0777 12.2992 825 115.971 1329.39 473.566
1535 0 71.161 13.35 950 112.395 1329.84 472.192
1536 0 71.237 12.7743 910 116.832 1328.49 470.181
1537 0 75.2311 12.6809 954 115.731 1329.18 469.084
1538 0 77.1959 13.524 1044 113.42 1329.36 469.205
1539 0 81.4082 14.8142 1206 110.351 1329.32 466.843
1540 0 84.2096 13.4664 1134 114.082 1328.96 466.905
1541 0 86.1969 12.7615 1100 116.035 1328.74 464.942
1542 1 45.1549 11.4495 517 118.489 1329.45 485.201
1543 0 47.1139 11.4828 541 118.442 1329.25 483.595
1544 0 51.1408 12.1038 619 116.002 1327.8 483.33
1545 0 50.1297 12.4477 624 113.312 1328.25 482.974
1546 0 52.1583 13.3248 695 114.563 1328.11 483.153
1547 0 55.0805 13.0355 718 112.352 1328.71 481.337
1548 0 56.0889 11.9097 668 116.469 1328.02 480.961
1549 0 57.0839 13.2612 757 113.968 1327.88 478.971
1550 0 57.0909 12.8392 733 115.632 1327.67 477.791
1551 0 61.0959 12.4395 760 115.239 1327.21 474.85
1552 0 60.1056 13.5428 814 113.219 1327.58 474.732
1553 0 63.1922 13.2928 840 114.005 1327.65 472.438
1554 0 67.1696 13.1161 881 113.419 1327.27 471.67
1555 0 69.1611 13.0854 905 113.364 1326.74 472.408
1556 0 71.2086 13.5236 963 113.022 1327.71 468.495
1557 0 75.2141 13.7341 1033 111.53 1327.38 468.231
1558 0 78.2987 14.0104 1097 111.642 1326.78 466.885
1559 0 80.4195 13.2555 1066 113.889 1326.68 464.924
1560 0 82.1693 13.4722 1107 113.26 1327.38 464.62
1561 0 86.2245 13.7664 1187 112.607 1327.39 461.152
1562 0 90.22 13.3008 1200 112.189 1327.59 459.138
1563 0 91.3332 12.854 1174 114.074 1327.54 458.026
1564 0 95.3851 14.0273 1338 110.939 1327.78 455.722
1565 0 98.2081 13.4918 1325 111.365 1328.01 455.971
1566 1 51.2376 10.1098 518 102.963 1327.9 479.826
1567 0 51.1918 9.41557 482 109.979 1327.75 476.961
1568 0 55.298 11.7364 649 97.6533 1327.9 476.017
1569 0 55.3229 9.074 502 101.964 1329.05 476.645
1570 0 60.3178 12.202 736 93.163 1328.94 477.211
1571 0 62.3561 10.9532 683 95.8726 1328.97 476.674
1572 0 61.1126 11.0943 678 96.8466 1328.31 473.822
1573 0 64.1473 10.1485 651 98.5376 1328.14 472.719
1574 0 68.1814 10.7214 731 97.829 1328.2 470.198
1575 0 68.2777 11.4239 780 96.4615 1328.35 467.294
1576 0 73.2708 10.9457 802 96.9838 1328.27 467.173
1577 0 77.3303 11.6513 901 97.1887 1328.2 466.165
1578 0 79.2001 9.3813 743 104.218 1328.9 465.112
1579 0 80.2415 10.0447 806 103.506 1328.04 465.459
1580 0 84.1773 10.4898 883 103.347 1327.88 460.529
1581 0 89.0608 10.0942 899 101.646 1328.38 468.252
1582 0 92.1149 8.97792 827 104.146 1328.62 467.212
1583 1 49.018 11.506 564 97.6011 1327.08 489.498
1584 0 50.0583 11.6664 584 97.3493 1327.98 487.872
1585 0 53.0429 10.9345 580 98.1017 1328.07 487.534
1586 0 53.1359 10.4073 553 97.7052 1329.24 484.074
1587 0 54.087 10.5201 569 96.4974 1329.54 481.931
1588 0 56.1105 11.2635 632 94.7595 1329.89 482.786
1589 0 56.1095 11.2637 632 112.975 1330.91 482.731
1590 0 60.1203 11.294 679 96.6848 1327.12 481.853
1591 0 61.0375 12.3039 751 95.8802 1327.22 483.482
1592 0 63.0983 12.2349 772 98.4093 1326.75 481.351
1593 0 65.0843 12.5837 819 96.0464 1326.97 480.695
1594 0 67.0689 12.1517 815 97.0883 1326.93 479.464
1595 0 70.12 12.7638 895 95.629 1327.08 478.93
1596 0 72.2048 12.6169 911 96.4149 1327.26 477.015
1597 0 75.1206 13.4717 1012 94.7895 1328.15 476.084
1598 0 77.1271 13.4324 1036 94.8832 1328.27 476.44
1599 0 80.1244 13.504 1082 94.6026 1328.51 474.505
1600 0 82.1836 12.9101 1061 95.9566 1328.17 471.112
1601 0 84.0541 12.5157 1052 97.5798 1328.17 473.121
1602 0 87.1234 13.0849 1140 97.0956 1328.2 471.218
1603 1 48.0655 9.88235 475 99.379 1327.65 492.072
1604 0 49.0838 10.8794 534 98.4963 1327.64 489.416
1605 0 52.0836 11.7887 614 97.1075 1328.03 488.427
1606 0 52.0468 11.067 576 97.9688 1328.78 487.175
1607 0 52.0678 10.3519 539 96.8942 1329.67 486.85
1608 0 56.1281 13.4336 754 91 1329.93 486.117
1609 0 58.1291 10.7519 625 96.5856 1329.87 485.536
1610 0 60.2168 12.2557 738 93.6585 1329.72 484.744
1611 0 62.1543 12.7586 793 92.8916 1329.7 484.02
1612 0 64.2069 13.1294 843 102.534 1328.38 483.601
1613 0 65.1337 12.1903 794 108.28 1328.23 481.989
1614 0 68.1481 13.1038 893 103.469 1328.86 483.333
1615 0 70.1986 12.5928 884 105.637 1328.03 481.084
1616 0 71.3268 12.8143 914 104.235 1328.69 481.012
1617 0 73.3236 12.9835 952 106.083 1328.36 477.05
1618 0 77.2748 12.475 964 106.426 1328.16 476.223
1619 0 78.1738 12.8943 1008 105.886 1328.17 474.096
1620 0 83.3879 11.7643 981 108.116 1327.93 473.218
1621 0 85.2774 12.5473 1070 104.75 1327.54 474.867
1622 0 88.2242 12.899 1138 105.472 1326.99 471.459
1623 0 90.4029 12.5438 1134 107.361 1328.04 469.173
1624 0 90.2076 12.305 1110 109.112 1327.58 467.382
1625 0 96.4718 12.3767 1194 107.476 1328.16 467.685
1626 0 100.423 13.2042 1326 105.049 1328.67 466.661
1627 0 102.541 13.5263 1387 105.817 1328.44 461.215
1628 1 50.161 9.84829 494 99.2854 1329.44 487.158
1629 0 51.1908 11.0567 566 105.7 1329.21 485.484
1630 0 51.162 10.9652 561 96.7237 1327.92 478.583
1631 0 56.1072 10.6225 596 92.0755 1328.17 478.337
1632 0 57.0763 11.6686 666 90.7267 1327.63 478.29
1633 0 58.0531 10.6454 618 93.479 1327.44 476.227
1634 0 61.1948 11.8964 728 91.3571 1328.1 477.283
1635 0 59.1089 10.1846 602 95.6877 1328.34 475.844
1636 0 63.0977 10.6818 674 94.4703 1328.48 476.691
1637 0 66.0936 11.4081 754 93.9987 1328.54 474.094
1638 0 68.0401 12.1399 826 93.1828 1328.03 474.188
1639 0 72.1067 12.0377 868 93.909 1328.18 471.993
1640 0 71.0927 10.4793 745 99.0577 1328.73 471.405
1641 0 74.146 11.0593 820 98.6378 1328.53 468.52
1642 0 79.1499 11.8004 934 96.0985 1328.57 468.149
1643 0 79.1999 10.947 867 99.1476 1328.89 465.898
1644 0 82.1941 12.0082 987 96.847 1328.69 463.433
1645 0 86.2695 13.1448 1134 95.8377 1328.19 462.918
1646 0 89.2255 13.3594 1192 96.2349 1328.14 461.237
1647 0 93.2067 11.6837 1089 100.49 1327.71 459.652
1648 0 96.1317 11.7443 1129 101.705 1327.73 460.677
1649 0 97.1475 11.9921 1165 106.179 1327.58 458.238
1650 0 103.334 12.4451 1286 110.947 1327.87 462.735
1651 0 107.176 13.4918 1446 103.918 1328.19 459.754
1652 0 111.224 11.4903 1278 104.459 1328.74 459.173
1653 0 114.186 13.0226 1487 101.589 1328.94 456.97
1654 1 54.1314 12.1926 660 97.5152 1329.68 488.864
1655 0 57.0828 11.1943 639 98.5587 1329.11 484.995
1656 0 57.0597 12.1977 696 96.2126 1329.36 486.721
1657 0 59.0511 12.0065 709 96.6742 1329.22 484.003
1658 0 62.0647 13.1798 818 93.7543 1329.02 482.837
1659 0 64.1407 13.7822 884 92.7217 1329.09 481.234
1660 0 66.1362 13.7444 909 93.4213 1329.13 480.596
1661 0 69.0887 13.9386 963 93.1038 1328.48 480.487
1662 0 70.0729 13.0436 914 95.2877 1328.45 481.16
1663 0 71.2858 13.1723 939 96.8743 1328.85 480.807
1664 0 75.1104 12.5149 940 96.3426 1328.89 479.808
1665 0 78.0441 12.4545 972 98.3611 1328.31 478.358
1666 0 80.0441 13.4051 1073 97.8947 1328.11 476.18
1667 0 81.1695 11.5437 937 98.6606 1327.84 474.767
1668 0 84.0586 14.3352 1205 95.5295 1328.1 475.153
1669 0 86.1422 12.6767 1092 99.7784 1328.87 472.693
1670 0 90.0798 13.0218 1173 99.0759 1328.55 471.038
1671 0 92.1268 11.6036 1069 98.3667 1328.37 469.908
1672 0 95.1429 13.0225 1239 98.9096 1327.91 467.547
1673 0 99.0727 12.4959 1238 99.0137 1328.41 469.079
1674 0 101.146 13.0801 1323 97.3757 1328.12 465.073
1675 1 51.0292 10.8369 553 98.8282 1328.44 488.051
1676 0 55.2231 11.2996 624 100.649 1327.69 482.354
1677 0 58.138 12.4703 725 98.6869 1327.82 479.748
1678 0 60.1806 12.745 767 96.9778 1327.25 482.052
1679 0 64.058 13.0195 834 95.8621 1326.7 481.836
1680 0 65.174 13.7632 897 95.359 1326.71 479.437
1681 0 67.3807 13.3421 899 95.6908 1326.55 479.88
1682 0 68.1798 13.3471 910 97.1802 1327.22 476.452
1683 0 71.3059 13.6735 975 95.8595 1327.91 476.191
1684 0 74.2722 13.6256 1012 96.5909 1327.52 475.771
1685 0 79.1018 13.7291 1086 98.8683 1327.46 473.715
1686 0 79.2452 12.6064 999 103.019 1326.97 471.895
1687 0 80.3718 11.4344 919 106.587 1327.33 468.316
1688 0 86.4051 12.4414 1075 103.708 1327.78 467.526
1689 0 88.4335 12.0656 1067 105.296 1327.28 465.266
1690 0 92.291 12.7748 1179 103.115 1327.83 464.368
1691 1 47.2455 10.456 494 100.346 1328 487.334
1692 0 51.1873 11.8193 605 98.5438 1327.87 485.542
1693 0 54.1528 12.1877 660 95.9152 1327.64 486.018
1694 0 51.1424 8.54477 437 100.236 1327.97 481.808
1695 0 56.0943 12.5681 705 103.352 1328.83 486.39
1696 0 59.1328 12.937 765 101.085 1329.26 484.868
1697 0 59.1793 12.9437 766 103.595 1328.92 483.333
1698 0 60.1209 12.425 747 104.203 1329.74 482.345
1699 0 62.1358 12.1991 758 104.313 1330.22 480.036
1700 0 64.0768 11.9856 768 103.995 1329.94 479.944
1701 0 66.0594 11.7924 779 103.983 1330.17 479.367
1702 0 68.1952 10.9978 750 106.601 1329.47 476.917
1703 0 72.1259 11.8265 853 104.056 1329.56 477.306
1704 0 72.161 11.3219 817 103.192 1329.6 475.554
1705 0 76.305 13.0398 995 98.7387 1329.06 472.189
1706 0 77.0959 12.2575 945 100.723 1329.12 467.784
1707 0 81.1944 12.3284 1001 101.124 1328.38 468.173
1708 1 44.1548 11.2332 496 99.5343 1328.24 483.028
1709 0 45.12 11.0594 499 98.8016 1328.92 482.481
1710 0 49.0206 9.77141 479 102.163 1329.18 480.574
1711 0 47.0171 10.9109 513 100.86 1328.94 480.049
1712 0 50.0414 11.1907 560 99.9536 1329.4 480.814
1713 0 52.0752 12.0787 629 98.5787 1329.6 479.946
1714 0 57.0604 11.8646 677 97.325 1329.57 479.53
1715 0 57.0928 13.0314 744 95.2339 1329.16 476.352
1716 0 57.1088 11.9246 681 100.391 1328.86 478.261
1717 0 58.0664 12.8818 748 98.2299 1329.26 477.675
1718 0 62.22 12.6326 786 97.8333 1328.8 483.345
1719 0 65.2355 13.2903 867 97.8731 1328.24 478.999
1720 0 65.0959 12.1667 792 101.005 1328.83 477.251
1721 0 68.168 14.4349 984 95.8648 1328.87 474.891
1722 0 70.0887 13.2689 930 98.8527 1329.21 475.562
1723 0 73.0802 14.4773 1058 96.4688 1328.91 472.288
1724 0 74.0968 13.7388 1018 98.3919 1328.96 472.575
1725 0 76.1221 13.6229 1037 100.14 1328.99 470.719
1726 0 80.1232 13.7289 1100 99.2991 1329.34 470.105
1727 0 82.1682 13.6184 1119 101.152 1328.94 466.868
1728 0 87.2202 13.8844 1211 100.459 1328.92 465.747
1729 0 88.2564 14.5485 1284 99.6534 1329.32 463.906
1730 0 91.2153 13.3201 1215 102.459 1328.86 463.122
1731 0 95.1373 14.1164 1343 101.8 1328.68 461.556
1732 1 49.174 10.3713 510 101.729 1329.32 484.584
1733 0 47.0335 9.61017 452 97.0664 1329.43 481.111
1734 0 47.0732 9.81449 462 96.829 1329.05 481.838
1735 0 52.0503 11.0086 573 92.1344 1328.47 485.316
1736 0 52.0606 10.4878 546 95.0549 1328.31 483.736
1737 0 55.0478 12.9342 712 91.4536 1328.42 482.49
1738 0 56.0713 12.5019 701 93.4308 1328.02 480.25
1739 0 57.0345 10.9758 626 95.4601 1327.77 481.944
1740 0 59.1916 11.4881 680 95.6015 1328.5 481.21
1741 0 60.0523 11.1903 672 98.2024 1328.35 479.766
1742 0 63.0463 12.705 801 94.3233 1328.05 480.497
1743 0 66.1047 13.4484 889 95.2261 1328.08 477.364
1744 0 68.1175 12.4638 849 98.0954 1328.24 475.137
1745 0 70.0614 13.1599 922 97.5629 1327.95 475.94
1746 0 72.0989 12.2748 885 99.3028 1328.57 476.716
1747 0 73.0572 11.2925 825 102.899 1328.24 474.087
1748 0 76.1189 12.3754 942 100.627 1327.94 473.418
1749 0 80.0787 12.188 976 101.398 1328.08 471.208
1750 0 83.0924 12.8532 1068 100.27 1328.48 469.511
1751 0 86.1937 13.5625 1169 98.3644 1328.24 467.692
1752 0 89.1843 12.4349 1109 101.525 1328.51 466.469
1753 0 90.2076 12.3604 1115 102.258 1328.44 466.34
1754 0 94.1807 13.3785 1260 100.434 1328.35 466.414
1755 1 51.1914 12.0919 619 109.144 1327.69 487.646
1756 0 54.0532 12.6912 686 107.822 1326.68 488.366
1757 0 55.1053 14.5358 801 103.548 1328.06 485.345
1758 0 56.143 12.0407 676 113.843 1328.28 485.854
1759 0 59.1568 13.6755 809 109.823 1328.01 485.807
1760 0 59.2047 12.7861 757 114.085 1328.69 482.91
1761 0 61.1652 13.2592 811 113.543 1328.56 482.584
1762 0 64.2009 12.7257 817 113.668 1328.31 482.255
1763 0 66.1051 13.176 871 113.781 1328.08 480.45
1764 0 66.1051 13.176 871 164.2 1327.08 480.404
1765 0 72.1829 14.6849 1060 108.414 1328.52 479.531
1766 0 72.189 14.2681 1030 111.028 1328.68 478.754
1767 0 75.1708 12.5714 945 116.134 1328.32 475.992
1768 0 78.2068 13.4259 1050 113.338 1328.53 474.643
1769 0 80.2016 14.2516 1143 112.073 1328 471.936
1770 0 82.2433 12.5725 1034 115.55 1328.05 472.907
1771 0 87.2051 14.701 1282 109.917 1328.6 470.883
1772 0 90.1524 13.1999 1190 113.338 1328.29 470.465
1773 0 93.1847 14.0259 1307 111.793 1327.95 467.449
1774 0 94.2501 14.504 1367 111.435 1327.76 464.537
1775 0 98.3992 13.9127 1369 111.015 1327.24 466.263
1776 1 52.0705 11.0811 577 105.47 1327.31 486.458
1777 0 55.0601 11.8416 652 101.966 1329.67 487.798
1778 0 57.2578 12.3477 707 108.405 1328.47 485.379
1779 0 59.1183 12.2635 725 108.869 1328.12 484.221
1780 0 59.1227 12.2796 726 147.587 1326.12 484.18
1781 0 63.2213 13.4448 850 107.127 1327.43 481.678
1782 0 65.2221 13.5077 881 107.737 1328.44 479.183
1783 0 66.1981 12.3569 818 110.987 1327.69 479.705
1784 0 69.1459 13.1606 910 109.289 1327.95 477.435
1785 0 70.1949 12.1234 851 111.992 1328.58 476.599
1786 0 72.2931 12.6153 912 111.436 1327.56 474.934
1787 0 72.2931 12.5323 906 149.221 1326.56 475.012
1788 0 79.2166 13.0149 1031 110.875 1327.41 471.499
1789 0 84.2263 15.9333 1342 101.816 1328.06 471.636
1790 0 85.22 14.1399 1205 106.875 1327.92 470.058
1791 0 86.1752 11.9292 1028 113.27 1328.09 466.304
1792 0 90.1896 12.9838 1171 109.991 1328.04 468.341
1793 0 95.2086 14.1689 1349 107.07 1328.11 464.918
1794 0 97.1725 12.4933 1214 111.264 1327.95 465.217
1795 0 101.233 13.3849 1355 108.516 1327.63 464.463
1796 1 53.1267 12.0843 642 110.791 1326.65 485.308
1797 0 55.0827 12.1635 670 109.94 1326.71 484.227
1798 0 56.0759 12.2334 686 110.29 1326.42 484.701
1799 0 59.0771 12.4922 738 109.331 1326.58 483.794
1800 0 60.1121 11.8944 715 111.443 1326.1 482.867
1801 0 60.1283 12.3569 743 111.571 1326.49 480.604
1802 0 64.0943 12.3568 792 107.997 1326.22 482.62
1803 0 68.1295 13.2101 900 107.058 1326.96 479.781
1804 0 68.0802 14.1451 963 104.708 1327.17 481.194
1805 0 69.1977 11.8501 820 110.339 1327.08 479.651
1806 0 72.1066 12.9392 933 108.342 1327.49 475.868
1807 0 74.1399 11.7885 874 110.189 1327.41 476.815
1808 0 77.1711 13.7616 1062 105.724 1326.91 476.599
1809 0 79.0602 13.1166 1037 108.113 1327.03 474.214
1810 0 80.0588 10.8295 867 112.843 1327.04 473.195
1811 0 86.1888 12.7743 1101 107.785 1327.1 470.526
1812 0 88.1272 13.0947 1154 107.369 1327.06 470.126
1813 0 92.1432 13.5116 1245 106.248 1327.33 467.815
1814 0 95.2552 12.3353 1175 108.815 1326.99 467.305
1815 0 97.2109 12.5192 1217 108.083 1327.4 467.817
1816 0 101.171 14.1938 1436 104.24 1327.4 465.144
1817 1 52.2186 11.4518 598 109.229 1327.67 484.91
1818 0 55.2183 12.2061 674 103.712 1328.69 483.685
1819 0 57.1218 11.0116 629 94.2385 1328.21 487.854
1820 0 58.0584 12.5563 729 92.1262 1327.3 487.034
1821 0 59.1863 13.2294 783 91.6386 1327.77 485.057
1822 0 60.1163 12.7087 764 94.0013 1327.91 484.374
1823 0 62.1226 12.9421 804 92.7624 1327.55 484.066
1824 0 65.099 11.9664 779 94.421 1327.59 482.702
1825 0 68.0828 12.5142 852 92.8662 1328.1 481.432
1826 0 69.23 12.6246 874 93.8044 1328.05 479.241
1827 0 72.1596 13.193 952 92.1271 1328.5 476.834
1828 0 74.2465 11.9332 886 94.9244 1328.6 477.477
1829 0 75.2179 12.949 974 94.193 1328.24 477.215
1830 0 79.2076 11.918 944 96.0477 1328.52 475.102
1831 0 81.2778 12.7587 1037 94.6876 1328.79 472.571
1832 0 82.0625 11.5278 946 98.4429 1328.78 471.85
1833 0 87.079 11.9317 1039 98.0048 1328.26 471.131
1834 0 90.1034 12.297 1108 99.3619 1328.04 471.097
1835 0 91.2034 12.0281 1097 102.403 1328.32 467.108
1836 0 95.2057 11.5854 1103 102.728 1327.58 468.381
1837 0 97.2922 12.0051 1168 102.658 1327.94 465.67
1838 0 100.336 11.2223 1126 103.962 1328.17 461.04
1839 1 55.2022 11.7387 648 96.9907 1328 482.34
1840 0 54.1925 11.6806 633 98.0237 1327.88 480.45
1841 0 57.2869 11.7653 674 96.4021 1327.48 479.237
1842 0 61.1815 11.9644 732 94.1312 1328.44 481.637
1843 0 60.0834 12.0998 727 96.0935 1328.41 481.809
1844 0 63.2756 10.5886 670 98.2806 1327.54 480.475
1845 0 66.1719 10.9714 726 96.8664 1328.42 481.258
1846 0 68.2323 11.2996 771 95.8223 1328.7 478.693
1847 0 68.203 11.4804 783 125.308 1329.68 478.673
1848 0 72.1736 11.6109 838 96.3425 1328.52 475.906
1849 0 77.2786 12.2544 947 92.9578 1329.07 475.155
1850 0 80.1726 12.2985 986 93.3783 1328.19 473.08
1851 0 83.2378 12.3502 1028 93.5379 1327.81 470.308
1852 0 83.3417 11.5908 966 96.9896 1327.72 468.925
1853 0 88.2269 12.2298 1079 97.2308 1327.57 467.641
1854 0 92.3671 12.7535 1178 96.3862 1328.15 467.705
1855 0 93.1835 11.9012 1109 98.165 1328.58 467.767
1856 0 98.2699 10.5628 1038 100.569 1328.34 466.15
1857 0 101.194 11.4038 1154 99.6854 1328.22 463.737
1858 1 55.2254 10.5024 580 94.4448 1328.76 486.774
1859 0 57.321 12.6481 725 94.2069 1328.74 484.563
1860 0 60.1427 12.9193 777 95.7889 1328.16 480.605
1861 0 59.1447 12.2919 727 95.5488 1328.39 480.127
1862 0 61.2837 13.0051 797 92.0013 1328.34 479.936
1863 0 64.183 11.327 727 94.4966 1328.38 477.398
1864 0 67.1629 12.492 839 89.0358 1328.94 477.319
1865 0 67.0913 11.3279 760 92.3145 1328.81 475.516
1866 0 73.1286 13.2096 966 87.5062 1327.82 476.815
1867 0 73.1667 12.5057 915 89.6885 1328.71 474.831
1868 0 73.1343 11.2943 826 92.8608 1328.18 473.385
1869 0 78.0642 11.4521 894 92.9105 1328.01 472.764
1870 0 81.3014 11.0699 900 95.1344 1327.61 469.759
1871 0 80.1072 12.8078 1026 95.8216 1327.23 465.407
1872 0 84.2299 11.8604 999 95.0621 1328.2 466.932
1873 0 87.1071 11.526 1004 95.9622 1327.71 465.683
1874 0 90.1596 11.7458 1059 96.7271 1328.01 461.895
1875 0 94.2245 11.3134 1066 98.4118 1327.81 460.66
1876 0 97.2374 13.2768 1291 95.3393 1327.53 459.418
1877 1 49.3268 11.069 546 92.5183 1327.51 481.723
1878 0 54.3214 11.8554 644 90.2888 1328.01 481.203
1879 0 54.3822 10.8124 588 92.2738 1327.39 480.156
1880 0 54.1775 10.3179 559 94.3363 1326.28 481.327
1881 0 57.2137 11.3609 650 92.4831 1326.43 478.052
1882 0 60.26 12.7116 766 89.4608 1326.3 477.758
1883 0 60.2008 12.5746 757 90.5641 1326.58 478.62
1884 0 62.1929 12.6059 784 90.2972 1327.1 476.851
1885 0 64.15 11.8628 761 91.7687 1326.48 478.602
1886 0 66.065 11.6249 768 92.2253 1326.34 480.962
1887 0 69.2229 12.7848 885 90.0893 1328.45 474.782
1888 0 72.106 13.3137 960 89.5896 1328.84 475.936
1889 0 73.2261 13.0691 957 90.4754 1329.09 473.99
1890 0 74.1196 12.2505 908 93.3205 1328.79 472.213
1891 0 75.2105 12.4584 937 93.8207 1329.15 470.573
1892 0 78.1542 12.9744 1014 93.0611 1328.87 469.069
1893 0 82.1345 13.0639 1073 93.0009 1328.51 470.166
1894 0 84.1477 13.4169 1129 92.8804 1328.84 467.648
1895 0 86.2842 13.3281 1150 94.0896 1328.55 466.037
1896 0 92.1266 13.4923 1243 92.6758 1328.46 467.323
1897 0 93.1946 13.8849 1294 93.0464 1328.4 465.243
1898 1 45.0535 9.07809 409 97.7286 1328.71 487.45
1899 0 53.1746 12.4307 661 95.5144 1326.86 483.796
1900 0 55.0581 12.6412 696 97.2988 1326.97 484.69
1901 0 53.0874 11.1514 592 102.333 1326.64 482.674
1902 0 58.1023 13.2525 770 96.3351 1326.92 484.039
1903 0 59.0732 11.7989 697 101.165 1326.56 480.327
1904 0 60.1456 13.5338 814 97.4693 1326.86 482.028
1905 0 63.1286 12.8943 814 98.6179 1327.05 479.819
1906 0 63.1276 13.1797 832 98.6959 1326.69 478.984
1907 0 66.1034 13.2217 874 98.3261 1326.15 478.27
1908 0 67.113 12.9781 871 100.652 1326.82 476.412
1909 0 69.15 12.5235 866 102.848 1326.62 474.06
1910 0 72.2476 13.2876 960 101.315 1326.69 473.303
1911 0 75.1545 12.5608 944 103.368 1326.55 473.653
1912 0 77.2086 13.7809 1064 101.086 1326.43 472.68
1913 0 79.1357 12.4849 988 104.09 1325.87 473.413
1914 0 83.2108 13.5079 1124 103.035 1327.03 469.813
1915 0 85.1527 12.8475 1094 104.754 1326.91 470.619
1916 1 50.0235 9.95533 498 102.743 1326.38 489.126
1917 0 51.0399 11.54 589 101.265 1326.22 487.778
1918 0 52.0577 12.6014 656 96.75 1326.69 486.909
1919 0 53.0832 12.2449 650 96.7692 1326.32 486.182
1920 0 56.2162 12.701 714 95.8207 1325.85 485.081
1921 0 57.0641 12.2844 701 97.8017 1326.12 484.408
1922 0 57.0844 12.9808 741 97.7584 1325.68 482.475
1923 0 60.0413 12.9411 777 97.2767 1327.47 483.883
1924 0 59.0564 11.4806 678 102.428 1327.58 484.584
1925 0 61.1386 11.6293 711 103.64 1326.68 482.414
1926 0 64.1606 11.0036 706 103.392 1326 484.05
1927 0 66.1398 13.0784 865 99.1954 1325.78 482.572
1928 0 67.067 12.0476 808 102.636 1326.41 479.826
1929 0 67.1125 10.922 733 105.619 1326.62 479.398
1930 0 69.1847 12.0691 835 103.067 1326.52 478.606
1931 0 72.129 12.2697 885 102.977 1326.47 478.948
1932 0 74.2443 11.4622 851 107.908 1326.46 475.969
1933 0 76.0757 13.0134 990 104.447 1326.81 474.622
1934 0 80.2421 10.8671 872 106.619 1327.31 478.217
1935 0 83.1642 12.83 1067 104.028 1327.22 471.576
1936 0 86.2287 12.5828 1085 104.396 1327.28 469.119
1937 0 89.2596 11.8643 1059 105.172 1327.48 470.5
1938 1 48.2257 11.7987 569 105.445 1327.71 486.873
1939 0 50.3171 12.0834 608 103.202 1327.64 484.281
1940 0 50.0224 12.4744 624 103.955 1326.72 488.68
1941 0 52.0287 13.1082 682 103.031 1326.39 486.111
1942 0 54.0854 12.5172 677 104.292 1326.68 486.953
1943 0 55.0467 13.1161 722 103.737 1326.2 485.363
1944 0 56.0779 13.4634 755 103.94 1326.55 484.972
1945 0 58.026 13.8903 806 102.551 1325.79 484.089
1946 0 58.0669 14.1216 820 103.246 1326.8 483.866
1947 0 59.0712 14.1693 837 133.656 1327.85 484.173
1948 0 61.0304 12.7641 779 106.822 1326.67 481.626
1949 0 64.0536 13.2858 851 105.289 1326.08 481.738
1950 0 66.0414 13.4158 886 105.396 1326.48 480.451
1951 0 65.0649 13.525 880 106.378 1326.91 479.986
1952 0 70.0666 14.5719 1021 102.476 1327.47 478.509
1953 0 71.0616 13.6783 972 105.885 1327.14 478.534
1954 0 71.1326 15.0002 1067 104.19 1326.58 475.419
1955 0 74.1421 13.5685 1006 107.153 1327.88 476.368
1956 0 75.1696 13.3299 1002 108.863 1328.01 475.014
1957 0 79.2715 13.561 1075 108.265 1328.55 474.469
1958 0 81.2684 14.7659 1200 106.088 1328.02 472.212
1959 0 85.2944 13.8344 1180 107.619 1327.5 470.749
1960 0 88.1883 14.0041 1235 106.88 1327.93 467.014
1961 0 90.1545 14.331 1292 105.633 1328.13 466.333
1962 0 89.2111 11.2542 1004 112.657 1327.96 465.382
1963 0 93.1156 11.9958 1117 108.02 1328.37 459.886
1964 0 97.0803 11.166 1084 107.238 1328.03 459.965
1965 1 55.0688 11.8034 650 104.848 1329.5 487.478
1966 0 55.1203 13.3707 737 105.514 1328.91 483.712
1967 0 57.0333 11.3092 645 108.766 1329.14 485.938
1968 0 59.0242 13.5029 797 103.683 1328.73 481.178
1969 0 62.0355 11.9931 744 106.769 1328.7 480.031
1970 0 63.1319 12.2284 772 104.282 1328.85 481.46
1971 0 67.0676 13.1062 879 102.266 1328.89 478.101
1972 0 68.0473 13.1967 898 101.311 1329.12 477.661
1973 0 70.1017 12.9098 905 101.183 1329.17 476.439
1974 0 73.1649 13.5311 990 99.6212 1329.51 475.119
1975 0 75.0626 12.2165 917 102.665 1329.5 474.983
1976 0 78.0929 13.4839 1053 99.5299 1329.15 471.342
1977 0 82.1379 13.4043 1101 98.4469 1328.69 472.828
1978 0 84.1419 13.2395 1114 99.1724 1328.87 469.882
1979 0 87.0642 11.9337 1039 101.326 1329.64 469.286
1980 0 88.0746 12.9776 1143 99.2826 1329.34 468.344
1981 0 90.2423 12.134 1095 101.006 1328.5 467.068
1982 0 94.0711 12.0334 1132 100.775 1328.69 466.212
1983 0 97.1686 12.6069 1225 99.3053 1329.03 462.853
1984 1 50.048 10.0504 503 94.8946 1329.18 487.932
1985 0 54.0434 12.4529 673 91.6642 1329.68 485.355
1986 0 54.17 12.0362 652 98.7975 1327.9 483.758
1987 0 57.1522 13.2628 758 95.5488 1328.23 484.21
1988 0 59.2204 13.036 772 96.5065 1328.27 481.383
1989 0 61.2453 13.4541 824 94.6675 1328.32 481.879
1990 0 62.1776 11.6923 727 99.2393 1328.35 480.342
1991 0 67.1892 14.5559 978 91.4939 1327.62 480.689
1992 0 68.3281 13.8596 947 95.2482 1327.37 477.166
1993 0 72.2587 14.2958 1033 94.2604 1326.78 475.541
1994 0 74.3115 12.1246 901 98.2586 1327.47 475.31
1995 0 73.3472 13.3066 976 97.6875 1327.78 473.685
1996 0 76.3855 12.6202 964 99.3309 1327.84 471.979
1997 0 79.2567 12.2513 971 99.9485 1327.29 473.005
1998 0 82.3578 13.0407 1074 99.0931 1327.37 469.469
1999 0 83.4473 13.158 1098 99.6849 1327.48 466.57
2000 0 86.4964 13.2954 1150 99.0417 1327.44 467.081
2001 0 89.5778 14.066 1260 98.531 1326.72 463.256
2002 0 93.1224 13.4017 1248 95.4239 1328.95 463.598
2003 0 94.1095 12.7617 1201 98.7452 1328.29 463.161
2004 0 98.1401 13.0833 1284 98.588 1328.25 461.149
2005 0 99.0808 11.5764 1147 102.621 1327.95 460.132
2006 0 105.247 13.8721 1460 96.7671 1327.79 459.23
2007 0 109.423 13.2056 1445 99.5647 1327.68 454.233
2008 1 56.1267 9.1044 511 96.4618 1328.55 484.174
2009 0 61.1524 12.477 763 89.9882 1328.74 483.19
2010 0 61.1439 12.0372 736 92.9375 1328.03 480.967
2011 0 64.0786 12.0945 775 92.4929 1327.85 480.516
2012 0 66.1516 12.0783 799 92.8335 1327.95 477.852
2013 0 69.1677 10.3806 718 94.5501 1328.02 479.854
2014 0 71.1723 10.1022 719 95.5967 1327.81 476.99
2015 0 74.237 10.9918 816 93.4105 1327.49 478.942
2016 0 77.1399 9.77445 754 95.8568 1327.29 472.145
2017 0 77.129 9.65914 745 97.9154 1327.4 467.733
2018 0 83.121 10.7795 896 94.0379 1328.8 468.653
2019 0 85.1848 12.2322 1042 92.1852 1328.74 467.234
2020 0 89.0778 11.6752 1040 92.7288 1329.13 467.465
2021 0 89.2594 10.9568 978 95.1759 1329.03 464.137
2022 0 96.1818 11.4575 1102 93.8975 1329.19 462.298
2023 1 50.0826 9.84374 493 90.785 1329.68 489.081
2024 0 51.0906 10.8631 555 90.6414 1329.76 486.013
2025 0 53.0576 10.3661 550 92.3418 1329.21 482.753
2026 0 57.0497 12.1999 696 87.4713 1329.84 483.736
2027 0 58.132 13.0049 756 85.8585 1329.82 482.778
2028 0 60.0562 12.2552 736 88.1508 1329.62 481.783
2029 0 62.0648 12.8414 797 86.9385 1329.55 481.051
2030 0 63.1683 12.0155 759 89.0501 1329.55 479.779
2031 0 66.0394 12.8105 846 87.9657 1329.64 480.753
2032 0 68.0888 12.939 881 87.6629 1329.48 478.582
2033 0 70.1558 11.8451 831 89.8063 1329.16 475.52
2034 0 74.0823 13.62 1009 85.9356 1329.2 476.978
2035 0 77.1107 13.098 1010 86.1327 1329.41 475.673
2036 0 77.0754 11.2228 865 90.5734 1329.2 472.692
2037 0 78.0791 11.0017 859 92.0279 1328.6 473.412
2038 0 83.0374 13.3434 1108 87.6724 1328.93 471.497
2039 0 83.1362 10.8978 906 92.7274 1328.82 470.885
2040 0 87.1892 11.6872 1019 92.0412 1329.3 467.999
2041 0 90.1939 12.1738 1098 91.4062 1329.4 466.403
2042 0 93.2091 11.8551 1105 92.2317 1329.39 465.978
2043 0 95.309 11.4994 1096 92.9133 1328.99 466.862
2044 0 99.193 11.4524 1136 94.5651 1328.96 463.651
2045 0 102.315 11.2203 1148 94.5305 1328.69 462.088
2046 0 106.33 12.292 1307 92.4484 1328.6 461.025
2047 0 109.299 13.1382 1436 92.4854 1328.07 457.382
2048 0 111.331 10.9224 1216 97.4622 1327.79 455.188
2049 0 114.394 11.81 1351 96.2058 1328.24 454.935
2050 0 118.395 12.9904 1538 94.2243 1328.42 451.952
2051 0 120.289 11.1648 1343 98.6136 1328.23 450.521
2052 0 126.29 12.9226 1632 95.5931 1327.79 450.678
2053 1 66.0315 10.2224 675 96.0311 1329.11 477.356
2054 0 69.0576 10.455 722 95.6094 1329.43 477.23
2055 0 74.0644 12.8807 954 88.6321 1329.11 474.933
2056 0 74.0712 11.948 885 89.8588 1329.41 477.034
2057 0 77.1883 11.3359 875 85.3029 1327.95 470.818
2058 0 80.1223 11.2578 902 85.8004 1328.29 469.171
2059 0 85.2716 11.3402 967 85.3588 1327.98 470.046
2060 0 86.176 9.66626 833 88.0912 1327.47 468.719
2061 0 88.1487 9.92641 875 89.2354 1327.78 462.413
2062 0 90.1289 11.1063 1001 87.8911 1328.56 465.07
2063 0 97.1253 11.8816 1154 86.305 1327.37 464.818
2064 0 98.0816 11.5006 1128 87.445 1328.04 459.887
2065 0 103.151 12.1181 1250 85.7952 1328.83 463.724
2066 0 105.251 11.9713 1260 87.7198 1328.06 458.299
2067 1 53.101 9.67966 514 91.1907 1326.85 486.712
2068 0 55.1641 10.2422 565 91.8673 1327.38 482.239
2069 0 54.1058 11.1818 605 91.6132 1327.09 483.41
2070 0 59.2186 12.3948 734 98.3365 1327.72 483.204
2071 0 61.271 12.6487 775 97.8052 1327.7 482.321
2072 0 62.269 13.9877 871 95.9369 1327.91 480.653
2073 0 63.1807 11.9973 758 99.814 1328.12 480.255
2074 0 65.3102 12.5402 819 98.9841 1327.22 478.767
2075 0 69.2685 12.632 875 98.9966 1328.32 478.498
2076 0 72.2218 12.697 917 98.0872 1328.57 477.156
2077 0 74.2471 14.3709 1067 95.8116 1328.1 475.953
2078 0 75.3029 14.767 1112 96.1268 1327.82 473.463
2079 0 78.3577 14.4338 1131 96.5977 1328.24 474.291
2080 0 79.3924 13.49 1071 99.5117 1328.11 471.571
2081 0 82.3985 13.5561 1117 99.2256 1327.87 470.31
2082 0 84.5536 14.0266 1186 99.2858 1327.52 471.258
2083 0 85.5171 14.6053 1249 99.6421 1327.14 469.481
2084 0 88.3393 13.4821 1191 101.214 1327.27 469.097
2085 0 92.4672 13.1073 1212 102.54 1327.8 465.925
2086 0 95.441 14.6478 1398 99.226 1327.35 465.981
2087 0 96.4194 13.7006 1321 102.513 1327.71 464.69
2088 0 98.482 14.5306 1431 102.082 1327.43 461.316
2089 0 100.448 13.8082 1387 103.562 1327.89 460.563
2090 0 105.404 14.4587 1524 102.264 1327.25 458.044
2091 0 108.338 15.0917 1635 99.7413 1327.71 459.852
2092 0 110.411 14.2468 1573 103.457 1327.12 453.379
2093 0 113.369 14.9601 1696 101.57 1327.14 455.435
2094 1 61.1455 12.3967 758 103.831 1326.82 479.885
2095 0 61.2126 10.6514 652 103.406 1327.12 478.646
2096 0 63.1368 12.9718 819 100.114 1327.75 475.868
2097 0 68.1717 14.0087 955 95.7508 1327.84 474.068
2098 0 70.1263 11.4365 802 93.1047 1327.09 473.076
2099 0 72.0492 11.1452 803 94.8032 1326.58 469.416
2100 0 72.2216 11.7416 848 94.2099 1326.91 469.235
2101 0 74.1945 12.6694 940 93.1415 1327.21 465.464
2102 0 80.1776 13.0835 1049 91.2726 1327.37 467.654
2103 0 83.1838 13.6565 1136 90.9199 1327.51 465.015
2104 0 84.1827 13.8389 1165 92.1056 1328.05 462.699
2105 0 83.1038 11.9609 994 98.5402 1327.48 460.557
2106 0 89.1829 13.9713 1246 94.512 1327.31 460.145
2107 0 91.1953 13.97 1274 96.405 1326.81 460.036
2108 0 94.148 12.5866 1185 99.7527 1327.18 456.923
2109 0 97.1484 14.2874 1388 97.3062 1327.25 458.04
2110 0 101.185 12.6106 1276 100.575 1327.02 454.645
2111 0 107.242 13.7353 1473 96.2668 1326.23 452.904
2112 0 105.096 12.5314 1317 99.5596 1326.63 452.506
2113 0 113.23 13.8479 1568 100.756 1326.33 455.844
2114 0 115.179 13.5441 1560 101.45 1326.39 446.53
2115 0 122.157 15.0134 1834 97.4264 1326.94 444.697
2116 0 125.257 13.5721 1700 96.6553 1326.97 443.426
2117 1 64.2049 13.7684 884 95.2579 1327.5 471.689
2118 0 64.2235 12.8925 828 98.4432 1327.46 470.941
2119 0 66.1656 11.9851 793 99.1236 1327.22 470.992
2120 0 70.2416 12.9695 911 96.2228 1326.53 470.475
2121 0 74.3035 12.5297 931 97.0795 1327.39 468.298
2122 0 75.1715 13.8749 1043 94.5829 1327.44 469.556
2123 0 77.3419 12.3607 956 99.6454 1326.71 466.785
2124 0 78.2088 12.4283 972 100.491 1326.79 465.025
2125 0 82.1797 12.4605 1024 100.569 1327.34 461.726
2126 0 85.112 11.6787 994 105.685 1325.17 465.471
2127 0 87.0864 13.8254 1204 102.107 1325.59 462.551
2128 0 91.0835 12.8124 1167 103.364 1325.28 461.862
2129 0 92.0922 13.91 1281 101.024 1325.35 459.528
2130 0 98.1682 13.0898 1285 100.707 1325.63 456.735
2131 0 98.0781 12.2759 1204 98.1935 1325.23 464.256
2132 0 101.147 12.635 1278 99.4413 1325.13 457.138
2133 0 107.185 13.7613 1475 95.459 1325.5 458.098
2134 1 56.0515 12.9167 724 96.268 1325.39 479.349
2135 0 59.197 12.129 718 97.6476 1326.88 479.923
2136 0 60.2123 12.8545 774 95.7545 1326.39 478.885
2137 0 61.1886 13.5156 827 93.3144 1327.46 480.828
2138 0 64.2759 13.5665 872 92.3589 1327.73 481.396
2139 0 69.2089 15.157 1049 88.4214 1327.42 478.949
2140 0 68.1831 13.7131 935 92.861 1327.18 478.155
2141 0 71.2077 13.4957 961 93.0354 1327.33 475.815
2142 0 71.2077 13.4396 957 141.851 1327.35 475.913
2143 0 76.367 13.697 1046 92.6635 1326.71 471.716
2144 0 78.2225 12.9886 1016 94.997 1326.95 467.501
2145 0 80.2227 13.3005 1067 94.4939 1326.63 468.629
2146 0 83.2966 12.7856 1065 93.9559 1327.12 470.994
2147 0 84.1899 12.9826 1093 94.2086 1327.15 466.832
2148 0 86.273 13.1095 1131 93.5102 1327.35 467.273
2149 0 88.2966 11.3594 1003 96.5135 1327.41 465.296
2150 0 93.5132 12.5972 1178 93.0399 1327.2 463.218
2151 0 94.2759 10.4587 986 96.4097 1327.54 461.633
2152 0 99.303 11.6411 1156 93.6886 1327.94 460.038
2153 0 98.145 10.2909 1010 94.7366 1326.9 453.706
2154 1 51.0305 11.1502 569 90.9227 1326.54 476.316
2155 0 55.1414 11.4433 631 81.58 1327.28 477.311
2156 0 58.0348 9.70107 563 83.7975 1327.9 479.078
2157 0 60.0627 11.8043 709 81.0465 1327.65 475.994
2158 0 64.1761 11.0945 712 81.1152 1327.81 476.535
2159 0 64.2014 11.4795 737 80.8358 1327.77 475.152
2160 0 67.1552 13.238 889 78.1091 1328.17 472.297
2161 0 68.1171 10.3792 707 82.5219 1327.2 468.612
2162 0 68.0787 10.6788 727 83.6561 1327.36 472.162
2163 0 73.1438 10.7323 785 83.358 1327.48 472.098
2164 0 75.1294 12.5916 946 80.4852 1327.83 469.54
2165 0 77.144 11.8221 912 82.034 1327.65 464.357
2166 0 77.1058 10.7385 828 83.7234 1326.72 465.461
2167 0 83.2073 12.1864 1014 81.7959 1326.81 464.45
2168 0 83.0835 11.6028 964 83.3143 1326.4 461.546
2169 0 88.0823 12.9651 1142 81.4939 1326.78 460.236
2170 0 89.145 12.6311 1126 82.3996 1326.22 461.905
2171 0 90.0407 10.4286 939 86.8307 1326.5 458.481
2172 0 91.0927 9.902 902 87.9157 1326.03 459.113
2173 0 96.1622 10.0767 969 88.356 1326.25 455.265
2174 0 101.184 10.8812 1101 87.3433 1326.02 453.849
2175 0 106.054 10.8247 1148 87.8084 1325.73 452.613
2176 1 59.1579 11.427 676 82.1183 1326.81 480.101
2177 0 58.0654 10.3676 602 85.2641 1327.2 476.282
2178 0 63.0919 11.7289 740 84.5135 1326.87 475.284
2179 0 63.1031 11.6159 733 82.5675 1326.64 474.765
2180 0 68.1379 11.6382 793 83.111 1327.1 471.859
2181 0 68.129 12.0947 824 82.8095 1327.16 471.717
2182 0 70.1157 11.7663 825 84.2994 1326.36 472.835
2183 0 71.017 12.7716 907 83.3506 1326.45 468.971
2184 0 78.0791 12.5001 976 83.4334 1326.48 469.247
2185 0 80.2293 9.84678 790 86.8987 1327.3 465.871
2186 0 81.1742 12.3685 1004 83.8277 1327.36 464.843
2187 0 84.0892 13.6878 1151 82.7976 1327.21 461.499
2188 0 89.285 13.9105 1242 82.1514 1326.31 460.78
2189 0 91.085 12.2962 1120 85.4438 1326.25 459.865
2190 0 94.1842 13.2294 1246 84.5337 1326.74 456.182
2191 1 48.0463 10.3234 496 87.7641 1326.35 481.839
2192 0 53.1553 11.3441 603 94.1211 1326.03 480.33
2193 0 56.096 12.4073 696 90.7055 1325.78 481.588
2194 0 58.1063 13.372 777 88.0631 1326.4 480.937
2195 0 60.1059 13.576 816 88.0159 1326.38 479.866
2196 0 62.0771 12.9033 801 88.5843 1326.54 478.831
2197 0 62.0771 12.9033 801 125.288 1325.54 478.831
2198 0 65.0606 12.5114 814 89.36 1326.08 477.948
2199 0 69.0534 12.3238 851 89.2832 1325.72 475.443
2200 0 72.0635 13.1134 945 87.4064 1326.85 473.152
2201 0 73.0658 12.2492 895 90.1721 1326.16 472.152
2202 0 78.1766 12.6892 992 88.4446 1326.39 471.016
2203 0 79.1244 13.1186 1038 88.948 1325.79 469.596
2204 0 84.0886 13.7593 1157 87.6059 1326.09 468.358
2205 0 86.2679 12.7973 1104 89.971 1326.18 468.901
2206 0 89.2916 13.1703 1176 89.6667 1325.93 466.104
2207 0 93.385 13.0963 1223 90.2952 1326.39 464.634
2208 0 99.4171 14.7761 1469 87.0633 1326.7 464.839
2209 1 51.4808 12.2958 633 92.2085 1326.84 487.583
2210 0 52.4652 12.1795 639 96.1988 1326.44 480.592
2211 0 54.3267 12.793 695 83.9324 1327.97 485.258
2212 0 56.1012 13.1548 738 84.2005 1327.28 486.699
2213 0 58.1275 13.0575 759 84.5323 1327.56 485.333
2214 0 60.1711 11.9659 720 86.7208 1327.77 485.114
2215 0 62.1105 13.1701 818 85.3252 1326.8 484.034
2216 0 62.0745 13.516 839 84.882 1326.9 484.9
2217 0 64.2781 13.4105 862 85.5232 1327.11 483.411
2218 0 66.0888 12.8615 850 87.9659 1327.15 477.013
2219 0 66.2727 13.2785 880 87.9818 1326.76 476.67
2220 0 69.2011 11.6617 807 91.088 1327.22 476.112
2221 0 73.2634 13.0625 957 88.953 1327.11 476.905
2222 0 72.1275 14.1 1017 89.1042 1327.34 474.87
2223 0 77.1969 13.8477 1069 89.0711 1327.12 474.522
2224 0 80.208 13.3528 1071 90.6891 1327.25 472.574
2225 0 83.3045 12.8084 1067 92.7292 1327.32 469.738
2226 0 82.2472 12.2436 1007 95.1221 1327.48 468.658
2227 0 88.2489 14.1872 1252 90.5759 1327.33 469.186
2228 0 88.5497 12.6596 1121 95.992 1327.35 465.401
2229 0 92.4194 14.1637 1309 95.3407 1327.77 466.931
2230 1 50.5652 12.2812 621 101.496 1327.17 483.662
2231 0 52.3304 11.542 604 102.77 1327.51 477.752
2232 0 49.3265 10.6028 523 99.9981 1327.42 478.239
2233 0 56.1955 12.1896 685 92.6015 1327.74 486.07
2234 0 56.1235 12.9001 724 92.4558 1327.75 484.392
2235 0 58.067 13.1572 764 91.9058 1327.63 483.225
2236 0 61.1052 13.4195 820 91.7451 1327.25 484.324
2237 0 61.1292 12.0401 736 95.1114 1327.18 483.124
2238 0 64.1106 12.7748 819 94.0452 1327.59 480.659
2239 0 65.1575 13.6899 892 92.5583 1327.64 479.667
2240 0 65.2332 11.8191 771 97.0337 1327.41 478.101
2241 0 70.2039 14.059 987 92.4843 1326.83 475.576
2242 0 73.1853 13.9236 1019 92.1217 1327.69 477.478
2243 0 74.0954 15.669 1161 89.7795 1328.35 476.973
2244 0 75.1818 12.7691 960 96.6875 1327.68 474.23
2245 0 77.1421 13.1835 1017 97.5211 1327.06 472.016
2246 0 82.1482 13.4635 1106 97.1528 1326.88 472.101
2247 0 80.1841 13.0575 1047 100.5 1327.49 470.009
2248 0 85.1284 12.675 1079 102.288 1327.9 470.911
2249 0 89.1271 13.9239 1241 100.205 1327.26 470.139
2250 0 94.0768 13.2551 1247 101.217 1326.47 469.399
2251 0 94.1374 14.2133 1338 102.54 1327.07 463.666
2252 0 97.1766 13.9128 1352 103.348 1326.48 465.429
2253 0 103.15 14.0863 1453 102.65 1327.16 463.744
2254 0 105.329 13.9468 1469 104.357 1326.84 462.075
2255 1 56.0723 11.5743 649 103.122 1327.34 486.092
2256 0 56.1481 11.3094 635 110.016 1327.79 481.811
2257 0 60.247 11.7184 706 99.5453 1327.64 480.974
2258 0 61.1742 11.1322 681 101.322 1327.27 481.04
2259 0 63.143 11.1335 703 102.639 1327.46 480.733
2260 0 66.0558 12.5651 830 100.302 1327.11 479.906
2261 0 66.2825 11.4962 762 103.719 1327.28 480.993
2262 0 72.1765 11.8875 858 102.675 1327.21 480.925
2263 0 73.0949 12.7642 933 102.388 1326.84 481.747
2264 0 75.14 13.0556 981 105.256 1326.26 480.397
2265 0 76.0756 12.435 946 108.502 1325.96 479.589
2266 0 82.2082 12.7968 1052 107.421 1325.59 481.111
2267 0 82.1082 12.3983 1018 110.239 1325.17 480.771
2268 0 86.1774 13.9364 1201 107.495 1325.18 480.843
2269 0 88.2434 13.7121 1210 108.428 1324.45 481.281
2270 0 93.1418 13.7854 1284 109.068 1323.88 476.931
2271 0 95.1764 12.9339 1231 112.282 1323.9 473.944
2272 0 97.2225 13.7211 1334 111.517 1323.66 470.696
2273 0 102.185 13.3287 1362 112.55 1323.54 468.37
2274 0 105.259 13.2056 1390 112.783 1323.29 467.57
2275 1 59.1297 11.5847 685 106.612 1323.74 493.828
2276 0 64.1106 12.7124 815 106.553 1324.2 494.477
2277 0 65.0694 12.1563 791 108.475 1323.92 492.813
2278 0 66.1569 12.5006 827 107.212 1324.25 489.245
2279 0 66.081 12.2879 812 110.442 1323.63 487.748
2280 0 71.0942 13.4751 958 105.548 1323.77 485.29
2281 0 72.2513 13.8268 999 105.456 1322.89 483.345
2282 0 74.1012 13.0767 969 107.958 1322.84 482.811
2283 0 75.0873 13.3711 1004 108.245 1322.41 481.131
2284 0 78.1398 13.911 1087 106.966 1322.02 480.753
2285 0 79.1056 13.779 1090 108.43 1322.21 480.46
2286 0 82.0993 13.508 1109 111.105 1321.78 475.593
2287 0 85.114 12.5714 1070 113.451 1321.7 475.159
2288 0 88.1287 14.2632 1257 108.849 1321.25 476.185
2289 0 88.1927 12.6314 1114 114.075 1320.92 472.807
2290 0 93.1301 12.6382 1177 113.141 1321.34 470.436
2291 0 98.2625 13.6064 1337 108.772 1321.96 471.592
2292 0 100.383 13.2293 1328 109.251 1321.14 475.807
2293 0 105.363 14.246 1501 107.365 1321.29 471.059
2294 0 106.126 12.4004 1316 108.029 1321.05 468.065
2295 1 55.2012 10.6338 587 109.014 1320.74 491.346
2296 0 59.0543 11.0407 652 110.037 1320.4 490.837
2297 0 60.059 12.0215 722 108.51 1320.94 492.089
2298 0 64.0592 11.9889 768 107.073 1320.65 490.747
2299 0 66.0238 12.2077 806 109.892 1319.72 489.773
2300 0 68.0969 12.5997 858 108.498 1319.9 490.272
2301 0 70.0164 13.7682 964 105.797 1319.98 485.739
2302 0 70.077 12.1295 850 110.695 1319.49 484.62
2303 0 75.0655 12.9354 971 108.342 1319.42 483.768
2304 0 76.0935 12.5635 956 109.251 1319.03 482.357
2305 0 78.1029 13.0981 1023 108.018 1319.93 482.441
2306 0 80.069 13.1637 1054 108.054 1319.4 482.231
2307 0 84.1072 12.9478 1089 107.953 1319.59 481.429
2308 0 86.1075 13.5761 1169 106.977 1319.27 473.367
2309 0 88.0597 12.9798 1143 109.412 1319.3 473.144
2310 0 90.1272 12.7819 1152 110.418 1318.98 473.657
2311 0 96.0879 13.5085 1298 108.12 1319.28 472.71
2312 0 96.1404 12.7626 1227 110.606 1319.37 470.865
2313 0 98.0752 11.8073 1158 113.281 1319.68 468.458
2314 1 55.0327 10.4665 576 106.915 1319.16 490.148
2315 0 56.0765 11.3416 636 105.808 1319.44 490.821
2316 0 58.0613 12.1251 704 93.9929 1320.04 487.719
2317 0 59.0612 11.6489 688 95.8852 1320.21 486.189
2318 0 62.1369 12.8426 798 90.9223 1321.16 485.325
2319 0 63.2272 9.94825 629 96.0207 1320.98 484.782
2320 0 68.0515 11.4472 779 93.3286 1321 484.802
2321 0 69.219 12.0054 831 93.1131 1321.23 483.529
2322 0 70.12 11.6515 817 95.6059 1321.37 479.923
2323 0 74.1861 11.7003 868 94.447 1321.29 482.038
2324 0 76.097 11.2882 859 98.177 1321.15 478.767
2325 0 78.0435 14.1972 1108 93.8574 1320.98 477.299
2326 0 77.1749 12.6077 973 100.424 1321.73 475.869
2327 0 83.2031 13.9298 1159 98.4866 1321.23 474.769
2328 0 86.2022 12.0995 1043 102.671 1320.92 473.452
2329 0 88.3073 12.8528 1135 100.952 1320.9 471.303
2330 0 90.1321 13.1141 1182 101.624 1320.79 469.442
2331 1 50.0589 10.2879 515 98.0408 1320.68 490.516
2332 0 48.0618 8.67633 417 100.151 1320.51 491
2333 0 50.07 9.28701 465 90.9957 1321.29 491.578
2334 0 54.1201 9.03546 489 90.1472 1321.43 490.112
2335 0 54.0612 9.35976 506 91.7549 1320.89 487.47
2336 0 54.0518 8.28834 448 95.067 1321 487.288
2337 0 56.104 8.306 466 94.8562 1320.7 484.395
2338 0 58.094 9.29528 540 91.9593 1321.34 483.685
2339 0 59.1258 9.28528 549 91.7541 1321.05 484.275
2340 0 62.0434 9.31605 578 92.3408 1321.56 480.474
2341 0 69.109 12.2705 848 92.3266 1320.86 485.499
2342 0 69.0843 9.49564 656 96.9406 1320.94 484.428
2343 0 73.1481 11.5246 843 93.2408 1321.02 481.14
2344 0 75.1148 10.3841 780 95.259 1321.33 481.288
2345 0 77.1501 11.2897 871 94.5109 1321.1 479.551
2346 0 79.1762 9.88934 783 97.7407 1321.9 476.126
2347 0 83.1303 10.658 886 94.8014 1321.4 479.507
2348 0 87.1384 12.7843 1114 93.6086 1322.14 473.618
2349 0 89.1556 12.3155 1098 95.8224 1321.55 472.78
2350 0 91.1214 11.4902 1047 98.9226 1322.27 467.517
2351 1 54.057 11.6914 632 95.0585 1322.31 489.809
2352 0 57.0887 11.7887 673 93.5186 1324.25 487.342
2353 0 55.2566 11.4918 635 96.2472 1324.61 485.879
2354 0 58.2389 11.2983 658 96.234 1324.95 485.195
2355 0 60.075 11.6188 698 96.116 1324.58 481.64
2356 0 64.0852 13.4508 862 90.3492 1324.83 482.519
2357 0 66.1389 13.9706 924 90.4924 1324.53 482.369
2358 0 66.0901 12.6645 837 94.1493 1325.35 480.565
2359 0 70.148 12.4451 873 94.0115 1325.52 478.057
2360 0 71.0426 14.1605 1006 90.2147 1325.63 478.165
2361 0 74.1071 10.8896 807 97.0074 1325.58 475.81
2362 0 77.1722 12.4138 958 93.8956 1325.86 476.272
2363 0 78.1572 12.7563 997 93.8275 1325.27 474.456
2364 0 83.1796 13.0441 1085 93.6535 1324.88 471.658
2365 0 86.3628 13.4433 1161 92.609 1324.71 470.223
2366 1 45.1871 11.0872 501 97.8643 1325.74 488.838
2367 0 44.194 12.1736 538 96.9796 1325.32 486.42
2368 0 45.2563 12.7496 577 90.2825 1325.35 487.3
2369 0 49.1303 12.3345 606 90.9703 1325.43 487.373
2370 0 48.0724 11.3371 545 92.9321 1325.56 486.714
2371 0 49.0572 11.0687 543 94.0368 1325.43 487.164
2372 0 51.0705 13.4128 685 89.1839 1326.22 484.99
2373 0 54.1795 12.6432 685 90.4307 1326.03 485.95
2374 0 52.0367 11.9147 620 95.4613 1325.58 487.715
2375 0 54.033 13.8249 747 90.3896 1325.97 485.446
2376 0 57.0614 12.7932 730 92.6986 1325.42 484.237
2377 0 57.1128 13.5871 776 92.4201 1325.34 482.242
2378 0 61.1137 12.2068 746 94.6515 1325.8 482.438
2379 0 62.1337 12.4409 773 94.0841 1325.9 482.094
2380 0 63.1213 14.9237 942 90.4766 1325.61 478.255
2381 0 66.1911 13.5366 896 93.5156 1325.3 478.175
2382 0 65.1478 13.0473 850 95.6059 1326.02 478.039
2383 0 68.2196 12.5477 856 96.5923 1325.83 476.098
2384 0 72.2092 13.5717 980 93.8224 1325.64 475.349
2385 0 73.1348 13.9742 1022 94.0714 1325.2 475.174
2386 0 73.1133 12.6242 923 97.9621 1325.97 474.139
2387 0 78.1845 13.3658 1045 95.5665 1326.33 472.173
2388 0 80.1718 13.3339 1069 95.6445 1325.71 471.114
2389 0 81.223 12.7427 1035 97.6618 1325.94 470.196
2390 0 84.201 12.6483 1065 97.939 1326.02 469.633
2391 0 87.3008 12.5772 1098 99.0838 1325.63 468.439
2392 0 88.1154 11.9502 1053 101.286 1325.63 466.391
2393 0 90.1613 11.6902 1054 102.205 1325.69 465.035
2394 1 47.0862 10.1091 476 102.567 1326.97 487.576
2395 0 50.0699 11.8634 594 98.4781 1327.24 486.394
2396 0 52.1479 12.0043 626 99.4856 1327.19 483.505
2397 0 54.177 13.7697 746 88.6997 1326.95 481.84
2398 0 52.1114 11.9168 621 89.8277 1326.12 479.108
2399 0 55.1629 11.3845 628 90.1704 1325.72 478.592
2400 0 58.2422 11.4522 667 89.7226 1325.41 477.91
2401 0 59.1387 11.4477 677 89.6883 1325.61 477.186
2402 0 61.1342 10.1416 620 91.9742 1325.68 475.785
2403 0 63.1804 12.5039 790 88.6139 1325.34 473.606
2404 0 63.1065 11.33 715 90.649 1325.61 474.26
2405 0 66.1402 12.035 796 89.853 1325.18 471.121
2406 0 67.0996 12.5783 844 90.1149 1325.44 471.313
2407 0 68.1324 12.2115 832 91.2272 1325.7 469.548
2408 0 74.1891 12.4412 923 90.2308 1325.74 467.853
2409 0 76.1391 11.4659 873 92.4811 1326.63 466.505
2410 0 80.2475 12.0502 967 90.607 1326.75 467.949
2411 0 81.1236 12.105 982 92.4756 1326.06 463.813
2412 0 86.1668 12.9632 1117 90.9024 1325.34 467.688
2413 0 87.349 11.849 1035 93.2667 1326.09 460.093
2414 0 90.2994 11.6723 1054 93.7581 1326.68 458.424
2415 0 92.1382 12.7634 1176 91.7798 1325.84 458.676
2416 0 96.2318 11.7009 1126 93.6501 1326.35 455.512
2417 0 97.2281 13.6483 1327 90.5976 1325.88 455.314
2418 0 102.162 12.9108 1319 91.0675 1325.27 455.881
2419 0 106.32 12.6881 1349 90.8517 1325.9 455.119
2420 0 110.373 12.7386 1406 91.0633 1325.62 450.005
2421 1 61.2648 10.5444 646 88.6084 1326 474.367
2422 0 64.0927 10.5316 675 88.4726 1326.17 476.661
2423 0 67.0683 11.3317 760 88.55 1326.24 472.987
2424 0 65.1356 11.0232 718 87.376 1325.95 468.812
2425 0 68.0647 12.5322 853 84.993 1325.5 468.987
2426 0 72.2169 10.7731 778 87.8483 1325.06 467.254
2427 0 74.2968 11.8444 880 85.133 1326.02 465.916
2428 0 79.1127 10.9464 866 85.269 1325.72 468.387
2429 0 80.1374 12.3164 987 84.3242 1325.77 461.329
2430 0 82.1312 11.4816 943 86.3309 1325.86 457.946
2431 0 85.409 11.6264 993 87.144 1326.67 460.396
2432 0 84.0986 10.7969 908 89.4339 1326.17 453.65
2433 0 91.1404 9.80904 894 92.4922 1326.03 458.091
2434 0 93.2157 10.3309 963 92.2876 1326.08 457.004
2435 0 101.199 10.5534 1068 91.8792 1325.75 452.687
2436 0 107.3 10.5871 1136 90.9965 1326.07 457.942
2437 1 51.0522 10.2248 522 90.2682 1324.86 486.293
2438 0 57.1242 12.0789 690 86.5928 1324.9 484.641
2439 0 55.3302 11.4043 631 89.4358 1324.95 485.038
2440 0 59.1435 12.8163 758 86.5831 1324.47 482.658
2441 0 58.2121 12.0422 701 89.3566 1325.03 482.983
2442 0 60.1684 11.2518 677 90.7666 1325.19 481.273
2443 0 62.1368 12.3437 767 89.4042 1325.01 482.362
2444 0 63.1959 11.7255 741 91.1269 1325.3 481.028
2445 0 67.1031 12.3839 831 90.9362 1324.61 476.852
2446 0 70.1571 12.6716 889 90.4724 1325.27 475.999
2447 0 73.2835 12.7587 935 90.5176 1325.27 476.338
2448 0 75.14 11.9377 897 87.4381 1324.63 477.274
2449 0 78.1502 11.6954 914 88.4322 1324.66 471.735
2450 0 79.1691 11.9112 943 89.6023 1325.61 473.868
2451 0 81.0872 12.7764 1036 88.6052 1324.93 472.228
2452 0 87.1177 13.6597 1190 86.879 1324.11 471.17
2453 0 87.1187 12.9249 1126 90.5009 1324.71 467.709
2454 0 90.075 13.0558 1176 90.9447 1323.92 465.871
2455 0 94.2002 13.3227 1255 90.2669 1324.53 467.822
2456 0 95.1568 13.1152 1248 92.5922 1324.96 465.585
2457 0 99.0912 12.7761 1266 93.1043 1325.17 464.377
2458 0 103.246 12.601 1301 94.5119 1325.37 459.181
2459 1 58.2429 11.7096 682 94.4575 1324.27 483.427
2460 0 58.281 12.903 752 89.8684 1326.86 482.54
2461 0 59.0957 11.676 690 91.6928 1326.68 481.807
2462 0 62.1261 12.04 748 90.9104 1326.82 482.715
2463 0 64.125 12.5536 805 90.2708 1326.81 481.884
2464 0 66.1316 11.1142 735 94.1932 1326.1 479.679
2465 0 68.0966 12.1886 830 91.9964 1325.94 479.493
2466 0 71.1836 12.0393 857 91.9697 1325.98 478.413
2467 0 72.2371 12.6943 917 91.7983 1326.49 475.274
2468 0 74.1239 11.4403 848 94.6368 1326.01 476.612
2469 0 77.1653 13.5164 1043 91.1093 1326.16 473.349
2470 0 78.158 13.0121 1017 93.3678 1326.29 470.946
2471 0 83.1231 12.7883 1063 94.0104 1325.85 469.84
2472 0 85.1092 13.4181 1142 91.5 1325.88 469.074
2473 0 88.1531 13.3404 1176 92.051 1326.48 468.778
2474 0 90.1272 13.0038 1172 93.2551 1326.55 468.624
2475 0 93.1015 13.641 1270 92.6472 1326.2 466.875
2476 0 98.261 14.0239 1378 91.5138 1326.7 465.389
2477 0 100.099 13.3468 1336 94.2156 1326.37 461.325
2478 0 101.112 12.857 1300 96.1192 1326.64 459.609
2479 0 106.062 14.303 1517 92.501 1326.48 461.445
2480 0 107.154 12.692 1360 96.3272 1326.96 457.058
2481 1 61.0691 11.2823 689 95.9202 1327.78 481.594
2482 0 62.0776 12.9676 805 91.8286 1327.7 480.88
2483 0 65.1706 13.0887 853 90.6413 1327.7 480.471
2484 0 64.1168 12.0093 770 95.3532 1327.73 478.425
2485 0 69.0565 12.8735 889 92.2531 1328.09 479.229
2486 0 69.1485 12.6973 878 93.5342 1327.71 475.705
2487 0 72.2438 11.9595 864 94.9421 1327.27 473.48
2488 0 75.184 12.8352 965 93.7917 1327.34 472.313
2489 0 77.1983 12.8759 994 94.8088 1326.9 470.328
2490 0 79.0943 12.011 950 97.3463 1327.28 472.278
2491 0 83.1549 12.6511 1052 96.4154 1326.93 470.153
2492 0 83.1981 11.9234 992 99.2601 1327.48 469.647
2493 0 88.1329 12.8669 1134 97.6596 1327.5 467.274
2494 0 90.1464 15.2973 1379 93.1806 1327.24 465.987
2495 0 94.1507 12.9261 1217 97.5916 1327.8 465.837
2496 0 98.2076 13.6548 1341 96.7241 1326.83 461.75
2497 0 101.222 12.9616 1312 99.1913 1326.78 459.073
2498 1 53.1175 10.2979 547 101.572 1328.1 480.388
2499 0 51.0718 8.86986 453 104.124 1327.79 477.161
2500 0 50.0392 10.5517 528 92.8428 1327.96 474.176
2501 0 56.197 10.1251 569 88.6819 1326.43 474.084
2502 0 59.0926 10.712 633 87.8736 1326.3 473.93
2503 0 58.0913 10.9311 635 89.3039 1325.96 472.203
2504 0 63.0455 10.2783 648 88.7623 1326.05 472.214
2505 0 63.072 10.8606 685 88.9504 1325.44 472.889
2506 0 65.0433 10.5161 684 90.962 1325.65 469.047
2507 0 67.1004 11.3114 759 88.7918 1325.71 470.813
2508 0 68.115 11.231 765 89.7216 1327.07 468.514
2509 0 69.0713 10.9742 758 91.128 1326.79 466.185
2510 0 72.242 11.5445 834 88.8022 1326.79 467.832
2511 0 73.0673 10.8667 794 91.5743 1326.35 463.263
2512 0 75.1056 12.4092 932 89.4764 1326.55 462.291
2513 0 77.1087 9.31153 718 95.5306 1326.58 460.89
2514 0 84.131 12.219 1028 89.356 1327 461.696
2515 0 86.0848 11.0821 954 92.5776 1327.41 460.755
2516 0 92.1833 12.8874 1188 88.0606 1327.13 461.189
2517 0 90.1364 11.7711 1061 92.7974 1326.98 456.993
2518 0 93.1349 11.8538 1104 92.8442 1326.94 461.389
2519 0 96.1988 11.0396 1062 95.9746 1326.7 452.957
2520 0 98.1694 10.9708 1077 100.461 1326.21 451.27
2521 0 103.156 11.439 1180 97.1475 1326.85 456.549
2522 0 105.208 10.9498 1152 100.605 1325.91 447.467
2523 1 52.2559 6.77436 354 93.9153 1327.65 475.805
2524 0 60.2481 10.5232 634 87.4054 1327.65 475.916
2525 0 64.1434 11.7861 756 92.5873 1328.76 477.325
2526 0 65.1056 12.6103 821 92.2753 1328.75 475.307
2527 0 67.1195 12.7236 854 92.1276 1328.5 475.848
2528 0 68.0545 11.579 788 95.467 1328.27 474.703
2529 0 71.1074 13.2054 939 91.8818 1328.82 472.824
2530 0 74.1851 12.9271 959 92.7914 1328.3 471.394
2531 0 75.1324 13.6293 1024 93.0293 1328.64 469.978
2532 0 77.1848 13.0337 1006 94.8598 1328.97 467.806
2533 0 82.1535 13.2192 1086 94.558 1328.76 467.971
2534 0 83.2008 13.3532 1111 95.1818 1327.99 466.195
2535 0 84.1979 14.1452 1191 94.6692 1328.16 463.058
2536 0 88.1664 12.6125 1112 96.7752 1328.51 465.397
2537 0 88.086 12.7035 1119 98.0348 1327.9 461.6
2538 0 92.1413 12.763 1176 97.5468 1327.01 461.374
2539 0 95.1094 13.2689 1262 96.9612 1327.57 458.974
2540 0 99.2053 14.0315 1392 94.7083 1326.3 455.877
2541 0 100.179 14.0749 1410 94.5021 1326.41 457.355
2542 0 103.213 12.9441 1336 96.976 1326.1 455.716
2543 0 105.044 13.0516 1371 97.0678 1326.49 453.303
2544 0 110.195 13.4851 1486 95.4926 1326.27 450.054
2545 0 113.203 12.5262 1418 98.2553 1326.57 446.872
2546 0 118.314 13.8191 1635 96.8086 1326.61 445.738
2547 1 67.3149 11.2159 755 97.9669 1326.36 473.399
2548 0 70.1063 11.6109 814 96.8907 1326.62 471.354
2549 0 68.1079 11.0854 755 96.6622 1327.35 469.477
2550 0 73.1356 12.2649 897 89.5964 1326.76 469.786
2551 0 74.1163 12.4804 925 89.8605 1326.17 467.866
2552 0 76.1552 11.7261 893 91.0918 1326.06 469.16
2553 0 79.1486 12.1165 959 90.8332 1326.16 464.313
2554 0 84.2248 12.5498 1057 89.4995 1326.58 464.859
2555 0 86.1964 13.3416 1150 88.8313 1326.63 462.085
2556 0 88.1782 12.815 1130 89.8 1326.22 460.727
2557 0 90.1527 12.6119 1137 90.7203 1326.92 459.237
2558 0 94.1025 12.1144 1140 91.721 1326.1 459.919
2559 0 94.0909 11.085 1043 94.5916 1326.28 459.071
2560 0 97.184 12.3065 1196 93.2149 1326.33 457.171
2561 0 100.249 11.1622 1119 95.479 1326.82 456.592
2562 0 104.234 13.2298 1379 92.9471 1326.94 451.772
2563 0 107.12 11.4637 1228 96.7541 1326.2 455.392
2564 0 110.162 12.9718 1429 95.1924 1326.88 448.416
2565 0 115.218 12.203 1406 96.9339 1326.42 449.496
2566 0 117.106 11.9379 1398 96.3827 1326.97 451.96
2567 1 65.1146 10.9653 714 95.916 1327.08 475.245
2568 0 69.0229 12.1988 842 95.2767 1326.43 472.582
2569 0 72.107 12.8143 924 95.9264 1326.26 473.378
2570 0 73.0762 12.7675 933 97.6474 1326.9 469.767
2571 0 77.1073 13.8249 1066 95.3255 1326.09 469.855
2572 0 79.3442 13.3973 1063 97.0997 1326.97 463.792
2573 0 82.3404 14.4158 1187 95.1938 1327.17 465.689
2574 0 84.3613 13.2999 1122 98.1257 1327.03 464.796
2575 0 87.3699 13.5287 1182 98.3638 1326.62 463.713
2576 0 90.3467 14.0791 1272 96.3593 1326.46 462.171
2577 0 90.4262 14.0888 1274 97.7582 1327.08 458.508
2578 0 94.2951 14.1471 1334 97.4243 1326.96 460.823
2579 0 98.3625 14.7414 1450 95.7766 1327.29 460.383
2580 0 101.307 14.8065 1500 97.1407 1326.83 454.214
2581 0 104.358 13.8658 1447 99.027 1326.81 453.614
2582 0 107.302 13.3734 1435 101.047 1326.46 454.583
2583 0 109.387 14.0145 1533 100.151 1326.98 452.285
2584 0 110.223 13.89 1531 101.449 1326.81 450.052
2585 0 112.311 13.5605 1523 102.705 1326.6 449.156
2586 0 116.403 13.4791 1569 103.089 1326.28 446.777
2587 0 119.319 12.4624 1487 101.241 1327.05 446.906
2588 0 121.445 12.1619 1477 102.997 1326.52 444.331
2589 0 125.391 12.1141 1519 103.321 1326.4 442.735
2590 1 67.1633 11.941 802 102.363 1327.11 463.939
2591 0 70.151 10.9763 770 103.014 1327.15 464.852
2592 0 73.2032 12.9912 951 98.694 1327.17 462.961
2593 0 75.1441 12.0302 904 100.773 1327.9 462.698
2594 0 78.1596 13.4724 1053 98.7911 1327.06 459.543
2595 0 79.1814 12.8187 1015 100.089 1327.4 461.529
2596 0 84.1994 12.6486 1065 100.459 1327.02 458.55
2597 0 85.161 13.1398 1119 100.043 1327.79 457.265
2598 0 89.3513 13.0272 1164 98.6796 1327.9 458.932
2599 0 89.2144 12.8455 1146 101.209 1326.99 453.302
2600 0 93.1474 12.3353 1149 101.819 1327.39 453.819
2601 0 92.1776 12.183 1123 102.388 1327.93 453.728
2602 0 97.1641 12.7928 1243 99.9936 1328.41 450.7
2603 0 101.198 12.8264 1298 100.44 1328.09 450.407
2604 0 104.289 12.8585 1341 100.413 1327.83 448.33
2605 0 108.225 12.437 1346 101.495 1327.61 446.87
2606 0 110.146 12.2837 1353 102.228 1327.83 445.181
2607 0 113.362 13.5936 1541 100.006 1327.18 444.605
2608 0 113.136 11.3403 1283 105.224 1327.14 435.565
2609 0 123.259 12.8105 1579 100.447 1327.65 440.534
2610 0 127.149 12.4972 1589 100.299 1327.88 439.697
2611 0 132.267 12.8376 1698 100.167 1326.68 433.631
2612 1 72.3594 13.6402 987 95.8278 1326.78 463.247
2613 0 78.1816 13.1872 1031 95.4704 1327.18 466.338
2614 0 77.294 11.9155 921 97.1705 1327.27 459.428
2615 0 79.372 11.9942 952 97.6334 1327.41 457.116
2616 0 82.3166 12.8164 1055 96.3915 1327.32 455.133
2617 0 83.2346 12.8672 1071 95.9178 1327.95 455.661
2618 0 87.1275 13.8188 1204 93.1387 1327.68 455.488
2619 0 89.3394 12.335 1102 95.8748 1327.67 453.909
2620 0 88.2579 11.4211 1008 99.1091 1326.79 450.649
2621 0 94.2138 12.5672 1184 96.0017 1327.44 449.099
2622 0 100.229 13.8582 1389 92.4953 1327.26 450.429
2623 0 103.334 13.9645 1443 93.4608 1326.3 456.59
2624 0 107.34 14.0115 1504 93.7613 1326.55 451.991
2625 0 108.269 13.5126 1463 94.1018 1326.5 449.728
2626 0 115.359 13.731 1584 92.608 1325.49 444.86
2627 0 119.383 14.2734 1704 91.2342 1325.74 439.104
2628 0 123.322 13.2904 1639 92.928 1325.82 445.599
2629 0 131.44 14.7444 1938 90.2451 1324.89 439.765
2630 0 137.316 14.1717 1946 91.1043 1325.03 439.155
2631 0 137.297 13.3069 1827 126.293 1325.04 440.905
2632 0 146.464 13.5118 1979 93.3603 1325.47 428.01
2633 0 150.238 14.3772 2160 89.0898 1325.09 425.502
2634 1 84.3638 10.194 860 91.0721 1325.32 458.069
2635 0 91.2437 11.5844 1057 83.9044 1325.69 462.803
2636 0 95.1773 12.6921 1208 83.3444 1325.75 456.435
2637 0 96.2113 12.4102 1194 84.4405 1325.58 455.946
2638 0 99.3286 13.9134 1382 83.0123 1325.26 454.328
2639 0 101.111 11.9374 1207 86.57 1326.3 456.951
2640 0 105.135 12.4601 1310 86.3916 1325.69 455.619
2641 0 107.103 11.9511 1280 87.3195 1324.68 458.422
2642 0 112.206 14.099 1582 83.5088 1325.19 451.393
2643 0 116.278 13.8461 1610 84.4429 1325.3 446.843
2644 0 119.241 14.6845 1751 83.6596 1325.14 450.503
2645 0 122.348 14.753 1805 83.3801 1325.02 449.948
2646 0 127.259 14.2387 1812 84.8035 1324.88 446.935
2647 0 131.248 12.9678 1702 87.8807 1324.58 444.394
2648 0 135.351 11.9985 1624 90.3676 1325.53 442.01
2649 0 142.405 13.911 1981 87.525 1325.51 441.68
2650 0 146.421 14.0622 2059 88.8626 1325.38 439.408
2651 0 152.446 13.1588 2006 93.2767 1325.27 432.183
2652 0 156.349 13.0158 2035 93.8226 1325.29 430.854
2653 1 84.2702 12.7566 1075 89.3302 1325.37 463.076
2654 0 86.1844 11.0345 951 91.6782 1325.08 463.862
2655 0 90.277 12.085 1091 90.9358 1324.72 462.963
2656 0 92.2579 11.6196 1072 92.5765 1324.81 460.56
2657 0 96.1807 12.4141 1194 91.0938 1325.66 463.2
2658 0 98.3539 12.3432 1214 91.874 1326.17 457.56
2659 0 101.234 11.8636 1201 93.8709 1324.95 455.962
2660 0 104.471 11.9555 1249 93.9536 1324.79 453.307
2661 0 108.181 11.638 1259 93.5671 1325.07 455.722
2662 0 112.323 12.286 1380 92.442 1325.44 453.525
2663 0 118.419 14.4487 1711 88.4302 1325.88 449.025
2664 0 120.312 13.3735 1609 91.0497 1325.51 448.013
2665 0 122.337 14.7952 1810 89.7652 1325.22 444.762
2666 0 124.244 11.083 1377 96.9434 1325.33 445.061
2667 0 131.562 13.0205 1713 94.359 1325.54 441.325
2668 0 137.252 14.0544 1929 92.6475 1325.66 441.582
2669 0 139.608 10.3003 1438 100.489 1325.18 435.871
2670 1 79.2402 10.5376 835 87.8623 1326.14 471.752
2671 0 83.4027 11.0908 925 88.0984 1325.81 469.17
2672 0 85.4053 10.9595 936 89.4669 1325.59 465.704
2673 0 90.1668 12.4436 1122 88.9011 1325.97 470.15
2674 0 90.0989 11.7759 1061 91.8511 1326.2 466.195
2675 0 95.1444 12.8646 1224 90.2631 1326.38 463.666
2676 0 95.2026 11.9535 1138 93.4007 1325.37 460.913
2677 0 101.203 13.221 1338 90.8333 1325.62 461.447
2678 0 105.189 12.777 1344 91.9702 1325.19 460.543
2679 0 105.189 12.815 1348 144.168 1325.19 460.475
2680 0 108.275 11.831 1281 96.3107 1325.08 453.849
2681 0 113.39 12.6554 1435 94.6495 1325.56 454.784
2682 0 117.231 12.3602 1449 95.5348 1325.4 452.389
2683 0 119.256 12.838 1531 96.0248 1325.6 447.513
2684 0 126.181 14.2494 1798 92.7074 1325.69 447.386
2685 0 129.233 11.9242 1541 97.4977 1325.73 448.356
2686 0 134.131 12.3909 1662 96.9272 1325.98 445.254
2687 1 76.3028 10.537 804 89.3172 1325.71 472.857
2688 0 81.5095 14.072 1147 91.4542 1324.6 468.853
2689 0 82.2471 13.0825 1076 92.4758 1324.04 467.945
2690 0 83.1606 12.2414 1018 94.5972 1324.55 469.962
2691 0 87.3813 13.5384 1183 92.5334 1324.39 471.08
2692 0 87.3654 12.4878 1091 96.1164 1324.52 463.782
2693 0 92.4523 13.726 1269 93.3554 1324.49 463.137
2694 0 94.4543 12.4928 1180 96.4576 1323.89 461.797
2695 0 99.5089 15.1042 1503 92.7758 1324.17 460.895
2696 0 99.3256 12.2325 1215 99.9951 1324.19 454.816
2697 0 103.568 13.6335 1412 97.4285 1323.87 454.994
2698 0 106.702 13.533 1444 98.597 1324.09 453.386
2699 0 110.668 14.4848 1603 96.0306 1324.94 450.764
2700 0 112.385 13.516 1519 99.8644 1324.27 449.616
2701 0 114.484 12.9887 1487 101.607 1324.46 448.116
2702 0 117.25 10.9254 1281 97.936 1325.58 451.22
2703 0 121.237 10.6898 1296 99.1728 1325.4 449.107
2704 1 72.3025 10.4976 759 87.6996 1325.63 475.155
2705 0 73.3872 12.3046 903 91.8582 1325.21 471.374
2706 0 74.1032 12.5636 931 92.9173 1324.35 473.812
2707 0 79.1495 14.0746 1114 89.5063 1324.18 470.838
2708 0 83.1612 14.4779 1204 87.5282 1324.18 468.288
2709 0 84.1133 13.6483 1148 90.1768 1323.54 469.862
2710 0 85.2348 13.5977 1159 91.4814 1323.32 466.417
2711 0 86.3688 12.3887 1070 94.2224 1323.84 464.621
2712 0 89.2474 12.7735 1140 92.4368 1323.54 467.134
2713 0 92.2051 11.4636 1057 95.5184 1323.94 462.291
2714 0 96.2636 13.5254 1302 91.4301 1323.95 463.016
2715 0 96.1992 12.9315 1244 94.0048 1324.05 458.334
2716 0 98.3021 13.0923 1287 94.756 1323.44 455.39
2717 0 98.3021 13.0923 1287 135.938 1323.44 455.39
2718 0 98.2916 13.0937 1287 135.465 1323.44 455.39
2719 0 108.096 12.5907 1361 95.7825 1324.23 453.08
2720 0 111.242 12.9717 1443 95.1552 1324.47 451.081
2721 0 115.257 12.6326 1456 94.0858 1324.85 446.385
2722 0 121.278 12.0797 1465 93.2751 1324.73 447.485
2723 0 126.196 12.9561 1635 94.7492 1324.1 444.952
2724 1 68.0758 8.69619 592 97.6182 1325.82 472.84
2725 0 70.1214 10.7385 753 96.4157 1325.61 469.865
2726 0 71.1469 10.7805 767 97.6871 1324.92 466.834
2727 0 76.1466 11.6617 888 95.9786 1325.25 464.011
2728 0 79.1508 11.8003 934 96.031 1325.37 464.242
2729 0 84.1143 12.6138 1061 93.7154 1324.78 465.377
2730 0 83.1169 12.7651 1061 95.0641 1324.94 462.812
2731 0 89.22 11.5669 1032 96.4642 1325.52 463.107
2732 0 90.1747 12.8528 1159 95.6523 1325.8 457.669
2733 0 93.1018 12.2661 1142 97.0841 1325.52 457.121
2734 0 99.0837 13.2312 1311 94.5797 1325.66 457.663
2735 0 101.155 13.0789 1323 95.8148 1325.51 454.54
2736 0 102.07 12.7755 1304 97.6802 1325.5 453.202
2737 0 106.087 12.3012 1305 98.5034 1325.33 454.31
2738 0 109.112 13.9581 1523 96.2784 1325.26 451.586
2739 0 113.169 14.4033 1630 95.6699 1325.57 451.989
2740 0 116.097 14.0745 1634 96.5924 1326.17 449.237
2741 0 119.171 14.433 1720 96.3954 1326.21 448.76
2742 0 123.295 14.3234 1766 92.8992 1325.62 450.057
2743 0 125.259 12.9252 1619 97.748 1325.77 446.054
2744 0 131.281 13.673 1795 96.6663 1325.71 442.465
2745 0 134.223 14.6323 1964 96.3513 1326.07 443.443
2746 0 137.19 14.7095 2018 96.7577 1326.1 441.547
2747 1 76.1151 10.1163 770 98.0948 1326.96 474.173
2748 0 78.341 10.8117 847 98.7828 1326.83 469.712
2749 0 82.2601 11.8648 976 97.2633 1326.35 471.457
2750 0 86.4103 12.8573 1111 94.3852 1326.06 469.269
2751 0 87.2707 11.5961 1012 99.0968 1326.36 468.504
2752 0 92.3986 12.024 1111 100.755 1326.57 466.404
2753 0 94.3482 12.1571 1147 100.917 1326.13 464.861
2754 0 97.3876 12.1987 1188 102.735 1325.93 463.031
2755 0 99.375 12.2968 1222 102.939 1326.14 463.965
2756 0 104.412 11.2343 1173 105.583 1325.96 462.682
2757 0 104.344 12.6121 1316 105.489 1326.45 459.036
2758 0 109.407 13.4544 1472 103.954 1326.19 456.494
2759 0 110.525 12.7392 1408 106.059 1326.42 456.715
2760 0 118.492 11.6041 1375 107.955 1325.94 457.626
2761 0 119.506 13.2295 1581 106.007 1326.06 453.114
2762 0 119.47 12.9991 1553 107.269 1326.91 452.04
2763 0 119.477 13.082 1563 168.347 1327.9 452.12
2764 0 129.405 13.933 1803 105.522 1326.41 444.416
2765 0 136.473 14.6403 1998 102.974 1326.13 443.294
2766 1 76.1569 12.6187 961 101.516 1326.11 472.034
2767 0 79.2773 13.5852 1077 98.6704 1325.88 473.031
2768 0 80.3831 12.938 1040 100.54 1325.93 471.069
2769 0 84.302 13.0721 1102 100.706 1325.81 469.278
2770 0 88.2709 13.4812 1190 100.224 1326.96 467.837
2771 0 89.3711 13.6174 1217 99.7256 1326.72 465.44
2772 0 92.3443 13.1031 1210 100.34 1326.82 466.154
2773 0 93.3436 13.1771 1230 101.651 1326.52 462.013
2774 0 98.3195 13.2425 1302 99.4946 1326.19 464.187
2775 0 100.138 12.323 1234 102.685 1326.45 460.265
2776 0 103.315 12.7281 1315 101.284 1326.39 459.251
2777 0 106.295 13.3967 1424 99.6819 1325.56 458.101
2778 0 110.329 13.1788 1454 100.093 1325.53 455.28
2779 0 113.41 13.2616 1504 99.0931 1326.06 455.814
2780 0 117.484 13.2614 1558 98.7734 1326.03 453.798
2781 0 118.401 11.5539 1368 102.654 1325.71 448.383
2782 1 66.3391 12.7979 849 96.1508 1326.32 477.411
2783 0 70.1801 12.7529 895 95.352 1326.3 475.717
2784 0 72.3358 12.0134 869 94.7181 1325.85 473.366
2785 0 74.3125 13.7258 1020 91.2833 1326.08 473.011
2786 0 75.3867 12.0844 911 95.5664 1325.88 469.403
2787 0 81.5423 12.3494 1007 94.4578 1326.21 469.272
2788 0 81.2868 11.2195 912 96.6623 1326.21 466.788
2789 0 85.3108 12.6361 1078 94.5241 1326.33 465.37
2790 0 87.4477 13.2651 1160 94.4793 1326.17 462.715
2791 0 89.5326 12.5094 1120 95.8705 1325.93 464.045
2792 0 95.29 12.6771 1208 95.3725 1325.8 463.235
2793 0 97.5904 12.2758 1198 96.182 1325.98 461.572
2794 0 99.4977 12.8646 1280 96.6859 1325.39 457.227
2795 0 104.467 13.6215 1423 95.2467 1325.51 457.528
2796 0 106.507 14.1493 1507 95.578 1325.24 451.63
2797 0 111.595 12.2496 1367 98.493 1325.77 452.44
2798 0 114.555 13.1204 1503 97.1956 1325.76 451.797
2799 0 117.4 12.5809 1477 98.3148 1325.85 451.5
2800 0 121.343 12.9797 1575 96.3289 1326.51 451.884
2801 1 67.3467 11.6412 784 89.2117 1326.26 479.809
2802 0 70.5114 11.0195 777 89.9382 1326.86 476.21
2803 0 73.1883 12.9256 946 87.2558 1326.62 476.494
2804 0 74.162 11.5558 857 91.0502 1326.09 473.263
2805 0 77.1672 11.028 851 93.04 1325.8 469.546
2806 0 81.1852 10.9995 893 92.8387 1326.13 468.395
2807 0 83.178 10.8803 905 94.0243 1325.91 467.33
2808 0 87.3132 12.0829 1055 91.3592 1325.88 466.354
2809 0 89.5528 11.5909 1038 93.8237 1325.98 462.287
2810 0 93.5666 12.109 1133 92.6867 1325.9 462.415
2811 0 95.5049 12.8475 1227 92.2624 1326.05 460.971
2812 0 97.6295 11.4207 1115 94.6646 1326.28 461.09
2813 0 99.3273 13.3599 1327 93.2306 1326.25 456.051
2814 0 102.417 12.7811 1309 93.7013 1325.48 459.101
2815 0 106.321 12.3964 1318 95.5387 1325.59 454.087
2816 0 109.356 12.848 1405 94.4747 1325.45 455.782
2817 0 112.371 12.1561 1366 97.645 1325.28 450.786
2818 0 117.668 12.1529 1430 97.5755 1325.13 451.236
2819 0 121.49 13.5649 1648 95.4163 1325.83 450
2820 1 65.4149 11.6793 764 91.6414 1326.3 477.34
2821 0 69.4229 12.6471 878 94.6469 1325.79 475.426
2822 0 69.4229 12.6615 879 151.008 1324.76 475.323
2823 0 72.0734 12.3624 891 89.4254 1326.21 478.486
2824 0 70.1007 12.3251 864 92.3171 1325.82 475.531
2825 0 77.2586 12.4905 965 91.0528 1326.54 475.71
2826 0 79.2638 12.7296 1009 92.4896 1326.41 474.162
2827 0 81.1911 13.5976 1104 92.7681 1326.27 470.342
2828 0 83.0998 12.6474 1051 95.3673 1325.97 471.619
2829 0 86.2128 12.7475 1099 96.6979 1325.42 468.056
2830 0 89.4661 13.7594 1231 94.6572 1325.35 466.7
2831 0 92.4401 12.9381 1196 96.9298 1324.81 463.819
2832 0 97.323 13.1418 1279 96.2729 1324.74 461.999
2833 0 98.4132 12.9962 1279 97.4011 1325.06 459.73
2834 0 100.452 12.9415 1300 97.9054 1325.52 461.249
2835 0 102.438 13.2178 1354 98.336 1325.39 460.318
2836 0 105.363 13.1545 1386 98.746 1325.49 455.119
2837 0 109.724 13.9897 1535 97.1915 1325.5 454.749
2838 0 112.595 14.4677 1629 96.5083 1324.8 451.169
2839 0 116.484 14.3368 1670 97.0623 1325.26 449.288
2840 0 120.62 13.1653 1588 99.0674 1324.77 446.595
2841 0 123.552 13.209 1632 99.0331 1324.88 445.243
2842 0 131.434 14.7222 1935 95.9664 1324.64 444.148
2843 1 70.3008 10.8249 761 97.272 1325.45 471.665
2844 0 72.4211 12.234 886 94.7754 1325.63 472.147
2845 0 73.3877 12.3454 906 96.1347 1325.87 471.506
2846 0 76.2908 13.016 993 95.8046 1325.26 465.51
2847 0 81.4504 11.9091 970 96.1948 1324.91 468.397
2848 0 82.3117 12.2583 1009 97.226 1325.23 464.545
2849 0 87.1965 13.1083 1143 94.2318 1325.05 465.589
2850 0 89.5719 12.6379 1132 94.8348 1325.57 464.576
2851 0 91.6609 12.339 1131 94.6048 1324.97 463.328
2852 0 95.4621 13.398 1279 93.1876 1324.83 459.071
2853 0 97.8013 11.9017 1164 95.7268 1325.12 459.057
2854 0 103.853 12.8739 1337 93.4682 1325.64 456.342
2855 0 105.572 12.3896 1308 94.1659 1325.89 457.713
2856 0 110.425 13.2036 1458 94.3635 1325.53 452.53
2857 1 59.6652 9.72091 580 93.7966 1325.49 477.7
2858 0 63.3785 10.5872 671 91.7064 1325.07 477.589
2859 0 65.5886 11.6636 765 91.4824 1324.48 474.801
2860 0 65.3413 12.2281 799 90.8098 1325.08 474.941
2861 0 67.3716 11.6666 786 92.0394 1323.89 474.781
2862 0 69.372 11.2005 777 94.0991 1324.46 471.129
2863 0 73.3896 12.8901 946 90.3679 1324.62 471.492
2864 0 76.3595 12.834 980 89.4796 1324.8 473.116
2865 0 75.4081 11.2455 848 94.6403 1324.78 469.059
2866 0 78.7052 11.9941 944 93.625 1324.82 466.711
2867 0 79.5229 9.8588 784 97.3929 1325.23 467.263
2868 0 84.4139 11.3844 961 94.3611 1325.07 466.996
2869 0 88.5693 13.3455 1182 91.5152 1324.4 465.944
2870 0 89.5858 12.1894 1092 94.1548 1325 463.442
2871 0 91.4935 13.3671 1223 92.1431 1324.89 463.885
2872 0 96.6292 13.9192 1345 90.6007 1324.9 462.836
2873 0 98.6266 13.3433 1316 92.4438 1325.07 460.57
2874 0 100.664 13.4507 1354 93.1603 1324.47 459.984
2875 0 102.657 12.3615 1269 96.4334 1324.78 458.404
2876 0 103.718 12.3315 1279 99.1751 1325.07 455.843
2877 0 107.655 11.6297 1252 100.071 1325.09 455.671
2878 0 110.455 14.1053 1558 96.7394 1324.64 452.312
2879 0 114.919 12.7046 1460 99.8815 1324.54 451.496
2880 0 115.765 13.4151 1553 100.28 1324.43 447.83
2881 0 119.627 13.8598 1658 100.109 1323.85 449.232
2882 0 122.545 12.3628 1515 104.426 1324.56 445.411
2883 0 126.509 13.5247 1711 103.038 1324.71 444.961
2884 0 130.504 14.49 1891 102.057 1324.87 442.484
2885 0 135.426 13.7788 1866 103.875 1324.69 443.394
2886 0 137.725 14.7032 2025 103.503 1325.49 440.648
2887 0 142.41 14.8796 2119 104.811 1325.11 436.314
2888 0 147.627 14.0015 2067 107.867 1325.07 431.215
2889 0 152.633 14.5447 2220 108.072 1324.92 431.802
2890 0 156.651 15.0143 2352 108.54 1324.6 429.115
2891 1 87.6694 11.4065 1000 105.085 1324.37 464.473
2892 0 88.4186 12.2372 1082 103.881 1325.46 463.165
2893 0 91.3957 12.4185 1135 104.503 1325.07 461.149
2894 0 95.0718 14.1998 1350 98.9718 1326.37 463.905
2895 0 97.2418 11.456 1114 106.704 1326.1 458.899
2896 0 101.285 13.4472 1362 101.987 1326.32 459.504
2897 0 102.255 13.3001 1360 103.233 1326.67 460.162
2898 0 104.169 13.6893 1426 104.113 1326.25 457.425
2899 0 109.258 13.2897 1452 106.399 1325.97 453.832
2900 0 111.107 12.7355 1415 108.437 1326.48 452.558
2901 0 114.211 12.2667 1401 111.594 1325.9 449.838
2902 0 119.274 13.1042 1563 109.561 1325.11 448.269
2903 0 124.174 13.9965 1738 108.484 1325.36 444.995
2904 0 125.341 13.3795 1677 110.97 1325.28 443.757
2905 0 131.096 13.3947 1756 111.099 1325.54 438.962
2906 0 136.166 14.4309 1965 109.039 1324.7 439.009
2907 0 138.333 13.1422 1818 113.208 1325.29 432.809
2908 0 144.402 15.256 2203 108.047 1324.73 435.989
2909 0 146.34 13.209 1933 114.754 1324.8 426.807
2910 0 153.218 14.6131 2239 110.437 1325.95 425.215
2911 0 152.252 14.0884 2145 160.591 1327.94 426.335
2912 0 160.349 13.2399 2123 114.9 1325.8 421.822
2913 0 160.349 13.2399 2123 156.6 1323.79 421.938
2914 0 170.257 13.7263 2337 113.658 1325.69 417.917
2915 0 175.598 13.6334 2394 114.831 1324.84 410.056
2916 0 181.337 14.6578 2658 112.671 1325.99 411.299
2917 0 186.342 14.8276 2763 113.146 1325.01 410.565
2918 0 191.32 14.2118 2719 115.989 1325.63 401.533
2919 0 196.328 13.6302 2676 117.38 1325.37 398.539
2920 0 201.383 14.0081 2821 117.664 1325.15 394.375
2921 0 211.49 14.256 3015 116.139 1325.4 397.765
2922 0 219.426 14.8387 3256 116.211 1324.87 388.632
2923 0 224.437 14.5564 3267 116.761 1325.06 388.525
2924 0 233.532 15.3127 3576 115.122 1326.12 380.697
2925 0 238.541 14.966 3570 117.294 1325.96 372.842
2926 0 245.439 13.7957 3386 120.693 1325.92 372.11
2927 0 252.425 14.6142 3689 119.616 1325.98 366.435
2928 0 263.375 14.018 3692 121.53 1325.39 360.904
2929 0 261.347 9.77628 2555 131.865 1325.28 366.664
2930 0 258.404 8.26612 2136 129.352 1325.74 380.114
2931 0 253.406 7.91614 2006 128.573 1325.73 384.338
2932 0 254.22 9.06696 2305 129.043 1325.47 375.525
2933 1 234.207 5.80683 1360 123.299 1324.33 397.74
2934 0 230.237 4.34768 1001 128.233 1324.71 377.351
2935 0 234.28 10.1673 2382 116.994 1325.2 374.871
2936 0 240.186 11.5327 2770 115.217 1324.52 369.577
2937 0 249.166 11.6469 2902 114.046 1324.83 366.366
2938 0 254.224 10.8566 2760 116.133 1324.63 360.893
2939 0 262.188 10.256 2689 117.811 1324.79 352.215
2940 0 274.214 11.7171 3213 113.45 1324.59 353.448
2941 0 282.31 11.1296 3142 115.314 1324.7 346.655
2942 0 290.311 11.0192 3199 116.927 1323.86 336.113
2943 1 307.445 15.593 4794 103.81 1324.68 330.15
2944 0 316.629 13.9027 4402 109.1 1324.47 320.294
2945 0 321.452 12.7608 4102 112.653 1323.97 324.316
2946 0 331.452 14.0563 4659 109.938 1324.56 318.381
2947 0 331.39 14.074 4664 136.768 1324.55 318.342
2948 0 352.749 15.1382 5340 112.496 1324.35 318.723
2949 0 364.467 14.6186 5328 113.765 1324.63 304.672
2950 0 375.686 14.2433 5351 115.212 1324.37 302.584
2951 1 59.0582 9.77002 577 88.6776 1322.77 470.544
2952 0 56.0197 6.83688 383 92.7598 1321.68 477.23
2953 0 66.1388 11.5968 767 84.91 1322.75 440.086
2954 0 63.1189 11.5338 728 88.6058 1322.52 442.191
2955 0 72.158 14.9394 1078 77.3228 1322.96 435.134
2956 0 65.0748 12.7238 828 88.0278 1322.51 439.624
2957 0 65.1217 11.9008 775 92.2555 1322.69 441.454
2958 0 62.2119 9.88558 615 101.324 1321.96 441.849
2959 0 64.2374 11.4575 736 98.8736 1322.07 446.866
2960 0 398.195 16.0976 6410 114.42 1324.65 272.51
2961 0 409.078 16.2878 6663 113.56 1324.06 281.158
2962 0 66.1819 14.445 956 91.0732 1322.55 425.709
2963 0 67.2626 14.2873 961 91.0728 1322.04 424.834
2964 0 68.1952 13.7693 939 93.6134 1322.6 423.837
2965 0 69.1897 14.7999 1024 91.4004 1322.59 425.625
2966 0 66.315 14.2351 944 94.8475 1322.56 423.499
2967 0 67.3433 14.7008 990 94.3697 1322.4 421.27
2968 0 70.2794 16.9609 1192 92.3633 1322.62 423.846
2969 0 69.3508 15.4865 1074 97.0149 1322.86 426.445
2970 0 69.2843 14.1735 982 103.283 1322.71 427.777
2971 0 69.1997 13.9596 966 102.848 1323.29 433.543
2972 0 71.2828 16.1329 1150 102.192 1323.76 436.537
2973 0 69.4406 14.4584 1004 107.739 1323.58 435.89
2974 0 70.2881 14.2841 1004 109.172 1322.81 447.416
2975 0 68.2948 13.9396 952 110.417 1323.07 454.396
2976 0 69.3064 14.977 1038 108.838 1323.66 448.479
2977 0 72.2529 15.5149 1121 105.801 1322.73 450.369
2978 0 71.2081 15.7005 1118 106.117 1324.08 445.456
2979 0 72.2875 15.881 1148 104.854 1324.07 446.542
2980 0 72.3304 15.5121 1122 105.963 1323.95 454.293
2981 0 72.3566 15.4098 1115 107.253 1324.16 454.934
2982 0 72.42 14.3883 1042 109.15 1323.86 456.078
2983 0 72.2725 15.6353 1130 105.506 1324.21 463.627
2984 0 72.3795 14.6727 1062 108.663 1323.64 464.074
2985 0 73.3232 15.2203 1116 106.315 1323.93 459.303
2986 0 73.3227 15.6159 1145 104.956 1323.78 462.613
2987 0 73.3348 15.4361 1132 106.411 1323.76 462.229
2988 0 73.3214 15.1388 1110 107.657 1323.23 462.249
2989 0 73.2743 16.2267 1189 105.475 1322.27 462.082
2990 0 74.354 14.7806 1099 107.273 1323.22 464.252
2991 0 74.3703 15.4766 1151 105.232 1323.04 463.71
2992 0 74.3589 17.2945 1286 100.669 1323.08 464.115
2993 0 75.2795 16.8705 1270 101.666 1323.28 462.973
2994 0 75.2442 16.2272 1221 103.782 1323.34 463.965
2995 0 74.2767 16.0616 1193 104.052 1322.65 463.215
2996 0 76.3403 16.0859 1228 103.752 1323.03 456.409
2997 0 76.3497 15.8481 1210 103.381 1323.55 463.31
2998 0 74.1092 15.3962 1141 104.832 1326.68 458.411
