time division length width area intensity CMx CMy
0 0 60.0749 13.3334 801 108.946 1272.26 453.717
1 0 62.1307 12.8439 798 110.466 1271.78 454.658
2 0 64.0907 13.122 841 108.919 1272.41 452.206
3 0 67.0317 13.516 906 107.914 1271.54 450.328
4 0 69.07 13.3777 924 107.212 1272.07 449.019
5 0 71.067 12.0872 859 108.632 1271.93 458.444
6 0 70.0371 11.1655 782 112.533 1272.48 462.657
7 0 77.1208 13.0315 1005 107.896 1272.66 451.196
8 0 79.0967 13.0473 1032 108.567 1273.11 450.801
9 0 79.2086 13.1299 1040 108.542 1271.81 450.809
10 0 83.2735 13.6298 1135 106.877 1271.37 451.864
11 0 83.0834 12.6259 1049 108.572 1271.7 449.94
12 0 88.1102 13.9371 1228 104.693 1273.86 452.006
13 0 91.0825 14.4923 1320 110.807 1273.58 458.348
14 0 98.1166 14.5847 1431 108.594 1273.03 455.544
15 0 103.17 16.5649 1709 102.472 1272.43 451.81
16 0 102.077 14.44 1474 109.056 1272.52 450.365
17 0 106.225 13.7444 1460 107.938 1272.59 451.429
18 1 60.0917 12.7139 764 106.932 1272.44 474.356
19 0 62.0152 12.8033 794 106.652 1272.67 473.924
20 0 60.0695 11.237 675 103.723 1273.65 475.876
21 0 60.0826 10.9017 655 138.844 1273.61 475.576
22 0 67.334 13.1434 885 100.795 1273.36 471.519
23 0 67.1006 12.0416 808 104.036 1273.07 471.499
24 0 71.1334 12.0618 858 105.452 1274.31 468.5
25 0 74.219 14.0126 1040 101.642 1273.28 465.54
26 0 76.1785 13.5734 1034 103.476 1273.78 464.137
27 0 79.1876 13.1334 1040 104.964 1274.35 463.045
28 0 82.145 13.1718 1082 105.09 1272.93 459.922
29 0 85.1427 13.0369 1110 106.508 1273.49 457.677
30 0 90.3918 14.8907 1346 102.227 1273.71 457.418
31 0 91.1283 12.9268 1178 108.295 1273.6 459.302
32 0 93.1694 14.3717 1339 105.213 1273.51 456.803
33 0 94.2751 13.2803 1252 109.074 1273.96 453.014
34 0 98.2515 13.323 1309 109.007 1274.38 450.999
35 0 103.258 14.8753 1536 107.82 1273.27 446.598
36 0 105.38 13.7407 1448 111.188 1273.24 447.457
37 0 110.249 14.2043 1566 109.114 1273.04 443.99
38 0 110.252 14.2129 1567 145.354 1273.04 444.031
39 1 61.4218 11.8199 726 113.24 1273.57 467.675
40 0 67.4258 13.3925 903 106.924 1272.72 467.45
41 0 69.4268 13.3234 925 109.081 1272.94 466.254
42 0 70.447 12.3497 870 113.376 1273.21 465.89
43 0 71.0993 12.6443 899 108.269 1274.48 468.32
44 0 75.0538 12.7509 957 106.987 1274.22 467.446
45 0 77.1026 12.7363 982 108.071 1273.39 466.002
46 0 80.038 13.1687 1054 106.48 1273.39 464.242
47 0 79.0461 11.3605 898 103.308 1273.19 463.999
48 0 84.1586 11.514 969 103.271 1274.31 460.38
49 0 88.2416 12.3864 1093 102.309 1273.59 459.731
50 0 89.2396 10.9032 973 106.941 1273.15 457.739
51 0 93.1648 12.129 1130 106.204 1273.61 456.619
52 0 94.1865 12.4009 1168 107.718 1272.92 455.17
53 1 48.086 11.2299 540 98.1426 1273.39 481.207
54 0 48.1287 11.0121 530 98.4208 1273.02 477.642
55 0 50.0458 11.6893 585 94.7453 1274.6 478.458
56 0 54.0227 13.4573 727 101.534 1274.01 478.234
57 0 54.1766 13.6221 738 107.782 1275.09 475.813
58 0 55.1464 14.1623 781 107.79 1275.54 473.726
59 0 56.1799 12.994 730 110.79 1275 475.549
60 0 59.2492 13.0128 771 111.859 1274.74 476.423
61 0 64.1785 12.0445 773 113.571 1274.44 473.69
62 0 63.056 13.036 822 112.798 1274.76 472.404
63 0 64.0926 12.2479 785 115.41 1274.77 470.541
64 0 65.2037 12.3152 803 114.832 1275.43 471.55
65 0 69.026 12.6039 870 112.771 1274.4 470.599
66 0 70.158 12.6714 889 113.091 1274.51 469.237
67 0 72.066 12.7106 916 113.492 1273.97 468.481
68 0 74.1067 13.8314 1025 112.188 1273.19 465.227
69 0 76.0993 13.8897 1057 111.436 1273.63 465.335
70 0 76.0592 13.2002 1004 112.176 1273.51 464.949
71 0 82.1032 13.9215 1143 110.465 1273.45 462.247
72 0 80.0644 14.1261 1131 111.984 1273.87 461.304
73 0 86.1661 14.855 1280 108.58 1273.13 461.338
74 0 87.0948 13.7551 1198 113.255 1273.44 459.9
75 0 90.1164 13.4604 1213 113.095 1273.44 460.336
76 0 92.3626 13.2305 1222 114.102 1273.59 457.492
77 0 94.1455 13.0861 1232 111.882 1273.43 456.047
78 1 52.1149 11.4555 597 110.335 1272.81 476.642
79 0 54.0731 11.1146 601 109.988 1273.06 477.654
80 0 54.1474 11.6534 631 110.837 1273.57 475.501
81 0 54.2738 11.313 614 112.269 1273.78 470.87
82 0 58.2668 12.0995 705 111.854 1274.69 473.807
83 0 59.1862 13.1281 777 109.645 1273.77 472.579
84 0 63.2025 13.8602 876 107.051 1273.64 472.04
85 0 65.1664 12.9822 846 109.281 1274.29 471.059
86 0 67.175 12.8917 866 109.625 1274.22 470.804
87 0 68.324 13.2018 902 110.17 1273.59 468.889
88 0 71.2937 13.8161 985 108.264 1273.82 468.5
89 0 74.1323 12.5047 927 111.615 1273.75 467.336
90 0 75.1986 12.6332 950 112.587 1274.24 467.022
91 0 79.2879 13.2429 1050 110.822 1274.58 464.801
92 0 82.2086 12.7237 1046 110.518 1274.34 465.061
93 0 84.1935 12.5544 1057 109.768 1274.11 462.867
94 1 43.0455 10.1521 437 108.588 1275.38 483.97
95 0 46.0375 12.0771 556 106.75 1273.76 482.286
96 0 48.2222 10.97 529 110.991 1272.87 478.238
97 0 47.0578 10.9227 514 98.2879 1272.72 473.204
98 0 49.0558 11.9456 586 97.5307 1272.36 463.529
99 0 50.0503 13.0868 655 90.6061 1272.91 465.988
100 0 53.0794 12.4154 659 87.3642 1272.4 473.46
101 0 54.1188 11.8074 639 89.2347 1271.68 479.615
102 0 54.0824 12.4255 672 87.5997 1272.53 477.589
103 0 56.0629 11.719 657 90.414 1271.98 477.312
104 0 58.0754 11.7778 684 91.1389 1272.75 473.39
105 0 60.2428 12.3998 747 89.5863 1271.93 472.503
106 0 63.1671 13.2506 837 88.2222 1272.23 472.673
107 0 66.1475 13.2431 876 89.3048 1272.56 468.795
108 0 67.1179 13.0814 878 90.3895 1271.69 470.145
109 0 67.1469 12.3758 831 93.4272 1272 468.545
110 0 70.1075 12.0814 847 93.6257 1272.08 467.816
111 0 73.2088 13.2634 971 91.2266 1272.69 464.392
112 0 77.1063 13.2804 1024 91.4346 1272.52 465.723
113 0 80.2108 12.8162 1028 91.3765 1272.49 467.438
114 0 80.0712 11.19 896 96.0625 1272.43 466.498
115 0 84.2708 12.9464 1091 91.6929 1271.25 464.484
116 0 87.0988 12.3079 1072 92.5877 1271.95 465.543
117 0 90.0869 13.4093 1208 91.6457 1272.42 461.185
118 0 93.1327 13.2929 1238 91.7334 1271.88 460.641
119 0 96.224 13.4062 1290 91.4729 1271.92 456.372
120 0 99.1258 13.9015 1378 90.262 1272.24 456.068
121 1 51.0434 12.0682 616 98.0146 1272.2 479.368
122 0 54.0466 12.8223 693 95.127 1272.57 478.788
123 0 55.1274 12.0267 663 94.5943 1274.81 477.728
124 0 60.3542 11.6148 701 99.9572 1272.69 473.974
125 0 60.3454 11.6662 704 101.027 1272.89 472.923
126 0 62.1987 11.9456 743 99.6393 1273.46 474.651
127 0 62.265 11.8365 737 100.099 1272.77 474.794
128 0 68.1468 11.8568 808 98.6139 1273.75 474.095
129 0 68.2481 12.0003 819 100.38 1272.49 470.085
130 0 68.3345 11.473 784 101.202 1273.19 471.13
131 0 74.2776 13.3822 994 96.8451 1273.23 467.732
132 0 75.4415 13.7855 1040 95.8635 1272.5 467.462
133 0 76.2979 12.674 967 98.2316 1272.09 467.74
134 0 79.4 12.5819 999 98.7838 1271.9 464.215
135 0 84.326 12.8311 1082 98.3087 1271.89 461.094
136 0 87.3852 13.7323 1200 95.4608 1272.05 459.102
137 0 89.3555 12.3328 1102 95.5336 1272.33 459.376
138 0 91.1683 12.4276 1133 92.5463 1273.47 458.462
139 0 94.2036 11.4221 1076 92.2602 1272.71 458.786
140 0 99.135 11.8525 1175 92.0221 1273.19 458.378
141 0 98.1326 10.3635 1017 93.4857 1272.96 456.303
142 0 102.132 10.6431 1087 92.2962 1272.31 457.584
143 1 53.0994 12.1659 646 86.7508 1273.06 479.582
144 0 54.0688 13.2979 719 85.7677 1274.59 478.008
145 0 57.1372 11.7962 674 88.2878 1273.62 477.917
146 0 57.0799 12.0007 685 89.5358 1273.55 477.911
147 0 58.052 13.9013 807 85.5675 1273.41 475.771
148 0 58.171 11.174 650 91.5154 1273.25 479.125
149 0 60.1765 11.4164 687 91.4964 1273.39 477.361
150 0 60.1439 10.5248 633 95.6035 1273.36 475.957
151 0 64.1074 11.2779 723 94.0194 1273.5 474.985
152 0 67.0993 12.0419 808 92.1609 1273.96 474.276
153 0 69.1431 13.6818 946 89.9767 1274.17 472.892
154 0 70.0779 11.4016 799 95.5707 1273.54 472.105
155 1 37.2567 11.1121 414 98.5773 1273.64 483.981
156 0 38.2261 12.583 481 95.1538 1272.86 482.328
157 0 41.2044 12.8627 530 94.0774 1273.31 481.523
158 0 41.3048 11.5241 476 99.6345 1272.68 482.994
159 0 42.2819 12.2038 516 98.7326 1273.26 480.996
160 0 42.1904 11.2348 474 102.614 1272.69 480.903
161 0 45.2244 12.4712 564 99.0922 1273.14 480.973
162 0 44.261 12.11 536 100.709 1272.7 480.987
163 0 47.2543 12.3375 583 100.022 1272.66 480.153
164 0 49.1894 13.7428 676 97.2692 1272.64 479.602
165 0 51.2115 13.3759 685 97.1299 1271.53 480.4
166 0 50.2213 12.3454 620 102.156 1271.83 478.923
167 0 54.2896 14.7174 799 96.0939 1271.84 476.949
168 0 54.1218 13.4881 730 99.8 1271.86 476.937
169 0 54.1523 12.0771 654 103.463 1272.91 478.329
170 0 55.2302 13.145 726 101.763 1271.94 476.386
171 0 58.2727 13.2824 774 100.572 1272.73 475.333
172 0 62.2055 13.2464 824 99.5607 1272.31 474.51
173 0 63.2174 13.8886 878 98.754 1272.27 473.339
174 0 64.318 14.8637 956 97.9174 1272.94 470.71
175 0 62.2864 11.993 747 106.39 1273.2 470.126
176 0 64.2405 12.7801 821 104.596 1272.61 469.932
177 0 70.1403 13.2734 931 100.948 1273.27 471.315
178 0 71.16 13.9545 993 101.252 1272.47 467.438
179 0 73.159 12.8897 943 102.879 1272.9 467.797
180 0 75.1716 12.5978 947 103.652 1272.83 467.193
181 0 78.2143 14.3068 1119 99.908 1272.67 464.301
182 0 81.2075 13.5332 1099 101.436 1272.58 462.838
183 1 42.2295 11.7927 498 100.361 1273.39 481.721
184 0 42.1468 12.8598 542 94.4557 1273.28 478.878
185 0 40.015 10.646 426 94.5704 1271.93 476.925
186 0 41.0487 9.8176 403 97.1886 1271.73 476.385
187 0 44.0546 10.9864 484 93.7665 1271.59 475.643
188 0 41.1001 9.80533 403 97.8338 1270.89 473.928
189 0 46.0808 10.6769 492 93.0224 1271.46 476.315
190 0 47.0994 11.7411 553 91.8391 1270.98 473.145
191 0 49.0354 11.094 544 92.671 1271.77 471.722
192 0 49.0907 11.3667 558 92.7581 1271.32 469.391
193 0 51.1255 11.462 586 92.0887 1271.6 470.64
194 0 53.129 12.1026 643 90.4479 1270.61 469.718
195 0 54.0632 10.9131 590 93.0017 1270.91 468.09
196 0 55.0381 11.3013 622 91.8987 1270.91 467.481
197 0 56.0881 11.2502 631 91.5214 1270.85 465.97
198 0 59.1178 9.96316 589 92.416 1271.65 466.25
199 0 61.1746 12.1783 745 89.0322 1271.31 463.993
200 0 62.0938 11.2894 701 90.4365 1271.8 464.086
201 0 62.1134 12.4611 774 90.2933 1270.73 462.128
202 0 68.2881 11.9933 819 89.6606 1270.95 458.965
203 0 72.3397 11.446 828 90.1594 1271.51 459.85
204 0 73.1785 12.2304 895 89.6548 1271.6 456.686
205 0 75.183 11.3324 852 91.8204 1271.12 455.602
206 0 77.1307 12.8354 990 89.901 1271.37 456.188
207 0 80.1424 11.1052 890 93.8135 1271.62 454.287
208 1 40.1014 10.0246 402 86.6045 1271.52 475.604
209 0 39.0637 9.6253 376 91.3457 1271.95 474.447
210 0 41.1331 9.84609 405 88.9383 1271.28 473.783
211 0 44.1558 10.8933 481 87.5884 1272.3 473.214
212 0 43.0698 10.0534 433 90.4157 1271.99 472.843
213 0 46.0646 12.2437 564 86.1365 1271.74 472.193
214 0 48.0784 10.5869 509 88.3615 1271.79 471.24
215 0 52.1748 12.2473 639 84.8232 1272.43 469.74
216 0 52.0698 10.0826 525 90.4876 1273.02 467.328
217 0 54.0921 13.1258 710 86.4761 1272.46 466.934
218 0 56.1286 12.4179 697 87.6844 1272.41 465.818
219 0 60.1525 12.2356 736 86.837 1271.91 466.755
220 0 61.238 11.3655 696 89.6796 1272.14 464.707
221 0 63.0968 11.2525 710 90.4817 1271.81 464.516
222 0 65.2458 12.1081 790 89.0595 1272.04 465.367
223 0 68.1133 10.4825 714 93.6653 1271.26 459.86
224 0 70.0992 13.2384 928 89.2931 1272.38 462.336
225 0 73.1391 12.278 898 90.5857 1272.12 461.369
226 0 73.1276 10.8304 792 94.3914 1272.19 459.622
227 0 78.1073 11.4842 897 92.6198 1272.03 458.856
228 0 78.1444 11.6835 913 87.081 1272.45 460.432
229 0 81.1402 11.0056 893 88.9384 1272.08 458.573
230 0 84.1289 11.7201 986 88.646 1272.62 457.887
231 0 87.1771 11.2415 980 90.3592 1272.47 456.83
232 0 90.0621 11.2145 1010 90.9564 1272.82 455.195
233 0 95.0668 11.1606 1061 91.0396 1272.27 455.763
234 1 47.0384 9.56664 450 83.3867 1272.95 475.567
235 0 51.1114 10.2521 524 82.0458 1273.2 474.338
236 0 53.0544 10.951 581 85.7126 1273.5 480.799
237 0 55.0743 11.9475 658 84.6793 1272.65 479.967
238 0 56.0194 12.6206 707 84.2673 1271.66 478.276
239 0 58.0506 12.3513 717 84.6318 1272.15 477.102
240 0 60.0938 12.364 743 85.249 1271.44 465.297
241 0 63.1077 12.2014 770 84.8013 1271.81 468.61
242 0 60.2026 11.3284 682 88.0235 1272.02 471.845
243 0 66.1202 12.5226 828 85.3841 1271.57 470.15
244 0 68.1778 12.3647 843 85.5813 1271.72 468.985
245 0 69.1237 12.9189 893 85.5566 1272.04 469.121
246 0 72.0824 13.4152 967 83.7136 1271.89 469.787
247 0 74.0966 12.2003 904 86.49 1270.92 469.41
248 0 75.1103 11.8626 891 88.2626 1271.23 467.277
249 0 78.1836 12.5218 979 87.2584 1271.38 465.545
250 0 80.1615 14.0466 1126 85.5 1272.15 462.938
251 0 81.1809 11.7885 957 89.7126 1272.13 462.312
252 0 85.1261 12.3111 1048 87.5353 1271.97 464.941
253 0 89.0991 12.2672 1093 87.9094 1272.75 461.854
254 0 93.0988 12.1699 1133 93.4651 1271.89 460.013
255 0 94.1408 10.1762 958 97.4175 1271.88 457.453
256 0 99.1068 11.5633 1146 95.6161 1272.69 457.046
257 1 54.0853 12.092 654 91 1273.57 475.592
258 0 55.1769 10.6204 586 85.3089 1270.91 473.273
259 0 60.1878 11.7632 708 86.5664 1271.31 475.626
260 0 58.0945 10.8788 632 84.9968 1272.22 470.668
261 0 64.1048 12.4484 798 85.1592 1271.75 473.756
262 0 66.0661 13.0475 862 84.0708 1272.07 471.394
263 0 67.0748 12.4488 835 85.3545 1271.19 468.808
264 0 67.1221 11.4418 768 88.056 1271.55 469.344
265 0 71.226 10.5579 752 89.5027 1272.58 467.347
266 0 75.2185 12.0449 906 86.723 1271.2 467.044
267 0 75.2033 11.4357 860 88.9209 1272.12 467.6
268 0 80.1151 11.9952 961 87.8762 1271.33 464.019
269 0 82.2311 12.4527 1024 87.2744 1271.66 462.939
270 0 85.1331 12.0282 1024 88.3457 1272.04 460.821
271 0 89.1115 12.6359 1126 87.7123 1271.86 457.636
272 0 92.1355 11.4505 1055 90.9583 1270.82 455.55
273 1 47.0381 9.92813 467 95.4433 1271.6 478.816
274 0 51.1194 9.66365 494 97.502 1271.49 478.316
275 0 49.0302 11.2788 553 96.3327 1271.37 476.139
276 0 53.0458 10.7266 569 94.0756 1271.78 475.719
277 0 51.1366 11.5768 592 99.4595 1272.69 473.745
278 0 56.113 11.8511 665 98.0692 1272.01 473.747
279 0 57.0758 10.8978 622 99.6447 1272.25 472.434
280 0 59.1744 11.5253 682 99.1041 1271.65 472.428
281 0 61.15 11.4473 700 99.7614 1271.45 471.753
282 0 61.1247 11.272 689 101.003 1271.38 471.022
283 0 64.1784 11.4992 738 101.06 1272.25 468.908
284 0 65.2448 11.9856 782 100.598 1272 468.201
285 0 68.2162 12.3578 843 99.6999 1272.69 468.352
286 0 70.1077 11.625 815 101.182 1272.66 468.047
287 0 74.1958 13.1005 972 98.1091 1272.09 465.535
288 0 74.2945 12.4639 926 100.177 1272.6 463.202
289 0 76.4236 12.5223 957 99.9195 1272.49 461.853
290 0 79.4833 13.0468 1037 99.5265 1273.04 457.946
291 0 83.355 13.5685 1131 94.9408 1272.95 455.472
292 0 86.5828 12.2311 1059 96.6818 1271.93 454.444
293 0 87.4104 12.4241 1086 96.3122 1272.55 455.112
294 0 90.3897 13.1984 1193 94.8734 1272.59 453.266
295 0 89.3448 10.9128 975 100.694 1271.67 450.365
296 1 48.3576 9.90537 479 95.0543 1271.37 472.048
297 0 53.3385 10.7802 575 95.1148 1272.07 472.144
298 0 55.1848 10.6189 586 92.4625 1271.09 469.147
299 0 52.1723 10.2928 537 94.5791 1271.2 469.045
300 0 56.1443 11.5417 648 92.0864 1272.42 467.619
301 0 58.1476 11.5052 669 90.7175 1271.84 466.973
302 0 63.0669 12.4471 785 93.2815 1271.39 469.107
303 0 64.0592 12.3167 789 93.6185 1271.42 469.022
304 0 67.0957 11.6699 783 94.6411 1271.3 467.103
305 0 68.109 11.0999 756 96.2566 1271.18 467.036
306 0 70.0761 10.7312 752 97.734 1270.96 464.984
307 0 72.1085 11.9265 860 94.736 1271.5 465.159
308 0 72.089 12.3597 891 95.6801 1271.79 463.155
309 0 73.0757 12.3707 904 96.0752 1271.61 460.292
310 0 74.0374 10.2516 759 99.3096 1270.71 463.17
311 0 76.0772 11.1597 849 99.3121 1271 458.336
312 0 81.1732 11.6048 942 96.8344 1271.46 457.246
313 0 85.1989 11.7138 998 96.1713 1272.13 455.676
314 0 82.1029 10.8888 894 95.66 1272.33 454.638
315 0 85.1617 11.531 982 97.1721 1272.13 450.387
316 0 89.1957 12.2315 1091 95.8634 1272.48 447.237
317 0 95.1024 12.0607 1147 96.0157 1272.5 446.7
318 0 97.1813 11.5454 1122 96.705 1272.23 446.226
319 1 46.1196 8.30449 383 97.4282 1272.82 469.598
320 0 53.1723 10.1933 542 92.5793 1273.01 468.422
321 0 53.1443 12.2497 651 90.2412 1272.94 468.564
322 0 55.0995 10.3994 573 93.3229 1273.08 468.967
323 0 55.0629 9.86145 543 94.7348 1271.96 468.186
324 0 59.0757 11.5107 680 91.4897 1272.44 467.128
325 0 61.0338 12.0261 734 90.3038 1272.28 467.146
326 0 62.1096 10.9001 677 92.9557 1272.22 465.567
327 0 64.0999 11.7161 751 92.7284 1272.7 463.185
328 0 66.0712 11.9871 792 92.2146 1272.99 462.715
329 0 67.1026 11.7283 787 93.8412 1273 460.25
330 0 72.0713 12.3766 892 92.1076 1272.75 460.98
331 0 75.1184 12.7266 956 91.318 1273.14 458.688
332 0 77.2101 12.3818 956 91.9895 1273.32 455.976
333 0 81.1689 11.3344 920 93.75 1273.26 452.108
334 0 82.0856 11.22 921 93.9446 1273.29 456.199
335 0 88.1157 12.5517 1106 91.1736 1273.57 454.232
336 1 42.0735 10.0063 421 82.2732 1273.64 475.644
337 0 45.1765 10.8685 491 82.78 1273.46 476.542
338 0 46.0635 10.3987 479 85.9061 1273.04 475.194
339 0 47.0732 8.60362 405 83.3482 1273.65 476.284
340 0 49.0711 10.495 515 82.3961 1273.56 473.474
341 0 51.065 10.7118 547 81.8519 1273.86 473.623
342 0 53.1346 11.198 595 80.3563 1273.65 473.079
343 0 55.0694 11.1314 613 80.4959 1273.56 471.719
344 0 56.1058 9.07215 509 84.2947 1273.78 468.212
345 0 57.0395 10.6242 606 82.4934 1273.14 466.891
346 0 60.0969 11.8143 710 80.2423 1273.42 467.11
347 0 63.0795 11.0971 700 81.4671 1273.26 469.356
348 0 66.0254 12.8587 849 86.5489 1274.48 472.316
349 0 68.1646 13.35 910 84.5989 1273.75 471.073
350 0 72.1505 12.7234 918 88.5632 1273.75 472.123
351 0 72.2695 13.1037 947 88.189 1273.84 468.903
352 0 73.3118 12.6173 925 89.373 1272.66 468.623
353 0 76.2816 13.6206 1039 88.077 1272.27 467.64
354 0 81.3208 13.3545 1086 87.0967 1272.34 464.082
355 0 84.2852 12.5882 1061 88.5957 1273.15 464.29
356 0 86.282 12.5055 1079 89.2317 1272.89 464.578
357 1 45.0577 11.0525 498 94.2932 1273.38 484.217
358 0 46.1409 11.9634 552 93.1685 1273.79 481.217
359 0 48.1885 12.5549 605 90.4826 1273.27 480.922
360 0 49.0163 12.608 618 92.1537 1270.82 480.438
361 0 50.035 11.6518 583 95.2127 1270.99 478.847
362 0 53.0741 12.3412 655 93.629 1271.53 479.177
363 0 54.0404 12.7312 688 93.0756 1271.2 478.208
364 0 57.0602 12.5832 718 92.8176 1271.48 478.298
365 0 56.0908 12.9255 725 91.8428 1271.58 477.986
366 0 60.0544 12.139 729 95.07 1271.48 474.956
367 0 61.0484 13.7923 842 92.0048 1270.55 475.295
368 0 64.0785 13.7175 879 92.3595 1271.74 473.322
369 0 65.0317 14.27 928 91.4666 1270.91 472.559
370 0 66.0366 13.644 901 93.8679 1271.84 470.697
371 0 66.0366 13.6288 900 149.418 1272.83 470.687
372 0 68.0696 13.3687 910 95.8703 1271.28 470.835
373 0 72.0852 12.9014 930 96.429 1271.25 470.188
374 0 74.1152 14.6394 1085 93.3244 1271.56 467.852
375 0 73.1193 13.4711 985 97.1147 1271.55 468.9
376 0 78.0578 15.4757 1208 92.803 1270.97 466.386
377 0 79.0798 14.4158 1140 92.8377 1271.25 468.362
378 0 80.092 14.4084 1154 95.4047 1271.87 466.377
379 0 83.13 15.0608 1252 95.2748 1271.72 464.077
380 0 84.1017 14.1733 1192 98.7391 1272.06 463.524
381 0 87.1502 14.7676 1287 98.0117 1270.8 463.154
382 0 92.0998 13.6374 1256 99.7357 1271.9 463.832
383 0 93.1862 13.3603 1245 101.247 1272 461.168
384 0 96.094 14.0696 1352 101.229 1271.42 460.672
385 0 98.2539 14.0147 1377 102.725 1270.96 457.266
386 1 52.0444 12.4317 647 102.029 1270.72 481.082
387 0 49.0366 9.38074 460 97.3717 1271.58 475.863
388 0 50.074 11.1835 560 94.9625 1272.17 473.477
389 0 51.0679 10.4762 535 89.129 1272.43 475.503
390 0 53.0382 10.3699 550 89.7582 1271.61 473.818
391 0 57.0731 11.5641 660 86.9864 1271.54 473.811
392 0 57.0534 10.534 601 89.99 1271.42 472.724
393 0 59.0292 10.6388 628 89.9586 1271.55 472.4
394 0 63.1378 11.8788 750 88.352 1271.35 470.488
395 0 63.0665 10.9567 691 90.2518 1271.91 468.211
396 0 63.0592 9.61001 606 92.8267 1271.1 468.211
397 0 70.0858 12.713 891 86.9989 1272.25 468.387
398 0 71.0971 11.196 796 90.8128 1272.15 466.21
399 0 79.0829 13.4669 1065 84.2009 1272.78 461.252
400 0 77.149 12.3398 952 88.5483 1271.31 464.004
401 0 78.0336 12.4434 971 89.4109 1271.71 464.802
402 0 81.1198 13.1534 1067 99.5914 1272.93 467.593
403 0 84.1091 12.5789 1058 99.8459 1272.6 468.081
404 0 85.0784 13.2584 1128 100.528 1273.02 465.693
405 0 94.1342 16.0516 1511 91.8504 1272.66 460.149
406 0 93.2498 13.0617 1218 100.912 1272.75 459.749
407 0 98.2188 14.0604 1381 97.7842 1273.06 461.048
408 0 103.167 16.2067 1672 92.0347 1272.62 456.13
409 0 103.256 15.573 1608 95.2114 1272.09 455.098
410 0 105.153 14.1983 1493 98.8801 1271.66 454.941
411 1 58.1281 12.8681 748 104.301 1271.52 475.905
412 0 57.0804 12.1933 696 96.7672 1272.35 471.878
413 0 62.0573 11.4733 712 86.861 1272.04 472.872
414 0 62.1333 11.2178 697 88.1105 1271.89 470.162
415 0 67.0415 12.9472 868 84.3859 1271.51 469.283
416 0 68.038 11.7434 799 87.199 1271.74 468.242
417 0 71.085 12.4358 884 86.4502 1272.23 468.182
418 0 73.068 12.0436 880 87.7716 1271.89 466.219
419 0 71.0235 10.9823 780 91.6423 1271.56 465.094
420 0 77.0881 11.8047 910 89.6407 1271.75 465.347
421 0 78.0434 12.5315 978 89.2566 1271.01 461.837
422 0 84.1075 12.9834 1092 87.3269 1271.3 461.583
423 0 85.0566 13.5557 1153 87.0043 1270.5 459.336
424 0 89.084 13.1449 1171 88.2366 1271.02 458.48
425 0 88.0919 11.1929 986 93.0467 1271.47 456.531
426 0 94.1499 13.0855 1232 89.8994 1271.18 455.108
427 0 98.1255 12.3413 1211 92.3625 1271.51 451.17
428 0 100.1 13.6863 1370 90.3168 1270.58 450.558
429 1 50.0188 10.636 532 98.829 1270.6 475.274
430 0 54.1001 11.4233 618 97.6294 1271.41 473.417
431 0 56.0304 10.994 616 96.2386 1271.55 472.679
432 0 56.0576 11.9163 668 101.799 1271.01 479.419
433 0 58.14 11.0423 642 102.819 1271.39 476.558
434 0 60.0981 12.4463 748 98.9064 1272.68 477.294
435 0 62.1878 11.3849 708 101.643 1272.03 475.956
436 0 63.1003 12.3137 777 101.38 1272.71 475.523
437 0 66.1221 12.7491 843 100.276 1271.99 473.573
438 0 69.1216 13.9464 964 97.3236 1271.57 473.047
439 0 70.0988 11.7406 823 102.019 1272.16 471.798
440 0 73.1736 12.9965 951 99.3386 1271.32 471.061
441 0 74.0869 12.4853 925 100.6 1271.68 469.379
442 0 76.0809 12.0398 916 99.7391 1271.27 469.013
443 0 80.1055 12.8206 1027 98.1782 1271.99 465.732
444 0 82.1438 11.7964 969 98.9474 1271.67 466.268
445 0 86.0617 12.003 1033 99.6757 1270.95 464.737
446 0 88.1508 13.25 1168 100.209 1271.45 462.895
447 0 93.1095 15.1757 1413 99.7792 1271.75 459.76
448 0 94.1254 13.2802 1250 100.974 1271.45 458.618
449 1 53.1145 12.1059 643 97.5785 1271.04 481.952
450 0 51.0586 11.1245 568 100.863 1270.46 481.292
451 0 54.1673 11.6491 631 99.3185 1270.99 479.897
452 0 54.0773 11.1692 604 92.3444 1271.79 482.508
453 0 58.1384 12.023 699 89.9556 1271.65 480.612
454 0 57.1037 11.0501 631 91.8494 1271.57 480.74
455 0 59.0462 11.4487 676 91.8447 1271.83 478.723
456 0 60.1383 10.8084 650 93.4754 1272.02 476.812
457 0 65.1207 11.4249 744 92.5323 1272.11 476.376
458 0 68.2917 12.8566 878 89.0672 1272.3 476.17
459 0 69.0784 12.7536 881 90.7514 1272.69 472.616
460 0 71.0706 11.4675 815 93.1497 1272.19 470.665
461 0 75.1227 12.8057 962 90.1934 1272.1 471.595
462 0 77.0689 12.1061 933 92.2004 1272.12 470.678
463 0 80.1309 13.4031 1074 90.4953 1271.2 468.115
464 0 82.1683 13.521 1111 90.5752 1271.72 466.946
465 0 84.1003 11.6171 977 93.6295 1271.82 468.564
466 0 88.1373 11.7771 1038 92.8064 1272.02 464.451
467 0 91.0573 12.8051 1166 90.4828 1271.8 464.627
468 1 49.0575 13.1886 647 89.2689 1272.18 483.311
469 0 49.0296 12.727 624 86.7596 1271.14 481.356
470 0 51.1207 13.7127 701 83.9786 1270.76 482.044
471 0 53.0237 13.0319 691 84.356 1270.35 481.502
472 0 53.0624 11.1944 594 88.7761 1270.71 481.992
473 0 54.0252 13.4567 727 78.6809 1271.61 472.686
474 0 55.1104 11.7764 649 80.6102 1271.16 473.213
475 0 55.1104 12.2844 677 81.7755 1271.12 471.108
476 0 60.0324 14.1257 848 82.112 1271.72 474.959
477 0 62.0567 13.4716 836 91.6268 1271.31 474.902
478 0 65.0942 13.0734 851 92.1939 1271.06 473.694
479 0 67.159 12.7012 853 93.4209 1271.3 475.327
480 0 69.2096 13.0907 906 93.1733 1271.54 472.914
481 0 72.1549 12.9305 933 93.7342 1270.69 472.994
482 0 76.1693 14.2446 1085 90.8765 1271.29 470.873
483 0 76.1031 12.6145 960 95.5208 1271.67 469.562
484 0 80.0565 15.0894 1208 90.875 1271.39 466.889
485 0 81.1164 13.5361 1098 93.898 1270.49 468.423
486 0 85.0919 12.9037 1098 94.6312 1271.2 467.535
487 1 47.0637 12.6637 596 95.9513 1270.96 482.72
488 0 48.0174 12.6204 606 95.1683 1269.64 483.327
489 0 48.0895 12.04 579 94.3765 1270.84 482.575
490 0 49.1379 12.76 627 92.6922 1271.03 483.455
491 0 51.1289 11.9698 612 95.0931 1271.26 483.24
492 0 51.2861 11.6406 597 96.804 1271.32 482.868
493 0 54.053 11.9327 645 95.9085 1271.15 481.504
494 0 57.0863 11.649 665 96.8331 1270.96 479.755
495 0 59.1055 12.8753 761 94.0434 1271.84 477.47
496 0 62.0509 12.941 803 93.7273 1271.77 478.03
497 0 62.1196 12.814 796 94.4623 1271.91 473.799
498 0 64.1169 12.3836 794 96.0781 1271.28 473.926
499 0 68.1379 14.0304 956 93.2573 1271.54 471.796
500 0 70.2355 12.0025 843 97.6584 1271.05 472.218
501 0 71.1296 11.472 816 99.4007 1271.18 472.169
502 0 73.2104 12.348 904 99.6792 1270.87 467.696
503 0 78.2297 14.5469 1138 94.616 1270.69 466.718
504 0 79.0874 11.7718 931 100.141 1271.2 467.941
505 0 83.0872 12.9262 1074 97.5438 1270.99 464.055
506 1 44.0996 10.8164 477 99.3396 1271.88 484.193
507 0 43.1014 11.0669 477 98.8029 1271.51 484.034
508 0 44.0918 11.34 500 97.53 1272.17 483.422
509 0 49.1292 12.1923 599 93.5927 1271.33 483.608
510 0 50.1219 13.5071 677 90.9926 1271.5 483.474
511 0 50.0462 12.6283 632 93.1772 1271.41 482.896
512 0 51.0879 12.3513 631 94.4247 1270.69 480.133
513 0 53.1201 12.1611 646 94.4582 1271.39 481.449
514 0 53.1393 13.0788 695 93.1856 1272.08 480.124
515 0 56.1496 12.6092 708 93.3065 1272.08 477.877
516 0 55.2096 12.7695 705 94.4823 1271.87 475.997
517 0 61.1619 12.7694 781 92.5954 1272.76 475.988
518 0 63.0852 14.4091 909 89.604 1271.67 474.337
519 0 63.1318 13.5114 853 92.6893 1272.43 473.513
520 0 65.1922 11.7345 765 96.6824 1271.71 472.059
521 0 68.1603 11.8544 808 95.9592 1272.03 473.757
522 0 70.1382 12.1189 850 96.7612 1271.62 471.791
523 0 74.1589 12.7968 949 95.5353 1271.66 469.437
524 0 77.18 13.3066 1027 94.9338 1271.68 468.304
525 0 80.2073 12.9041 1035 95.7865 1272.14 467.42
526 0 80.1318 12.6042 1010 97.7505 1271.88 466.83
527 1 42.0236 10.6607 448 97.2902 1272.64 486.634
528 0 44.1109 12.0152 530 95.9811 1271.51 484.991
529 0 40.1136 11.4176 458 98.5524 1271.43 482.061
530 0 43.0577 11.2407 484 98.3574 1270.69 483.205
531 0 45.1443 10.7433 485 101.107 1271.62 483.93
532 0 45.0838 11.5784 522 100.201 1270.8 481.902
533 0 47.1857 11.5289 544 100.267 1270.97 480.136
534 0 50.1939 12.4318 624 97.907 1271.1 479.772
535 0 51.1579 12.0021 614 98.2134 1271.02 479.386
536 0 54.1165 12.8427 695 100.656 1271.19 482.403
537 0 56.2132 13.431 755 99.5285 1271.18 479.652
538 0 58.1967 12.9904 756 100.492 1270.56 479.648
539 0 57.2334 11.7589 673 105.015 1270.65 476.764
540 0 60.1766 11.6823 703 102.835 1270.48 478.196
541 0 63.2237 12.78 808 101.413 1270.14 476.084
542 0 63.2776 12.6901 803 103.552 1269.9 471.299
543 0 69.2944 12.7283 882 102.142 1270.13 473.45
544 0 70.4303 12.9064 909 99.3179 1270.53 472.864
545 0 73.5308 14.1709 1042 98.8253 1270.89 469.785
546 1 38.3249 10.5154 403 105.01 1270.55 486.797
547 0 39.2031 11.4787 450 104.598 1270.33 486.089
548 0 41.123 12.8152 527 96.4706 1270.81 487.472
549 0 42.1976 13.342 563 88.9485 1270.99 486.819
550 0 42.1195 11.776 496 92.4577 1269.83 486.327
551 0 43.1101 11.2735 486 93.1564 1270.06 485.988
552 0 46.0879 12.4111 572 89.8357 1270.58 486.708
553 0 46.0927 12.1277 559 92.5224 1270.86 484.819
554 0 49.1036 12.9115 634 90.6861 1270.51 482.134
555 0 50.072 12.6418 633 88.4044 1271.83 483.979
556 0 48.108 13.5736 653 91.0459 1271.72 484.896
557 0 48.1104 11.827 569 97.8594 1271.86 485.262
558 0 50.0479 12.528 627 89.6459 1271.58 485.525
559 0 49.0437 12.4787 612 94.0605 1271.24 484.531
560 0 49.0263 11.0349 541 97.8281 1270.91 485.869
561 0 49.0726 10.8207 531 99.7024 1271.57 485.098
562 0 51.1042 11.4276 584 99.4229 1270.53 485.063
563 0 50.1057 10.857 544 102.658 1271.03 485.116
564 0 49.0874 10.6748 524 104.643 1269.61 484.731
565 0 54.1659 13.6987 742 66.6146 1270.44 485.345
566 0 53.0599 12.2315 649 99.6903 1270.34 483.596
567 0 56.1052 11.5319 647 98.7821 1270.78 481.419
568 0 58.1016 11.6692 678 96.885 1269.78 481.063
569 0 59.0249 11.3003 667 97.0585 1269.54 479.316
570 0 59.0658 10.209 603 98.524 1269.98 478.247
571 0 63.0547 10.4354 658 95.8511 1270.16 479.4
572 0 65.0793 10.9251 711 94.7961 1270.32 477.703
573 0 67.0743 11.1965 751 94.1132 1270.38 477.9
574 0 69.1295 11.5725 800 93.855 1270.39 476.522
575 0 70.0479 10.8212 758 95.5409 1270.44 474.227
576 0 73.0828 10.9602 801 94.5019 1270.69 475.238
577 0 76.0963 11.3409 863 94.2399 1270.93 470.184
578 0 77.1465 9.83842 759 99.0369 1270.5 469.145
579 1 43.0455 10.152 437 97.6064 1270.86 489.497
580 0 42.0463 11.2257 472 98.858 1270.8 485.864
581 0 43.0812 11.6756 503 96.6958 1269.82 487.26
582 0 44.0411 12.0569 531 96.0019 1270.49 485.171
583 0 44.1182 10.9705 484 98.5103 1270.14 487.64
584 0 44.0122 11.2014 493 100.323 1269.96 486.982
585 0 46.0274 11.1455 513 101.764 1269.86 486.105
586 0 46.0359 10.4701 482 104.492 1269.29 485.052
587 0 47.0547 11.476 540 103.122 1270.01 485.593
588 0 47.0407 9.37486 441 109.918 1269.43 485.12
589 0 50.0392 12.5102 626 103.701 1269.96 483.383
590 0 51.0549 10.4202 532 108.214 1270.14 484.156
591 0 52.0596 10.4304 543 108.886 1269.95 483.772
592 0 54.0536 10.8041 584 107.894 1269.24 482.858
593 0 55.0394 10.9013 600 106.905 1269.94 482.787
594 0 58.0686 11.4003 662 107.024 1269.27 478.298
595 0 61.0571 12.0379 735 105.871 1270.21 479.067
596 0 63.0986 11.1571 704 107.445 1270.31 479.82
597 0 64.0403 12.0237 770 107.803 1270.11 477.244
598 0 66.0525 12.0359 795 108.13 1269.96 475.677
599 0 71.0621 11.7081 832 108.006 1268.84 476.13
600 0 71.0291 11.9951 852 108.829 1269.23 473.923
601 0 80.1055 14.1189 1131 99.6561 1268.95 470.145
602 0 82.2047 14.3787 1182 99.841 1269.43 468.737
603 0 82.1112 14.115 1159 101.932 1269.89 467.652
604 0 83.1284 12.6311 1050 107.069 1269.82 470.339
605 0 86.1071 13.3787 1152 105.539 1269.49 468.5
606 0 89.0957 13.0309 1161 107.026 1270.48 466.458
607 1 49.0356 12.8886 632 107.759 1269.43 486.494
608 0 50.0746 11.6826 585 112.301 1269.27 485.026
609 0 51.1695 12.4097 635 110.959 1269.91 485.006
610 0 51.0777 12.8628 657 114.452 1269.19 484.817
611 0 54.0771 12.2973 665 115.259 1268.38 483.179
612 0 54.0336 12.7328 688 114.458 1268.82 483.874
613 0 56.0228 13.6016 762 112.319 1268.76 482.125
614 0 57.0294 13.4492 767 113.718 1269.66 479.514
615 0 58.0131 12.8247 744 115.64 1269.03 481.585
616 0 60.0271 13.1108 787 115.088 1268.86 480.314
617 0 64.0938 13.8859 890 112.199 1269.21 478.931
618 0 65.0419 14.0832 916 111.918 1268.46 477.446
619 0 67.0925 13.7869 925 112.205 1268.93 475.943
620 0 67.1284 12.4091 833 116.527 1267.67 475.331
621 0 68.0876 12.9392 881 115.94 1268.9 473.893
622 0 71.0273 13.9946 994 111.68 1269.13 474.433
623 0 75.1186 13.8847 1043 113.093 1268.11 471.335
624 0 78.1338 14.2064 1110 112.667 1268.79 469.098
625 0 80.2543 13.3575 1072 114.032 1268.27 469.222
626 0 82.1394 13.124 1078 114.478 1269.12 467.844
627 0 84.2448 13.0809 1102 113.904 1268.72 465.669
628 1 47.0315 10.7375 505 111.121 1268.49 486.038
629 0 51.0429 12.7344 650 100.162 1268.02 484.369
630 0 51.0752 12.139 620 98.2387 1269.77 483.689
631 0 54.1235 12.6932 687 95.6885 1269.46 484.095
632 0 57.0893 13.5402 773 93.0621 1268.81 483.972
633 0 59.0378 13.2457 782 93.1483 1268.77 482.418
634 0 61.0491 14.4146 880 91.583 1269.5 480.26
635 0 60.0522 13.9878 840 126.935 1269.45 479.642
636 0 64.0879 12.7325 816 94.6814 1268.65 479.228
637 0 66.1248 11.7656 778 96.6028 1268.88 477.775
638 0 68.0388 12.2577 834 95.2638 1269.54 477.719
639 0 72.0774 12.5421 904 95.7179 1269.33 473.881
640 0 75.1214 11.8741 892 96.815 1269.51 472.853
641 0 77.1224 13.2776 1024 94.6875 1269.67 471.837
642 0 80.0599 12.5906 1008 96.1825 1269.66 470.84
643 0 81.0323 12.1433 984 97.9116 1269.12 468.988
644 0 83.0828 11.6029 964 98.8506 1269.35 468.04
645 0 89.0828 13.2012 1176 95.6208 1269.53 465.446
646 0 90.1238 12.3497 1113 99.5723 1269.36 460.894
647 1 49.0182 11.8527 581 102.453 1269.56 482.718
648 0 53.1457 13.1525 699 95.4592 1269.93 481.175
649 0 54.1136 12.0672 653 103.369 1271.09 482.4
650 0 55.078 12.909 711 102.284 1270.76 480.973
651 0 58.1063 12.8558 747 102.149 1270.66 478.692
652 0 59.1084 12.5194 740 103.641 1270.34 479.878
653 0 61.0716 14.1801 866 99.9838 1271.48 478.128
654 0 64.0558 13.1916 845 102.005 1270.53 477.337
655 0 63.0245 12.2651 773 105.917 1270.93 476.933
656 0 62.0835 12.9825 806 95.3462 1270.79 478.382
657 0 66.0688 11.1096 734 98.3038 1269.48 478.451
658 0 66.1297 11.5833 766 99.2755 1269.7 475.307
659 0 70.0659 12.6167 884 96.1538 1270.02 476.095
660 0 71.0509 11.1188 790 99.9278 1269.61 474.434
661 0 74.0687 12.6234 935 97.7529 1269.45 470.049
662 0 77.1068 11.4516 883 99.1427 1269.23 470.911
663 0 81.1667 11.6797 948 98.6941 1269.84 471.495
664 0 83.0775 11.8684 986 98.8824 1269.32 466.895
665 0 87.0468 11.1549 971 99.0227 1269.79 465.833
666 0 91.0884 11.9664 1090 96.2431 1270.22 465.545
667 0 94.1438 10.2503 965 98.401 1269.97 467.011
668 1 53.0953 12.3175 654 94.6774 1270.72 483.31
669 0 53.0457 11.7069 621 95.7729 1270.92 482.264
670 0 55.0612 11.9867 660 97.2591 1270.77 481.662
671 0 55.0269 11.7215 645 99.5008 1271.36 481.791
672 0 55.0933 9.91046 546 104.665 1270.56 482.806
673 0 56.069 10.9686 615 103.213 1270.5 479.73
674 0 58.062 11.4188 663 101.017 1270.75 481.247
675 0 62.0965 10.5159 653 104.156 1270.87 479.723
676 0 64.051 12.0841 774 101.395 1270.27 477.156
677 0 66.0421 11.0233 728 104.054 1271.4 475.636
678 0 67.1209 11.9635 803 101.837 1270.5 472.89
679 0 71.0552 11.5122 818 102.903 1270.72 471.834
680 0 74.0507 12.0998 896 101.337 1271.22 470.615
681 0 78.1238 11.7378 917 101.422 1271.14 469.623
682 0 80.1153 11.2588 902 103.798 1270.34 467.806
683 0 83.1559 11.9895 997 102.55 1270.93 466.662
684 1 42.0625 10.9361 460 105.8 1271.35 486.248
685 0 43.0603 10.0789 434 107.795 1271.44 485.689
686 0 46.1071 10.7359 495 109.424 1269.57 480.655
687 0 39.0306 10.5046 410 104.932 1270.03 477.59
688 0 41.1571 12.1972 502 102.195 1269.6 476.428
689 0 43.0787 10.0514 433 106.176 1269.36 476.298
690 0 44.0384 10.4454 460 106.2 1269.73 475.928
691 0 46.0385 10.5564 486 106.981 1269.88 475.224
692 0 48.2026 11.4102 550 105.035 1270.05 473.767
693 0 49.1603 11.5337 567 106.187 1270.62 473.866
694 0 52.0758 11.6561 607 105.57 1270.42 474.591
695 0 51.0508 10.9695 560 110.712 1270.7 472.888
696 0 55.1133 11.8483 653 107.81 1270.74 472.234
697 0 57.0695 13.4923 770 105.186 1270.9 469.712
698 0 61.0348 13.1728 804 105.312 1270.67 470.787
699 0 60.0503 11.4237 686 112.095 1270.79 470.06
700 0 62.1446 12.6157 784 108.614 1271.53 469.788
701 0 63.2063 12.8626 813 109.857 1271.25 468.652
702 0 66.0401 12.9467 855 109.524 1271.21 466.926
703 0 68.1371 13.0766 891 109.464 1270.62 466.154
704 0 70.0794 12.2575 859 111.943 1271.78 464.471
705 0 71.1226 12.9635 922 111.187 1271.44 464.4
706 0 75.1628 11.5483 868 114.02 1270.43 461.146
707 0 76.0343 12.2313 930 113.072 1271.12 460.598
708 0 79.1572 12.9868 1028 111.45 1271.01 459.58
709 0 80.0697 12.2518 981 113.106 1270.66 458.035
710 0 86.0327 11.9722 1030 112.046 1271.4 458.424
711 0 89.0934 12.8741 1147 110.484 1271.09 456.02
712 1 45.0416 10.4792 472 100.784 1271.53 479.57
713 0 49.1506 12.8177 630 107.906 1271.47 482.706
714 0 51.0942 11.2342 574 113.084 1272.05 481.458
715 0 51.1073 12.6401 646 118.961 1271.22 477.673
716 0 55.043 13.3714 736 114.946 1270.32 478.253
717 0 57.053 12.7075 725 115.415 1270.56 476.789
718 0 59.0736 12.6283 746 115.267 1271.17 476.094
719 0 62.0968 13.173 818 113.364 1271.02 475.494
720 0 62.079 13.6278 846 113.721 1270.59 474.638
721 0 66.0468 12.3852 818 114.428 1271 473.683
722 0 68.0525 14.1361 962 111.246 1271.61 470.861
723 0 71.0384 15.3297 1089 106.608 1271.36 469.272
724 0 72.0846 13.3038 959 112.346 1271.92 469.214
725 0 76.0322 13.8362 1052 110.014 1271.53 468.925
726 0 77.1822 12.5806 971 113.96 1270.94 467.301
727 0 78.086 11.8075 922 115.082 1271.39 465.515
728 0 83.1585 13.2398 1101 111.162 1270.57 464.307
729 0 86.0513 13.1549 1132 109.352 1271.28 463.451
730 1 41.0629 9.44893 388 107.317 1271.81 486.905
731 0 42.0605 11.1506 469 101.765 1271.26 484.896
732 0 45.2092 11.2366 508 101.12 1271.12 483.996
733 0 46.0691 11.5262 531 106.928 1271.88 484.507
734 0 48.0373 11.616 558 107.532 1272.11 481.276
735 0 54.0634 14.5385 786 97.8677 1271.39 480.854
736 0 52.0408 11.4333 595 105.844 1271.97 479.585
737 0 55.2588 13.0839 723 101.729 1270.17 479.249
738 0 56.0808 12.5355 703 102.858 1271.38 478.492
739 0 58.0755 12.2599 712 103.681 1271.35 478.559
740 0 63.0759 12.699 801 101.331 1270.8 476.115
741 0 63.0679 12.0822 762 103.629 1270.88 476.367
742 0 66.1013 12.0119 794 103.583 1270.79 475.44
743 0 68.0554 12.6368 860 103.22 1271.56 471.845
744 0 71.0324 11.3751 808 105.272 1270.76 473.524
745 0 74.086 12.6475 937 103.581 1270.95 470.968
746 0 76.273 11.2884 861 105.697 1270.42 470.336
747 0 79.0914 11.7459 929 104.067 1270.43 467.159
748 0 83.1349 12.3534 1027 101.478 1270.55 467.169
749 1 43.0331 9.75994 420 100.614 1269.99 487.124
750 0 45.0681 11.405 514 98.607 1270.01 484.44
751 0 46.0459 11.8577 546 94.1484 1269.82 484.692
752 0 48.0197 11.0371 530 91.3 1269.19 484.53
753 0 52.0495 11.2585 586 89.4471 1270.5 483.573
754 0 53.0608 11.7224 622 88.2428 1270.63 483.047
755 0 55.0929 10.4006 573 91.2094 1270.33 480.417
756 0 58.0448 11.784 684 87.5058 1270.08 480.95
757 0 58.0912 11.5508 671 88.2384 1270.78 481.036
758 0 60.0907 10.1846 612 89.1193 1270.67 479.377
759 0 62.0733 10.7615 668 88.2575 1270.49 478.127
760 0 68.0651 12.0767 822 84.545 1270.12 475.078
761 0 70.1699 12.0565 846 84.5095 1269.97 473.483
762 0 73.0573 12.6066 921 83.1357 1269.96 474.506
763 0 76.0856 12.0785 919 83.7443 1270.46 472.581
764 1 41.0838 12.5597 516 83.9205 1270.45 488.994
765 0 40.0162 11.0705 443 87.553 1270.12 489.124
766 0 45.0896 11.7987 532 87.3553 1269.83 485.806
767 0 47.0374 12.5857 592 83.7365 1270.62 488.221
768 0 49.0966 11.8542 582 85.146 1270.05 487.665
769 0 49.0478 11.9068 584 86.8339 1270.15 484.981
770 0 50.0894 12.4377 623 86.6533 1269.57 484.864
771 0 52.0589 11.5638 602 87.9502 1269.39 483.05
772 0 56.0305 13.8139 774 83.4664 1269.12 482.796
773 0 57.1395 12.4432 711 86.5963 1269.64 480.226
774 0 58.0699 11.6067 674 88.2819 1269.85 481.039
775 0 60.0435 13.0572 784 85.8418 1270.16 478.894
776 0 63.1371 13.8429 874 84.1808 1269.32 478.364
777 0 65.0764 13.9067 905 84.5867 1269.21 477.694
778 0 65.0626 12.0807 786 89.0433 1269.2 476.284
779 0 68.0432 13.6825 931 85.3641 1270.07 475.679
780 0 72.0833 13.4844 972 85.573 1269.69 474.516
781 0 74.1219 13.7611 1020 86.2559 1270.41 473.126
782 0 76.0828 13.1567 1001 87.3217 1269.68 471.186
783 0 80.0567 12.2788 983 88.9868 1270.18 468.682
784 0 80.2807 12.2445 983 89.6368 1270.12 467.398
785 0 84.2097 12.837 1081 87.778 1269.84 465.324
786 0 88.2492 12.4534 1099 127.047 1270.43 464.548
787 0 89.2415 12.0908 1079 90.0417 1271 463.646
788 0 93.1724 11.6665 1087 89.6688 1270.38 464.837
789 0 94.6039 14.1749 1341 92.302 1270.42 459.758
790 0 97.4762 14.0034 1365 92.9216 1270.63 457.471
791 0 102.762 15.1612 1558 88.9673 1270.08 457.06
792 1 140.381 12.4305 1745 101.355 1269.59 437.453
793 0 146.249 15.2001 2223 97.1997 1269.56 438.598
794 1 59.2977 11.4338 678 104.549 1270.2 480.171
795 0 60.2979 11.9739 722 102.845 1270.01 477.45
796 0 63.1517 12.0028 758 102.371 1269.13 478.636
797 0 65.2012 12.3617 806 103.164 1269.95 475.767
798 0 68.1869 12.7151 867 100.636 1270.31 476.871
799 0 69.1782 14.0651 973 99.1151 1269.94 474.237
800 0 72.1117 12.855 927 102.402 1269.63 472.371
801 0 75.2055 13.031 980 101.665 1269.21 473.121
802 0 76.157 12.7631 972 103.521 1270.24 470.165
803 0 78.1222 13.0053 1016 103.807 1268.89 468.721
804 0 83.3234 13.4176 1118 102.35 1269.83 468.233
805 0 86.1838 13.1579 1134 102.504 1269.22 468.288
806 0 88.308 13.8153 1220 102.671 1269.17 464.162
807 1 46.0208 11.2341 517 102.422 1270.98 487.687
808 0 48.0327 13.1161 630 100.729 1269.55 484.251
809 0 50.0185 12.3354 617 101.347 1270.15 484.807
810 0 51.0405 12.9113 659 100.923 1270.66 483.873
811 0 53.067 13.4735 715 99.2615 1271.25 483.304
812 0 55.0636 13.4208 739 98.9499 1270.77 482.613
813 0 54.059 12.9488 700 156.531 1270.71 481.937
814 0 56.0762 14.4625 811 98.3243 1270.66 480.536
815 0 59.0448 13.4982 797 99.7328 1270.12 480.911
816 0 58.0582 12.7458 740 102.872 1270.86 478.759
817 0 61.0489 13.3663 816 100.835 1270.56 477.342
818 0 61.0813 12.7044 776 103.113 1270.75 477.389
819 0 63.0897 13.4729 850 101.869 1270.44 476.802
820 0 67.0476 14.3928 965 99.8073 1268.7 472.619
821 0 67.06 12.884 864 103.902 1268.82 473.229
822 0 70.0808 13.3418 935 101.412 1269.05 471.676
823 0 72.1182 11.9803 864 103.683 1268.81 470.899
824 0 77.0772 12.9999 1002 100.029 1269.02 469.387
825 0 79.0432 12.8284 1014 99.4921 1268.86 468.798
826 0 81.0588 12.1147 982 100.679 1268.52 467.732
827 0 86.1827 13.2857 1145 98.5852 1269.22 465.778
828 0 86.1464 13.1288 1131 100.446 1269.58 466.453
829 1 46.1219 9.93022 458 102.214 1269.83 485.478
830 0 50.1214 12.5096 627 99.9856 1269.08 482.032
831 0 51.1026 12.8761 658 98.2295 1270.52 483.043
832 0 52.0966 13.6861 713 90.9467 1269.75 480.663
833 0 54.1392 12.5233 678 93.146 1269.96 482.133
834 0 54.1482 13.5923 736 92.2758 1270.6 481.22
835 0 55.083 11.873 654 95.5612 1270.4 483.206
836 0 55.0363 12.6462 696 96.4124 1270.7 477.999
837 0 58.152 11.8998 692 97.1286 1269.37 479.71
838 0 61.0956 12.5868 769 96.3524 1269.98 478.856
839 0 60.2061 11.826 712 99.4902 1269.54 476.06
840 0 65.1052 10.8747 708 100.696 1269.81 474.734
841 0 69.1451 13.2186 914 96.395 1269.57 474.617
842 0 71.1839 13.2895 946 96.5338 1269.83 470.98
843 0 74.1608 12.3246 914 97.1411 1269.58 472.188
844 0 77.1312 12.576 970 97.833 1271.16 467.605
845 0 82.4082 12.8385 1058 95.5435 1269.6 466.956
846 0 84.1771 13.2459 1115 95.9507 1270.06 463.743
847 1 45.1081 12.0599 544 96.3198 1270.98 483.41
848 0 48.115 12.3039 592 95.5676 1269.2 482.223
849 0 48.115 12.2207 588 131.898 1268.22 482.131
850 0 50.1399 11.1687 560 97.8875 1270.07 481.623
851 0 50.0892 11.6193 582 97.799 1270.47 481.555
852 0 52.1527 12.1374 633 96.6524 1270.2 481.066
853 0 55.1899 11.9406 659 95.6252 1270.35 479.499
854 0 56.0231 11.8701 665 96.388 1270.7 478.678
855 0 57.0805 11.7203 669 96.6712 1270.25 476.14
856 0 61.0519 14.676 896 90.1529 1270.46 476.827
857 0 62.1263 12.6356 785 93.9236 1268.84 475.092
858 0 65.1731 13.8094 900 91.3367 1269.46 474.386
859 0 67.2566 13.3816 900 92.8656 1269.54 471.292
860 0 70.0724 12.8153 898 90.4187 1268.91 471.981
861 0 72.1806 11.5821 836 92.2739 1269.44 471.134
862 0 77.1303 12.9003 995 89.1648 1269.32 470.553
863 0 78.0735 13.6666 1067 89.1134 1269.67 466.019
864 1 42.0376 10.895 458 88.1245 1269.36 488.878
865 0 42.0762 9.98189 420 85.0905 1269.92 485.733
866 0 43.01 13.2062 568 84.0986 1270.06 485.958
867 0 48.0201 13.0154 625 84.048 1269.66 485.618
868 0 48.0468 12.3421 593 86.2024 1269.61 485.59
869 0 50.0718 13.4207 672 83.9211 1270.62 486.073
870 0 49.0626 12.4127 609 88.5517 1269.69 483.519
871 0 53.0789 12.7923 679 87.8424 1269.9 481.919
872 0 55.0488 12.3527 680 89.2941 1269.3 482.779
873 0 55.1525 12.6558 698 90.3281 1269.5 480.466
874 0 58.123 13.351 776 88.9665 1269.72 478.71
875 0 59.1068 13.7378 812 89.3941 1269.6 478.768
876 0 61.0694 13.1162 801 90.397 1270.33 478.707
877 0 65.141 13.2021 860 101.465 1269.29 475.484
878 0 68.0843 13.0427 888 100.76 1269.52 476.375
879 0 69.1336 13.3365 922 102.553 1269.92 472.926
880 0 70.1364 13.2599 930 102.492 1270 472.085
881 0 75.0739 14.5856 1095 100.947 1270.13 472.411
882 0 75.071 12.4549 935 103.773 1269.64 471.559
883 0 78.1012 13.4953 1054 100.533 1269.52 469.308
884 0 82.0572 12.345 1013 102.588 1269.36 468.164
885 0 85.1226 13.7919 1174 98.592 1269.84 465.673
886 0 85.1357 12.8853 1097 101.286 1269.19 463.758
887 0 90.1582 13.0659 1178 95.4762 1269.27 461.929
888 1 49.0974 12.6687 622 93.2299 1270.29 483.222
889 0 50.0863 12.6981 636 93.9796 1270.01 481.742
890 0 52.049 12.2577 638 95.2837 1269.89 483.133
891 0 53.0648 13.606 722 92.9792 1268.88 479.551
892 0 54.0723 11.6696 631 96.3249 1269.99 479.482
893 0 57.0873 12.2269 698 95.0888 1269.43 478.327
894 0 59.0146 12.2512 723 93.455 1269.47 478.488
895 0 61.0516 11.5476 705 94.2355 1268.37 477.955
896 0 62.0937 10.0171 622 96.6801 1269 476.666
897 0 66.0537 12.1871 805 92.2882 1268.56 475.401
898 0 69.0517 11.2959 780 91.9974 1270.29 474.217
899 0 71.106 12.3056 875 90.2983 1270.36 471.03
900 0 75.0878 11.2402 844 90.41 1270.94 472.54
901 0 76.0792 11.8692 903 89.7242 1270.86 469.732
902 0 79.1115 12.1095 958 88.8758 1270.83 466.462
903 0 82.0952 12.3272 1012 88.1561 1270.63 466.862
904 0 83.1345 11.0423 918 90.4771 1270.29 464.143
905 0 88.1174 10.0888 889 90.9314 1269.82 465.022
906 1 47.0198 11.6972 550 88.8564 1271.13 482.785
907 0 50.0384 13.2099 661 86.354 1269.58 481.256
908 0 52.0989 12.3419 643 93.1928 1270.08 480.473
909 0 52.0369 12.4335 647 87.1499 1269.8 479.705
910 0 52.0399 11.472 597 89.3836 1269.17 480.486
911 0 54.0961 12.182 659 88.4598 1269.6 479.689
912 0 57.0703 11.9852 684 87.5541 1270.47 476.247
913 0 59.1148 12.9748 767 84.3585 1270.16 477.987
914 0 61.0837 13.0968 800 84.4512 1269.87 475.788
915 0 64.0657 12.5808 806 84.3734 1269.61 473.651
916 0 65.0896 12.8131 834 84.0899 1268.59 477.002
917 0 66.044 12.3554 816 86.3627 1267.9 474.317
918 0 70.0628 14.2158 996 83.3785 1268.98 470.424
919 0 72.059 12.1706 877 86.8062 1268.71 470.491
920 0 75.0743 12.8806 967 86.243 1269.68 467.729
921 0 77.113 11.4896 886 87.8781 1269.79 467.949
922 0 78.1991 11.1382 871 89.3513 1270.18 469.542
923 0 81.0711 12.3102 998 89.0822 1269.47 464.081
924 0 84.1053 11.9731 1007 88.8054 1270.58 463.582
925 0 87.0681 10.532 917 91.663 1269.95 463.013
926 1 46.0528 10.488 483 91.9503 1270.06 481.602
927 0 49.0224 10.4646 513 90.6101 1269.88 483.212
928 0 52.1245 12.4701 650 86.5892 1270.6 479.422
929 0 53.1273 11.6889 621 82.8052 1270.14 473.796
930 0 54.1757 12.0165 651 93.1797 1269.88 478.994
931 0 57.0578 14.091 804 88.9067 1270.36 476.371
932 0 61.0479 12.2527 748 92.6471 1270.18 475.35
933 0 61.1592 11.9034 728 94.9506 1270.42 474.683
934 0 65.1385 12.9263 842 92.9762 1270.35 473.23
935 0 67.0763 13.7306 921 91.937 1270.27 473.976
936 0 69.2632 13.7736 954 92.413 1269.43 468.83
937 0 72.0471 12.9637 934 94.8019 1270.05 467.821
938 0 73.066 12.8377 938 96.2292 1270.35 466.817
939 0 76.0767 12.9738 987 96.4093 1270.3 466.758
940 0 80.0726 13.5252 1083 95.7692 1270.2 466.537
941 0 81.1413 12.2749 996 99.8906 1270.45 465.204
942 0 83.1424 12.8575 1069 99.5304 1270.48 462.814
943 0 88.0598 12.7754 1125 98.9298 1270.44 464.283
944 0 88.093 11.6922 1030 103.63 1270.42 461.324
945 0 93.103 12.4701 1161 102.335 1269.07 459.825
946 0 94.2646 12.8044 1207 101.287 1269.16 455.545
947 0 101.07 13.0899 1323 99.3401 1268.89 455.88
948 0 104.13 12.8109 1334 100.929 1269.89 452.673
949 0 106.17 13.3748 1420 100.012 1269.68 451.337
950 1 56.0823 12.3033 690 101.752 1270.79 471.158
951 0 59.074 12.6959 750 102.18 1270.62 470.305
952 0 61.1093 12.764 780 101.896 1270.37 468.953
953 0 65.2209 13.5999 887 98.372 1270.13 468.894
954 0 66.1168 13.461 890 99.082 1269.6 468.364
955 0 67.1311 12.7512 856 98.7558 1269.47 472.484
956 0 70.0772 11.9868 840 100.14 1269.17 470.502
957 0 74.1155 13.5194 1002 96.5639 1269.25 467.32
958 0 76.0452 11.7956 897 98.1104 1269.1 469.802
959 0 78.102 12.5733 982 97.4888 1269.5 464.324
960 0 85.0987 12.0331 1024 97.2588 1269.91 463.894
961 0 83.1099 12.2849 1021 97.5749 1269.76 463.344
962 0 90.1371 12.5697 1133 96.9012 1270.42 459.181
963 0 92.1153 11.1816 1030 100.594 1269.9 457.169
964 0 95.1825 11.2205 1068 99.9279 1269.41 454.963
965 0 99.1724 11.8178 1172 100.015 1269.93 449.03
966 0 107.208 13.4411 1441 97.0729 1269.18 443.33
967 1 57.0389 10.4315 595 98.5698 1270.07 471.499
968 0 56.1064 12.0664 677 97.582 1269.83 468.115
969 0 61.1126 11.5852 708 95.4124 1270.78 475.219
970 0 64.1459 12.6275 810 93.5938 1270.73 474.04
971 0 64.0713 12.2988 788 96.5381 1270.66 472.255
972 0 68.1481 12.3261 840 94.7202 1270.47 472.469
973 0 70.2179 13.4439 944 92.8305 1269.87 471.287
974 0 73.1221 13.6484 998 92.485 1270.64 469.291
975 0 75.1518 11.8161 888 96.5484 1268.98 467.804
976 0 78.1434 11.3253 885 96.2237 1268.96 467.912
977 0 80.1388 12.9401 1037 93.4185 1268.77 465.311
978 0 83.1047 12.4421 1034 94.5812 1269.23 462.785
979 0 85.0619 11.6621 992 96.6018 1268.88 459.792
980 0 88.0361 11.9042 1048 95.8168 1268.94 461.643
981 0 90.1632 12.0005 1082 95.9861 1269.24 459.153
982 0 97.0908 12.1021 1175 94.006 1268.78 459.308
983 0 98.0446 11.9435 1171 95.2647 1269.4 456.161
984 0 103.236 13.5224 1396 92.5072 1268.85 451.183
985 0 107.153 12.5895 1349 94.2861 1268.66 450.312
986 0 108.114 11.4416 1237 96.9127 1269.65 447.833
987 0 116.235 12.165 1414 94.5877 1268.74 447.487
988 0 120.314 11.8856 1430 93.4364 1269.07 444.48
989 1 63.0978 13.5028 852 90.223 1269.89 463.778
990 0 67.196 13.5722 912 89.1382 1269.13 465.457
991 0 69.1309 11.9628 827 92.4547 1269.96 462.803
992 0 72.1434 12.2395 883 90.8834 1270.34 464.413
993 0 73.0498 12.1013 884 91.8891 1271.01 461.042
994 0 77.0727 13.8311 1066 87.9522 1271.03 460.03
995 0 80.0608 11.7785 943 91.0604 1271.01 458.511
996 0 82.0998 13.0938 1075 88.493 1271.34 457.979
997 0 85.0915 12.6922 1080 89.9685 1270.84 455.253
998 0 86.1343 13.4557 1159 89.4142 1271.02 453.403
999 0 90.148 12.3575 1114 90.8618 1270.96 450.507
1000 0 90.1541 11.3583 1024 93.2744 1271.04 448.12
1001 0 95.1482 9.93188 945 90.9217 1270.72 453.043
1002 0 101.287 12.8052 1297 84.2012 1270.09 449.128
1003 0 104.163 10.5892 1103 86.4143 1270.07 446.559
1004 1 56.11 11.2101 629 78.7504 1270.25 465.905
1005 0 58.0628 11.0053 639 78.2441 1270.55 468.523
1006 0 60.083 10.6353 639 77.9484 1270.23 470.581
1007 0 65.2024 11.426 745 77.1034 1270.83 469.536
1008 0 66.1362 10.3272 683 79.6428 1270.57 467.892
1009 0 69.1197 12.1673 841 78.2295 1270.11 466.307
1011 0 71.0632 11.3279 805 80.0099 1271.11 465.493
1012 0 72.2087 10.2481 740 83.0054 1270.43 465.236
1013 0 75.1075 11.3304 851 81.9001 1269.68 462.308
1014 0 79.3092 11.4236 906 82.3477 1269.47 463.212
1015 0 83.1255 11.4887 955 83.3393 1270.41 458.64
1016 0 86.2027 11.473 989 84.5298 1269.65 460.473
1017 0 94.1906 11.9863 1129 95.0345 1270.84 458.725
1018 1 49.08 11.2673 553 98.7125 1270.78 480.127
1019 0 52.1645 13.4191 700 95.2057 1270.57 479.603
1020 0 52.0323 12.031 626 93.623 1271.22 478.962
1021 0 54.1278 12.9693 702 91.5527 1270.85 478.46
1022 0 56.1063 14.4369 810 89.0617 1270.49 476.536
1023 0 56.1361 13.1466 738 92.8089 1269.39 476.24
1024 0 60.1509 13.3664 804 92.1642 1270.4 475.79
1025 0 63.2034 13.0056 822 92.7591 1270.17 476.066
1026 0 64.0973 12.4498 798 95.2444 1270.37 473.149
1027 0 67.037 13.321 893 93.7324 1269.86 471.478
1028 0 68.071 12.8248 873 95.4399 1270.37 471.423
1029 0 69.0864 12.2021 843 97.2171 1269.81 472.388
1030 0 70.1097 11.3679 797 99.2472 1270.9 473.103
1031 0 75.2008 12.7924 962 96.6663 1270.37 469.817
1032 0 75.2341 12.388 932 98.6717 1270.35 467.148
1033 0 79.1622 12.5944 997 98.5206 1271.16 463.754
1034 0 86.1135 11.241 968 100.101 1269.42 464.75
1035 0 85.2849 12.0537 1028 98.6702 1270.51 462.497
1036 0 87.0585 11.4636 998 100.332 1271.32 461.869
1037 0 92.2724 12.9941 1199 99.4671 1270.29 456.005
1038 1 47.1191 10.569 498 101.253 1270.14 476.584
1039 0 48.107 10.1233 487 97.0945 1270.1 479.791
1040 0 49.1224 10.9726 539 91.987 1271.66 479.727
1041 0 54.1105 13.6388 738 91.8699 1271.5 477.341
1042 0 54.0661 12.2443 662 98.3882 1271.48 475.997
1043 0 57.2614 12.993 744 96.2688 1270.83 475.367
1044 0 58.1102 12.4591 724 96.6892 1270.99 474.412
1045 0 60.1759 13.6433 821 96.6382 1271.03 470.505
1046 0 63.1518 13.8238 873 95.6289 1271.11 470.832
1047 0 62.3029 12.2466 763 97.8454 1270.21 472.309
1048 0 65.2536 11.8921 776 98.3196 1270.99 466.53
1049 0 68.281 12.2582 837 95.3214 1271.11 468.313
1050 0 71.0848 11.1557 793 96.3342 1270.58 468.694
1051 0 73.0845 13.2039 965 93.3109 1271.44 464.992
1052 0 74.0517 13.099 970 94.4907 1271.01 464.411
1053 0 77.1338 12.5496 968 95.4225 1271.4 463.199
1054 0 79.0592 12.8132 1013 95.7887 1270.99 463.284
1055 0 82.1374 13.1365 1079 92.2169 1271.17 461.969
1056 0 84.0648 13.4777 1133 96.9982 1271.31 461.385
1057 0 86.1774 13.4142 1156 97.6696 1270.97 460.596
1058 0 89.1856 13.2196 1179 93.4317 1270.64 458.487
1059 0 92.3026 13.3474 1232 93.461 1271.35 458.742
1060 0 99.2263 14.1495 1404 91.4687 1270.82 455.447
1061 1 55.0882 12.1805 671 93.6379 1271.24 476.975
1062 0 55.0954 13.1227 723 93.639 1270.67 475.79
1063 0 59.0591 12.4621 736 93.803 1270.95 476.193
1064 0 61.042 13.8921 848 86.8467 1271.15 472.208
1065 0 63.096 12.5206 790 89.3734 1270.83 474.249
1066 0 65.132 13.511 880 88.4636 1270.59 470.34
1067 0 70.0423 13.449 942 86.3811 1270.6 470.447
1068 0 71.1351 13.2986 946 89.6142 1271.18 468.961
1069 0 75.1006 13.8215 1038 98.7457 1270.92 466.652
1070 0 78.1879 13.4803 1054 98.3444 1271.5 467.45
1071 0 81.161 12.6415 1026 100.656 1271.44 465.065
1072 0 82.2892 13.0515 1074 100.297 1271.16 462.961
1073 0 84.1102 11.1045 934 100.595 1271.55 459.312
1074 0 90.1197 13.127 1183 96.6847 1270.75 457.855
1075 1 42.0245 10.1131 425 93.5694 1270.85 482.713
1076 0 46.0273 13.492 621 89.1562 1269.99 480.552
1077 0 48.0699 12.4818 600 93.0467 1270.17 480.298
1078 0 49.0388 13.316 653 93.6692 1271 479.231
1079 0 49.0457 12.5189 614 94.3811 1269.92 477.752
1080 0 53.043 13.0649 693 92.4473 1270.95 476.952
1081 0 54.0889 12.8492 695 93.646 1270.88 476.852
1082 0 58.1159 14.2302 827 101.262 1271.01 474.226
1083 0 58.0432 13.2487 769 104.481 1271.82 473.87
1084 0 62.1702 13.0448 811 104.334 1271.86 472.655
1085 0 64.1153 14.3335 919 102.092 1271.61 471.656
1086 0 65.1235 13.0368 849 105.095 1271.9 469.87
1087 0 69.0846 13.6933 946 102.016 1271.66 470.384
1088 0 68.094 11.9394 813 106.785 1271.63 469.501
1089 0 71.0551 13.004 924 102.573 1272.27 469.521
1090 0 74.0566 14.1513 1048 100.98 1271.78 465.598
1091 0 74.0934 12.0119 890 105.653 1272.37 465.43
1092 0 76.0286 12.9557 985 102.459 1272.2 467.136
1093 0 82.1325 12.0415 989 102.09 1271 462.25
1094 0 84.0678 13.2393 1113 102.048 1271.72 459.924
1095 0 88.1766 11.2615 993 104.113 1271.88 460.935
1096 0 89.1218 11.086 988 105.962 1271.72 458.534
1097 1 50.0767 12.4609 624 103.002 1271.87 477.101
1098 0 51.109 13.6571 698 100.797 1271.96 475.317
1099 0 52.1635 12.9592 676 99.1109 1271.55 475.567
1100 0 54.0633 13.3732 723 99.1065 1271.82 473.967
1101 0 54.0556 13.4306 726 100.333 1271.79 473.331
1102 0 57.0473 13.9709 797 99.005 1271.26 472.595
1103 0 59.0428 13.7527 812 99.9261 1272.17 470.421
1104 0 60.0761 14.4816 870 100.508 1271.27 469.112
1105 0 62.0804 12.6771 787 104.978 1271.83 468.067
1106 0 63.0613 14.5573 918 100.814 1271.42 466.533
1107 0 67.1328 13.5552 910 108.603 1271.76 465.693
1108 0 68.0775 14.4541 984 108.429 1271.43 460.329
1109 0 72.1099 14.9494 1078 105.933 1271.71 463.692
1110 0 74.1382 14.2437 1056 103.712 1272.03 463.65
1111 0 75.0805 15.2503 1145 105.046 1271.85 459.462
1112 0 82.2079 16.0569 1320 101.453 1272.18 457.621
1113 0 83.1468 14.3962 1197 105.863 1271.37 457.099
1114 0 84.2362 14.3406 1208 105.714 1272.16 454.491
1115 0 86.1197 12.889 1110 108.752 1271.13 453.953
1116 0 91.1912 14.3654 1310 104.856 1271.55 451.868
1117 0 92.2405 13.1721 1215 108.645 1271.61 450.33
1118 0 95.2518 13.5641 1292 108.016 1271.68 447.848
1119 0 97.1017 13.4395 1305 108.234 1271.83 447.982
1120 0 104.156 13.9886 1457 105.185 1271.78 443.093
1121 0 109.193 13.0595 1426 106.513 1271.22 442.633
1122 1 56.1382 15.1056 848 104.639 1272.41 467.857
1123 0 58.0616 14.5363 844 107.101 1272.21 464.335
1124 0 59.1643 14.1301 836 105.658 1271.71 467.342
1125 0 60.0508 13.8216 830 107.681 1271.26 465.146
1126 0 66.0663 14.2735 943 104.362 1271.06 461.125
1127 0 67.0752 13.9694 937 106.001 1271.58 460.336
1128 0 70.183 14.3624 1008 104.452 1270.94 460.403
1129 0 73.0741 15.3543 1122 102.332 1271.47 458.246
1130 0 76.1244 14.0165 1067 105.241 1270.72 458.281
1131 0 79.1318 14.5453 1151 103.929 1271.57 456.957
1132 0 83.1014 15.1502 1259 101.764 1271.99 456.05
1133 0 82.1272 14.5384 1194 105.953 1271.04 453.77
1134 0 84.1153 13.8381 1164 107.851 1271.49 451.338
1135 0 87.0755 13.85 1206 107.212 1270.99 452.182
1136 0 93.0605 14.9258 1389 104.28 1271.82 450.288
1137 0 94.0871 13.5088 1271 107.535 1271.04 449.016
1138 0 100.184 13.9642 1399 104.039 1271.02 448.031
1139 0 107.065 14.6267 1566 101.626 1270.73 443.953
1140 1 57.0463 12.9544 739 102.922 1271.23 468.674
1141 0 57.0674 13.966 797 101.329 1270.4 468.138
1142 0 59.0453 14.2602 842 99.2969 1271.41 466.018
1143 0 62.0664 12.5833 781 102.102 1270.32 464.946
1144 0 63.2179 12.9236 817 101.284 1270.34 462.608
1145 0 63.053 13.4173 846 100.201 1271.01 463.4
1146 0 64.2319 12.1591 781 104.919 1270.94 459.556
1147 0 67.0566 12.2434 821 104.721 1270.79 457.334
1148 0 69.0793 11.8849 821 105.635 1270.99 456.87
1149 0 76.0908 13.2868 1011 100.084 1271.57 457.522
1150 0 77.1127 13.7202 1058 101.328 1270.91 453.913
1151 0 79.0995 14.0456 1111 100.453 1270.89 453.115
1152 0 82.1344 13.3075 1093 101.426 1271.77 451.277
1153 0 87.1309 13.474 1174 101.505 1271.27 447.183
1154 0 89.1451 13.5397 1207 101.313 1272.24 445.968
1155 0 95.2065 14.1902 1351 98.7876 1270.57 446.146
1156 0 99.1778 13.9749 1386 98.6501 1271.16 444.263
1157 0 103.123 13.7215 1415 99.5965 1271.56 440.037
1158 1 52.0678 10.9857 572 96.7448 1271.62 460.624
1159 0 52.0617 11.5056 599 94.9432 1271.4 462.22
1160 0 61.0611 12.9215 789 94.7871 1270.82 472.506
1161 0 60.07 13.8671 833 94.9556 1271.27 470.457
1162 0 62.1525 12.7589 793 96.4149 1271.35 469.638
1163 0 64.0598 13.3313 854 95.7225 1272.31 468.033
1164 0 68.1168 15.1211 1030 91.0786 1271.16 466.424
1165 0 67.0517 13.8252 927 94.877 1270.38 467.167
1166 0 71.104 13.5295 962 96.1476 1270.7 465.662
1167 0 72.0625 13.9462 1005 95.593 1271.39 465.474
1168 0 77.2269 14.7487 1139 93.1817 1271.03 461.845
1169 0 79.4219 13.8879 1103 95.0408 1272.03 459.941
1170 0 80.153 14.2353 1141 95.5276 1272.03 459.542
1171 0 84.0848 13.974 1175 95.4417 1271.39 456.218
1172 0 88.061 14.4672 1274 94.4411 1271.77 455.882
1173 0 89.2729 13.5651 1211 96.185 1272.01 454.656
1174 1 48.0438 10.9692 527 93.9203 1272.48 477.118
1175 0 47.1292 9.6331 454 97.4207 1272.91 475.39
1176 0 50.088 11.939 598 91.7207 1272.74 473.102
1177 0 55.1875 12.974 716 93.5796 1272.56 474.06
1178 0 55.0777 12.2554 675 96.6637 1273 473.484
1179 0 58.1164 11.2189 652 97.4018 1272.85 474.436
1180 0 59.09 11.3556 671 98.8376 1272.58 472.486
1181 0 62.0627 11.9718 743 97.9098 1273.02 471.412
1182 0 65.1477 12.6482 824 94.9842 1272.73 471.675
1183 0 65.189 13.1157 855 95.8608 1273.01 470.212
1184 0 69.2207 12.2073 845 96.8604 1272.39 469.369
1185 0 71.2696 13.7225 978 94.6585 1272.12 468.29
1186 0 72.3163 13.6622 988 95.6852 1271.9 466.712
1187 0 72.2213 13.0848 945 98.5005 1271.72 465.974
1188 0 77.3513 13.9623 1080 95.7546 1272.04 464.051
1189 0 77.3046 12.9747 1003 99.4796 1270.84 461.872
1190 0 80.4634 12.4156 999 101.129 1271.82 460.681
1191 0 83.2228 12.3524 1028 96.8016 1272.4 460.193
1192 1 40.1147 10.0213 402 93.102 1272.42 477.435
1193 0 43.0855 10.1194 436 91.2087 1271.64 478.982
1194 0 44.1067 10.4519 461 90.5466 1271.23 477.887
1195 0 42.1462 10.4161 439 92.5125 1270.73 476.342
1196 0 47.2351 12.5119 591 97.9069 1271.34 480.022
1197 0 46.0831 11.5227 531 90.9228 1271.36 483.075
1198 0 46.1022 11.5613 533 92.0919 1271.55 482.184
1199 0 47.0232 10.4629 492 95.0955 1272.46 480.988
1200 0 50.1306 10.1136 507 93.86 1272.08 482.795
1201 0 49.08 11.5933 569 93.5378 1272.32 478.62
1202 0 52.145 11.1804 583 93.1887 1271.62 479.864
1203 0 52.0308 12.3196 641 92.8846 1271.45 478.048
1204 0 53.0372 11.4825 609 95.0033 1272.18 478.08
1205 0 56.0318 11.6541 653 92.8637 1271.98 477.565
1206 0 58.0825 13.2914 772 90.2513 1271.38 474.192
1207 0 63.2814 11.7886 746 89.134 1271.54 476.863
1208 0 60.1746 11.5331 694 91.6239 1272.24 472.127
1209 0 64.1338 9.74525 625 91.9552 1272.75 475.859
1210 0 65.1132 11.073 721 91.749 1272.66 471.77
1211 0 67.1774 11.5962 779 92.0372 1272.71 470.974
1212 0 72.1697 12.2489 884 89.9265 1272.97 470.044
1213 0 72.1277 12.5472 905 89.611 1272.24 468.403
1214 0 75.1215 10.9822 825 91.2933 1272.55 466.162
1215 0 78.1252 9.72798 760 85.0355 1270.83 465.028
1216 0 82.1177 11.7271 963 82.6656 1271.22 463.436
1217 1 41.0222 8.87323 364 83.0082 1271.34 481.382
1218 0 42.031 9.61196 404 80.4455 1270.88 475.931
1219 0 46.0676 12.677 584 81.8356 1270.57 481.301
1220 0 47.0403 10.2253 481 78.817 1271.55 477.906
1221 0 47.0221 10.4632 492 78.7297 1271.11 479.421
1222 0 47.1235 11.6502 549 76.9508 1271.83 468.117
1223 0 48.1683 9.19693 443 80.6004 1271.43 470.932
1224 0 53.0633 11.3449 602 88.9286 1272.41 476.958
1225 0 52.0632 13.1571 685 85.8336 1271.29 477.826
1226 0 56.0919 13.0322 731 85.383 1271.35 475.246
1227 0 54.0741 10.6521 576 92.158 1271.39 476.431
1228 0 56.0663 11.9858 672 89.3155 1270.54 474.74
1229 1 115.161 11.2104 1291 96.1123 1270.37 448.814
1230 1 57.1492 10.3938 594 91.9007 1272.28 475.46
1231 0 61.0318 10.7976 659 89.7557 1272.57 475.75
1232 0 62.0822 11.9036 739 89.6766 1272.18 470.779
1233 0 66.1567 10.7321 710 90.3676 1271.35 471.704
1234 0 66.2244 10.6003 702 89.9815 1272.63 472.346
1235 0 69.261 11.9403 827 88.4873 1272.09 466.331
1236 0 72.1393 11.5332 832 89.3846 1272.09 465.713
1237 0 73.2518 10.6892 783 90.5466 1272.75 462.705
1238 0 76.1093 8.94766 681 91.9163 1272.01 467.606
1239 0 81.131 11.6602 946 87.2114 1271.86 463.339
1240 0 83.1813 12.5028 1040 85.9385 1273.11 459.299
1241 1 47.2495 11.7462 555 89.6667 1273.31 478.816
1242 0 49.2332 12.4713 614 90.9234 1273.23 478.138
1243 0 49.2272 10.868 535 94.7514 1273.38 478.525
1244 0 53.2366 12.9422 689 89.5428 1273.14 478.402
1245 0 52.173 12.056 629 92.2973 1272.79 475.935
1246 0 56.2409 12.4465 700 91.0486 1271.82 475.474
1247 0 56.3088 12.7156 716 90.8394 1272.41 474.746
1248 0 58.3087 11.4906 670 92.2552 1272.76 477.466
1249 0 60.3104 12.3859 747 92.0107 1271.6 473.584
1250 0 62.3557 12.4127 774 91.7028 1271.46 472.994
1251 0 61.4191 12.3414 758 93.1016 1270.9 471.741
1252 0 62.2383 11.456 713 95.6003 1271.56 469.847
1253 0 66.5027 11.1424 741 94.9406 1271.45 471.24
1254 0 67.1908 11.832 795 94.322 1271.86 468.492
1255 0 71.2115 11.1639 795 91.9698 1271.04 469.288
1256 0 73.2359 12.4256 910 88.3659 1271.34 469.675
1257 0 74.1035 11.0521 819 90.8217 1271.18 468.291
1258 0 75.0398 10.6877 802 91.8703 1271.49 467.626
1259 0 79.1342 11.9544 946 88.2315 1271.28 466.31
1260 0 81.135 10.8338 879 90.7338 1271.33 464.135
1261 0 83.1609 11.8084 982 89.8279 1271.6 463.437
1262 0 87.0669 13.1164 1142 88.6305 1271.54 461.726
1263 1 45.079 11.1582 503 86.994 1272.39 482.722
1264 0 45.0304 11.2368 506 81.4704 1272.67 482.36
1265 0 47.0445 11.606 546 81.0476 1271.4 482.289
1266 0 49.0328 11.1762 548 82.4325 1271.5 480.606
1267 0 50.0761 13.4995 676 78.3284 1271.89 480.294
1268 0 52.0198 12.5914 655 79.8275 1271.42 479.901
1269 0 52.0463 12.2775 639 81.0313 1272.24 479.11
1270 0 54.0516 11.9885 648 81.4028 1271.94 477.395
1271 0 57.1294 12.1304 693 80.5801 1271.7 476.808
1272 0 55.0754 11.221 618 83.6181 1271.59 476.699
1273 0 59.0394 11.721 692 82.724 1272.94 477.582
1274 0 60.0569 12.2051 733 83.0096 1271.7 475.89
1275 0 61.0684 12.3959 757 81.9947 1271.37 474.528
1276 0 63.1014 11.9332 753 82.7278 1271.74 472.815
1277 0 68.0549 12.6369 860 80.1477 1271.61 471.429
1278 0 68.0812 11.5891 789 83.3321 1271.5 467.659
1279 0 69.2076 12.3108 852 82.2817 1271.91 466.858
1280 0 72.1195 12.5209 903 81.9402 1271.56 468.503
1281 0 74.113 11.7928 874 84.4497 1271.24 467.383
1282 1 39.14 11.0884 434 85.8848 1272.45 482.339
1283 0 40.1047 10.9962 441 87.1791 1271.2 481.902
1284 0 40.039 11.0143 441 86.9297 1273.32 482.909
1285 0 43.0439 11.2443 484 85.6054 1273.52 481.105
1286 0 43.2315 11.7507 508 83.2382 1272.75 482.949
1287 0 43.1006 11.8792 512 83.9785 1271.96 479.977
1288 0 43.1096 11.7375 506 109.996 1270.93 480.073
1289 0 48.1118 12.8451 618 80.8981 1273.19 480.709
1290 0 47.0291 12.0351 566 83.3498 1272.75 478.869
1291 0 49.0265 11.2388 551 84.2577 1273.8 479.748
1292 0 53.0349 12.2749 651 81.3748 1273.28 478.066
1293 0 53.2348 13.0929 697 80.9971 1274.25 477.379
1294 0 54.0495 11.9705 647 83.4019 1273.97 476.029
1295 0 55.1908 11.7773 650 84.8323 1274.28 475.628
1296 0 59.1008 13.8408 818 80.6112 1273.9 473.199
1297 0 59.1933 12.7717 756 81.6812 1274.09 473.343
1298 0 61.0469 12.0399 735 84.8463 1273.82 473.343
1299 0 64.101 12.0747 774 84.9444 1274.21 470.379
1300 0 66.0635 11.9431 789 85.1229 1273.06 469.347
1301 0 69.0789 13.5497 936 82.3216 1273.88 468.667
1302 0 70.0869 11.5999 813 86.5314 1273.86 467.519
1303 0 73.058 11.8673 867 85.6609 1274.16 466.521
1304 0 76.1025 12.9956 989 82.8797 1273.96 465.141
1305 0 76.1877 12.1279 924 85.4199 1273.71 466.192
1306 0 79.1018 11.8961 941 86.3262 1274.12 461.073
1307 1 44.1344 12.3033 543 87.7182 1273.65 480.302
1308 0 43.2891 11.5272 499 90.0601 1274.12 480.639
1309 0 44.299 11.8513 525 92.3581 1274.14 476.12
1310 0 46.1049 11.5389 532 92.0207 1274.02 476.78
1311 0 46.1173 12.9453 597 93.0352 1273.32 475.983
1312 0 48.093 11.1451 536 97.0728 1274.62 477.942
1313 0 49.0391 12.072 592 97.3834 1273.81 475.834
1314 0 53.0428 11.6133 616 96.3685 1274.1 477
1315 0 55.0465 13.207 727 94.1032 1273.58 475.763
1316 0 55.121 11.756 648 97.8982 1274.07 475.756
1317 0 57.0582 12.7589 728 96.0192 1273.39 474.207
1318 0 60.1522 13.2497 797 93.7553 1273.46 474.105
1319 0 61.127 13.5619 829 94.1604 1273.79 472.334
1320 0 64.1159 12.4462 798 95.406 1273.14 474.252
1321 0 64.1186 12.6016 808 96.9208 1273.76 471.634
1322 0 63.1862 11.3474 717 99.9805 1273.06 471.318
1323 0 67.1529 13.1938 886 95.0903 1272.53 470.86
1324 0 69.1222 13.5268 935 94.4032 1272.92 470.209
1325 0 69.1897 12.762 883 96.4564 1272.8 470.626
1326 0 73.1519 13.2874 972 94.8004 1272.43 469.213
1327 0 73.1641 12.0414 881 97.8831 1272 468.01
1328 0 76.1796 12.2605 934 97.3158 1272.43 465.973
1329 0 79.1335 12.5358 992 96.0776 1271.75 464.454
1330 0 81.161 12.2842 997 96.2818 1272.38 464.422
1331 0 82.3057 12.5751 1035 96.4841 1271.96 462.908
1332 0 86.2376 13.4048 1156 94.3945 1271.46 460.63
1333 0 90.2399 14.4947 1308 91.8028 1272.03 460.153
1334 0 89.208 11.5909 1034 98.469 1270.74 460.305
1335 0 94.2504 13.2519 1249 94.2298 1271.38 454.604
1336 0 98.384 13.0814 1287 94.4452 1271.11 448.843
1337 0 101.21 12.7655 1292 94.4946 1270.4 451.384
1338 0 104.264 12.6985 1324 94.9192 1270.25 450.662
1339 0 108.265 12.7373 1379 94.831 1269.02 447.473
1340 0 110.282 12.4589 1374 95.1921 1269.54 450.181
1341 0 114.146 13.1236 1498 94.0681 1269.89 449.264
1342 0 116.366 12.8388 1494 91.5201 1270.12 450.921
1343 0 118.417 12.4475 1474 92.5156 1269.45 450.867
1344 0 118.546 10.6963 1268 96.4132 1269.56 449.347
1345 0 126.461 11.893 1504 93.6735 1269.61 444.98
1346 1 66.2816 14.6043 968 86.5486 1270.4 472.791
1347 0 67.2193 12.3476 830 92.147 1270.57 472.081
1348 0 69.2965 12.1507 842 92.2019 1270.18 470.647
1349 0 69.1993 10.8238 749 94.6409 1269.72 471.527
1350 0 74.2553 12.4032 921 92.5179 1269.32 468.442
1351 0 75.2471 13.861 1043 88.8178 1269.38 467.947
1352 0 77.2717 12.2943 950 92.3337 1270.58 467.78
1353 0 79.1924 12.5896 997 92.8094 1269.47 464.957
1354 0 81.1981 12.9683 1053 89.8642 1270.32 470.044
1355 0 85.2058 11.5602 985 92.9208 1270.21 467.2
1356 0 91.0868 12.274 1118 92.1109 1269.59 462.521
1357 0 93.199 13.9916 1304 87.8589 1270.75 465.518
1358 0 93.1317 12.7991 1192 91.7081 1270.45 461.769
1359 0 94.1324 11.8238 1113 94.0952 1270.59 458.807
1360 1 46.1568 11.8076 545 89.811 1271.23 483.787
1361 0 45.3441 11.0929 503 93.497 1270.09 482.668
1362 0 50.091 11.2994 566 87.3375 1270.69 483.512
1363 0 49.117 10.6277 522 76.3046 1269.23 479.954
1364 0 51.1068 11.701 598 80.5502 1269.64 482.299
1365 0 50.1324 9.85391 494 85.0081 1269.67 482.038
1366 0 55.1695 11.7094 646 78.8297 1269.9 482.427
1367 0 56.0986 11.4798 644 79.7422 1269.07 480.039
1368 0 58.2245 11.1809 651 80.1152 1269.37 480.872
1369 0 60.1589 11.6026 698 79.6289 1270.31 478.577
1370 0 59.134 11.3978 674 80.7596 1269.73 478.294
1371 0 62.1752 10.9368 680 81.5368 1269.08 476.718
1372 0 65.273 12.6545 826 78.1804 1269.79 476.322
1373 0 65.1377 12.4198 809 79.5056 1269.14 475.59
1374 0 67.0935 13.6377 915 77.7213 1269.01 472.922
1375 0 70.1186 11.3665 797 81.0138 1269.58 472.29
1376 0 71.1771 11.8297 842 80.8064 1269.24 471.618
1377 0 75.208 11.1956 842 81.0523 1269.06 472.22
1378 0 77.1119 12.3198 950 79.859 1268.49 468.128
1379 0 78.079 11.2578 879 82.4107 1269.58 467.521
1380 0 81.1344 12.5841 1021 80.3869 1269.03 465.604
1381 0 84.0697 12.2042 1026 81.3158 1268.64 465.041
1382 0 85.0692 10.3093 877 85.3398 1268.77 463.875
1383 0 87.1396 10.3282 900 86.3967 1268.15 463.074
1384 1 44.034 10.3329 455 86.367 1269.21 484.51
1385 0 46.0444 11.0546 509 83.8743 1268.95 484.22
1386 0 50.0239 10.2151 511 84.2446 1269.65 484.526
1387 0 49.0136 11.2214 550 84.5273 1269.85 483.902
1388 0 51.1631 11.5708 592 84.1757 1269.63 483.549
1389 0 52.0258 10.9369 569 82.3216 1268.99 482.452
1390 0 53.0165 10.2798 545 84.0367 1268.41 481.525
1391 0 53.1007 12.2221 649 82.4653 1268.02 482.451
1392 0 54.0574 10.3963 562 85.7758 1267.07 480.705
1393 0 57.0739 12.4575 711 81.2377 1266.59 479.398
1394 0 58.0343 10.8729 631 83.3946 1267.24 478.065
1395 0 63.0783 11.0498 697 82.2927 1266.98 478.077
1396 0 62.0694 11.1327 691 82.8553 1267.59 476.958
1397 0 66.113 11.314 748 81.496 1268.11 475.85
1398 0 68.0611 10.7257 730 82.9055 1268.02 474.332
1399 0 69.1354 12.9601 896 79.817 1267.78 474.734
1400 0 69.0611 12.1921 842 81.5629 1267.72 475.955
1401 0 72.0645 12.4472 897 80.9844 1267.39 473.887
1402 0 74.0638 11.085 821 83.7576 1267.77 471.899
1403 0 78.0949 12.1647 950 81.2168 1267.31 472.44
1404 1 41.0591 10.4483 429 83.0326 1267.1 490.357
1405 0 41.0323 10.6989 439 82.3804 1266.6 491.03
1406 0 42.0546 10.7717 453 84.7373 1266.89 489.232
1407 0 43.0214 12.1103 521 80.9808 1267.19 487.537
1408 0 44.0747 11.0494 487 82.3244 1267.86 487.275
1409 0 45.0604 11.3847 513 81.3489 1267.71 488.064
1410 0 46.0841 12.1734 561 80.2175 1268.18 486.816
1411 0 46.0767 10.3957 479 84.2088 1267.82 486.722
1412 0 49.1263 11.7452 577 80.2634 1268.25 485.792
1413 0 48.0853 11.9579 575 91.8974 1269.25 485.597
1414 0 53.0426 10.5953 562 94.9199 1268.31 482.799
1415 0 53.109 11.5988 616 93.1347 1268.47 483.357
1416 0 53.1119 10.6191 564 92.8989 1269.16 483.94
1417 0 53.0522 11.3285 601 94.6273 1268.48 481.98
1418 0 56.2118 12.1149 681 94.1175 1268.35 479.457
1419 0 57.3454 12.0847 693 94.215 1268.65 478.19
1420 0 57.218 12.3912 709 96.6051 1267.39 478.615
1421 0 60.2702 12.3278 743 97.603 1267.34 476.766
1422 0 62.4151 14.003 874 94.0835 1268 474.455
1423 0 63.4676 13.7235 871 94.7015 1268.18 473.521
1424 0 65.4784 13.5159 885 94.7119 1268.21 471.734
1425 0 67.0428 13.8568 929 91.4984 1267.05 474.499
1426 0 65.0554 13.9112 905 93.3702 1267.82 474.19
1427 0 68.0422 13.5357 921 94.0478 1267.78 472.72
1428 0 70.0319 13.2368 927 95.2114 1268.05 473.111
1429 0 73.1224 13.2381 968 95.5599 1268.04 469.908
1430 0 76.1026 14.5856 1110 92.855 1267.47 469.335
1431 0 78.1028 14.3145 1118 93.6789 1268.2 468.826
1432 0 78.1098 13.161 1028 95.0019 1267.25 464.133
1433 0 79.0868 12.2271 967 95.2709 1266.92 459.594
1434 0 84.088 13.141 1105 92.1692 1267.03 461.085
1435 0 84.1406 12.2652 1032 93.5291 1266.89 456.633
1436 0 86.3105 12.455 1075 94.0102 1266.67 455.202
1437 0 89.1783 12.5928 1123 93.4639 1267.68 457.767
1438 1 44.0666 10.0983 445 87.5416 1267.96 479.589
1439 0 46.0351 8.7542 403 89.9082 1267.57 478.191
1440 0 47.0569 10.6892 503 86.9523 1268.17 479.026
1441 0 46.1528 10.1836 470 90.0149 1268.47 475.636
1442 0 48.0277 10.4106 500 89.368 1267.68 475.062
1443 0 52.0489 10.5094 547 88.7404 1267.78 477.859
1444 0 51.0487 10.872 555 89.6198 1267.99 476.843
1445 0 54.058 10.0633 544 90.761 1267.55 476.697
1446 0 54.0603 10.8213 585 90.1538 1267.85 474.87
1447 0 58.0503 12.1963 708 87.7401 1267.7 471.977
1448 0 58.0832 9.98568 580 91.531 1268.04 474.841
1449 0 60.0248 10.9788 659 90.0728 1268.41 471.096
1450 0 62.0467 10.4437 648 90.6111 1266.45 472.667
1451 0 65.0301 11.2717 733 89.8254 1267.62 470.458
1452 0 67.0607 11.0944 744 91.0282 1267.53 468.841
1453 0 70.0952 11.3417 795 90.6667 1267.55 468.761
1454 0 71.0368 11.2195 797 92.2949 1267.89 466.019
1455 0 75.0958 12.1312 911 100.849 1267.82 469.14
1456 0 78.26 12.369 968 100.238 1267.38 466.186
1457 0 80.2819 12.3814 994 100.072 1267.72 466.411
1458 0 85.2193 12.8961 1099 98.3667 1267.14 463.865
1459 0 87.2616 11.8609 1035 100.436 1268.45 463.829
1460 0 90.267 12.9726 1171 98.503 1267.79 457.365
1461 0 93.4105 13.8635 1295 96.1722 1267.07 455.838
1462 1 48.1434 11.0088 530 99.3981 1267.38 479.468
1463 0 48.161 10.7141 516 98.3062 1267.33 481.601
1464 0 49.0844 12.0405 591 95.6751 1267.13 478.944
1465 0 51.0187 10.7216 547 98.4899 1266.8 485.137
1466 0 52.0115 13.1702 685 96.1226 1267.26 480.918
1467 0 54.0262 11.3093 611 98.2357 1267.46 482.881
1468 0 58.075 13.4481 781 93.7951 1267.46 480.907
1469 0 57.0503 12.7957 730 95.8863 1268.28 479.956
1470 0 58.0325 11.7865 684 98.0702 1268.5 479.49
1471 0 64.0449 12.8191 821 94.3179 1267.71 478.145
1472 0 65.0485 13.7436 894 93.9016 1268.41 477.436
1473 0 66.0405 11.8412 782 97.1509 1268.82 476.711
1474 0 68.0351 12.2584 834 98.217 1268.04 474.67
1475 0 71.093 12.2094 868 97.8145 1268.82 473.237
1476 0 75.0628 12.5228 940 96.5319 1268.62 472.877
1477 0 77.1357 13.2623 1023 96.2864 1268.47 472.192
1478 0 80.1646 13.8216 1108 95.889 1268.42 470.611
1479 0 82.0686 13.4522 1104 96.4574 1268.35 468.853
1480 0 85.0962 13.9137 1184 96.7137 1268.3 466.571
1481 0 87.0868 13.3545 1163 99.0877 1268.36 466.199
1482 0 92.078 13.0759 1204 99.5233 1267.99 464.448
1483 0 93.1115 12.4582 1160 102.506 1268.23 463.318
1484 0 97.1064 12.6768 1231 102.279 1267.82 461.893
1485 1 55.0524 12.697 699 100.27 1267.62 482.388
1486 0 55.0846 11.3825 627 101.075 1268.26 482.802
1487 0 58.2088 12.438 724 101.269 1268.25 481.076
1488 0 58.046 12.4212 721 102.459 1267.4 478.806
1489 0 57.0368 11.4838 655 97.9588 1268.26 480.275
