time division length width area intensity CMx CMy
0 0 128.144 12.3923 1588 136.553 506.275 433.115
1 1 72.1598 12.3476 891 136.528 506.488 459.172
2 0 73.1243 11.8839 869 141.956 505.87 457.299
3 0 79.1405 13.4065 1061 134.031 505.545 457.644
4 0 80.0694 13.5133 1082 135.384 505.36 458.391
5 0 83.1071 14.4512 1201 132.72 505.724 456.766
6 0 87.098 14.2024 1237 131.423 506.656 456.045
7 0 88.0718 13.2619 1168 134.27 506.124 453.647
8 0 89.1384 12.6994 1132 133.376 506.135 447.262
9 0 92.1027 13.0506 1202 131.78 505.518 444.348
10 0 94.0455 13.738 1292 130.157 505.423 445.557
11 0 100.169 14.1261 1415 127.98 505.405 433.515
12 0 102.195 15.1084 1544 125.326 508.006 433.773
13 0 104.21 14.6435 1526 127.863 507.594 435.641
14 0 102.19 13.3967 1369 133.524 507.295 432.567
15 0 107.241 13.465 1444 131.407 506.793 434.877
16 0 109.248 13.3641 1460 131.434 506.793 428.577
17 0 115.15 14.4246 1661 125.746 506.586 429.954
18 0 119.277 12.7183 1517 128.607 507.259 428.297
19 0 126.196 14.1289 1783 122.545 506.918 426.764
20 1 71.0856 9.72067 691 113.583 507.954 460.418
21 0 77.171 11.1959 864 112.874 508.002 458.552
22 0 81.1316 12.9419 1050 114.539 507.383 459.807
23 0 83.0725 13.0127 1081 118.343 506.231 458.272
24 0 83.0478 12.3182 1023 120.374 507.259 456.403
25 0 88.0378 14.0053 1233 115.225 506.686 454.796
26 0 91.0529 13.1023 1193 117.692 506.023 453.194
27 0 92.0526 12.2973 1132 120.49 507.246 452.465
28 0 98.2643 13.8708 1363 126.085 506.319 449.546
29 0 101.237 12.9399 1310 128.326 507.225 449.091
30 0 105.141 13.5438 1424 127.155 507.553 445.195
31 0 107.184 12.0821 1295 130.168 508.296 445.266
32 0 111.216 14.4404 1606 124.436 508.093 441.139
33 0 114.115 13.4601 1536 127.568 507.737 435.308
34 0 118.213 13.4673 1592 127.143 507.853 435.861
35 0 121.293 12.3997 1504 129.16 507.035 435.366
36 0 124.34 12.2165 1519 129.333 506.932 433.615
37 0 130.285 13.7928 1797 125.224 506.494 429.543
38 0 136.146 13.2799 1808 125.49 507.459 429.595
39 1 74.1823 11.6065 861 122.053 508.281 458.805
40 0 78.0749 12.5777 982 117.082 508.797 458.239
41 0 79.076 11.9632 946 116.051 508.371 458.391
42 0 82.1845 11.3525 933 117.011 508.122 457.615
43 0 85.2373 12.8934 1099 111.728 509.248 458.159
44 0 83.119 11.1046 923 118.101 508.465 456.484
45 0 86.1469 10.7026 922 119.1 508.664 453.497
46 0 90.1187 10.9189 984 116.103 509.182 456.016
47 0 92.077 12.6633 1166 113.812 508.25 451.425
48 0 95.2347 11.3719 1083 116.876 509.364 451.249
49 0 97.1633 10.5595 1026 116.268 509.178 451.363
50 0 100.059 10.094 1010 118.189 508.66 451.627
51 0 105.231 10.8618 1143 118.13 509.453 446.037
52 0 105.134 11.338 1192 119.603 507.644 442.763
53 0 111.197 11.9338 1327 127.075 507.996 443.839
54 0 114.298 12.3624 1413 126.903 507.679 440.779
55 1 62.1129 10.8351 673 118.938 508.398 460.374
56 0 59.0383 10.8743 642 115.347 507.72 457.653
57 0 59.0556 9.38099 554 119.668 509.085 455.383
58 0 66.1602 9.64326 638 118.655 508.295 454.749
59 0 70.1331 11.8917 834 111.564 507.83 448.742
60 0 73.1064 11.5722 846 112.492 508.229 450.285
61 0 72.1928 11.7325 847 112.601 508.306 451.288
62 0 74.1049 9.81041 727 118.613 508.016 447.517
63 0 79.1438 10.6389 842 115.631 508.681 448.753
64 0 82.1785 9.95394 818 116.671 508.3 447.527
65 0 86.1588 11.7574 1013 113.313 507.619 448.284
66 0 90.16 11.6792 1053 115.288 507.456 444.094
67 0 93.2003 10.8798 1014 116.961 507.2 445.673
68 0 96.2037 11.0391 1062 117.395 507.5 445.785
69 0 100.145 11.2736 1129 116.701 507.638 446.37
70 0 102.173 10.8541 1109 119.765 507.907 442.029
71 0 106.184 11.5836 1230 117.547 507.506 443.242
72 0 109.141 12.7358 1390 115.135 507.287 433.698
73 0 112.182 12.0518 1352 120.005 506.536 438.854
74 0 115.253 10.464 1206 121.964 507.673 438.717
75 1 66.2517 10.5356 698 110.692 506.451 464.199
76 0 68.1884 10.3683 707 111.338 507.474 463.844
77 0 67.2485 10.6619 717 112.678 507.204 460.905
78 0 73.319 12.4388 912 104.997 507.118 457.796
79 0 74.17 12.0534 894 107.428 507.626 460.129
80 0 78.1093 12.2777 959 106.481 507.511 457.266
81 0 80.0807 11.9504 957 105.47 507.66 455.886
82 0 82.1632 12.3291 1013 103.187 507.93 453.153
83 0 81.1952 10.7519 873 107.868 507.58 445.804
84 0 83.3225 9.92529 827 110.045 508.053 449.144
85 0 85.3416 11.8465 1011 106.653 508.301 447.04
86 0 92.2289 11.71 1080 105.144 507.71 445.652
87 0 91.0729 10.6289 968 112.383 507.725 442.817
88 0 91.1502 10.2907 938 111.429 507.596 444.899
89 0 92.1402 12.4267 1145 110.161 507.719 425.261
90 0 101.157 9.24303 935 113.853 507.858 428.665
91 0 103.171 11.8444 1222 107.417 508.43 436.254
92 0 104.218 10.9962 1146 110.808 507.499 437.133
93 0 104.235 10.8696 1133 120.925 506.505 436.895
94 0 111.097 10.6663 1185 108.332 507.499 430.371
95 0 116.193 9.99197 1161 108.899 507.19 429.896
96 0 117.151 11.3785 1333 107.004 507.675 431.238
97 0 123.127 10.0953 1243 108.969 507.866 428.269
98 0 125.257 11.3606 1423 107.098 507.751 422.637
99 0 130.241 11.233 1463 103.832 507.839 427.996
100 0 138.148 12.226 1689 95.9455 508.286 428.37
101 0 144.236 12.9025 1861 94.8737 506.814 422.971
102 0 151.12 12.7647 1929 94.6102 506.689 425.074
103 1 89.1647 10.8451 967 92.8614 506.81 452.074
104 0 92.0947 11.1081 1023 96.0264 507.501 451.256
105 0 98.1762 12.8646 1263 101.353 507.146 450.851
106 0 98.2305 12.3282 1211 99.3006 507.413 451.755
107 0 98.2078 12.0968 1188 101.654 506.947 449.387
108 0 102.221 13.0796 1337 99.7509 507.837 445.196
109 0 110.24 13.9696 1540 96.2636 507.388 440.695
110 0 107.219 11.7424 1259 103.196 507.812 442.966
111 0 108.338 10.4857 1136 106.381 507.387 443.506
112 0 115.224 11.9767 1380 102.853 507.938 446.16
113 0 115.207 11.3274 1305 105.415 507.226 439.793
114 0 122.164 11.2799 1378 105.138 507.906 439.585
115 0 123.122 12.3698 1523 104.985 506.645 432.901
116 0 130.319 12.9835 1692 102.929 507.676 433.755
117 0 137.283 12.0699 1657 103.081 507.638 433.632
118 1 150.225 14.6779 2205 94.444 507.736 421.46
119 0 149.303 12.9067 1927 101.129 507.536 418.001
120 1 74.0345 9.22543 683 99.3836 507.464 441.36
121 0 76.0868 10.028 763 99.4443 506.847 448.299
122 0 77.0661 10.4845 808 100.007 506.557 444.637
123 0 80.0503 10.6308 851 100.083 507.957 445.468
124 0 88.1459 11.3108 997 98.3661 506.393 444.778
125 0 82.1587 9.18953 755 106.771 506.909 439.023
126 0 88.0479 10.04 884 103.924 507.285 440.292
127 0 94.1504 13.7758 1297 94.515 506.388 436.235
128 0 94.1096 11.9967 1129 101.144 507.446 435.32
129 0 94.1373 11.4938 1082 103.394 506.87 436.092
130 0 101.139 11.0244 1115 103.387 507.037 433.313
131 0 103.189 11.5128 1188 102.138 506.945 430.182
132 0 106.06 13.2378 1404 98.5698 506.541 431.601
133 0 104.141 12.9824 1352 101.613 506.541 428.56
134 0 113.129 12.4902 1413 101.699 506.463 423.356
135 0 118.275 12.5385 1483 101.62 506.441 425.061
136 0 121.135 11.2437 1362 106.804 507.043 418.831
137 0 125.165 12.5354 1569 102.976 507.007 417.491
138 0 133.199 12.8154 1707 102.438 506.465 414.579
139 0 138.264 12.8088 1771 102.787 505.85 411.614
140 0 144.363 12.33 1780 104.288 506.566 411.939
141 0 151.354 13.0885 1981 104.095 506.348 408.029
142 0 155.34 11.6905 1816 107.517 505.911 403.066
143 0 157.397 11.8935 1872 106.825 505.998 406.775
144 0 163.336 12.9242 2111 104.547 507.079 411.624
145 0 170.345 13.2496 2257 105.361 506.523 400.982
146 0 176.468 13.3226 2351 106.809 506.513 397.581
147 1 100.255 12.538 1257 96.8799 506.976 446.586
148 0 102.218 10.8689 1111 98.2664 505.953 449.336
149 0 106.108 11.1678 1185 97.8861 505.947 446.203
150 0 109.124 11.4549 1250 96.5152 506.134 443.52
151 0 111.084 11.9189 1324 95.8051 504.635 444.023
152 0 114.203 12.5566 1434 96.7148 506.321 438.995
153 0 116.182 10.7246 1246 100.577 506.713 444.061
154 0 122.157 12.484 1525 100.096 506.551 436.305
155 0 127.114 11.0138 1400 102.791 506.576 433.881
156 0 134.265 11.224 1507 101.066 505.981 431.964
157 0 134.161 12.9695 1740 97.3506 505.89 420.937
158 0 140.218 14.4561 2027 98.3029 505.797 419.081
159 0 142.245 10.9881 1563 109.129 506.033 413.072
160 0 146.075 12.9797 1896 100.705 506.273 410.7
161 1 80.1751 9.52914 764 98.8168 506.736 442.597
162 0 77.1313 8.42719 650 97.3554 506.243 442.786
163 0 83.0766 9.78614 813 96.1095 505.934 442.985
164 0 87.0969 8.31258 724 100.878 505.506 438.579
165 0 87.0684 7.99372 696 102.524 505.546 436.262
166 0 97.0893 10.9075 1059 96.5817 505.995 441.339
167 0 103.199 13.1881 1361 102.94 507.039 446.058
168 0 105.128 11.0246 1159 107.658 506.601 443.062
169 0 108.226 11.707 1267 106.934 506.614 443.228
170 0 111.124 12.8236 1425 105.218 506.613 439.571
171 0 116.268 13.4173 1560 102.283 506.854 436.158
172 0 115.265 11.556 1332 107.886 506.268 432.95
173 0 119.177 11.2941 1346 107.267 506.397 435.515
174 0 128.145 16.9417 2171 92.5748 506.568 416.195
175 0 124.175 15.0514 1869 99.6453 506.702 413.899
176 0 132.32 15.8328 2095 96.3604 506.209 410.939
177 0 135.218 14.1993 1920 100.408 506.809 411.61
178 0 138.145 13.341 1843 102.835 505.659 403.99
179 0 136.203 11.2847 1537 110.248 506.717 400.661
180 0 132.252 11.2815 1492 111.99 505.511 399.81
181 0 142.464 12.0171 1712 108.989 505.306 401.921
182 0 148.158 12.6284 1871 107.253 506.47 402.144
183 0 156.133 12.2203 1908 109.826 506.027 398.574
184 0 158.376 10.8728 1722 114.308 506.228 392.138
185 0 165.184 12.81 2116 109.682 506.024 390.816
186 0 168.345 12.1002 2037 112.806 505.752 386.439
187 0 180.322 13.3761 2412 109.891 506.062 386.11
188 0 185.56 12.7236 2361 112.432 505.359 382.659
189 0 183.495 12.5289 2299 113.736 505.8 372.43
190 0 193.314 13.1289 2538 111.568 505.432 369.42
191 0 195.514 14.0553 2748 109.382 505.578 368.45
192 0 203.434 12.8199 2608 112.435 505.525 363.684
193 0 208.337 14.0925 2936 109.289 505.591 365.315
194 0 214.344 13.8982 2979 108.707 504.721 358.39
195 0 216.322 13.6926 2962 110.844 505.65 356.05
196 1 232.321 13.4383 3122 111.184 504.871 354.467
197 0 240.35 12.9727 3118 113.247 505.058 345.32
198 0 248.462 12.6619 3146 114.599 505.607 348.447
199 0 251.487 12.1478 3055 115.472 504.826 340.236
200 1 282.398 10.9562 3094 116.162 505.77 345.581
201 0 288.419 13.2308 3816 113.006 505.385 348.472
202 0 297.413 13.1467 3910 114.095 505.285 338.148
203 0 305.483 13.8207 4222 112.909 505.873 334.326
204 0 314.447 12.9338 4067 116.385 505.928 329.024
205 0 367.996 24.2013 8906 85.0218 505.311 292.699
206 1 73.0976 9.91824 725 89.1034 506.352 460.713
207 0 74.1134 8.32508 617 91.7925 507.019 460.718
208 0 79.1664 11.3306 897 86.4604 506.494 456.559
209 0 82.1849 10.0018 822 90.4586 507.134 456.652
210 0 79.1613 9.12062 722 93.7368 506.83 453.506
211 0 81.1942 7.36506 598 96.3863 507.308 451.801
212 0 87.141 10.156 885 92.3051 506.803 453.904
213 0 87.1079 8.67889 756 95.0172 506.591 451.476
214 0 92.16 10.2105 941 92.0531 506.546 451.054
215 0 94.1709 9.80133 923 93.3131 506.886 449.536
216 0 94.1709 9.91814 934 117.429 507.88 449.372
217 0 100.294 10.6786 1071 92.8824 507.505 445.013
218 0 104.214 10.2097 1064 92.703 508.227 445.501
219 0 107.203 9.47733 1016 93.7736 507.322 444.122
220 0 111.287 10.5404 1173 93.1509 506.9 440.842
221 0 114.107 12.3393 1408 91.7408 506.19 439.526
222 0 115.188 10.5219 1212 94.9406 506.717 436.59
223 0 122.143 11.1918 1367 92.1785 505.855 436.225
224 0 127.152 11.4666 1458 91.2119 506.748 436.89
225 0 129.256 10.9473 1415 94.9463 507.39 431.584
226 1 81.1675 9.16624 744 96.8172 508.516 442.761
227 0 83.3437 10.2467 854 101.638 507.837 435.018
228 0 86.3697 12.3076 1063 97.269 508.131 437.887
229 0 87.2511 11.0142 961 101.706 507.511 440.579
230 0 88.2783 11.8602 1047 100.246 508.292 441.587
231 0 90.2926 11.9833 1082 100.278 508.145 443.846
232 0 92.2423 11.3397 1046 101.72 508.789 451.058
233 0 95.1607 12.295 1170 100.909 508.344 450.296
234 0 97.2035 12.016 1168 100.485 508.439 449.923
235 0 99.2135 11.8935 1180 101.323 508.384 448.197
236 0 102.21 12.445 1272 100.834 508.568 447.439
237 0 105.262 11.5712 1218 103.103 507.598 446.438
238 0 107.31 11.313 1214 103.864 507.41 446.367
239 0 111.169 12.2876 1366 102.773 507.952 442.123
240 0 117.126 16.4183 1923 92.5777 507.167 437.324
241 0 119.101 13.4256 1599 100.598 507.537 441.262
242 0 122.236 12.1241 1482 105.147 507.74 435.742
243 1 69.0643 9.96174 688 101.891 508.105 461.411
244 0 74.1502 11.1395 826 91.747 506.84 463.795
245 0 73.0713 10.825 791 93.493 507.924 463.014
246 0 77.0494 10.967 845 104.369 507.856 457.553
247 0 78.083 10.3352 807 106.263 507.861 458.323
248 0 84.0868 13.2839 1117 96.8774 507.739 454.001
249 0 84.0523 13.3369 1121 98.7538 508.126 455.142
250 0 81.1022 10.3943 843 107.907 508.28 455.791
251 0 88.0833 12.2044 1075 102.252 507.876 453.658
252 0 89.0783 13.3254 1187 100.094 507.561 454.275
253 0 89.0916 11.7407 1046 104.768 508.549 451.162
254 0 95.1116 12.5432 1193 100.97 507.308 454.168
255 0 97.1584 12.423 1207 101.702 507.454 450.421
256 0 99.1949 13.0249 1292 100.488 506.92 446.515
257 0 99.1738 10.5068 1042 97.0038 507.416 452.374
258 0 103.119 11.4528 1181 95.652 507.514 450.386
259 0 103.179 11.039 1139 98.3328 507.067 446.584
260 0 105.193 10.9989 1157 98.5791 508.08 447.672
261 0 114.179 13.4351 1534 93.7744 507.884 441.115
262 0 112.288 11.2567 1264 102.045 507.593 440.416
263 0 114.181 10.2644 1172 103.317 506.914 444.246
264 0 119.215 12.0538 1437 97.6326 506.624 438.753
265 0 119.215 12.0958 1442 136.988 506.623 438.737
266 1 67.0811 8.30339 557 101.433 507.837 454.75
267 0 71.1024 9.53554 678 98.9174 508.288 454.409
268 0 75.1044 10.7317 806 101.586 508.759 448.962
269 0 77.072 11.379 877 100.691 507.74 447.318
270 0 80.0861 12.2243 979 98.3667 508.933 450.526
271 0 82.1079 12.1304 996 98.5331 508.455 453.657
272 0 84.1725 11.0963 934 100.876 507.773 453.607
273 0 87.2097 12.6133 1100 98.8318 507.885 450.285
274 0 89.1463 11.1951 998 99.1754 508.616 455.224
275 0 93.1456 12.0993 1127 97.2378 508.543 452.67
276 0 93.1148 11.0509 1029 101.683 508.935 447.205
277 0 97.1063 12.1619 1181 99.8357 509.28 446.795
278 0 100.261 13.1157 1315 97.5802 508.03 446.898
279 0 103.116 12.6556 1305 97.2966 508.408 445.228
280 0 102.121 12.0739 1233 99.8638 507.809 442.041
281 0 106.15 11.9077 1264 102.765 506.914 441.422
282 0 111.251 13.7617 1531 97.0973 506.557 437.532
283 0 113.224 11.9056 1348 99.5007 507.459 439.579
284 0 116.129 11.4872 1334 101.491 507.17 437.585
285 0 120.082 12.658 1520 94.9612 507.371 435
286 0 118.087 11.5593 1365 99.0842 507.221 431.168
287 0 127.158 13.9747 1777 93.7243 506.905 428.464
288 0 129.163 13.4791 1741 95.6864 506.74 432.57
289 0 133.14 12.3779 1648 98.665 506.772 425.436
290 0 137.236 13.7428 1886 95.8637 506.93 428.836
291 0 142.222 13.8586 1971 95.5779 506.669 425.977
292 0 145.317 12.3316 1792 100.081 506.392 419.606
293 0 152.329 13.3002 2026 97.4852 505.773 418.85
294 1 89.194 10.0904 900 90.64 506.791 455.986
295 0 90.0681 10.7585 969 89.258 506.869 452.776
296 0 93.1584 12.5593 1170 87.2521 505.746 450.032
297 0 98.1579 12.2456 1202 96.1622 507.067 450.29
298 0 103.196 13.0141 1343 93.3261 507.375 448.293
299 0 102.202 12.3187 1259 95.255 507.325 448.13
300 0 106.139 13.3222 1414 93.7334 507.866 446.729
301 0 105.159 10.5364 1108 99.1417 507.337 443.319
302 0 107.137 10.7712 1154 99.6586 507.544 443.183
303 0 114.215 13.3871 1529 89.2714 507.306 439.254
304 0 115.135 11.847 1364 93.7229 507.715 441.46
305 0 117.188 11.8186 1385 95.9365 507.649 437.186
306 0 122.201 12.0212 1469 95.5167 507.447 437.869
307 0 123.119 10.1447 1249 101.941 507.693 436.089
308 0 130.212 13.1862 1717 95.0169 507.585 432.475
309 0 142.187 17.1676 2441 84.2888 507.728 420.875
310 0 142.201 14.6975 2090 90.9057 507.297 421.67
311 1 80.1538 10.4175 835 93.0862 508.016 460.109
312 0 81.1564 11.4347 928 91.9677 508.102 455.084
313 0 83.2162 11.3199 942 93 507.183 454.394
314 0 86.128 11.4713 988 90.6265 507.015 454.779
315 0 87.1297 10.7656 938 92.8689 507.583 455.031
316 0 91.1993 11.1733 1019 92.0756 507.718 453.273
317 0 92.1008 11.064 1019 93.4416 507.166 452.457
318 0 96.0903 10.4901 1008 92.251 507.211 453.222
319 0 96.1816 10.0955 971 93.4665 507.416 452.691
320 0 100.109 10.5185 1053 92.1282 507.417 453.365
321 0 103.217 11.0834 1144 91.1652 506.268 448.704
322 0 106.182 11.2072 1190 91.4328 507.323 448.205
323 0 107.211 9.0009 965 95.799 506.73 443.163
324 0 117.279 13.3442 1565 89.1022 507.254 440.141
325 0 114.252 12.2186 1396 93.4384 506.984 438.126
326 0 119.187 11.1422 1328 96.1408 507.867 439.865
327 0 121.175 10.8355 1313 97.6184 507.097 437.987
328 0 123.154 10.5721 1302 98.3679 507.957 435.347
329 0 131.259 12.5705 1650 94.6818 507.592 437.105
330 0 134.185 12.535 1682 95.1706 507.947 420.537
331 0 139.311 12.0737 1682 96.8775 507.502 419.77
332 0 143.32 11.2475 1612 98.7512 508.099 422.651
333 0 149.352 13.8733 2072 92.7259 507.767 420.077
334 0 154.406 13.9956 2161 92.4637 507.347 417.739
335 0 158.511 12.056 1911 96.763 507.982 412.425
336 0 167.402 13.0405 2183 94.3962 507.88 410.809
337 1 97.2634 11.2478 1094 88.6974 508.355 450.491
338 0 98.1993 10.1936 1001 89.7023 508.117 449.653
339 0 103.2 11.531 1190 84.9479 508.471 451.657
340 0 106.178 11.8103 1254 86.6324 507.758 446.957
341 0 111.131 12.8676 1430 89.8077 507.962 445.181
342 0 109.203 10.2195 1116 94.1013 507.863 440.285
343 0 116.246 13.4285 1561 87.1883 508.06 438.726
344 0 119.264 13.5413 1615 86.6737 508.213 440.736
345 0 118.473 9.33544 1106 92.7722 508.053 436.242
346 0 121.408 9.35689 1136 92.2764 507.973 432.038
347 0 128.285 12.0825 1550 88.071 508.506 433.832
348 0 131.229 12.1239 1591 88.7901 507.839 432.776
349 0 136.278 10.9776 1496 89.5842 507.543 430.751
350 1 149.432 22.6458 3384 68.2373 507.284 409.629
351 0 141.256 11.1429 1574 90.202 507.454 425.93
352 0 145.212 11.4316 1660 89.4277 507.028 426.549
353 0 151.288 12.387 1874 90.0427 507.075 419.96
354 0 156.295 11.4591 1791 92.4701 506.936 418.141
355 1 90.1838 9.26996 836 93.2739 507.289 457.537
356 0 93.2505 12.2573 1143 90.0639 506.572 452.479
357 0 94.1551 11.7253 1104 94.798 506.64 449.309
358 0 98.1707 11.2254 1102 92.176 507.289 449.024
359 0 99.2334 8.64628 858 86.4872 506.579 450.147
360 0 102.138 10.1921 1041 84.8694 507.17 449.26
361 0 105.308 10.8633 1144 84.4746 506.681 444.12
362 0 106.222 11.1182 1181 85.3988 507.507 444.102
363 0 112.123 11.5409 1294 85.2504 508.314 434.236
364 0 116.119 11.2643 1308 85.4732 507.879 442.092
365 0 117.169 12.2985 1441 85.136 507.482 439.075
366 0 121.185 13.1039 1588 84.6486 507.528 439.579
367 0 125.263 11.7912 1477 86.4895 507.197 438.145
368 0 136.404 15.718 2144 78.0182 508.084 424.716
369 0 133.24 10.8526 1446 88.6964 507.491 432.604
370 0 138.243 11.6317 1608 88.166 508.024 430.26
371 0 143.195 11.9697 1714 88.5688 508.343 431.511
372 1 89.2528 12.1229 1082 88.768 507.833 457.977
373 0 86.1295 11.2389 968 90.8037 508.474 448.423
374 0 92.1512 12.4795 1150 88.5904 508.857 454.912
375 0 93.0766 11.9042 1108 90.1986 509.421 452.929
376 0 97.0684 11.8885 1154 89.3449 508.497 449.64
377 0 99.118 12.127 1202 88.7496 508.5 452.339
378 0 101.109 14.341 1450 86.0386 508.285 449.945
379 0 102.229 10.6819 1092 89.8819 507.816 450.799
380 0 107.18 11.0095 1180 88.1271 508.327 451.956
381 0 113.197 13.154 1489 84.1545 507.66 444.445
382 0 114.238 12.0625 1378 87.7235 508.254 441.925
383 0 117.2 11.4761 1345 88.0409 508.426 447.558
384 0 118.125 11.8857 1404 88.5677 508.409 442.531
385 0 123.15 12.3345 1519 89.2706 507.904 436.69
386 0 125.13 12.0195 1504 90.9515 507.839 433.309
387 1 144.327 17.7306 2559 76.5557 507.764 425.256
388 0 142.216 15.1319 2152 82.1459 507.951 426.65
389 0 147.177 16.9796 2499 80.026 508.061 424.112
390 0 143.227 13.9709 2001 86.9685 507.517 424.47
391 0 146.194 12.2851 1796 90.7394 507.836 426.159
392 0 150.236 11.036 1658 93.31 507.232 422.867
393 0 151.125 12.89 1948 90.7659 507.42 420.366
394 0 156.357 12.2092 1909 93.6417 506.477 412.617
395 1 91.1555 9.78548 892 86.7141 506.901 446.981
396 0 88.0573 10.7316 945 87.8064 506.236 443.302
397 0 89.0691 9.82383 875 91.12 506.695 437.919
398 0 99.0696 11.073 1097 79.0912 506.866 438.655
399 0 98.1231 9.79382 961 81.5744 507.587 446.286
400 0 100.222 8.38141 840 85.1345 507.079 439.417
401 0 105.126 9.10333 957 84.4817 506.969 440.344
402 0 107.148 11.5448 1237 82.9588 507.552 436.123
403 0 109.333 11.2683 1232 84.7054 507.46 434.732
404 0 106.123 8.63151 916 89.8734 507.123 429.523
405 0 117.194 9.67628 1134 86.9321 508.273 433.452
406 0 120.146 11.253 1352 86.0925 506.692 422.064
407 0 122.272 12.3985 1516 84.6445 507.319 427.518
408 0 123.166 11.7322 1445 87.0962 506.716 422.453
409 1 134.204 12.4735 1674 98.0161 505.965 430.532
410 0 131.226 10.4171 1367 103.241 505.781 428.353
411 0 132.125 11.4059 1507 102.242 505.995 428.079
412 0 131.316 10.2044 1340 100.466 506.577 433.145
413 1 90.1745 10.0361 905 94.7878 507.243 448.372
414 0 92.2643 11.2394 1037 96.2893 506.485 451.449
415 0 99.1031 11.0895 1099 84.4759 505.492 452.269
416 0 102.195 11.9575 1222 83.4894 506.828 453.076
417 0 106.105 13.1379 1394 81.6492 506.57 450.336
418 0 108.166 11.9262 1290 84.4907 505.883 448.598
419 0 110.258 10.9017 1202 87.1597 505.512 447.856
420 0 115.129 12.2384 1409 84.9375 505.723 446.119
421 0 119.33 13.6177 1625 83.5914 505.152 434.831
422 0 119.177 11.3781 1356 88.0354 505.787 434.838
423 0 123.119 10.3396 1273 90.6072 505.701 431.79
424 0 127.103 12.4309 1580 88.7987 506.115 431.629
425 0 128.134 11.925 1528 89.4391 505.709 438.335
426 0 133.106 13.3127 1772 87.3533 505.735 435.326
427 0 134.116 11.4752 1539 92.0442 506.543 430.724
428 0 138.176 11.8255 1634 92.1053 504.946 427.123
429 0 145.245 11.7732 1710 91.7012 505.558 425.801
430 0 150.251 12.9783 1950 89.8133 505.766 424.18
431 0 154.27 14.2153 2193 88.1696 506.28 421.578
432 1 165.227 14.707 2430 86.4531 505.904 415.672
433 0 168.289 13.6908 2304 89.7821 505.881 411.901
434 0 170.374 11.7037 1994 94.992 506.576 414.755
435 0 175.205 11.7748 2063 96.3199 505.865 409.171
436 0 180.426 12.0714 2178 98.3035 506.274 407.613
437 0 186.355 11.6284 2167 100.892 505.583 401.746
438 0 193.368 12.7684 2469 101.119 504.561 400.547
439 0 197.43 12.5867 2485 102.19 505.786 394.349
440 0 204.409 13.3996 2739 101.123 505.198 393.36
441 0 207.253 14.2435 2952 100.188 505.689 383.547
442 0 205.256 14.08 2890 101.31 505.622 383.357
443 0 209.378 14.0846 2949 102.519 505.607 376.43
444 1 144.404 12.4512 1798 98.6301 505.244 406.998
445 0 149.29 12.8006 1911 99.9854 504.775 402.742
446 0 161.213 12.654 2040 99.1196 505.197 408.021
447 0 161.362 13.5596 2188 98.3149 506.271 408.175
448 0 164.297 12.0818 1985 104.057 506.225 395.112
449 0 170.134 12.6665 2155 102.377 506.378 388.573
450 0 180.149 12.423 2238 102.131 505.874 389.279
451 0 188.353 12.0465 2269 101.945 505.985 389.665
452 0 198.351 14.5954 2895 96.744 506.327 386.601
453 0 207.432 13.9901 2902 97.4742 506.56 382.751
454 0 213.398 13.0554 2786 99.668 505.552 381.073
455 0 218.34 12.8698 2810 101.207 505.464 376.425
456 0 225.337 12.2172 2753 103.505 505.88 365.926
457 0 231.351 12.5437 2902 102.91 506.563 365.782
458 0 238.273 12.6242 3008 104.169 506.048 358.98
459 0 245.385 12.4987 3067 103.202 506.367 356.934
460 1 186.333 13.1753 2455 96.5218 506.294 390.303
461 0 189.307 12.2182 2313 99.572 506.485 383.657
462 0 195.294 12.6681 2474 98.8266 506.225 381.548
463 0 201.309 12.4485 2506 100.195 505.541 378.496
464 0 206.461 12.1379 2506 101.187 505.826 373.373
465 0 214.312 12.6264 2706 102.465 505.308 369.217
466 0 311.665 17.1466 5344 94.9098 505.907 320.563
467 1 260.39 9.04412 2355 104.898 505.306 370.155
468 0 255.413 9.59232 2450 106.056 505.794 360.362
469 1 56.03 6.74638 378 81.1561 506.862 459.762
470 0 62.0752 9.08576 564 84.2624 506.984 463.642
471 0 63.0313 7.07585 446 81.2982 506.596 466.401
472 0 67.1867 8.84104 594 79.0859 506.002 469.418
473 0 67.0906 9.80764 658 78.3359 506.178 470.511
474 0 77.0631 11.3543 875 76.3509 505.527 461.601
475 0 76.2923 11.8885 907 77.2756 505.53 461.209
476 0 74.1224 9.0526 671 81.9285 506.189 465.571
477 0 76.2222 9.43295 719 80.6134 506.384 468.523
478 0 78.1912 9.41283 736 82.678 505.867 466.304
479 0 77.1452 10.2015 787 83.3126 505.957 464.413
480 0 80.3478 10.2554 824 84.3386 505.799 464.314
481 0 80.2803 8.80664 707 86.8868 506.136 458.388
482 0 85.2951 11.5599 986 86.3205 506.16 458.221
483 0 88.1746 11.5793 1021 85.856 506.246 457.625
484 0 96.3835 13.9443 1344 83.8594 506.356 454.495
485 0 107.394 14.228 1528 80.8233 505.574 446.649
486 0 102.255 14.855 1519 83.1152 505.485 448.434
487 0 120.522 15.1922 1831 77.1185 505.28 443.016
488 0 128.436 14.1472 1817 78.9208 505.482 442.892
489 0 116.409 16.8973 1967 79.2181 504.965 433.982
490 0 110.253 12.2536 1351 92.7091 505.137 428.313
491 0 112.27 11.9355 1340 94.7172 505.213 438.756
492 0 117.397 13.2882 1560 91.7167 506.308 443.695
493 0 122.324 14.6415 1791 88.9637 506.046 434.055
494 0 123.275 13.9768 1723 93.5717 505.453 400.591
495 0 129.404 14.7677 1911 91.73 505.492 398.236
496 1 82.2886 8.87122 730 98.6384 506.316 431.338
497 0 86.2042 8.14346 702 98.1524 505.981 436.627
498 0 86.189 7.84322 676 145.149 503.978 437.399
499 0 80.0787 9.97768 799 85.169 506 426.417
500 0 84.1005 12.8656 1082 89.5185 505.217 435.353
501 0 81.069 11.1263 902 94.0443 504.997 431.563
502 0 81.1328 10.8341 879 97.1001 504.457 429.962
503 0 85.1513 11.1918 953 95.5352 504.367 436.504
504 0 91.0593 13.0464 1188 91.6052 504.987 436.905
505 0 92.1173 11.9196 1098 93.959 505.107 444.013
506 0 93.1015 13.2114 1230 92.4561 505.389 447.092
507 0 95.109 11.1977 1065 96.5897 504.783 448.821
508 0 95.109 11.2713 1072 161.134 505.751 448.875
509 0 100.142 12.0529 1207 96.9859 505.234 444.162
510 0 110.248 16.1001 1775 79.4428 505.865 441.77
511 0 109.17 13.6667 1492 86.5509 505.532 436.357
512 0 110.255 13.8859 1531 93.2234 504.963 439.789
513 0 113.198 12.4737 1412 96.3364 505.615 441.116
514 0 111.325 13.1687 1466 97.5532 506.222 432.621
515 0 119.251 12.7882 1525 97.6125 506.938 431.497
516 0 117.432 12.9777 1524 98.5748 506.011 429.934
517 0 123.286 15.5167 1913 91.9728 506.275 423.616
518 0 129.355 18.5226 2396 86.177 506.155 424.394
519 0 131.191 16.3045 2139 91.4376 507.122 419.074
520 0 134.172 15.182 2037 95.484 506.636 425.926
521 0 134.265 13.7862 1851 99.0475 506.599 428.986
522 0 135.287 12.3146 1666 101.953 506.289 415.321
523 0 141.163 12.6379 1784 98.954 506.526 419.349
524 0 150.265 11.6594 1752 100.188 506.215 415.681
525 1 88.1784 8.55085 754 95.0504 506.491 444.635
526 0 97.2014 11.5225 1120 96.4759 507.062 454.521
527 0 99.1386 11.2166 1112 92.0998 506.939 454.085
528 0 104.101 12.4495 1296 94.8974 505.379 452.206
529 0 105.294 12.9163 1360 95.139 506.674 448.516
530 0 110.159 12.9177 1423 95.0155 505.015 450.869
531 0 113.327 12.8037 1451 95.3005 505.941 447.207
532 0 121.314 15.2332 1848 91.9378 505.071 438.055
533 0 123.17 13.7452 1693 96.2552 505.968 439.295
534 0 122.375 13.0746 1600 101.966 505.537 439.584
535 0 126.321 12.9432 1635 100.348 505.864 440.737
536 0 127.201 12.3584 1572 101.806 505.838 438.601
537 0 131.28 14.1149 1853 98.4242 505.755 434.875
538 0 135.183 11.7396 1587 103.649 504.698 431.064
539 0 137.226 12.8328 1761 101.481 504.565 427.156
540 0 142.412 12.6745 1805 100.299 505.013 430.182
541 0 147.312 12.4566 1835 99.9733 505.686 427.087
542 0 152.375 12.6267 1924 100.1 505.208 420.953
543 0 154.704 13.1735 2038 100.387 505.831 424.729
544 0 158.271 10.8548 1718 105.375 505.415 416.824
545 1 92.2128 9.39132 866 96.3753 506.077 452.054
546 0 87.0962 10.563 920 93.1565 506.072 445.424
547 0 96.1571 7.73734 744 91.2097 507.015 441.374
548 1 14.0011 5.85667 82 79.2317 509.159 496.073
549 0 16.025 8.23712 132 77.7348 509.417 493.439
550 0 13.0029 2.99934 39 78.4359 508.82 486.333
551 0 19.0584 5.24702 100 79.8 508.42 491.61
552 0 19.0058 5.41941 103 80.2136 508.99 494.049
553 0 15.0025 6.33229 95 80.3263 509.379 493.937
554 0 16.0101 7.55773 121 79.4215 509.479 494.934
555 0 16.0033 4.99897 80 76.8625 509.15 495.35
556 0 17.0109 4.05622 69 80.8986 507.942 494.261
557 0 25.0072 5.43842 136 82.5221 509.279 493.199
558 0 19.0125 5.2597 100 77.11 508.94 492.7
559 0 19.0122 3.83963 73 81.6575 509.384 493.151
560 0 18.0132 6.88386 124 79.8306 509.016 491.952
561 1 130.26 10.149 1322 106.413 505.624 431.143
562 0 129.318 10.3311 1336 108.144 505.716 431.528
563 0 131.166 10.826 1420 109.402 505.338 426.527
564 0 133.3 11.2753 1503 97.9088 505.767 433.43
565 0 134.226 11.3913 1529 97.3852 506.154 432.744
566 0 138.196 10.5937 1464 98.1523 505.584 427.926
567 0 146.215 11.189 1636 95.6797 506.236 424.789
568 0 150.267 11.1269 1672 102.228 505.95 419.755
569 0 158.287 10.2093 1616 103.063 505.5 411.701
570 0 162.254 12.388 2010 99.3945 505.596 411.632
571 0 168.337 12.4868 2102 98.5918 506.214 413.46
572 0 171.214 10.6591 1825 103.129 505.439 401.251
573 0 174.272 10.7361 1871 103.06 506.339 401.569
574 0 183.494 12.6435 2320 98.8422 505.633 401.807
575 1 102.156 10.2197 1044 89.3764 506.728 448.472
576 0 105.232 10.9853 1156 88.4542 506.695 452.358
577 0 106.232 11.9738 1272 87.0393 506.879 451
578 0 106.265 10.869 1155 92.1403 506.078 445.532
579 0 112.234 10.986 1233 96.2011 506.618 447.689
580 0 112.207 9.14379 1026 101.937 506.313 445.549
581 0 116.214 9.43087 1096 102.765 506.842 442.271
582 0 118.2 10.1523 1200 102.891 506.748 442.735
583 0 123.206 11.3144 1394 101.135 506.985 440.067
584 0 124.299 11.4241 1420 102.551 505.832 438.664
585 0 128.31 11.971 1536 103.915 505.732 433.806
586 0 131.489 11.0579 1454 105.744 505.193 434.902
587 0 133.252 10.5139 1401 107.067 506.201 432.093
588 0 138.418 11.5303 1596 106.877 505.58 429.165
589 0 142.342 13.025 1854 105.039 505.929 428.487
590 0 147.302 12.8851 1898 106.627 505.294 422.375
591 0 149.342 11.4837 1715 109.331 505.938 419.792
592 0 156.33 12.7359 1991 105.903 504.939 421.224
593 0 158.576 10.0646 1596 111.194 505.403 419.559
594 1 93.4757 10.0561 940 96.7851 505.871 458.853
595 0 91.281 9.13662 834 100.5 506.374 457.512
596 0 96.3659 11.3941 1098 98.7213 505.97 451.649
597 0 96.2499 11.3039 1088 109.031 505.393 452.097
598 0 102.546 11.117 1140 109.894 505.733 451.368
599 0 103.415 10.8688 1124 102.85 504.847 449.444
600 0 107.15 11.5072 1233 108.378 505.264 446.536
601 0 109.316 10.9956 1202 110.182 505.175 446.884
602 0 110.191 12.0155 1324 109.057 505.52 443.736
603 0 115.306 11.8554 1367 108.355 505.816 440.435
604 0 119.401 11.3818 1359 109.683 505.98 440.043
605 0 118.269 10.8989 1289 112.93 505.204 437.58
606 0 124.205 12.8336 1594 107.572 506.166 439.197
607 0 127.434 12.171 1551 110.177 506.538 433.048
608 0 134.333 15.6328 2100 101.353 506.015 429.293
609 0 131.308 10.5782 1389 114.461 505.505 425.693
610 0 139.314 12.1165 1688 110.69 504.973 426.281
611 0 144.318 14.1077 2036 105.825 504.877 421.675
612 0 148.4 12.9245 1918 108.88 505.76 422.959
613 0 150.571 11.7154 1764 111.179 505.348 420.817
614 0 155.407 12.4319 1932 110.699 505.893 416.214
615 0 162.271 12.9352 2099 109.257 505.069 416.062
616 0 166.339 12.6549 2105 111.141 505.112 411.524
617 0 171.496 13.1023 2247 110.751 504.565 407.442
618 0 175.463 12.2533 2150 112.863 503.886 407.062
619 0 182.288 13.2154 2409 111.172 505.198 403.599
620 0 188.56 13.7516 2593 110.63 504.569 401.843
621 0 195.547 14.0426 2746 110.969 504.604 397.846
622 0 199.742 12.5362 2504 114.378 504.713 392.893
623 0 207.341 13.8226 2866 111.281 504.968 393.624
624 0 211.506 12.463 2636 115.473 504.275 383.417
625 0 219.389 13.6197 2988 111.705 503.841 386.437
626 0 228.667 12.6253 2887 112.679 504.333 380.445
627 0 239.424 13.2318 3168 110.782 503.846 377.548
628 0 245.407 12.5832 3088 113.174 504.341 369.553
629 0 253.345 12.1889 3088 112.338 503.889 369.396
630 0 262.603 12.06 3167 113.939 504.457 371.164
631 1 11.0055 5.72441 63 82.6032 507.492 498.095
632 0 12.0025 6.6653 80 79.5875 507.325 499.2
633 0 13.0225 3.68592 48 83.7708 506.604 496.854
634 0 13.009 5.07342 66 82.2273 507.742 497.273
635 0 17.0154 7.8752 134 77.7836 506.709 498.373
636 0 14.0012 4.14251 58 83.4138 507.517 497.31
637 0 16.0054 5.49814 88 81.1136 506.602 498.148
638 0 16.0039 7.37321 118 99.839 505.661 496.983
639 0 19.0011 7.99953 152 77.6447 507.118 496.961
640 0 18.0823 8.95904 162 78.5247 507.599 495.302
641 0 17.0126 4.93752 84 81.5119 508.238 497.417
642 0 20.0103 8.09582 162 77.7778 507.302 496.525
643 0 18.0462 7.59164 137 78.8759 507.511 496.299
644 0 15.0136 5.66155 85 82.6941 506.588 495.435
645 1 93.13 9.91088 923 95.8462 505.547 455.951
646 0 90.2696 9.6378 870 96.5701 505.725 451.468
647 0 91.525 7.12374 652 97.5522 506.023 458.164
648 0 89.5944 5.20122 466 96.0579 505.805 464.908
649 1 112.353 16.0565 1804 82.4246 506.336 441.105
650 0 112.337 15.8006 1775 83.7493 505.384 437.091
651 0 113.471 15.9248 1807 86.0338 504.83 443.737
652 0 116.609 15.3162 1786 87.8886 504.204 442.773
653 0 121.655 16.8262 2047 86.1808 504.978 441.556
654 0 122.664 15.522 1904 90.7012 505.275 438.484
655 0 128.544 16.1967 2082 89.2675 505.526 434.389
656 1 74.2818 9.69282 720 93.4806 505.522 462.557
657 0 79.4109 10.9053 866 93.6767 505.52 462.197
658 0 80.5203 10.5936 853 96.966 505.137 460.454
659 0 84.4137 14.2749 1205 91.7842 505.286 460.583
660 0 86.4924 13.1341 1136 93.9613 505.25 460.801
661 0 89.4246 12.9159 1155 95.6242 505.523 458.381
662 0 91.3625 12.7295 1163 97.8925 504.831 456.294
663 0 93.3197 12.6983 1185 99.3941 504.694 453.145
664 0 95.5785 11.9797 1145 100.682 505.704 454.052
665 0 100.417 11.9203 1197 100.546 506.075 453.692
666 0 101.371 11.9363 1210 103.355 505.629 448.475
667 0 106.254 13.0818 1390 101.471 506.014 448.235
668 0 109.358 14.009 1532 100.235 505.933 445.204
669 0 116.271 16.4788 1916 93.9181 505.075 439.854
670 0 117.589 15.0779 1773 99.3531 505.503 439.227
671 0 119.453 13.3023 1589 104.253 505.604 439.228
672 0 122.386 13.2776 1625 104.673 505.322 439.001
673 0 126.52 14.2033 1797 104.247 505.371 438.021
674 0 129.333 14.3041 1850 104.857 506.062 435.242
675 1 144.334 22.254 3212 85.2827 505.638 422.445
676 0 147.432 19.6836 2902 90.3032 504.774 418.672
677 0 148.693 15.8918 2363 99.7076 505.568 422.459
678 0 150.419 15.2108 2288 101.705 505.221 422.257
679 1 82.204 11.7391 965 101.703 506.331 456.841
680 0 88.4936 12.9953 1150 98.9 506.52 457.586
681 0 90.241 12.378 1117 102.195 505.993 452.377
682 0 96.3674 13.2825 1280 99.1766 505.385 453.891
683 0 99.4482 11.4532 1139 104.017 505.229 450.394
684 0 100.278 12.0665 1210 104.998 504.995 446.398
685 0 102.557 11.6423 1194 105.475 506.039 446.911
686 0 107.495 12.8006 1376 103.136 505.365 442.193
687 0 112.448 14.7446 1658 97.8558 506.083 437.767
688 0 113.426 12.6514 1435 103.786 505.635 437.01
689 0 117.361 13.4372 1577 101.669 505.141 436.407
690 0 122.335 12.7764 1563 102.482 505.897 435.016
691 0 125.233 12.8081 1604 103.437 506.555 431.394
692 0 131.53 13.0616 1718 102.951 506.112 432.189
693 1 143.531 16.1499 2318 94.1618 505.747 417.289
694 0 143.411 15.9751 2291 97.9411 506.028 420.837
695 0 147.556 14.747 2176 102.06 506.118 422.994
696 0 151.696 14.9444 2267 102.75 506.868 424.059
697 0 155.406 14.697 2284 104.56 506.536 419.303
698 0 162.472 14.2671 2318 106.004 506.73 417.572
699 0 165.533 13.375 2214 110.064 506.612 414.501
700 0 171.716 14.5181 2493 108.533 506.868 412.276
701 0 176.404 13.7299 2422 111.191 507.313 409.097
702 0 182.71 13.8197 2525 112.402 507.311 403.223
703 0 188.538 15.042 2836 110.359 506.263 399.989
704 0 192.941 14.0095 2703 113.575 507.489 399.478
705 0 201.515 15.185 3060 110.662 506.786 397.505
706 0 208.647 15.313 3195 110.648 505.115 394.023
707 0 213.982 14.7396 3154 111.488 506.013 390.839
708 0 221.568 15.0518 3335 109.384 506.609 389.837
709 1 174.462 13.3266 2325 114.96 506.046 411.39
710 0 182.776 14.6463 2677 111.857 506.546 407.95
711 0 187.679 15.4892 2907 111.025 506.179 401.127
712 0 194.508 14.0046 2724 115.107 506.494 400.378
713 0 197.784 14.4652 2861 115.286 506.279 396.111
714 0 205.379 13.906 2856 117.171 506.447 391.277
715 0 216.539 15.032 3255 114.072 506.456 390.199
716 0 222.844 14.647 3264 115.713 505.692 387.084
717 0 228.53 14.1776 3240 118.191 505.594 380.814
718 0 239.62 14.4604 3465 118.575 506.592 375.713
719 0 249.583 14.3319 3577 119.317 506.577 370.51
720 0 255.797 13.7062 3506 122.156 506.297 366.245
721 1 69.2829 10.9984 762 103.774 508.272 461.514
722 0 64.1652 8.97683 576 108.083 508.354 457.132
723 0 73.2469 10.7035 784 99.7041 507.106 462.751
724 0 75.1651 9.95142 748 98.3877 507.251 462.317
725 0 76.1238 10.7062 815 97.5914 506.757 461.515
726 0 77.5541 10.844 841 97.7289 506.625 456.562
727 0 78.2304 8.60279 673 102.327 506.407 452.52
728 0 80.5002 9.34159 752 101.57 505.858 453.206
729 0 86.4684 10.8132 935 97.8888 507.217 453.036
730 0 89.7084 11.058 992 97.6905 507.361 452.19
731 1 12.0095 8.65984 104 79.3077 509.865 491.615
732 0 16.1919 7.16408 116 80.2414 508.552 490.362
733 0 19.3549 6.76832 131 80.2595 509.267 489.756
734 0 17.1385 6.94344 119 79.605 509.79 492.176
735 0 11.0108 5.90329 65 80.3538 508.815 493.154
736 0 12.0175 4.74308 57 82.6316 509.86 493.105
737 0 17.2034 5.8128 100 80.22 508.78 493.31
738 0 17.2549 5.15795 89 82.0674 509.697 492.742
739 0 117.749 12.0851 1423 101.603 506.295 437.058
740 0 120.509 12.2149 1472 103.764 506.412 437.745
741 0 121.251 11.5628 1402 107.28 505.991 436.481
742 1 56.1047 7.68206 431 95.2715 505.573 474.603
743 0 59.1061 9.3899 555 94.6234 505.676 468.982
744 0 62.2028 11.0124 685 92.6672 506.131 464.216
745 0 63.218 10.9779 694 93.4524 505.944 466.392
746 0 64.2081 10.2791 660 94.3424 505.358 465.659
747 0 65.3205 8.60373 562 97.7865 505.909 463.781
748 0 71.2455 11.8042 841 92.4863 506.284 463.138
749 0 72.3284 11.5307 834 93.3285 506.112 462.523
750 0 75.3149 9.93163 748 95.9398 505.424 461.61
751 0 79.2682 10.66 845 94.6509 506.095 459.164
752 0 80.1731 10.6145 851 95.8743 505.088 457.714
753 0 82.1884 10.9991 904 95.635 505.844 455.84
754 0 81.2206 9.65272 784 98.676 506.207 454.524
755 0 87.2437 11.2444 981 95.4546 506.839 455.097
756 0 90.3133 10.53 951 97.2713 506.221 453.931
757 0 92.1808 9.72003 896 97.5134 506.52 454.67
758 0 95.2933 9.80132 934 98.7677 506.425 450.218
759 0 101.237 11.7743 1192 95.3616 506.305 450.552
760 0 104.288 12.1011 1262 94.8106 506.027 447.681
761 0 105.134 11.5186 1211 97.8877 505.583 447.541
762 0 108.084 9.69619 1048 100.782 504.881 445.138
763 0 110.242 10.5404 1162 99.0912 505.118 441.763
764 0 114.124 11.137 1271 95.022 504.274 439.021
765 0 110.271 6.42962 709 104.867 504.821 435.924
766 0 120.327 7.28845 877 101.192 504.61 443.803
767 1 68.1795 10.443 712 90.9157 506.485 468.574
768 0 70.3375 10.4496 735 91.6204 505.819 463.737
769 0 74.2248 9.61943 714 93.5112 506.167 464.487
770 0 74.3991 10.6318 791 91.4678 505.1 465.731
771 0 75.3841 10.4531 788 92.2348 504.789 459.873
772 0 76.2901 11.5873 884 90.414 504.316 458.373
773 0 82.0903 12.0233 987 88.3698 505.045 455.884
774 0 82.0903 12.0599 990 113.756 506.053 455.857
775 0 90.2555 10.8027 975 90.0277 505.475 455.58
776 0 88.3262 12.9746 1146 88.6379 504.541 451.092
777 0 91.2792 10.6596 973 92.5478 504.733 448.413
778 0 93.2486 12.0109 1120 90.5812 504.285 445.026
779 0 98.2047 11.4964 1129 91.1399 504.765 444.11
780 0 104.154 13.9313 1451 86.3094 504.532 442.302
781 0 103.238 11.8367 1222 91.7831 505.541 443.231
782 0 106.18 11.3298 1203 92.9568 505.016 439.875
783 0 112.433 13.1367 1477 89.803 505.267 439.19
784 0 116.269 11.5852 1347 92.3601 504.731 440.725
785 0 121.217 12.1353 1471 91.6166 505.252 436.192
786 1 133.289 12.1165 1615 194.913 504.704 439.267
787 0 128.664 14.5962 1878 125.223 505.531 432.122
788 0 131.531 14.0195 1844 91.7012 504.638 428.928
789 1 77.4587 12.2904 952 88.6754 505.747 461.934
790 0 78.4952 12.039 945 90.4423 506.095 461.359
791 0 82.3578 13.4292 1106 87.5099 505.712 459.251
792 0 85.6452 11.8512 1015 89.403 504.715 460.715
793 0 86.7818 13.2862 1153 89.9133 504.774 458.385
794 0 90.5716 12.7413 1154 94.3518 503.573 456.524
795 0 94.4184 13.9062 1313 93.9459 504.907 452.99
796 0 96.5499 12.812 1237 96.8658 504.138 453.108
797 0 100.534 12.3342 1240 98.8936 505.361 451.615
798 0 105.637 13.0352 1377 98.215 505.342 447.554
799 0 108.535 13.6085 1477 97.9357 505.845 447.381
800 0 114.44 12.7141 1455 100.365 504.879 445.123
801 0 116.461 14.6229 1703 98.2043 504.335 444.37
802 0 120.61 15.2143 1835 97.9853 504.904 440.447
803 0 124.354 15.1021 1878 99.7982 504.544 437.637
804 0 129.45 14.6929 1902 99.6167 505.022 436.457
805 1 72.5015 13.048 946 97.5497 505.171 466.107
806 0 72.5113 12.6187 915 99.5322 504.609 461.966
807 0 76.1421 12.6737 965 99.5979 505.626 462.051
808 0 78.2631 13.7229 1074 98.4562 505.702 461.51
809 0 80.4456 12.6048 1014 100.678 505.035 458.192
810 0 85.4531 13.3289 1139 99.9096 505.536 458.368
811 0 87.4281 14.5605 1273 98.3763 505.942 457.446
812 0 90.4033 14.8778 1345 98.5829 505.358 457.404
813 0 91.2722 13.2132 1206 103.784 505.936 454.643
814 0 96.3322 13.3185 1283 102.903 506.266 454.799
815 0 97.3462 12.81 1247 105.598 505.463 452.407
816 0 99.2456 13.5019 1340 105.507 505.407 449.251
817 0 104.542 14.9796 1566 102.254 505.382 449.374
818 0 112.48 17.6653 1987 95.8067 505.386 444.46
819 0 110.19 15.192 1674 104.069 504.642 445.605
820 0 115.404 14.5489 1679 105.585 504.917 443.877
821 0 121.341 14.4799 1757 106.186 504.353 442.258
822 0 124.279 14.9342 1856 105.669 504.71 441.08
823 0 127.265 15.3616 1955 105.612 505.157 437.511
824 0 133.176 14.9501 1991 106.504 504.529 434.25
825 0 138.296 15.127 2092 106.135 504.925 432.242
826 0 141.176 13.9897 1975 105.289 504.338 433.995
827 1 80.2357 13.4479 1079 108.529 504.599 460.274
828 0 82.3102 14.6519 1206 107.044 504.437 460.804
829 0 86.2998 13.6385 1177 110.699 504.745 457.341
830 0 86.1447 14.998 1292 109.989 504.172 455.116
831 0 91.2015 14.1116 1287 111.274 504.765 455.033
832 0 92.2496 15.2521 1407 109.688 504.343 452.332
833 0 95.2387 15.3299 1460 109.291 504.929 453.176
834 0 97.2029 14.7835 1437 110.804 504.521 451.774
835 0 102.347 15.1153 1547 109.63 504.483 449.858
836 0 105.138 16.1407 1697 107.1 504.669 445.164
837 0 108.365 15.2724 1655 109.323 504.103 445.767
838 0 110.331 14.1302 1559 111.945 504.859 444.044
839 0 117.192 15.3935 1804 108.319 504.075 441.728
840 0 122.402 15.016 1838 108.998 504.656 440.658
841 0 122.288 15.946 1950 108.955 504.763 434.591
842 0 128.137 15.3117 1962 110.131 505.014 432.537
843 0 136.379 15.6623 2136 109.361 504.542 433.011
844 0 140.264 15.2284 2136 111.263 506.075 431.396
845 1 82.2425 12.7671 1050 116.195 505.756 457.34
846 0 84.4638 13.4022 1132 115.551 504.887 458.004
847 0 88.1938 14.6042 1288 112.804 505.425 456.124
848 0 92.3417 13.7533 1270 117.065 504.991 452.755
849 0 95.2898 15.5945 1486 113.746 505.537 450.84
850 0 98.2078 13.6547 1341 119.036 505.486 448.084
851 0 98.2078 13.6853 1344 172.961 506.47 448.276
852 0 104.34 15.1236 1578 117.612 505.94 443.49
853 0 111.339 15.9962 1781 113.698 505.317 444.737
854 0 114.176 15.7126 1794 115.856 505.248 442.993
855 0 119.262 16.5015 1968 115.057 504.522 441.203
856 0 122.291 15.087 1845 119.23 505.167 439.293
857 0 127.33 14.3799 1831 120.641 504.497 437.464
858 0 133.328 15.0681 2009 120.115 504.85 432.533
859 0 138.492 15.8638 2197 117.508 504.922 433.249
860 0 140.428 14.8403 2084 122.182 504.952 427.851
861 0 146.363 15.605 2284 120.762 505.145 426.157
862 0 153.282 15.5139 2378 120.015 504.521 424.916
863 0 161.448 18.9348 3057 110.592 504.827 417.818
864 0 160.516 15.3256 2460 122.165 505.118 417.715
865 0 167.27 15.4779 2589 121.647 505.269 414.308
866 0 175.358 15.4541 2710 121.066 505.171 414.124
867 1 91.1247 13.5858 1238 119.452 505.473 454.768
868 0 91.2147 13.4189 1224 121.507 505.234 452.139
869 0 95.1766 13.123 1249 122 505.416 449.535
870 0 100.128 13.6526 1367 119.895 505.917 448.322
871 0 103.234 14.4332 1490 118.646 505.043 445.599
872 0 108.221 15.108 1635 116.311 505.022 442.484
873 0 109.149 12.7715 1394 122.214 505.248 441.84
874 0 116.128 13.821 1605 119.1 505.36 439.38
875 0 119.186 14.062 1676 119.394 504.814 435.267
876 0 120.21 13.4099 1612 121.362 506.024 431.728
877 0 123.258 13.3541 1646 122.275 505.674 428.835
878 0 124.216 14.0159 1741 122.21 505.867 423.405
879 1 67.1112 9.77482 656 111.55 506.331 455.291
880 0 66.0543 9.03802 597 114.258 506.141 453.213
881 0 75.1113 11.6627 876 105.531 506.03 459.257
882 0 75.123 10.4362 784 109.966 505.388 454.579
883 0 78.0665 9.77372 763 109.381 506.275 458.499
884 0 82.1368 11.0426 907 108.182 504.644 453.51
885 0 81.1054 8.02659 651 116.207 505.114 447.18
886 0 90.1585 10.2819 927 108.691 505.333 451.069
887 0 92.0652 11.4919 1058 106.732 504.966 450.443
888 0 91.1237 11.9398 1088 106.555 505.511 447.18
889 0 93.085 10.6677 993 109.654 505.292 442.637
890 0 87.0654 11.8646 1033 111.601 505.935 437.62
891 0 86.1757 12.3005 1060 114.121 504.703 428.831
892 0 95.107 11.8814 1130 114.101 505.758 429.996
893 0 104.122 11.5442 1202 114.493 505.384 431.07
894 0 99.0896 12.4231 1231 115.95 505.266 428.002
895 0 105.052 11.5943 1218 118.487 504.349 426.716
896 0 108.083 12.0833 1306 119.064 504.864 419.423
897 0 114.156 13.429 1533 115.402 504.391 419.457
898 0 106.039 13.1933 1399 120.1 505.194 417.341
899 0 114.136 12.5903 1437 120.91 505.221 414.512
900 1 141.148 8.96221 1265 121.854 505.963 421.179
901 0 134.108 9.0673 1216 125.233 505.675 415.386
902 0 129.087 11.6665 1506 123.856 505.331 408.208
903 1 140.173 11.1576 1564 124.173 505.472 404.635
904 0 146.164 13.5602 1982 118.193 504.93 403.535
905 0 135.281 12.9804 1756 124.35 504.383 393.609
906 0 135.282 12.9581 1753 145.583 503.376 393.564
907 1 22.0075 7.77009 171 80.3275 504.585 480.561
908 0 23.009 5.12842 118 86.8136 506.178 487.22
909 0 26.0235 4.91863 128 86.2188 506.172 486.578
910 0 28.0428 6.49009 182 84.2033 506.236 486.621
911 0 22.0061 3.36271 74 88.1351 505.973 488.986
912 0 17.0139 2.35102 40 90.45 506.575 485.375
913 0 19.0505 4.77678 91 81.7253 505.604 483.242
914 0 22.0068 3.5898 79 83.962 506.861 485.354
915 0 14.0009 1.71418 24 86.5833 507.167 489.292
916 0 21.0085 3.76039 79 84.8987 507.152 490.063
917 0 22.0381 3.72082 82 85.939 507.293 484.78
918 1 1 9 9 68.3333 505.889 473.444
919 0 0 0 0 -nan -nan -nan
920 0 0 0 3 69.6667 506 473
921 0 0 0 1 74 506 473
922 1 13.0027 1.69196 22 80.5455 507.955 482.364
923 0 0 0 0 -nan -nan -nan
924 0 0 0 0 -nan -nan -nan
925 0 11.0008 2.18165 24 80.3333 508.167 480.583
926 0 21.021 3.09214 65 86.2 507.154 489.754
927 0 21.0151 3.23577 68 89.1618 507.735 486.235
928 0 21.0112 6.66312 140 82.6214 507.571 487.671
929 0 21.0038 4.42778 93 85.6667 507.667 486.699
930 0 24.0006 4.33323 104 86.0962 507.788 483.385
931 0 26.0077 6.11358 159 82.5723 507.239 485.371
932 0 22.0104 6.67867 147 82.619 507.299 485.456
933 0 26.031 4.53306 118 82.7288 506.881 488.203
934 0 24.0758 4.98426 120 81.6333 506.717 485.75
935 0 24.1165 3.6075 87 82.7931 507.793 482.391
936 0 20.0122 5.24679 105 82.219 507.038 478.105
937 0 13.0036 5.30621 69 78.0435 508.13 480.174
938 0 0 0 0 -nan -nan -nan
939 0 0 0 0 -nan -nan -nan
940 0 0 0 1 78 508 473
941 0 6 3.33333 20 76.6 507.85 474.4
942 0 8 0.5 4 81.75 508.5 476.25
943 0 13.005 5.61321 73 73.726 508.534 469.219
944 1 26.02 3.92006 102 83.049 507.373 480.049
945 0 25.0165 4.03734 101 84.1287 506.277 476.871
946 0 26.046 4.60722 120 83.225 506.908 477.383
947 0 26.0485 6.67986 174 80.0862 506.282 475.833
948 0 23.0078 5.65026 130 81.3846 507.515 472.938
949 0 26.0304 5.33991 139 81.6259 505.993 475.46
950 0 25.0035 7.71891 193 77.8549 506.964 476.249
951 0 20.0164 3.69697 74 76.3378 506.432 471.041
952 0 15.0043 5.26517 79 75.0127 506 469.975
953 0 11.0031 5.63476 62 75.1452 505.29 472
954 1 31.0689 2.44617 76 82.4868 504.803 460.75
955 0 26.0751 3.60497 94 78.0532 506.074 461.968
956 0 19.0035 2.84158 54 76 505.593 458
957 0 22.0087 5.36152 118 74.7797 505.814 457.941
958 1 35.1603 1.47894 52 81.2885 505.615 453.846
959 0 21.0265 1.23654 26 80.4615 504.885 458.885
960 0 28.0137 1.46357 41 77.1463 506.732 466.293
961 0 32.0828 4.42604 142 76.6972 506.38 470.113
962 0 28.0927 2.56295 72 77.0417 506.903 468.375
963 0 33.2014 4.87931 162 74.9259 507.241 471.722
964 1 52.2122 4.71155 246 83.3415 508.236 476.098
965 0 55.0795 5.64638 311 82.1447 506.682 468.595
966 0 49.0643 7.27617 357 79.8515 506.157 471.443
967 0 48.0379 7.61899 366 80.0246 506.669 470.844
968 0 55.0288 4.94287 272 82.9559 506.496 467.129
969 0 55.0506 6.03081 332 81.1536 507.124 470.62
970 0 48.1009 4.24108 204 84.6078 505.789 475.529
971 0 37.1602 3.25617 121 85.9256 506.298 481.107
972 0 35.1241 2.47694 87 87.6667 506.816 479.966
973 0 45.0737 1.84143 83 87.6626 505.626 481.807
974 0 43.0066 4.25516 183 84.0273 505.667 480.486
975 0 48.0527 4.3702 210 86.6714 505.857 475.79
976 0 49.0785 4.33999 213 84.1925 504.746 483.3
977 0 51.1282 7.78436 398 83.5226 504.276 472.568
978 0 46.1886 3.89707 180 91.2722 503.917 480.372
979 0 46.1473 6.19754 286 86.9895 504.238 478.199
980 0 43.4477 7.57232 329 92.4559 504.964 480.541
981 0 38.1276 10.7534 410 93.7171 504.961 479.732
982 0 44.1781 9.98233 441 95.2494 504.755 480.458
983 0 45.1403 9.85815 445 94.4427 505.398 480.978
984 0 45.0567 9.52133 429 101.128 504.837 480.35
985 0 54.3982 7.64732 416 88.6058 504.752 479.034
986 0 50.2382 7.98197 401 87.6983 505.317 475.142
987 0 47.2569 6.79266 321 90.6978 504.312 478.941
988 1 63.095 6.91021 436 81.3968 503.874 469.316
989 0 54.1147 9.20267 498 83.5161 505.05 467.436
990 0 55.1709 8.33772 460 86.1587 504.117 473.515
991 0 52.0726 10.6006 552 83.8333 504.92 473.554
992 0 59.0777 7.17698 424 88.7335 504.934 472.849
993 0 58.1805 6.85797 399 91.3208 505.506 474.574
994 0 59.1876 6.57232 389 91.5964 505.931 476.003
995 0 53.1073 8.96299 476 88.0798 505.384 471.968
996 0 52.2588 8.43877 441 88.966 505.426 475.1
997 0 44.154 10.0784 445 88.4 505.506 477.319
998 0 40.2319 11.384 458 88.6004 505.902 477.784
999 1 56.1832 11.3023 635 82.5748 505.458 472.436
