time division length width area intensity CMx CMy
0 0 53.023 12.8623 682 137.126 1339.03 476.532
1 0 53.081 12.6599 672 137.359 1340.05 477.086
2 0 56.0629 13.7702 772 133.032 1339.8 476.051
3 0 56.0903 13.7635 772 133.009 1339.75 474.955
4 0 58.1801 12.9254 752 135.961 1340.19 474.148
5 0 58.0302 13.1655 764 135.084 1340.81 475.157
6 0 60.0423 13.3239 800 134.588 1340.09 473.56
7 0 61.0661 13.1988 806 134.017 1340.13 473.432
8 0 62.0613 12.7938 794 135.107 1340.3 473.778
9 0 66.0963 13.9493 922 130.345 1339.61 471.674
10 0 67.0773 14.3864 965 128.341 1340.22 471.486
11 0 67.1425 13.5682 911 130.631 1340.16 471.788
12 0 71.239 13.3494 951 129.285 1340.37 470.005
13 0 73.1271 15.3705 1124 123.721 1340.46 468.613
14 0 75.1621 12.7857 961 128.025 1339.36 467.817
15 0 78.1086 13.5324 1057 126.64 1339.44 467.377
16 1 39.1147 11.3512 444 119.205 1340.44 487.993
17 0 40.0369 11.2896 452 120.15 1340.56 486.162
18 0 42.0248 12.3499 519 118.268 1338.73 485.873
19 0 42.0226 12.6599 532 116.729 1339.1 485.222
20 0 45.0198 13.0609 588 116.257 1338.73 484.621
21 0 45.1287 13.4282 606 119.949 1339.71 484.413
22 0 47.0528 12.7304 599 122.295 1338.88 483.13
23 0 49.0258 12.8708 631 120.721 1338.5 484.765
24 0 50.0428 13.0488 653 120.066 1338.17 483.213
25 0 51.0233 12.8961 658 119.798 1338.53 483.728
26 0 53.0631 12.683 673 122.81 1338.33 481.96
27 0 55.1258 14.5667 803 116.692 1338.36 481.401
28 0 55.046 13.516 744 121.302 1338.37 479.526
29 0 57.1153 13.0788 747 121.142 1338.08 479.669
30 0 59.112 12.7724 755 121.183 1338.01 479.285
31 0 62.0667 13.4049 832 118.181 1338.59 477.639
32 0 62.0856 13.1432 816 118.463 1337.76 478.799
33 0 68.0879 12.8364 874 117.561 1337.8 476.868
34 0 67.0537 13.7949 925 116.568 1337.77 475.515
35 0 71.0488 13.3992 952 115.494 1337.36 474.454
36 0 72.1151 12.9792 936 116.628 1337.43 473.816
37 0 75.0503 12.8314 963 117.054 1337.13 472.15
38 0 77.0746 13.5453 1044 115.882 1336.77 469.474
39 0 80.2173 13.6754 1097 115.281 1336.49 469.579
40 0 83.1202 14.4369 1200 112.982 1337.05 466.812
41 0 86.2676 13.9798 1206 113.421 1337 465.71
42 0 89.0605 13.575 1209 114.165 1337.02 465.714
43 0 92.1612 14.2793 1316 113.644 1337.12 464.067
44 0 97.1473 14.5655 1415 114.207 1336.37 461.992
45 1 49.0189 12.0362 590 109.72 1336.83 485.727
46 0 49.0233 11.2192 550 113.665 1336.27 484.958
47 0 53.0388 11.5764 614 108.816 1336.14 483.704
48 0 54.04 12.4908 675 105.561 1336.26 483.545
49 0 56.054 12.5415 703 105.108 1337.23 481.595
50 0 59.0352 11.3322 669 106.966 1336.19 482.831
51 0 60.051 11.9399 717 107.399 1336.47 479.831
52 0 62.0687 11.2778 700 108.817 1335.95 479.93
53 0 67.0537 12.4527 835 105.242 1336.53 477.901
54 0 67.0486 11.2157 752 108.003 1336.42 474.769
55 0 71.0357 13.092 930 102.913 1335.93 474.962
56 0 74.1398 12.2067 905 105.126 1335.54 473.928
57 0 74.1588 11.4484 849 106.436 1335.65 473.344
58 0 78.1313 11.5319 901 106.863 1335.41 468.694
59 0 82.0985 12.5459 1030 104.969 1335.13 469.969
60 0 86.1322 12.6434 1089 103.9 1335.66 467.973
61 0 90.0696 14.2889 1287 101.841 1335.38 467.083
62 0 91.1006 13.2601 1208 104.999 1334.89 463.736
63 0 95.1399 13.9163 1324 103.856 1334.94 459.562
64 0 98.1404 12.7063 1247 105.578 1334.34 462.178
65 0 102.249 13.428 1373 105.86 1334.96 460.607
66 0 108.088 12.5084 1352 107.609 1334.98 461.61
67 1 57.0349 11.0283 629 102.707 1335.11 485.642
68 0 60.0706 11.8694 713 98.7209 1335.25 484.769
69 0 61.1235 12.3193 753 94.6746 1335.71 480.171
70 0 60.0471 11.5076 691 106.113 1335.34 479.259
71 0 65.0238 12.134 789 103.125 1336.12 478.342
72 0 67.0312 13.1431 881 102.649 1336.14 478.447
73 0 69.0817 13.3755 924 103.913 1335.54 476.212
74 0 71.0854 11.1415 792 108.342 1335.45 474.85
75 0 74.0541 11.7482 870 106.848 1335.9 471.882
76 0 73.1063 11.9142 871 107.506 1336.16 471.623
77 0 77.1669 11.6371 898 108.823 1335.44 470.865
78 0 82.1886 12.4956 1027 105.758 1335.49 473.304
79 0 83.1856 12.1295 1009 110.392 1334.83 470.268
80 0 89.1756 12.6492 1128 107.969 1334.68 470.915
81 0 89.1548 12.0913 1078 111.798 1335.36 466.612
82 0 95.1689 14.2273 1354 105.791 1335.27 463.809
83 0 97.1261 12.7154 1235 108.801 1335.82 464.439
84 0 101.137 13.2988 1345 108.075 1336.31 460.673
85 1 52.0484 11.1627 581 101.391 1336.91 486.015
86 0 54.0426 11.639 629 100.509 1336.38 485.418
87 0 55.0473 11.4265 629 94.6057 1335.4 486.121
88 0 57.0619 10.1118 577 97.9549 1336.38 482.82
89 0 59.0601 10.0745 595 97.2672 1335.21 480.854
90 0 60.2277 11.1411 671 96.0671 1334.56 481.431
91 0 62.2475 11.0848 690 94.7435 1334.78 478.207
92 0 63.184 9.89174 625 96.0496 1335 478.464
93 0 63.156 10.7036 676 95.1953 1334.86 478.402
94 0 68.0895 10.4128 709 93.8674 1334.47 478.65
95 0 69.0957 8.53888 590 96.7983 1334.77 477.417
96 0 70.1904 10.557 741 94.7827 1334.21 474.48
97 0 71.0731 9.45506 672 96.9241 1334.51 472.542
98 0 75.1079 10.1321 761 93.8187 1334.74 475.862
99 0 77.1545 10.3947 802 94.9963 1334.34 470.097
100 0 78.3394 8.76953 687 98.6099 1334.21 466.424
101 0 83.2036 11.4178 950 94.1042 1333.72 468.222
102 0 87.4081 12.4702 1090 92.3459 1333.92 469.727
103 0 86.2809 10.8367 935 97.3091 1334.6 467.194
104 0 92.2471 11.6643 1076 96.8318 1334.26 466.429
105 0 93.2516 12.2036 1138 95.6169 1334.61 465.839
106 0 95.2108 11.9209 1135 95.8634 1334.56 461.645
107 0 97.3311 12.6989 1236 94.8293 1334.27 462.002
108 0 103.196 12.6458 1305 94.0736 1334.71 461.471
109 0 106.2 12.5235 1330 94.4534 1333.91 459.691
110 0 111.073 13.5047 1500 92.3233 1334.31 458.033
111 0 113.108 12.855 1454 94.5254 1334.22 455.35
112 0 119.229 14.426 1720 91.7209 1333.71 452.789
113 0 122.215 12.2243 1494 96.3521 1333.69 450.004
114 0 126.233 13.0156 1643 95.0542 1334.25 447.93
115 0 126.233 13.0711 1650 127.81 1334.27 447.961
116 1 64.094 10.7966 692 89.2211 1333.74 483.871
117 0 63.0808 7.92634 500 94.274 1333.05 484.072
118 0 68.1339 11.1105 757 89.7477 1334.02 479.889
119 0 68.1435 10.9035 743 92.2571 1334.34 478.534
120 0 74.1939 12.2113 906 96.2848 1333.96 475.087
121 0 76.2387 11.2279 856 98.5362 1333.3 474.954
122 0 80.1872 13.244 1062 94.2345 1333.99 472.79
123 0 82.2375 12.2572 1008 96.4593 1333.66 472.094
124 0 84.1149 12.0312 1012 96.7263 1334.14 468.514
125 0 86.1617 13.6372 1175 94.3855 1333.2 469.667
126 0 89.1111 12.9052 1150 95.2939 1333.65 466.883
127 0 90.106 12.8182 1155 95.8649 1333.9 463.038
128 0 92.1486 11.5357 1063 98.2832 1334.36 463.815
129 0 97.0977 12.6986 1233 97.3147 1333.51 463.325
130 0 102.16 13.2635 1355 95.2465 1333.95 462.363
131 0 102.114 13.955 1425 95.2947 1334.43 457.632
132 0 107.206 12.9564 1389 97.095 1334.03 456.384
133 0 110.184 13.2778 1463 95.6131 1333.21 458.429
134 0 113.163 11.7353 1328 98.6619 1333.17 455.759
135 0 119.167 12.0419 1435 98.3847 1332.55 454.22
136 0 122.072 12.2141 1491 98.3548 1333.49 449.317
137 0 128.144 12.9542 1660 96.5331 1333.03 449.484
138 1 67.0633 9.69233 650 93.9354 1333.56 480.414
139 0 70.0581 11.3049 792 91.3952 1333.46 478.003
140 0 71.0478 10.5985 753 92.5432 1333.11 476.784
141 0 75.0676 12.0158 902 87.9213 1332.77 475.358
142 0 74.2457 11.1252 826 91.7155 1333.36 475.735
143 0 79.1393 11.7262 928 90.5625 1333.44 472.425
144 0 79.1191 10.1998 807 93.943 1333.23 473.035
145 0 83.0915 11.4813 954 92.414 1333.82 471.827
146 0 87.1455 12.0947 1054 91.6243 1333.73 470.011
147 0 87.1433 10.6721 930 95.5 1333.42 469.387
148 0 91.1141 10.5582 962 95.3555 1333.51 466.639
149 0 95.076 12.4532 1184 92.826 1333.7 468.573
150 0 98.1178 11.5881 1137 96.3201 1333.19 466.836
151 0 99.2312 11.5286 1144 97.986 1332.87 461.949
152 0 103.086 12.1645 1254 96.4003 1333.07 462.955
153 0 107.104 11.4561 1227 96.9772 1332.79 457.029
154 0 112.087 12.1335 1360 95.8618 1333.35 458.299
155 0 115.09 11.4171 1314 98.4711 1332.67 454.904
156 0 120.185 11.7652 1414 96.9498 1333.09 454.187
157 1 62.0738 10.2136 634 92.2713 1332.94 483.603
158 0 65.0615 11.2663 733 90.8186 1333.57 480.39
159 0 65.0358 11.8089 768 100.126 1332.43 479.342
160 0 70.1462 12.1461 852 99.9507 1333.53 478.256
161 0 72.076 11.7376 846 102.382 1333.42 476.761
162 0 75.1881 13.2202 994 98.0734 1334.2 476.271
163 0 77.1462 12.431 959 101.548 1334.21 474.572
164 0 77.2122 11.7598 908 104.217 1334.42 474.637
165 0 81.2838 11.8351 962 104.302 1335.19 473.157
166 0 81.1987 11.3918 925 107.617 1335.47 468.428
167 0 85.1931 11.562 985 106.252 1335.74 469.888
168 0 88.1347 11.9249 1051 106.629 1334.99 467.432
169 0 92.1016 11.7588 1083 107.49 1334.95 465.134
170 0 96.0792 12.3232 1184 105.744 1334.95 464.327
171 0 98.1058 13.3122 1306 104.833 1335.3 462.174
172 0 99.1187 12.258 1215 107.538 1334.15 460.905
173 0 101.226 11.9041 1205 110.105 1333.06 459.721
174 0 105.171 13.0834 1376 107.326 1333.12 457.281
175 1 56.1227 9.08724 510 109.19 1333.03 479.763
176 0 59.1177 11.4517 677 103.121 1333.27 480.75
177 0 59.0922 11.3044 668 104.567 1333.19 477.666
178 0 65.1179 10.6883 696 109.233 1333.78 479.24
179 0 66.132 11.5224 762 108.193 1333 479.261
180 0 70.1857 12.9941 912 104.678 1333.38 478.598
181 0 72.2398 12.2509 885 105.929 1333.68 477.231
182 0 71.2133 12.3291 878 108.188 1334.05 476.833
183 0 72.2116 11.5632 835 110.999 1334.1 475.869
184 0 78.2922 12.7727 1000 107.813 1334.04 475.228
185 0 78.4052 11.0197 864 113.721 1334.2 472.528
186 0 82.1835 11.596 953 110.489 1334.55 471.702
187 0 82.1684 11.6225 955 111.286 1334.65 472.116
188 0 86.0521 12.6435 1088 108.608 1333.04 469.61
189 0 91.0952 10.5055 957 111.626 1332.87 469.962
190 0 92.1105 11.9748 1103 109.208 1333.27 467.587
191 0 97.1214 12.4278 1207 107.615 1332.7 466.923
192 0 97.1603 11.6611 1133 111.489 1333.24 463.867
193 0 102.101 11.4299 1167 109.616 1333.17 462.414
194 1 52.0478 9.64499 502 105.839 1333.93 487.159
195 0 55.1337 9.83065 542 104.31 1333.46 487.482
196 0 58.2562 11.7241 683 101.864 1332.88 482.792
197 0 58.2297 10.7677 627 103.033 1333.4 483.225
198 0 61.0434 10.943 668 99.8069 1334.22 483.888
199 0 61.0434 10.943 668 136.22 1335.23 483.819
200 0 64.0707 12.2209 783 97.8506 1333.29 482.849
201 0 66.0826 12.4239 821 97.5335 1333.51 478.732
202 0 70.0756 12.4152 870 96.6494 1334.87 480.048
203 0 70.084 13.2698 930 95.6817 1334.38 477.9
204 0 74.1211 12.8843 955 96.1393 1334.67 478.586
205 0 73.1369 12.0459 881 99.4574 1334.56 476.302
206 0 77.0928 13.3865 1032 96.3091 1334.7 475.667
207 0 77.093 11.0905 855 100.972 1334.45 475.722
208 0 81.1209 12.7094 1031 97.1484 1333.85 473.032
209 0 84.1061 12.0086 1010 98.501 1333.56 471.982
210 0 86.2095 11.994 1034 99.5948 1333.7 471.666
211 0 90.0766 11.8677 1069 100.453 1333.53 468.106
212 0 91.1987 11.7546 1072 100.945 1333.66 468.589
213 1 49.0841 9.94213 488 101.758 1333.58 489.645
214 0 52.0574 11.1992 583 99.6878 1333.17 488.226
215 0 54.069 13.1868 713 95.3913 1332.83 486.386
216 0 55.0576 11.1338 613 99.5432 1332.33 486.452
217 0 58.0156 13.4102 778 93.6812 1332.26 486.027
218 0 59.0321 12.3662 730 96.3685 1333.05 483.319
219 0 60.0327 13.9924 840 93.7738 1333.38 481.823
220 0 61.0411 12.254 748 96.7513 1333.21 482.154
221 0 62.0905 11.9825 744 97.1546 1333.52 481.746
222 0 66.093 12.8001 846 94.2104 1334.04 479.89
223 0 68.0574 13.3417 908 92.7324 1333.33 479.008
224 0 68.0369 12.552 854 95.4133 1333.47 477.612
225 0 70.173 11.9134 836 95.6328 1333.54 478.988
226 0 76.0523 13.5302 1029 91.31 1333.24 476.443
227 0 76.0628 12.0032 913 95.9923 1332.86 472.901
228 0 78.0609 12.5031 976 95.0215 1333.46 471.691
229 0 81.0667 13.0386 1057 94.1485 1333.45 472.36
230 0 86.0884 13.2654 1142 92.7189 1334.06 470.539
231 0 86.0916 12.115 1043 96.3442 1334.04 469.36
232 1 43.1481 9.40944 406 89.6355 1335.33 486.574
233 0 42.1455 7.85374 331 92.6375 1335.39 482.731
234 0 47.0409 9.60866 452 91.0022 1336.47 488.093
235 0 45.0219 8.64024 389 94.3368 1335.98 487.476
236 0 46.0205 9.36538 431 89.3805 1336.39 482.794
237 0 49.0492 10.1123 496 88.131 1336.1 483.329
238 0 48.1221 9.72526 468 90.5534 1335.7 480.021
239 0 52.0516 13.0063 677 84.2999 1335.67 480.759
240 0 52.037 10.1851 530 89.6453 1335.76 481.685
241 0 54.0231 9.81062 530 91.8189 1335.73 480.168
242 0 56.1105 10.7466 603 89.3814 1335.67 477.269
243 0 55.046 8.73815 481 93.6715 1335.2 477.578
244 0 59.0386 9.72246 574 91.8676 1335.12 478.082
245 0 59.1421 9.35036 553 92.8373 1335.91 473.293
246 0 64.1218 9.23243 592 92.6267 1335.5 475.142
247 0 64.0923 10.3601 664 91.9247 1335.04 472.378
248 0 69.0204 11.1271 768 90.5156 1335.22 473.5
249 0 70.0409 9.97989 699 93.0358 1334.78 473.222
250 0 70.1168 9.84072 690 91.8464 1334.55 470.61
251 0 73.1632 9.43097 690 93.1116 1334.34 470.048
252 0 76.1928 11.4709 874 90.1579 1334.04 468.72
253 0 81.0737 13.7653 1116 95.3566 1332.44 471.93
254 0 83.1418 11.6307 967 98.9214 1332.92 472.492
255 0 85.0888 11.4821 977 99.7625 1333.39 470.043
256 0 88.1464 11.5717 1020 96.5853 1333.78 464.978
257 1 40.1972 9.40364 378 88.6111 1335.13 487.114
258 0 42.3014 9.45594 400 88.5725 1335 484.508
259 0 45.042 9.036 407 82.2776 1335.66 486.523
260 0 44.0871 8.21103 362 84.5331 1335.28 482.605
261 0 49.1196 8.20447 403 83.8015 1335.11 485.325
262 0 48.0863 7.6737 369 85.4417 1334.56 482.344
263 0 50.0186 9.39651 470 83.6021 1335.77 483.896
264 0 53.0516 10.8951 578 81.3927 1334.57 482.369
265 0 54.0632 9.35941 506 83.4802 1334.59 482.338
266 0 58.0241 8.75498 508 84.2894 1334.92 481.217
267 0 58.1137 10.6859 621 81.7842 1335.17 480.527
268 0 61.0487 10.7619 657 81.4886 1334.87 479.033
269 0 63.0938 8.1783 516 83.7907 1334.03 480.957
270 0 63.1456 10.5787 668 83.6183 1333.84 478.672
271 0 65.0621 9.42176 613 85.0832 1334.46 476.837
272 0 69.1413 10.8184 748 82.6444 1334.33 475.221
273 0 74.0893 9.2456 685 84.0934 1334.46 477.089
274 0 76.177 10.7775 821 82.7101 1334.63 473.711
275 0 79.0825 10.6218 840 83.331 1334.24 471.455
276 1 40.0828 11.3016 453 82.7859 1333.81 494.457
277 0 43.024 11.482 494 83.1113 1333.73 493.775
278 0 44.022 13.4024 590 84.6017 1334.03 491.39
279 0 46.0289 13.4263 618 86.4029 1332.85 493.272
280 0 46.1921 12.4047 573 88.534 1334.18 492.403
281 0 47.2239 12.5995 595 87.5832 1334.42 492.097
282 0 48.2937 11.8649 573 89.6771 1334.84 491.309
283 0 50.2356 13.7751 692 85.6026 1333.82 489.855
284 0 53.1458 13.6417 725 85.2786 1334.45 490.102
285 0 52.0888 12.9394 674 87.8546 1333.92 487.392
286 0 54.1498 13.1118 710 87.8944 1334.08 487.535
287 0 55.1353 12.5872 694 88.2622 1333.68 488.004
288 0 55.1775 12.4145 685 90.0832 1333.66 486.251
289 0 57.1523 11.7231 670 90.7537 1334.41 486.403
290 0 60.2308 12.5683 757 89.6671 1334.06 484.844
291 0 60.1651 11.8507 713 91.763 1334.37 482.884
292 0 64.1508 13.4683 864 87.9931 1333.8 482.338
293 0 66.1807 12.3601 818 89.5049 1334.31 482.241
294 0 67.1402 13.4644 904 86.9248 1333.88 482.358
295 0 71.1732 12.4766 888 88.6678 1334.3 480.72
296 0 73.1365 12.1827 891 89.2884 1334.37 478.819
297 0 75.1544 11.7625 884 89.0396 1334.51 479.334
298 0 79.125 12.1453 961 88.5182 1334.15 475.978
299 0 80.0962 12.9719 1039 88.1136 1333.75 472.211
300 1 43.0198 11.1112 478 79.205 1333.86 493.492
301 0 42.0684 12.028 506 83.3933 1333.41 492.18
302 0 44.0906 12.3836 546 82.6813 1333.23 492.815
303 0 45.2297 11.5411 522 84.4655 1333.1 492.057
304 0 46.2097 11.4911 531 85.452 1333.4 489.782
305 0 47.143 11.306 533 86.591 1333.72 489.482
306 0 50.1648 11.542 579 84.9206 1333.97 489.218
307 0 52.1137 13.0676 681 82.9912 1333.37 486.551
308 0 55.1973 12.1564 671 84.5142 1333.24 485.487
309 0 56.1796 14.6317 822 80.2871 1334.01 486.241
310 0 57.1014 11.5584 660 86.8061 1332.93 486.352
311 0 59.0543 13.3775 790 84.1063 1333.27 484.097
312 0 62.1491 12.8884 801 84.1099 1333.86 482.722
313 0 62.1254 12.346 767 85.9361 1333.81 481.639
314 0 65.1279 12.9898 846 85.1312 1334.09 481.319
315 0 66.1067 13.9169 920 84.9043 1333.83 480.062
316 0 68.1198 14.1515 964 83.4824 1333.27 478.455
317 0 69.2132 13.5812 940 85.4426 1333.35 479.617
318 0 71.0949 12.7295 905 87.1083 1334.2 477.04
319 0 75.0624 13.9084 1044 84.7644 1333.96 476.736
320 0 77.1215 12.8628 992 81.2399 1333.85 471.431
321 0 77.0588 10.9916 847 85.0283 1333.94 471.048
322 0 78.0603 11.5808 904 112.421 1334.95 470.033
323 0 86.0548 12.2015 1050 82.5105 1334.67 466.541
324 1 45.0496 11.454 516 80.343 1333.41 486.977
325 0 50.0623 9.90765 496 82.2177 1334.6 487.619
326 0 52.1547 11.9261 622 85.9759 1333.32 489.265
327 0 54.0911 12.2016 660 86.1455 1333.63 487.312
328 0 56.1032 13.8317 776 83.3673 1333.12 486.151
329 0 60.1381 14.3669 864 82.3137 1333.27 486.226
330 0 61.0955 13.5362 827 84.7727 1333.04 485.243
331 0 61.0898 13.6029 831 86.9807 1333.1 483.551
332 0 63.1125 13.7057 865 86.6624 1333.85 482.843
333 0 66.0821 14.482 957 83.5841 1333.47 483.828
334 0 66.1422 12.836 849 82.5088 1334.52 477.929
335 0 64.1595 9.77252 627 87.9537 1334.36 474.845
336 0 70.0509 11.2061 785 85.1503 1333.59 476.192
337 0 72.1083 10.8032 779 85.8485 1334.25 476.738
338 0 73.0597 12.7019 928 84.3524 1334.25 474.747
339 0 75.0748 11.6151 872 86.3773 1333.81 474.481
340 0 77.0746 12.1441 936 86.8622 1333.35 472.138
341 0 82.0916 14.5813 1197 92.3484 1333.72 473.821
342 0 83.1023 13.718 1140 93.9886 1334.04 473.441
343 0 86.2391 13.0567 1126 96.4698 1334.4 468.587
344 0 92.2673 13.5151 1247 94.9551 1334.37 471.103
345 0 94.1272 13.8961 1308 93.6476 1334.69 468.698
346 0 98.1783 13.6588 1341 95.226 1334.41 466.017
347 0 99.1934 12.3899 1229 93.9414 1334.97 464.947
348 1 38.0228 7.8374 298 84.4698 1334.79 494.057
349 0 41.0876 9.24852 380 83.4079 1335.06 493.105
350 0 42.0255 8.94695 376 82.1941 1335.82 490.896
351 0 44.0614 10.1676 448 81.6071 1335.95 491.69
352 0 45.0917 10.4676 472 81.589 1335.7 490.877
353 0 45.0728 10.0726 454 82.7247 1336.27 490.67
354 0 50.123 11.3521 569 80.6591 1336.81 489.371
355 0 49.0421 9.54283 468 84.5962 1336.91 488.002
356 0 51.095 11.3514 580 81.7224 1336.51 487.398
357 0 50.0749 8.48729 425 85.8471 1335.98 487.967
358 0 56.0995 11.6579 654 80.1055 1335.88 486.991
359 0 56.0382 9.29723 521 84.5221 1336.71 484.9
360 0 56.1259 10.5299 591 84.8528 1335.85 483.675
361 0 61.1008 10.0817 616 83.5081 1336.12 484.089
362 0 62.0741 11.5185 715 81.7231 1336.22 483.927
363 0 65.0735 13.0468 849 86.139 1335.48 481.42
364 0 65.1303 11.193 729 90.0535 1335.03 481.774
365 0 70.0595 13.1317 920 86.4424 1334.76 480.887
366 0 71.0452 11.5983 824 88.3313 1334.2 478.471
367 0 75.1611 11.2292 844 88.0142 1335.13 477.556
368 0 78.0827 11.0652 864 88.331 1335.48 477.567
369 0 79.1243 10.2497 811 90.8015 1334.99 476.339
370 0 82.117 11.2157 921 91.2552 1335.1 473.41
371 0 85.1269 10.7604 916 90.3603 1335.84 475.852
372 0 90.1344 12.2928 1108 88.1417 1335.85 471.248
373 0 95.2177 12.0986 1152 88.5417 1335.2 471.313
374 0 98.1749 12.0397 1182 88.5821 1335.15 468.814
375 0 102.26 12.7518 1304 88.7385 1335.02 466.485
376 0 103.158 11.1479 1150 92.0843 1334.94 466.962
377 1 59.1303 12.7684 755 89.0861 1334.05 487.838
378 0 56.0081 8.4452 473 94.5264 1333.31 483.924
379 0 63.0439 14.3551 905 87.1856 1333 483.959
380 0 62.0789 11.2277 697 93.7403 1333.55 482.561
381 0 66.0746 12.5918 832 91.107 1333.31 481.105
382 0 70.0813 11.6151 814 92.4459 1334.03 482.214
383 0 71.1157 13.8929 988 89.7176 1334.4 479.095
384 0 72.2313 12.8753 930 92.3323 1334.22 480.994
385 0 76.153 13.4072 1021 91.3359 1333.91 479.453
386 0 77.1472 14.077 1086 92.7495 1334.49 474.881
387 0 80.2025 12.9048 1035 94.8696 1334.72 474.59
388 0 83.1973 13.45 1119 94.5523 1335.09 472.168
389 0 87.1688 14.4088 1256 93.3654 1334.37 472.168
390 0 88.1003 13.5073 1190 97.1966 1334.12 468.969
391 0 93.158 13.6327 1270 96.5748 1334.09 469.057
392 0 94.2512 14.037 1323 97.4293 1334.96 466.336
393 0 97.1162 12.4696 1211 100.995 1334.66 465.992
394 0 102.211 13.6483 1395 99.124 1335.28 464.665
395 0 105.221 14.2557 1500 98.8633 1334.68 462.645
396 0 110.106 15.6576 1724 96.7436 1334.56 461.854
397 0 113.239 15.1008 1710 99.1673 1334.53 458.968
398 0 115.23 14.5101 1672 101.688 1335.06 458.65
399 0 118.142 13.7123 1620 102.991 1334.37 458.125
400 0 123.225 15.3378 1890 99.0677 1334.76 456.617
401 0 127.123 14.2461 1811 101.941 1334.14 454.849
402 0 131.173 15.0565 1975 101.234 1334.64 452.956
403 0 136.28 14.6096 1991 101.287 1334.49 449.894
404 0 138.348 13.6901 1894 103.992 1334.81 447.622
405 0 144.19 14.3075 2063 103.416 1334.5 444.481
406 0 147.192 13.9681 2056 104.048 1334.65 442.874
407 0 152.334 15.1444 2307 102.273 1335.37 438.374
408 0 156.26 14.5143 2268 104.194 1335.66 435.821
409 0 162.343 15.6705 2544 101.343 1335.28 431.816
410 0 167.251 15.5096 2594 102.362 1335.46 430.653
411 0 172.361 15.5139 2674 103.018 1335.74 424.743
412 0 175.327 14.7496 2586 105.419 1334.96 423.27
413 0 183.306 14.7295 2700 104.957 1335.4 419.458
414 0 187.407 14.1617 2654 106.865 1334.5 416.696
415 0 195.452 15.1802 2967 101.511 1334.99 413.54
416 0 204.682 17.8765 3659 94.4444 1335.19 403.743
417 0 208.441 15.7311 3279 99.7539 1334.71 405.826
418 1 225.71 20.2517 4571 86.0694 1334.67 384.5
419 0 226.634 16.2156 3675 95.7107 1335.32 395.95
420 1 54.2419 9.1811 498 88.9739 1335.39 485.183
421 0 54.4416 10.6169 578 85.9412 1335.23 482.862
422 0 55.1283 10.793 595 86.2706 1336.01 481.131
423 0 60.186 11.4645 690 85.9246 1337.6 480.348
424 0 59.1589 11.1902 662 96.8505 1336.87 480.107
425 0 61.1206 13.0562 798 93.7068 1334.25 484.793
426 0 62.2426 13.4313 836 92.1722 1335.22 485.055
427 0 65.3556 12.0877 790 94.1316 1335.1 485.492
428 0 68.2598 12.6722 865 93.5884 1334.82 483.541
429 0 69.3973 12.2339 849 96.2108 1334.79 479.722
430 0 72.1829 13.5351 977 93.1044 1335.12 478.713
431 0 72.11 11.4547 826 94.9153 1334.41 480.881
432 0 72.0891 11.4442 825 95.3903 1334.61 480.518
433 0 79.1291 12.903 1021 91.379 1334.82 478.044
434 0 81.1019 14.34 1163 88.6784 1333.99 474.976
435 0 83.2053 13.5088 1124 91.7856 1333.42 475.543
436 1 45.0463 9.76772 440 97.4659 1333.85 491.636
437 0 48.032 10.6804 513 94.9162 1334.1 490.055
438 0 51.2522 12.019 616 91.3782 1336.99 489.399
439 0 52.0439 12.2012 635 93.822 1333.51 487.907
440 0 53.2246 10.3523 551 96.588 1335.32 491.71
441 0 54.1023 10.9422 592 95.9459 1334.9 489.032
442 0 56.2498 10.4 585 98.253 1334.81 486.477
443 0 58.2121 11.3035 658 96.0821 1334.3 486.052
444 0 60.218 12.6872 764 94.8168 1333.47 484.787
445 0 60.1479 11.2722 678 98.3525 1334.21 484.668
446 0 64.0529 12.6146 808 95.5285 1334.32 484.271
447 0 66.063 12.0945 799 98.2766 1334.13 483.1
448 0 66.028 11.1771 738 96.7764 1335.61 484.696
449 0 69.1015 13.4729 931 91.0526 1335 485.894
450 0 69.0993 11.8814 821 97.1681 1334.39 482.888
451 0 71.0947 11.8434 842 98.3729 1334.57 481.697
452 0 73.0499 12.7447 931 96.9979 1335.13 481.769
453 0 75.104 12.516 940 98.3223 1334.86 479.371
454 0 77.0905 12.842 990 98.5949 1334.6 478.509
455 0 83.102 11.2753 937 100.768 1335.44 478.556
456 0 84.0736 12.0014 1009 100.542 1334.57 476.999
457 0 86.0563 12.5383 1079 98.4143 1335.24 475.911
458 0 90.1099 12.1629 1096 100.651 1334.74 472.047
459 1 47.0673 12.599 593 98.3659 1334.8 492.202
460 0 47.0142 12.3792 582 99.3883 1334.77 491.323
461 0 49.0865 12.0807 593 97.5093 1337.04 491.076
462 0 50.2463 12.1999 613 101.746 1335.18 490.759
463 0 51.0472 11.6167 593 90.0337 1336.55 490.051
464 0 51.02 11.5641 590 90.6186 1336.52 489.419
465 0 53.0954 10.5659 561 95.4046 1335.72 490.781
466 0 54.0162 10.2006 551 92.9401 1335.79 490.9
467 0 56.1146 10.3004 578 92.218 1336.15 488.505
468 0 58.1554 11.1598 649 90.5917 1336.13 487.881
469 1 122.203 11.8164 1444 99.2389 1336.42 457.085
470 1 63.1262 11.675 737 92.1832 1335.86 483.51
471 0 64.0745 10.6595 683 94.2826 1335.71 481.742
472 0 65.1535 11.588 755 94.1272 1336.12 480.044
473 0 67.1413 11.0066 739 96.3951 1335.65 480.432
474 0 69.2579 11.4644 794 97.6196 1335.61 478.929
475 0 74.1453 11.8821 881 96.2191 1335.87 481.012
476 0 74.1111 12.4947 926 96.3035 1336.16 479.639
477 0 77.137 12.3806 955 96.8408 1335.3 478.053
478 0 80.1446 11.3794 912 100.066 1335.75 474.97
479 0 85.1889 13.382 1140 95.3588 1336.26 472.961
480 0 87.2681 12.6851 1107 96.9883 1335.39 472.516
481 1 45.0834 11.1571 503 96.2187 1334.43 491.545
482 0 48.0558 12.0901 581 87.3081 1335.89 493.561
483 0 48.0623 10.7985 519 90.3276 1335.5 492.817
484 0 50.0748 12.4813 625 87.48 1336.07 490.472
485 0 50.1101 11.6144 582 89.5911 1336.19 490.629
486 0 53.0965 11.997 637 89.4192 1336.28 488.768
487 0 55.1455 12.0409 664 90.0919 1336.67 488.176
488 0 57.1575 13.2966 760 88.8316 1336.88 487.086
489 0 59.1587 13.1173 776 89.6095 1335.92 486.566
490 0 60.1845 13.5251 814 96.0418 1336.05 485.241
491 0 63.1499 14.4735 914 94.8775 1336.24 483.441
492 0 66.1766 11.9075 788 99.0406 1336.18 484.543
493 0 68.1117 14.3 974 97.0934 1335.93 481.167
494 0 71.1684 14.3041 1018 97.3802 1335.71 480.315
495 0 73.1217 13.8536 1013 100.079 1335.78 476.534
496 0 75.1758 14.5393 1093 97.9735 1336.32 476.186
497 0 77.1811 14.3558 1108 96.9874 1336.71 475.572
498 0 80.2809 15.533 1247 94.6808 1336.41 475.252
499 0 83.2112 15.1422 1260 95.5167 1336.18 473.29
500 0 84.1236 14.9304 1256 99.4912 1336.75 469.817
501 0 85.0947 12.4802 1062 108.038 1336.68 471.128
502 1 46.0664 11.7873 543 107.506 1335.63 490.702
503 0 47.033 14.1603 666 103.865 1337.14 488.571
504 0 49.0777 13.6926 672 98.8304 1336.43 487.042
505 0 50.0592 14.2631 714 96.3655 1336.57 486.445
506 0 50.0853 14.4354 723 97.6625 1337.07 484.732
507 0 52.0628 14.156 737 98.8263 1336.97 483.615
508 0 55.0424 13.4987 743 101.357 1336.96 482.934
509 0 57.0924 14.4853 827 101.502 1337.5 482.016
510 0 60.036 15.3908 924 104.159 1336.49 481.326
511 0 61.1041 14.5653 890 106.407 1336.35 481.07
512 0 63.0934 14.1695 894 108.601 1336.83 478.823
513 0 64.1532 14.3563 921 109.235 1336.92 477.575
514 0 69.111 14.8746 1028 108.72 1336.56 474.625
515 0 71.0669 14.6482 1041 109.857 1336.37 474.66
516 0 74.2045 15.336 1138 109.044 1336.26 472.979
517 0 76.1811 14.6493 1116 111.141 1335.86 471.914
518 0 79.2547 16.9201 1341 106.094 1336.01 471.909
519 0 80.1015 14.9685 1199 110.901 1336.24 472.359
520 0 84.2577 16.1766 1363 108.682 1336.13 469.844
521 0 86.1963 15.0006 1293 112.331 1335.17 470.172
522 0 90.2663 15.1662 1369 110.416 1335.67 469.369
523 0 93.1555 14.9535 1393 112.314 1335.16 466.334
524 0 96.1199 15.5015 1490 109.884 1335.8 467.232
525 1 51.2387 13.603 697 111.047 1336.5 487.297
526 0 53.1145 13.9133 739 111.499 1335.62 486.974
527 0 56.2387 13.9762 786 110.043 1336.2 485.313
528 0 57.1993 14.8253 848 108.834 1336.31 484.094
529 0 59.309 14.6521 869 108.219 1336.37 484.812
530 0 62.2322 13.5943 846 108.082 1336.21 486.265
531 0 64.1867 13.2738 852 109.423 1336.55 484.938
532 0 64.2527 12.9956 835 111.939 1335.91 482.434
533 0 68.1066 13.9634 951 109.653 1335.9 480.298
534 0 72.1761 15.0881 1089 106.281 1336.48 479.486
535 0 75.217 16.1932 1218 104.314 1336.02 476.611
536 0 78.2883 15.2258 1192 105.802 1336.11 475.695
537 0 79.2224 14.5035 1149 107.759 1335.84 473.418
538 0 80.0985 13.1089 1050 111.903 1336.05 471.419
539 0 82.1456 13.4517 1105 111.341 1336.26 470.326
540 0 90.319 15.8549 1432 103.349 1336.13 470.936
541 0 90.4774 15.0424 1361 106.477 1336.15 465.872
542 0 94.3252 16.2205 1530 103.253 1336.38 464.472
543 0 97.2606 15.3916 1497 105.127 1336.36 464.717
544 0 100.241 15.0337 1507 105.092 1336.31 461.217
545 1 48.1391 13.0247 627 109.789 1336.24 487.008
546 0 50.2529 13.5316 680 108.563 1336.28 486.671
547 0 54.2811 15.1802 824 103.688 1336.9 484.024
548 0 55.0963 14.883 820 105.222 1337.16 483.044
549 0 60.217 15.0622 907 103.23 1337.28 483.041
550 0 60.2621 14.8186 893 104.959 1337.44 482.801
551 0 63.5532 15.1055 960 103.918 1337.38 482.004
552 0 64.2256 13.7328 882 107.662 1337.51 481.861
553 0 65.3028 14.8998 973 107.333 1336.36 479.012
554 0 69.194 13.9608 966 108.679 1336.75 479.652
555 0 70.2429 14.9339 1049 107.755 1336.44 478.071
556 0 72.2654 14.6128 1056 110.106 1336 477.485
557 0 76.2557 16.3135 1244 106.311 1336.13 474.147
558 0 80.2864 14.9714 1202 109.008 1335.9 473.272
559 0 82.1657 16.6006 1364 105.869 1336.71 474.881
560 0 83.305 15.7254 1310 109.506 1336.09 473.327
561 0 86.2099 15.2535 1315 111.458 1336.21 471.819
562 0 89.0925 14.7936 1318 113.166 1335.84 470.403
563 0 93.1207 16.0007 1490 110.513 1335.94 467.397
564 0 94.1438 14.9665 1409 113.688 1336.41 463.664
565 0 98.0912 14.5171 1424 113.583 1336.31 464.58
566 0 104.24 14.812 1544 111.937 1335.78 464.979
567 0 105.12 14.6309 1538 114.631 1335.53 460.404
568 0 113.105 15.4105 1743 111.669 1335.63 460.575
569 0 118.187 15.2301 1800 111.955 1335.89 459.047
570 0 121.234 14.4679 1754 114.018 1335.49 455.61
571 1 64.106 14.788 948 115.225 1335.74 481.381
572 0 65.0835 13.7823 897 118.279 1335.7 479.96
573 0 69.1015 13.5164 934 119.466 1335.68 478.349
574 0 71.1054 14.7246 1047 117.13 1335.64 476.281
575 0 74.1392 14.5672 1080 117.175 1335.49 475.471
576 0 77.1082 13.9804 1078 118.647 1334.92 475.425
577 0 80.0409 13.6805 1095 119.336 1335.79 473.401
578 0 85.0833 14.7267 1253 116.777 1335.92 470.584
579 0 86.1212 14.3751 1238 119.485 1335 469.591
580 0 90.0593 14.7458 1328 117.534 1334.91 468.551
581 0 91.0701 15.1641 1381 118.604 1335.3 465.618
582 0 95.1151 16.0542 1527 115.855 1335.36 463.788
583 0 98.1635 15.2603 1498 118.352 1335.23 461.14
584 0 102.176 15.4439 1578 116.87 1335.98 462.099
585 0 101.186 13.49 1365 124.324 1335.85 459.341
586 0 106.137 13.7652 1461 123.144 1336.21 456.053
587 0 108.228 14.5157 1571 123.048 1336.03 452.067
588 0 113.08 15.3784 1739 119.564 1336.48 452.647
589 0 118.118 14.858 1755 121.401 1336.39 449.258
590 0 122.113 14.8387 1812 122.522 1336.59 446.062
591 0 125.1 15.2358 1906 121.022 1336.23 444.523
592 0 133.107 14.9428 1989 122.042 1335.87 441.174
593 0 136.141 14.654 1995 123.491 1335.9 438.21
594 0 141.209 15.2823 2158 121.974 1335.53 432.633
595 0 144.257 15.1881 2191 121.342 1336.15 430.527
596 0 147.245 14.7102 2166 122.934 1335.57 427.236
597 1 83.1861 10.3022 857 117.839 1335.96 459.953
598 0 89.2377 11.5422 1030 115.678 1335.88 465.118
599 0 92.2277 12.8812 1188 114.471 1336.32 463.585
600 0 91.2267 11.2467 1026 113.841 1335.72 455.551
601 0 95.1151 11.8488 1127 112.032 1336.04 454.736
602 0 97.1759 13.0382 1267 111.092 1335.79 450.866
603 0 100.261 12.7268 1276 109.657 1335.84 448.838
604 0 107.18 12.8663 1379 108.161 1335.74 447.608
605 0 110.165 10.3753 1143 113.82 1335.84 442.121
606 0 115.192 11.6241 1339 109.514 1336.3 443.287
607 0 119.116 10.41 1240 111.489 1335.9 439.436
608 1 74.064 10.2749 761 98.2024 1337.93 475.064
609 0 72.0593 9.88075 712 98.9803 1337.69 471.576
610 0 80.0376 10.745 860 95.8453 1337.12 474.437
611 0 79.0586 9.79021 774 98.2726 1335.79 471.731
612 0 83.0672 11.1115 923 95.0444 1336.44 470.962
613 0 85.0718 12.0016 1021 94.2214 1336.32 470.197
614 0 88.0693 10.2987 907 98.161 1335.75 466.036
615 0 93.1327 9.98575 930 98.3269 1335.72 465.955
616 0 92.1077 9.87974 910 99.144 1335.66 461.533
617 0 99.1641 11.0725 1098 97.2641 1335.85 461.939
618 0 101.208 10.76 1089 105.311 1335.48 461.287
619 0 105.17 12.3134 1295 102.581 1336.1 457.048
620 0 106.234 11.8982 1264 103.36 1336.36 453.38
621 0 113.347 12.2191 1385 101.178 1336.3 453.602
622 0 112.312 9.46469 1063 107.505 1336.1 451.731
623 0 119.189 10.4456 1245 104.282 1336.42 451.878
624 1 65.1065 9.56894 623 98.3339 1336.09 479.175
625 0 66.1051 8.92519 590 93.4136 1335.5 480.012
626 0 67.0241 11.5481 774 90.7829 1336.04 479.619
627 0 67.1002 10.8941 731 93.2244 1335.79 476.044
628 0 74.1565 11.2869 837 92.4253 1335.51 478.477
629 0 72.0937 10.5696 762 95.6325 1336.5 477.967
630 0 75.1026 9.97302 749 97.5207 1335.61 473.597
631 0 80.0628 11.9906 960 93.3812 1336.62 474.534
632 0 76.1032 9.19804 700 101.774 1336.32 470.14
633 0 83.1491 10.6556 886 98.281 1337.25 470.701
634 0 86.0837 10.9661 944 97.3972 1337.45 467.546
635 0 85.0791 9.75562 830 101.004 1336.87 464.098
636 0 92.1347 11.9282 1099 96.283 1336.35 465.19
637 0 92.1347 11.8956 1096 120.349 1335.34 465.191
638 0 98.1646 12.2549 1203 96.2053 1336.97 462.965
639 0 100.167 12.1596 1218 97.4433 1336.81 461.897
640 0 103.165 11.4767 1184 98.6292 1335.73 461.606
641 0 110.187 11.78 1298 97.0763 1336.37 459.959
642 0 111.212 11.8153 1314 98.124 1335.33 453.647
643 0 112.167 13.7919 1547 93.0498 1336.14 449.983
644 0 117.28 11.1358 1306 101.566 1335.64 450.161
645 0 122.43 10.1772 1246 101.73 1336.19 455.955
646 0 127.183 11.7469 1494 99.2088 1335.84 451.641
647 0 131.289 10.9377 1436 101.47 1336.54 451.688
648 0 132.318 11.4421 1514 101.178 1335.83 448.334
649 1 73.1602 10.6479 779 95.4223 1336.99 478.276
650 0 74.044 8.76505 649 98.9076 1336.7 474.471
651 0 73.0913 8.66041 633 99.8847 1337.03 471.973
652 0 79.1145 11.477 908 93.4912 1336.97 475.104
653 0 81.1252 11.2172 910 95.9319 1336.01 470.167
654 0 82.1411 9.60542 789 99.0596 1336.72 470.248
655 0 86.1988 10.3366 891 97.3928 1336.57 471.602
656 0 90.1636 12.8322 1157 93.2169 1336.4 469.727
657 0 92.1597 11.9684 1103 95.8613 1335.59 468.084
658 0 95.1995 12.1954 1161 96.7916 1334.67 462.332
659 0 97.257 10.9709 1067 97.7919 1335.03 463.211
660 0 97.1588 9.82927 955 99.7791 1335.16 464.039
661 0 106.224 11.1933 1189 96.0378 1335.54 462.431
662 1 55.0964 10.1822 561 91.9002 1336.07 484.422
663 0 59.0842 10.5781 625 86.6784 1336.86 486.669
664 0 57.0258 9.82012 560 89.3214 1336.68 484.032
665 0 60.0895 10.6341 639 86.5759 1336.89 483.786
666 0 61.0363 11.9273 728 82.6415 1337.32 483.916
667 0 62.1009 10.9982 683 84.5915 1337.41 481.204
668 0 63.169 11.208 708 84.0975 1336.86 481.095
669 0 66.0647 11.3828 752 83.5904 1337.33 481.116
670 0 68.0672 11.0626 753 86.2669 1337.57 478.831
671 0 69.0411 11.2397 776 86.6508 1336.56 480.05
672 0 72.078 11.8483 854 85.2073 1336.18 478.494
673 0 75.1058 13.4876 1013 81.3445 1337.39 477.333
674 0 76.1036 12.5224 953 83.7125 1336.13 476.632
675 0 78.0752 12.9106 1008 83.5516 1336.01 475.822
676 0 83.1432 12.8333 1067 83.134 1335.64 473.836
677 0 85.1103 12.5954 1072 83.1688 1335.74 470.84
678 0 86.0989 12.3579 1064 83.6701 1336.56 469.811
679 0 88.1288 11.2336 990 86.1232 1336.81 468.784
680 0 89.112 10.6383 948 87.1498 1336.41 467.45
681 0 92.0696 11.7194 1079 85.544 1335.31 462.988
682 1 51.0543 8.99042 459 86.7146 1336.56 482.719
683 0 46.2933 9.20219 426 88.2347 1333.47 478.897
684 0 53.1796 10.1919 542 82.8321 1334.88 481.727
685 0 53.2017 9.52977 507 84.2939 1335.05 480.408
686 0 55.2633 9.31902 515 85.4641 1334.87 480.32
687 0 58.2171 10.9418 637 82.2402 1335.26 480.466
688 0 54.1243 9.29341 503 87.4334 1334.7 475.201
689 0 59.138 12.0227 711 82.1969 1334.02 474.623
690 0 63.106 9.11165 575 76.9965 1335.55 483.447
691 0 66.1252 10.2835 680 83.5868 1335.98 483.629
692 0 69.1428 11.4112 789 81.6933 1336.39 483.458
693 0 72.245 12.9282 934 79.6627 1335.99 480.876
694 0 72.1331 10.9381 789 83.8783 1335.16 477.043
695 0 75.1969 11.809 888 80.7083 1335.64 479.003
696 0 78.125 12.6336 987 80.4792 1335.36 478.672
697 0 80.1061 12.6832 1016 81.7766 1336.12 478.262
698 0 85.2009 11.4788 978 81.4233 1336 475.584
699 0 86.1528 10.876 937 82.7887 1336.07 473.928
700 0 90.1797 10.7341 968 82.937 1336.26 474.134
701 0 92.2066 11.7562 1084 82.738 1336.61 469.868
702 1 51.0414 9.91351 506 84.0079 1336.71 488.628
703 0 55.1071 11.4141 629 82.337 1336.85 487.862
704 0 55.0727 10.7494 592 74.7162 1336.11 485.209
705 0 57.1677 10.6529 609 79.2939 1336.08 487.368
706 0 57.2153 10.3119 590 79.1492 1336.57 487.393
707 0 62.1159 11.6073 721 77.7739 1336.19 485.606
708 0 61.0518 9.74582 595 81.3143 1337 485.02
709 0 65.3509 12.1957 797 77.1669 1336.55 484.245
710 0 67.1209 11.0249 740 78.9703 1336.74 480.097
711 0 69.2062 12.8023 886 75.5824 1336.11 479.735
712 0 71.1547 12.1426 864 76.3773 1336.34 478.012
713 0 74.1627 12.513 928 76.3071 1336.04 479.287
714 0 74.1889 11.619 862 78.6473 1336.01 477.455
715 0 78.1415 11.6071 907 78.6505 1335.82 476.443
716 0 81.1651 12.3082 999 78.2172 1335.9 475.467
717 0 81.1651 12.3206 1000 116.15 1336.9 475.519
718 0 85.3112 11.3936 972 80.4434 1336.28 473.706
719 0 90.1402 10.0732 908 82.402 1335.64 470.896
720 1 47.0703 10.24 482 80.3237 1337.02 491.228
721 0 48.0555 10.1965 490 81.3061 1337.2 490.296
722 0 50.0511 10.4693 524 81.9542 1337.05 489.54
723 0 48.0725 8.96563 431 84.0858 1336.48 485.68
724 0 52.0783 10.177 530 83.566 1336.44 483.409
725 0 50.1702 10.4245 523 85.0478 1336.38 482.034
726 0 53.0638 10.3272 548 84.3339 1336.3 483.854
727 0 56.0308 9.6911 543 85.4862 1336.51 482.017
728 0 55.035 9.30317 512 86.8887 1336.71 481.461
729 0 60.0744 10.0209 602 84.0282 1336.08 482.822
730 0 62.0359 11.848 735 81.9918 1335.96 479.645
731 0 65.0381 12.2851 799 80.8761 1336.41 477.685
732 0 68.084 11.2508 766 82.6971 1336.22 479.946
733 0 68.0431 12.8742 876 81.7477 1335.58 475.374
734 0 72.1359 12.0467 869 82.9816 1334.97 477.209
735 0 72.0434 12.0483 868 84.1486 1334.72 477.289
736 0 77.241 13.2831 1026 82.1842 1335.24 472.704
737 0 79.203 12.9414 1025 83.281 1335.28 473.206
738 0 82.157 12.5613 1032 83.7897 1334.7 471.547
739 0 85.1122 11.385 969 87.2301 1334.42 471.411
740 0 88.1852 10.6027 935 88.262 1334.73 471.417
741 0 94.1123 12.1026 1139 85.6067 1336.22 469.895
742 1 49.0501 9.94901 488 84.1127 1335.45 494.066
743 0 49.0891 11.5301 566 82.6272 1335.56 493.527
744 0 52.085 11.4812 598 83.0569 1336.38 492.309
745 0 55.0795 12.2913 677 81.418 1336.45 489.321
746 0 57.1045 13.449 768 80.0964 1335.82 486.936
747 0 58.0804 12.6721 736 81.0516 1336.12 486.507
748 0 63.2361 13.2203 836 79.494 1335.66 487.52
749 0 61.1198 13.6781 836 80.1734 1336.18 485.996
750 0 65.1056 14.1309 920 77.7424 1335.92 483.407
751 0 64.0938 11.0619 709 78.7687 1334.83 477.372
752 0 63.1236 10.2656 648 80.213 1335.62 478.579
753 0 67.0984 10.2089 685 80.6847 1335.7 476.615
754 0 70.1538 11.9309 837 78.7646 1334.95 474.614
755 0 73.0665 12.0301 879 78.7554 1335.13 473.651
756 0 74.1843 11.9028 883 80.3884 1335.05 472.075
757 0 78.1598 11.2462 879 81.7531 1335.46 470.859
758 0 80.1448 11.891 953 81.7975 1335.45 470.494
759 0 85.1 12.1504 1034 80.7079 1335.41 467.728
760 0 88.1587 11.5927 1022 81.9198 1335.2 468.213
761 0 89.1217 11.5685 1031 83.2667 1334.79 460.918
762 0 94.1428 11.7906 1110 84.5856 1334.58 462.387
763 1 49.1892 11.3846 560 79.9554 1335.07 485.452
764 0 48.066 9.75741 469 85.145 1335.18 482.565
765 0 53.0512 13.1571 698 87.4499 1333.54 478.851
766 0 55.1285 12.6613 698 81.2507 1334.88 483.755
767 0 57.0934 12.5759 718 81.2159 1334.85 482.844
768 0 55.1485 10.1725 561 85.3601 1335.36 481.168
769 0 61.1124 11.4707 701 81.4979 1334.88 479.623
770 0 64.0957 11.0928 711 81.8973 1335.23 478.966
771 0 64.1132 11.3393 727 81.0784 1335.79 480.968
772 0 68.242 12.5436 856 79.5386 1334.98 477.845
773 0 69.1241 11.8049 816 80.701 1334.75 475.554
774 0 72.0802 11.8895 857 80.3022 1335.03 474.533
775 0 76.174 12.5633 957 79.0617 1334.92 473.055
776 0 79.1307 10.1099 800 83.235 1335.18 471.585
777 0 80.0891 11.5621 926 81.568 1335.01 469.305
778 0 80.1592 10.791 865 83.815 1335.83 466.151
779 0 83.2665 11.4812 956 83.0868 1335.05 464.051
780 0 89.0726 12.2372 1090 81.4495 1335.34 467.478
781 0 91.3146 12.0791 1103 82.631 1335.23 462.732
782 0 96.1616 13.1029 1260 81.7944 1334.59 460.045
783 0 99.1006 10.4641 1037 87.0039 1335.03 459.036
784 0 100.203 11.6164 1164 87.8462 1335.16 459.102
785 0 108.129 12.6977 1373 85.8762 1334.83 453.429
786 1 57.1195 10.7669 615 79.9447 1335.55 478.885
787 0 62.3268 12.7874 797 86.9912 1336.54 483.365
788 0 63.1466 13.5241 854 87.5831 1335.87 481.804
789 0 65.1402 12.6036 821 89.4434 1335.94 482.659
790 0 68.1246 12.8588 876 89.1564 1335.99 480.774
791 0 72.1426 13.1684 950 88.9916 1335.6 480.006
792 0 72.2951 13.2512 958 89.191 1335.6 481.05
793 0 74.2598 12.4293 923 91.6761 1336.01 475.679
794 0 79.2821 13.0925 1038 88.2013 1335.87 479.676
795 0 82.1098 14.1883 1165 88.5322 1335.16 476.198
796 0 82.1718 12.4617 1024 87.5312 1335.76 476.284
797 0 83.1484 11.6418 968 90.4019 1335.89 472.364
798 0 89.1752 12.0549 1075 90.0047 1335.14 471.135
799 0 89.0982 13.3897 1193 88.5205 1335.63 468.895
800 0 94.0918 13.6144 1281 88.7112 1335.69 467.308
801 0 96.1193 13.5769 1305 88.2751 1335.83 468.238
802 0 95.1246 11.6584 1109 93.0875 1335.19 465.276
803 0 103.152 13.3298 1375 90.0531 1334.55 467.181
804 0 104.177 12.5363 1306 92.5153 1334.25 462.82
805 0 109.25 13.3364 1457 90.5408 1334.46 461.156
806 1 60.0937 12.9964 781 88.7977 1333.87 485.572
807 0 64.1772 12.0759 775 88.1639 1334.44 484.787
808 0 65.2195 12.8642 839 82.6555 1335.38 485.057
809 0 68.0787 11.7511 800 80.7738 1334.66 482.901
810 0 68.0669 10.7247 730 83.3247 1335.07 481.314
811 0 71.0754 11.1431 792 82.572 1334.68 482.393
812 0 74.2004 13.4231 996 79.8092 1335.23 480.805
813 0 74.2004 13.3422 990 119.879 1335.24 480.759
814 0 78.0852 13.306 1039 80.9577 1335.37 477.01
815 0 81.182 13.0324 1058 81.69 1335.68 475.509
816 0 83.1009 13.0203 1082 82.5481 1335.02 475.355
817 0 86.1569 13.0576 1125 84.2 1334 474.484
818 0 88.1027 12.406 1093 85.6212 1334.23 469.968
819 0 93.2071 13.2072 1231 85.3656 1334.38 470.299
820 0 94.2476 13.7298 1294 88.3006 1334.59 470.177
821 0 98.098 12.9972 1275 90.5137 1334.88 467.516
822 0 101.133 13.9322 1409 88.7523 1335.1 466.864
823 0 104.184 13.9753 1456 89.4567 1334.41 463.947
824 0 105.4 13.3396 1406 91.2077 1334.93 463.23
825 1 56.1285 10.3513 581 85.7728 1334.65 489.398
826 0 58.1474 10.6969 622 85.5707 1334.92 488.5
827 0 58.1575 11.4861 668 85.7186 1335.22 487.027
828 0 60.1688 12.0827 727 84.1376 1335.69 486.29
829 0 59.1515 10.7013 633 87.0585 1334.36 488.637
830 0 62.2403 11.1664 695 86.3942 1335.35 486.033
831 0 64.0659 12.1437 778 85.4949 1335.11 484.127
832 0 64.1173 10.4184 668 87.8877 1334.79 487.237
833 0 67.0719 12.673 850 85.5094 1334.96 484.564
834 0 67.2555 11.5827 779 89.1759 1334.53 482.099
835 0 70.0404 11.7361 822 88.2397 1333.85 482.234
836 0 71.1544 12.2269 870 87.4862 1334.72 480.998
837 0 71.2221 12.0609 859 87.5821 1334.46 481.285
838 0 72.1103 13.41 967 87.0641 1335.02 479.681
839 0 74.0979 14.2514 1056 85.7074 1334.59 481.137
840 0 73.1141 11.9266 872 89.7924 1334.54 479.253
841 0 76.115 11.3907 867 90.0761 1334.75 477.912
842 0 79.0922 14.8687 1176 85.006 1334.99 476.789
843 0 79.2263 12.7483 1010 89.3416 1334.39 476.007
844 0 80.1799 10.8381 869 90.9171 1334.55 477.85
845 0 83.2354 13.4078 1116 87.0789 1334.6 477.501
846 0 85.1279 13.5091 1150 87.573 1335.22 474.186
847 0 87.1375 13.7025 1194 86.8467 1335.29 474.363
848 0 88.149 13.6927 1207 87.628 1334.41 472.535
849 0 87.1507 12.8743 1122 88.8939 1335.27 471.769
850 0 90.1683 13.5746 1224 87.9992 1333.73 470.803
851 0 91.0933 12.6903 1156 89.1756 1334.72 469.636
852 0 93.2191 13.1411 1225 88.5412 1334.52 467.681
853 0 96.2394 13.9548 1343 87.4773 1334.93 469.149
854 0 94.0896 12.3818 1165 90.6738 1335.1 467.003
855 0 98.2231 12.7669 1254 90.3158 1334.37 464.666
856 0 101.215 14.237 1441 87.6662 1333.54 464.804
857 0 102.213 14.7829 1511 86.548 1334.74 464.058
858 0 105.156 13.7605 1447 88.3683 1334.76 463.621
859 0 106.121 14.5776 1547 87.6212 1333.98 462.24
860 0 110.195 13.4761 1485 89.396 1334.29 461.816
861 0 110.204 13.5386 1492 90.8485 1334.81 458.769
862 0 110.239 13.4798 1486 91.3923 1334.47 456.203
863 0 113.356 13.3386 1512 90.7705 1333.97 459.674
864 0 117.199 14.0104 1642 89.6979 1334.15 457.957
865 0 117.586 13.0542 1535 91.9785 1334.8 453.423
866 0 121.249 14.1692 1718 89.6339 1335.04 453.304
867 0 124.22 14.579 1811 88.4401 1335.22 452.275
868 0 125.246 13.8048 1729 90.561 1335.26 453.227
869 1 65.1233 11.4245 744 87.9919 1334.76 483.526
870 0 66.1424 13.728 908 83.043 1335.65 484.894
871 0 66.1188 11.9179 788 86.6942 1336.28 484.121
872 0 68.0742 13.6028 926 84.4384 1335.98 484.249
873 0 68.0802 13.3813 911 85.8375 1335.45 482.223
874 0 70.1093 13.9924 981 84.3761 1336.12 481.15
875 0 70.1093 14.1065 989 131.483 1337.11 481.17
876 0 71.1023 12.3625 879 87.8305 1335.45 481.192
877 0 72.0487 12.8108 923 87.0943 1335.46 479.883
878 0 72.0559 12.7123 916 88.19 1334.72 479.398
879 0 72.082 12.6384 911 88.0878 1335.17 481.232
880 0 73.0844 13.1081 958 88.0501 1335.57 479.554
881 0 73.0658 12.9609 947 87.886 1334.95 479.836
882 0 76.0873 13.7474 1046 87.2782 1334.76 478.118
883 0 78.1203 12.9928 1015 87.0995 1335.15 479.814
884 0 78.0535 12.9142 1008 87.494 1335.3 477.679
885 0 79.0402 13.9676 1104 86.6558 1335.56 476.206
886 0 80.1046 14.3562 1150 86.2339 1335.36 477.143
887 0 79.1515 12.9246 1023 88.8172 1335.42 474.777
888 0 82.1315 13.4662 1106 86.953 1335.8 476.378
889 0 82.0843 14.4607 1187 85.321 1335.51 477.307
890 0 83.071 14.1927 1179 86.4122 1335.5 473.31
891 0 84.2252 13.0127 1096 87.8093 1334.99 474.356
892 0 84.2252 13.0246 1097 140.265 1334.97 474.282
893 0 86.2203 12.8392 1107 88.6197 1335.54 473.643
894 0 87.1679 13.3191 1161 87.6951 1335 472.403
895 0 87.1941 13.1201 1144 88.3077 1334.67 474.335
896 0 88.1162 14.1972 1251 86.5771 1335.01 473.902
897 0 90.1038 13.2847 1197 87.8521 1334.84 469.796
898 0 91.0924 14.4139 1313 86.0434 1335.14 470.663
899 0 92.1011 13.1703 1213 87.5359 1335.09 470.132
900 0 92.1087 14.0161 1291 85.7459 1334.86 472.146
901 0 94.1496 16.102 1516 82.2586 1335 466.884
902 0 95.2067 15.272 1454 83.3961 1335.8 467.791
903 0 96.1489 13.9055 1337 85.6881 1334.99 470.425
904 0 94.0678 12.4804 1174 88.6474 1334.73 468.924
905 0 98.2331 14.5165 1426 83.8703 1334.94 468.8
906 0 99.1441 13.6266 1351 84.3886 1335.17 469.276
907 0 99.218 14.8562 1474 82.7313 1335 469.165
908 0 100.215 13.3213 1335 85.4232 1335.3 467.219
909 0 101.238 13.0583 1322 85.6702 1335.18 465.983
910 0 102.226 13.4213 1372 84.57 1335.25 468.55
911 0 103.159 13.8427 1428 84.0679 1335.29 466.522
912 0 104.183 12.718 1325 85.7087 1335.48 462.576
913 0 103.237 12.5924 1300 86.4108 1334.7 463.644
914 0 107.125 12.6581 1356 85.4565 1334.98 462.74
915 0 109.197 13.6176 1487 83.5494 1335.47 464.084
916 0 107.147 13.3554 1431 84.9595 1334.69 460.237
917 0 108.249 12.9055 1397 85.5755 1334.66 459.548
918 0 109.129 13.1129 1431 85.4039 1334.68 462.543
919 0 113.205 13.3651 1513 84.9247 1334.8 462.389
920 0 111.104 12.5919 1399 86.451 1335.27 460.067
921 0 113.283 12.4202 1407 86.0739 1335.44 460.564
922 0 114.199 12.6621 1446 86.7946 1334.9 458.297
923 0 118.223 13.6438 1613 84.3292 1334.23 460.521
924 0 118.242 14.9524 1768 82.6063 1334.59 456.92
925 0 117.432 12.7052 1492 86.0523 1334.45 460.117
926 0 118.199 12.6144 1491 86.1945 1334.4 456.576
927 0 122.188 14.4531 1766 83.1602 1334.36 455.711
928 0 122.161 14.3417 1752 83.012 1334.04 457.042
929 0 125.149 14.295 1789 82.6462 1334.41 453.784
930 0 125.19 12.9084 1616 84.1937 1335.27 454.978
931 0 128.51 15.493 1991 79.663 1335.12 453.091
932 0 130.284 14.4224 1879 81.5913 1334.88 451.615
933 0 131.157 13.3351 1749 82.8582 1335.25 453.738
934 0 133.436 13.7669 1837 81.9793 1334.25 450.108
935 0 134.122 13.8754 1861 81.6593 1334.95 450.854
936 0 134.238 12.53 1682 84.0166 1334.26 449.719
937 0 139.156 13.1866 1835 81.2589 1335.06 451.204
938 1 67.2689 12.4872 840 79.006 1335.17 484.52
939 0 69.1628 14.6032 1010 77.604 1333.64 481.344
940 0 67.1975 13.557 911 78.2108 1335.18 482.15
941 0 69.1955 12.6887 878 74.5581 1334.61 480.237
942 0 68.173 11.1481 760 76.6447 1335.1 482.409
943 0 70.1862 12.7233 893 73.7973 1335.32 481.401
944 0 69.1139 11.7487 812 76.2956 1335.48 478.889
945 0 70.1705 14.2083 997 72.8877 1335.48 479.231
946 0 70.1864 12.937 908 74.6971 1335.51 480.525
947 0 71.1735 12.4484 886 74.7517 1335.85 481.274
948 0 70.1818 14.6334 1027 72.7507 1335.91 478.784
949 0 73.1774 12.4082 908 75.0419 1335.79 478.269
950 0 71.1808 13.7116 976 73.6721 1336.14 480.181
951 0 73.0807 13.7109 1002 73.4242 1335.55 479.307
952 0 74.1352 12.5851 933 74.7985 1335.84 478.293
953 0 73.263 11.7249 859 75.5751 1336.41 480.007
954 0 74.1036 13.2382 981 74.1549 1336.34 475.933
955 0 73.2032 11.7481 860 76.286 1335.55 479.559
956 0 76.1458 10.9527 834 76.4928 1335.48 479.733
957 0 75.1356 12.8568 966 74.6542 1336.17 478.506
958 0 73.1029 11.901 870 77.1494 1335.3 476.91
959 0 77.1146 13.3567 1030 73.6544 1335.35 477.734
960 0 75.3273 11.8151 890 76.791 1335.63 475.345
961 0 78.247 13.2657 1038 74.737 1335.2 475.64
962 0 76.2253 12.5811 959 75.9093 1335.42 477.031
963 0 76.1687 11.8421 902 76.7007 1335.42 477.3
964 0 79.1116 13.9297 1102 73.8022 1335.86 475.979
965 0 79.2505 11.0662 877 77.5222 1335.8 476.954
966 0 82.1651 14.7873 1215 72.0741 1335.34 475.67
967 0 79.2699 12.2241 969 76.4427 1334.46 474.604
968 0 82.2534 14.2608 1173 73.0418 1335.1 474.324
969 0 82.3841 13.2793 1094 74.2038 1335.19 476.334
970 0 83.2818 12.932 1077 74.9016 1334.52 473.246
971 0 84.2357 13.7946 1162 73.4966 1335.29 474.051
972 0 83.3437 13.4503 1121 73.7012 1335.69 473.557
973 0 83.2367 12.903 1074 74.7775 1335.77 474.885
974 0 85.1706 13.2792 1131 73.9523 1335.61 473.318
975 0 83.2033 12.7519 1061 75.1056 1335.66 472.588
976 0 86.328 13.2055 1140 73.4693 1336.29 473.704
977 0 85.3072 13.7034 1169 73.272 1335.98 472.279
978 0 85.1722 12.234 1042 75.8023 1335.28 470.608
979 0 85.1758 11.7991 1005 75.7015 1335.88 472.635
980 0 84.2568 11.6667 983 76.9542 1335.48 471.035
981 0 87.1586 12.9763 1131 73.7834 1335.02 474.363
982 0 88.1907 14.0151 1236 72.8495 1335.32 470.913
983 0 86.1218 11.4489 986 76.6471 1335.6 472.357
984 0 88.1816 14.164 1249 72.4964 1335.52 472.384
985 0 89.2914 12.9688 1158 73.7453 1335.4 473.995
986 0 88.1551 12.6482 1115 75.1632 1335.65 470.131
987 0 88.2723 12.2802 1084 75.012 1335.67 471.144
988 0 92.2447 11.914 1099 73.8608 1336.97 474.788
989 0 91.2457 13.0198 1188 73.6827 1336.44 469.095
990 0 90.2215 13.888 1253 72.8284 1336.03 468.828
991 0 92.2338 11.6985 1079 74.5644 1336.07 471.966
992 0 92.1548 11.09 1022 74.7319 1336.46 473.558
993 0 95.5182 13.4215 1282 72.2457 1335.63 470.275
994 0 94.2033 14.7766 1392 71.0869 1336.55 468.162
995 0 94.1722 14.7921 1393 70.9426 1336.77 469.349
996 0 95.2083 13.9379 1327 72.1462 1336.1 467.216
997 0 95.2083 13.9694 1330 144.715 1336.13 467.273
998 0 97.2573 13.9321 1355 72.0347 1336.42 466.934
999 0 96.2242 13.1672 1267 72.704 1336.22 469.853
