time division length width area intensity CMx CMy
0 0 43.1829 11.2081 484 132.163 1263.46 481.698
1 0 42.2659 10.4103 440 136.33 1264.38 482.132
2 0 45.1804 11.1774 505 134.162 1264.33 480.465
3 0 45.1753 11.0459 499 135.493 1263.9 480.675
4 0 46.2252 11.0979 513 135.503 1264.44 480.992
5 0 50.1377 12.2263 613 131.437 1265.05 480.085
6 0 51.1404 11.2827 577 134.482 1264.19 479.707
7 0 50.0701 10.8248 542 137.327 1264.24 480.12
8 0 54.1189 12.4356 673 131.211 1264.43 479.256
9 0 55.1035 11.9412 658 133.799 1263.71 477.015
10 0 57.1322 12.3923 708 132.136 1264.02 476.977
11 0 58.0897 11.5339 670 134.275 1264.06 477.379
12 0 60.0687 12.3359 741 131.444 1264.16 475.134
13 0 61.0903 12.4406 760 128.85 1264.38 477.018
14 1 32.0559 11.1056 356 135.478 1262.52 489.152
15 0 35.0414 11.1297 390 134.182 1262.67 488.882
16 0 35.0466 12.0696 423 132.52 1262.96 488.359
17 0 38.055 11.6936 445 129.151 1263.28 488.926
18 0 37.1345 12.7105 472 130.184 1262.68 487.754
19 0 33.0692 12.247 405 130.23 1262.93 490.881
20 0 35.0939 11.284 396 131.694 1262.38 490.015
21 0 35.111 10.6804 375 131.747 1262.51 490.731
22 0 39.0809 12.9219 505 123.721 1261.71 489.855
23 0 39.1048 12.0957 473 125.7 1261.33 490.148
24 0 41.0804 12.5607 516 123.969 1261.29 490.072
25 0 43.1154 12.1998 526 123.192 1261.52 489.713
26 0 42.1072 11.8507 499 126.539 1261.48 488.685
27 0 44.051 12.2812 541 124.338 1261.42 488.407
28 0 45.0945 13.0615 589 123.083 1261.69 487.272
29 0 48.0941 12.1428 584 123.209 1261.32 487.125
30 0 47.0653 11.8134 556 126.099 1261.29 486.678
31 0 51.1208 12.9106 660 121.28 1261.83 485.305
32 0 51.0437 12.9889 663 121.584 1261.31 483.897
33 0 53.0585 14.0788 747 117.167 1261.19 483.925
34 0 56.0609 12.5399 703 118.653 1261.31 484.751
35 0 56.0427 13.5076 757 117.58 1261.03 483.433
36 0 58.0988 14.0622 817 116.778 1261.13 481.169
37 0 60.0724 12.9843 780 118.953 1260.94 481.108
38 0 63.0457 13.0064 820 116.427 1260.44 482
39 0 64.0933 12.3414 791 118.987 1260.21 480.303
40 0 67.2068 13.1088 881 116.301 1260.58 480.574
41 0 71.0677 13.9585 992 114.628 1260.47 478.165
42 0 72.0735 13.625 982 114.812 1260.85 478.322
43 0 75.079 14.5047 1089 114.493 1261.25 476.245
44 0 77.0622 13.1582 1014 119.725 1260.53 474.919
45 0 80.0993 13.8703 1111 117.607 1260.95 473.952
46 0 83.0646 14.3984 1196 116.693 1260.31 472.236
47 0 88.1799 14.4364 1273 113.942 1260.26 471.545
48 0 88.1133 15.2644 1345 114.362 1260.53 468.067
49 1 48.0353 12.5325 602 123.198 1261.03 487.257
50 0 50.0414 13.9485 698 120.907 1260.26 486.215
51 0 51.0935 14.3658 734 120.326 1261.03 485.255
52 0 53.0341 14.9526 793 113.738 1260.05 486.158
53 0 54.0649 14.5011 784 114.876 1260.55 486.061
54 0 57.0301 14.7466 841 114.106 1260.51 484.797
55 0 59.0843 14.4201 852 114.398 1259.73 485.244
56 0 60.0661 14.9835 900 114.342 1259.49 482.548
57 0 64.0789 15.8398 1015 110.566 1259.53 482.354
58 0 63.2904 14.631 926 115.509 1259.3 481.324
59 0 66.1742 14.9152 987 114.617 1259.19 480.698
60 0 68.0804 15.0264 1023 112.188 1259.68 479.004
61 0 71.1305 14.2555 1014 113.097 1259.33 479.001
62 0 73.1641 15.0484 1101 112.04 1258.95 477.819
63 0 74.0475 14.3421 1062 114.225 1259.05 477.674
64 0 77.1531 14.9962 1157 112.36 1258.52 475.38
65 0 80.0652 15.4624 1238 111.45 1259.2 474.918
66 0 82.117 14.4672 1188 114.398 1259.23 473.39
67 0 85.1408 15.2218 1296 113.944 1259.36 471.677
68 0 88.163 14.6206 1289 115.432 1259.14 468.957
69 0 91.2119 14.998 1368 113.876 1259.11 468.107
70 0 91.2822 14.0991 1287 116.983 1258.54 467.261
71 0 95.1464 14.3568 1366 115.649 1259.29 462.928
72 0 100.209 15.6772 1571 112.56 1259.4 461.731
73 0 103.075 14.533 1498 116.632 1258.92 461.465
74 0 105.188 15.3535 1615 114.557 1258.64 461.154
75 0 110.185 15.238 1679 113.454 1259.3 459.355
76 0 114.144 14.0875 1608 116.952 1259.42 456.123
77 0 117.217 14.7846 1733 113.718 1259.53 452.812
78 0 119.15 13.3529 1591 115.087 1259.34 446.871
79 0 124.164 13.748 1707 112.674 1258.91 446.124
80 0 130.206 13.2789 1729 113.335 1258.47 444.726
81 0 139.254 13.2994 1852 112.745 1259.14 444.065
82 1 70.0574 12.6753 888 106.032 1259.67 477.407
83 0 73.0947 12.8737 941 106.883 1260.77 476.101
84 0 75.0547 13.0838 982 108.176 1260.34 474.022
85 0 80.1222 14.4904 1161 103.137 1260.15 473.92
86 0 82.0279 13.0322 1069 106.041 1259.96 471.709
87 0 85.0612 13.3551 1136 105.691 1260.26 471.188
88 0 87.0537 13.44 1170 106.642 1260.36 469.622
89 0 90.199 13.2596 1196 107.268 1260.11 468.251
90 0 96.0791 14.5401 1397 103.458 1259.26 468.083
91 0 96.1386 12.586 1210 108.349 1259.45 465.031
92 0 102.264 12.986 1328 107.866 1259.46 462.691
93 0 104.205 13.5215 1409 108.372 1259.36 461.253
94 0 109.206 13.7081 1497 108.441 1259.18 460.048
95 0 113.305 13.6446 1546 108.934 1259.36 455.596
96 0 118.331 13.082 1548 111.318 1258.78 454.745
97 0 123.307 13.2515 1634 114.314 1259.25 450.831
98 0 127.262 13.7433 1749 110.874 1259.56 450.242
99 1 68.2235 10.7881 736 110.319 1259.59 481.872
100 0 73.3473 13.0612 958 105.211 1258.64 478.246
101 0 75.2588 13.1945 993 104.826 1258.21 475.404
102 0 75.3023 13.2532 998 107.685 1259.39 475.765
103 0 78.2607 14.3111 1120 105.462 1259.48 476.631
104 0 80.368 13.3511 1073 106.818 1258.9 477.009
105 0 82.2749 12.7864 1052 108.721 1259.55 473.768
106 0 86.2518 12.8345 1107 107.997 1259.45 469.285
107 0 89.413 13.8459 1238 105.822 1258.95 464.858
108 0 92.3798 12.8599 1188 107.108 1259.57 463.117
109 0 94.2748 13.8425 1305 105.154 1258.89 457.785
110 0 98.2953 11.73 1153 107.254 1259.35 460.888
111 0 103.189 13.6449 1408 103.859 1259.16 458.281
112 0 105.101 12.8162 1347 106.76 1258.7 453.415
113 0 107.283 11.8379 1270 109.919 1258.74 450.85
114 0 112.259 13.1749 1479 105.528 1259.29 452.29
115 0 112.259 13.1927 1481 157.876 1259.31 452.396
116 0 121.144 12.7369 1543 106.928 1259.02 444.819
117 1 65.0539 11.5596 752 99.4588 1258.3 476.868
118 0 66.099 11.044 730 101.901 1259.04 472.775
119 0 69.2153 12.8151 887 106.329 1259.02 478.339
120 0 70.2119 13.388 940 103.997 1258.25 480.399
121 0 75.1464 13.1344 987 104.374 1257.75 479.362
122 0 75.0787 13.6523 1025 104.496 1258.36 475.252
123 0 78.1407 11.9528 934 104.319 1257.67 477.226
124 0 81.067 12.9152 1047 103.467 1258.15 472.031
125 0 83.2723 13.0896 1090 102.717 1257.31 474.667
126 0 85.0775 12.1301 1032 104.55 1257.81 473.37
127 0 90.1292 13.3142 1200 102.329 1259.5 470.137
128 0 95.1273 13.6239 1296 101.147 1260.08 466.215
129 0 96.0517 12.5766 1208 104.435 1259.25 466.844
130 0 100.106 12.8363 1285 104.445 1259.54 463.053
131 0 105.209 13.5635 1427 110.124 1259.07 462.244
132 0 106.226 12.7369 1353 111.166 1258.45 460.953
133 0 111.146 13.1359 1460 109.455 1257.75 459.914
134 1 60.1875 12.7103 765 103.396 1256.84 486.123
135 0 61.0977 12.5373 766 104.086 1258.33 483.77
136 0 62.1491 13.0171 809 100.216 1257.42 483.471
137 0 64.132 13.02 835 100.659 1257.11 480.459
138 0 68.138 12.504 852 99.784 1257.3 482.397
139 0 70.1909 12.8792 904 99.8496 1257.19 480.719
140 0 72.1607 14.343 1035 98.1188 1257.16 477.396
141 0 73.2629 12.3937 908 102.435 1256.8 479.195
142 0 77.047 12.6157 972 103.285 1257.48 476.754
143 0 80.1677 13.1724 1056 100.875 1257.37 476.82
144 0 83.1269 13.0523 1085 102.344 1257.77 473.173
145 0 85.3235 14.029 1197 101.047 1259.26 471.296
146 0 88.1542 13.2495 1168 103.836 1259.21 469.639
147 0 90.148 13.134 1184 104.707 1258.79 467.712
148 0 95.2162 12.9915 1237 104.275 1258.68 468.993
149 0 98.4573 13.4474 1324 104.421 1258.56 465.09
150 0 102.316 13.087 1339 107.211 1257.82 464.606
151 0 106.571 13.7373 1464 105.872 1257.05 462.072
152 0 106.27 12.3459 1312 111.968 1257.91 459.936
153 1 54.1122 10.9218 591 107.306 1256.37 487.259
154 0 56.2629 11.4107 642 109.145 1257.31 484.38
155 0 60.3714 13.3176 804 104.739 1256.58 482.928
156 0 59.0739 12.0866 714 107.69 1257.03 484.273
157 0 61.1423 11.5959 709 108.223 1257.22 483.251
158 0 63.0768 11.8744 749 107.689 1257.47 483.326
159 0 64.1441 11.5677 742 109.469 1256.84 481.981
160 0 69.145 13.2331 915 105.41 1257.83 479.714
161 0 70.1047 13.7081 961 104.761 1256.75 478.266
162 0 72.096 12.8301 925 108.754 1257.19 476.174
163 0 75.1148 12.5408 942 108.744 1257.4 477.356
164 0 77.0921 12.9196 996 108.221 1258 475.07
165 0 81.0833 13.813 1120 106.404 1258.68 475.071
166 0 81.1481 13.4199 1089 108.904 1259.28 474.691
167 0 83.294 12.2698 1022 112.695 1259.34 471.813
168 0 89.3307 13.0638 1167 111.045 1258.64 468.797
169 0 91.2452 12.8774 1175 111.831 1258.61 469.319
170 0 95.1942 14.6963 1399 107.485 1258.62 466.954
171 0 98.1166 13.4941 1324 109.73 1258.92 467.35
172 0 100.197 13.6032 1363 110.178 1257.29 463.453
173 0 103.257 13.3744 1381 110.251 1257.56 460.741
174 1 55.2348 11.9128 658 110.002 1257.21 485.175
175 0 59.2681 11.5239 683 107.594 1257.01 487.977
176 0 60.2312 12.4852 752 108.243 1257.34 484.669
177 0 61.3096 12.233 750 109.093 1257.45 482.951
178 0 63.2474 12.4432 787 108.17 1257.61 482.809
179 0 64.184 11.6073 745 110.745 1256.54 481.821
180 0 66.2606 12.0283 797 111.024 1257.3 479.235
181 0 68.2133 11.7133 799 109.941 1257.36 479.707
182 0 71.1056 10.9696 780 111.262 1257.42 479.988
183 0 75.1086 12.7016 954 107.623 1257.46 478.262
184 0 77.137 12.4454 960 108.386 1257.63 476.57
185 0 78.206 13.1576 1029 108.214 1257.5 473.537
186 0 81.2045 13.8785 1127 106.044 1258.22 473.856
187 0 82.108 12.3374 1013 111.621 1258.39 471.124
188 0 85.2172 12.6148 1075 111.334 1257.85 470.391
189 0 90.1048 13.0737 1178 109.457 1257.62 468.634
190 0 92.1541 14.2153 1310 107.035 1257.76 467.683
191 0 94.0844 13.3072 1252 110.421 1257.26 465.384
192 0 100.083 13.9684 1398 107.403 1257.71 465.489
193 0 103.108 13.19 1360 109.73 1257.54 463.951
194 0 105.165 12.8845 1355 111.069 1257.64 461.347
195 0 109.093 13.5664 1480 110.023 1258.15 458.161
196 0 112.188 13.2456 1486 110.649 1257.84 457.777
197 0 118.306 12.7128 1504 109.993 1257.81 456.157
198 1 60.0466 10.7416 645 111.082 1258.23 484.436
199 0 60.0466 10.725 644 148.208 1259.21 484.502
200 0 63.0653 12.0986 763 110.387 1257.34 479.041
201 0 67.0913 13.2059 886 107.135 1257.08 478.868
202 0 70.1794 13.6935 961 104.421 1258.35 478.229
203 0 73.0886 13.5452 990 105.133 1257.78 478.261
204 0 75.1294 14.0957 1059 104.443 1258.32 476.741
205 0 77.077 13.1557 1014 107.791 1257.93 475.524
206 0 78.1021 13.3287 1041 108.897 1258.15 475.164
207 0 82.119 13.4683 1106 108.956 1258.45 473.704
208 0 83.108 12.8628 1069 111.058 1257.44 471.979
209 0 88.098 12.9288 1139 109.057 1257.35 471.74
210 0 91.0626 13.628 1241 108.943 1257.5 468.629
211 0 95.0643 13.3068 1265 109.746 1257.25 467.258
212 0 96.075 13.7809 1324 117.069 1256.89 465.553
213 0 99.1572 14.5728 1445 116.228 1257.15 462.547
214 0 103.133 13.1093 1352 120.161 1256.82 462.902
215 0 106.073 13.3964 1421 118.739 1257.07 461.156
216 0 109.164 13.8507 1512 118.186 1256.55 458.473
217 0 112.171 14.0589 1577 117.359 1256.69 457.499
218 0 115.251 14.4467 1665 113.966 1258.86 456.972
219 1 62.0669 10.682 663 116.312 1258.93 479.897
220 0 65.1408 11.8359 771 106.196 1258.96 477.922
221 0 67.1821 14.0811 946 99.8457 1257.83 479.113
222 0 70.0758 13.1144 919 101.14 1258.03 478.39
223 0 74.1922 13.3707 992 100.195 1257.79 476.888
224 0 74.0826 12.2836 910 103.181 1257.44 476.967
225 0 76.0777 11.4488 871 105.573 1257.73 473.093
226 0 81.1139 12.5749 1020 102.179 1257.5 474.625
227 0 82.0752 13.4876 1107 101.032 1257.17 470.708
228 0 84.1329 12.6942 1068 103.195 1257.62 472.07
229 0 85.063 10.6862 909 108.09 1257.77 468.766
230 0 91.1138 12.2923 1120 104.183 1258.43 468.257
231 0 94.1448 11.4611 1079 103.771 1258.39 463.048
232 0 95.1208 10.8283 1030 106.537 1258.33 462.869
233 0 98.278 10.9689 1078 106.076 1258.7 461.416
234 1 48.0365 10.3671 498 106.884 1258.01 489.588
235 0 52.0949 12.1317 632 100.302 1257.65 487.897
236 0 54.2888 13.4098 728 93.4437 1257.93 487.761
237 0 54.113 13.0468 706 97.2975 1258.39 486.04
238 0 54.2039 11.9918 650 99.9369 1258.57 485.848
239 0 57.1224 11.5191 658 100.796 1258.41 484.427
240 0 58.1321 12.5576 730 99.537 1258.42 485.419
241 0 61.0843 13.0803 799 97.9487 1259.34 482.235
242 0 64.0305 13.884 889 95.604 1259.12 482.638
243 0 65.214 13.4174 875 97.8354 1258.89 480.838
244 0 65.0833 13.2138 860 100.648 1258.77 479.415
245 0 66.109 11.5113 761 104.876 1259.07 480.794
246 0 71.1615 14.0525 1000 98.712 1258.77 478.596
247 0 70.0792 12.3146 863 105.593 1258.49 476.867
248 0 74.1577 12.2172 906 105.974 1258.59 476.12
249 0 76.2117 13.0033 991 105.423 1258.56 473.83
250 0 79.0347 12.3363 975 107.181 1258.34 471.643
251 0 83.1511 13.5536 1127 104.628 1258.62 469.39
252 0 86.0843 13.0802 1126 105.243 1257.67 470.408
253 0 88.1627 12.182 1074 107.526 1256.74 471.151
254 0 92.103 12.5512 1156 111.97 1257.14 467.141
255 1 49.1455 11.2726 554 103.09 1257.89 488.605
256 0 50.0278 13.5325 677 100.121 1257.94 486.914
257 0 52.0652 11.4088 594 110.17 1257.87 488.466
258 0 53.0605 12.4575 661 102.791 1258 486.69
259 0 55.1187 12.6273 696 101.704 1257.89 487.507
260 0 56.0431 13.6145 763 101.041 1257.71 485.987
261 0 58.0601 14.2955 830 99.2819 1257.12 485.058
262 0 59.1396 13.4935 798 101.781 1257.29 482.931
263 0 63.1595 14.2496 900 97.99 1258.01 483.334
264 0 63.1523 13.222 835 102.189 1256.91 481.335
265 0 63.1396 12.7495 805 104.304 1256.93 480.041
266 0 67.1077 12.398 832 104.382 1257.36 480.56
267 0 70.1009 12.8529 901 103.437 1257.6 479.314
268 0 71.118 14.3845 1023 100.563 1258.1 477.72
269 0 74.1785 13.5888 1008 102.43 1257.53 476.514
270 0 78.1101 13.865 1083 102.418 1257.08 475.584
271 0 79.179 13.2737 1051 103.745 1257.59 474.537
272 0 82.0665 13.4159 1101 103.692 1257.76 472.693
273 0 85.1522 14.1746 1207 102.341 1257.68 471.519
274 0 87.0673 12.2893 1070 106.573 1257.94 470.839
275 0 91.1407 13.0128 1186 104.589 1257.47 469.799
276 0 94.1491 12.8307 1208 110.587 1257.98 466.71
277 0 95.1403 13.4223 1277 110.823 1258.39 463.761
278 1 54.0251 11.9389 645 107.546 1258.01 488.093
279 0 55.0491 13.0429 718 106.578 1257.18 485.825
280 0 56.1233 12.6685 711 102.533 1259.26 484.591
281 0 59.0224 13.2492 782 106.137 1257.68 484.247
282 0 60.2424 11.9185 718 110.189 1258.95 484.582
283 0 61.1466 12.7235 778 108.776 1258.13 482.451
284 0 63.1108 12.6761 800 109.151 1258.56 482.668
285 0 65.1421 13.4322 875 107.005 1257.95 480.424
286 0 67.2031 11.7703 791 110.235 1258.11 480.109
287 0 70.1224 12.7777 896 107.464 1257.8 477.487
288 0 72.1314 12.9209 932 106.938 1257.7 477.4
289 0 76.1 13.8502 1054 104.337 1258.44 476.362
290 0 78.1665 11.8849 929 108.919 1258.04 473.987
291 0 79.2056 11.7668 932 109.413 1258.13 472.181
292 0 83.1897 13.2348 1101 106.656 1257.8 470.071
293 0 87.1654 12.5853 1097 107.472 1258.22 469.205
294 0 89.1654 14.2432 1270 103.56 1257.82 467.327
295 1 43.0324 9.85304 424 104.356 1257.77 490.361
296 0 47.0143 10.9328 514 101.191 1257.91 488.949
297 0 48.0115 12.9552 622 93.4711 1257.92 490.931
298 0 51.236 11.9642 613 95.3768 1257.51 488.468
299 0 53.2602 13.8565 738 91.1192 1258.05 488.051
300 0 53.0972 12.0157 638 95.9263 1258.56 485.4
301 0 54.1114 12.5297 678 96.1195 1258.58 485.909
302 0 56.117 11.7968 662 97.1027 1258.22 486.42
303 0 58.0989 13.0123 756 93.8069 1257.25 486.489
304 0 61.2957 13.3125 816 93.0196 1257.64 482.87
305 0 61.2045 13.1526 805 94.7416 1257.83 483.799
306 0 64.277 13.753 884 92.9434 1258.77 480.132
307 0 67.2114 13.7774 926 92.6717 1257.71 480.484
308 0 69.2781 13.0922 907 94.2723 1257.63 478.774
309 0 70.1759 12.8962 905 94.937 1258.18 479.164
310 0 73.3277 14.7557 1082 91.7643 1257.48 475.968
311 0 75.1763 13.2223 994 95.169 1257.86 475.492
312 0 79.2717 13.1951 1046 94.6004 1258.36 473.611
313 0 81.2905 14.0115 1139 93.2063 1258.33 471.116
314 0 84.2143 14.9737 1261 92.4044 1258.47 473.191
315 0 86.242 13.8564 1195 95.8586 1258.3 470.478
316 1 46.1099 11.7762 543 95.1234 1256.25 492.331
317 0 48.1072 11.6822 562 96.8932 1256.58 489.265
318 0 48.1889 11.3512 547 97.9378 1257.5 489.068
319 0 50.1749 10.9218 548 96.9635 1257.66 489.723
320 0 51.0328 12.0119 613 93.2643 1257.17 488.667
321 0 52.0455 13.1423 684 91.9474 1257.26 488.231
322 0 55.0236 12.4674 686 92.5977 1257.64 487.265
323 0 55.0695 11.6035 639 94.8529 1257.63 487.1
324 0 58.0697 12.3472 717 92.3612 1256.81 486.289
325 0 59.1135 13.3472 789 91.5032 1257.44 485.421
326 0 59.1303 12.5993 745 94.2255 1257.39 484.079
327 0 62.0972 13.7687 855 91.3906 1257.65 484.041
328 0 63.0833 13.3474 842 92.614 1257.22 482.729
329 0 65.0407 12.8535 836 94.2117 1257.43 481.804
330 0 67.0436 13.2451 888 93.5518 1257.22 479.958
331 0 68.0892 11.3528 773 97.9845 1257.11 479.873
332 0 73.0799 14.2036 1038 91.8401 1257.94 479.458
333 0 72.1128 11.1769 806 98.9615 1257.57 475.536
334 0 76.0726 13.4871 1026 94.7544 1257.97 476.71
335 0 76.0803 12.0399 916 98.1845 1258.15 475.267
336 0 81.1207 13.4121 1088 95.4384 1257.28 473.756
337 0 82.0675 12.4775 1024 97.8076 1257.97 473.851
338 0 86.0835 13.2081 1137 96.4952 1258.1 470.944
339 1 45.143 10.8765 491 100.061 1257.21 490.845
340 0 45.0476 10.9884 495 98.7071 1256.9 491.428
341 0 47.1037 12.2283 576 96.3524 1257.79 490.977
342 0 48.0915 12.0604 580 97.4741 1257.82 488.96
343 0 52.068 12.1188 631 96.0475 1257.72 489.388
344 0 53.0433 12.7066 674 95.3279 1258.09 488.852
345 0 53.0706 12.5682 667 96.7571 1258.25 487.184
346 0 57.1176 12.378 707 96.338 1258.14 486.823
347 0 60.0487 13.8554 832 93.1142 1258.71 485.019
348 0 60.0508 12.3562 742 96.872 1258.15 485.135
349 0 60.0615 12.9034 775 96.9239 1259.1 483.915
350 0 64.2003 13.0685 839 96.1478 1259.17 482.007
351 0 66.1333 14.0776 931 94.1966 1259.1 481.512
352 0 68.1123 12.6996 865 97.5422 1258.88 480.676
353 0 72.0612 12.6559 912 97.5504 1258.86 480.591
354 0 73.0548 13.3325 974 96.1355 1259.75 479.592
355 0 76.0738 12.7376 969 97.3075 1259.67 478.811
356 0 78.0837 12.1152 946 99.593 1259.39 476.383
357 0 83.0987 13.7908 1146 96.0593 1258.6 475.44
358 1 46.0618 12.9174 595 96.9412 1258.09 493.071
359 0 49.1586 11.3713 559 99.7871 1261.61 489.891
360 0 48.2804 13.0281 629 100.545 1258.47 489.722
361 0 48.3009 12.3807 598 102.082 1258.68 490.946
362 0 51.228 13.3911 686 100.988 1258.83 489.242
363 0 53.1926 12.4077 660 103.298 1259.02 489.138
364 0 53.1845 13.1429 699 103.381 1258.71 487.827
365 0 56.2052 13.2728 746 102.079 1258.37 486.517
366 0 57.1356 13.1967 754 103.17 1258.45 484.381
367 0 58.2657 12.4602 726 104.339 1259.23 486.647
368 0 61.1095 14.024 857 101.751 1259.34 483.827
369 0 63.067 14.0327 885 101.654 1258.78 482.698
370 0 64.0581 14.0029 897 103.718 1258.72 481.014
371 0 67.1174 14.2884 959 102.246 1259.57 482.018
372 0 70.1012 15.606 1094 98.9031 1259.28 479.869
373 0 73.1167 13.8546 1013 103.156 1258.64 479.438
374 0 74.0537 15.3267 1135 101.219 1258.42 476.597
375 0 77.1254 14.2884 1102 104.214 1258.6 476.799
376 0 77.2285 14.0233 1083 106.478 1258.5 475.901
377 0 81.2025 13.8789 1127 106.539 1259.08 474.95
378 0 86.1576 16.4002 1413 100.426 1258.46 472.406
379 0 88.2042 14.1036 1244 106.289 1258.22 469.642
380 0 91.2087 13.639 1244 107.936 1258.77 465.9
381 0 95.306 15.6863 1495 102.367 1258.6 465.381
382 1 52.1086 11.3033 589 111.767 1258.71 487.175
383 0 55.0255 12.7032 699 108.305 1258.19 486.973
384 0 56.0584 12.2551 687 109.722 1258.24 487.192
385 0 56.1095 12.03 675 112.067 1257.96 484.705
386 0 59.0279 13.824 816 108.384 1258.2 485.036
387 0 59.0372 11.298 667 114.016 1258.44 483.721
388 0 63.0142 11.5371 727 112.315 1258.69 484.246
389 0 65.041 12.6382 822 110.899 1258.11 480.928
390 0 67.1359 11.9608 803 113.812 1257.94 478.973
391 0 70.1291 14.2594 1000 108.421 1258.69 478.38
392 0 74.1515 14.5513 1079 108.503 1259.53 478.078
393 0 76.1233 13.4913 1027 111.687 1259.12 476.694
394 0 78.1158 13.9408 1089 110.919 1259.6 475.089
395 0 81.1401 13.8279 1122 111.436 1258.92 474.276
396 0 82.0577 13.1005 1075 109.739 1258.54 475.662
397 0 86.1412 14.3137 1233 107.478 1258.66 472.496
398 0 89.0639 13.5521 1207 109.466 1259.35 471.729
399 0 93.1276 14.507 1351 106.456 1258.7 469.889
400 0 94.1882 11.8698 1118 113.547 1258.96 465.905
401 0 98.1378 12.7372 1250 110.542 1258.25 467.583
402 1 50.0581 11.0072 551 108.221 1258.31 491.933
403 0 53.0263 13.5027 716 99.838 1258.21 489.356
404 0 53.0768 14.6203 776 97.6366 1259.28 489.42
405 0 53.0567 13.0615 693 101.287 1258.37 489.176
406 0 57.0227 13.2579 756 100.044 1258.76 487.078
407 0 56.0768 12.0727 677 104.202 1259.23 487.422
408 0 59.0903 12.354 730 103.389 1259.57 485.619
409 0 61.0676 13.7061 837 99.2246 1259.25 485.271
410 0 63.2166 13.5249 855 100.406 1259.53 483.246
411 0 66.0688 13.7887 911 99.6498 1260 482.73
412 0 68.1 13.6417 929 100.55 1259.28 482.534
413 0 69.0642 13.7988 953 101.119 1259.69 479.062
414 0 71.1068 13.4446 956 102.226 1258.99 477.73
415 0 73.1298 13.4418 983 103.757 1259.34 478.258
416 0 75.2587 13.9917 1053 103.428 1259.43 476.639
417 0 75.1925 13.2859 999 105.364 1259.16 476.4
418 0 80.1264 13.9529 1118 103.038 1258.85 473.024
419 0 84.1594 15.5538 1309 100.026 1259.62 472.704
420 0 85.217 14.0348 1196 102.594 1258.99 473.538
421 0 88.0995 13.7118 1208 104.977 1258.86 469.928
422 0 91.1685 14.7529 1345 103.112 1259.56 468.167
423 0 93.2627 14.175 1322 104.29 1259.98 467.856
424 0 98.2311 14.8324 1457 102.718 1259.49 468.595
425 0 100.287 13.7406 1378 105.372 1259 468.133
426 1 51.0892 12.0965 618 109.267 1259.79 487.165
427 0 51.0724 11.5131 588 102.207 1260.81 489.961
428 0 54.1092 13.4358 727 98.5378 1258.94 488.777
429 0 55.1268 13.1334 724 98.663 1259.25 488.285
430 0 56.0851 12.588 706 100.214 1259.44 488.902
431 0 60.0677 13.8677 833 97.1453 1259.57 487.164
432 0 61.1122 13.2379 809 98.5661 1259.75 486.241
433 0 63.0211 12.5355 790 100.087 1259.76 486.667
434 0 66.0933 14.2677 943 96.5398 1259.08 484.176
435 0 65.0917 13.504 879 100.437 1258.54 484.397
436 0 68.1685 12.9239 881 102.066 1260.13 485.862
437 0 71.1352 12.7222 905 102.809 1260.53 482.451
438 0 72.0826 12.9019 930 103.298 1260.38 479.063
439 0 76.2726 13.6615 1042 102.286 1259.77 478.221
440 0 79.1 13.4134 1061 103.372 1260.36 478.114
441 0 80.2219 13.3879 1074 104.047 1259.93 476.48
442 0 83.1549 13.7815 1146 103.129 1260 475.514
443 0 87.1392 13.6793 1192 102.779 1259.56 475.523
444 0 88.2683 13.1757 1163 105.982 1259.45 471.84
445 0 92.1906 13.9711 1288 103.83 1260.38 469.854
446 1 47.0458 12.4347 585 104.451 1260.96 492.598
447 0 47.0947 11.6786 550 105.48 1260.24 493.44
448 0 51.14 12.7102 650 102.288 1260.42 491.231
449 0 51.1736 12.7996 655 101.229 1259.76 490.218
450 0 53.0827 13.3377 708 100.209 1259.17 489.685
451 0 54.0991 12.5695 680 101.268 1259.47 489.379
452 0 55.0787 13.5987 749 99.6315 1259.96 487.681
453 0 57.07 12.0028 685 102.27 1259.6 486.815
454 0 58.0713 11.6581 677 103.708 1259.4 486.056
455 0 61.1772 13.8614 848 99.204 1260.27 484.08
456 0 62.0737 13.9028 863 98.6802 1259.18 486.189
457 0 64.1216 12.6946 814 101.021 1260.02 483.536
458 0 66.113 12.9022 853 102.226 1259.37 482.552
459 0 68.1087 13.1701 897 102.553 1259.66 481.526
460 0 70.0925 12.6119 884 104.189 1259.89 479.917
461 0 75.1872 13.5262 1017 101.232 1260.2 479.605
462 0 78.1582 12.9993 1016 103.696 1259.43 476.841
463 0 79.0573 12.5858 995 106.028 1260.45 475.212
464 0 83.0805 14.0827 1170 102.737 1260.42 473.787
465 0 85.1782 12.3741 1054 106.238 1260.47 475.898
466 1 44.072 10.5736 466 108.41 1259.18 494.826
467 0 45.0169 12.5508 565 105.2 1259.74 492.464
468 0 47.0646 12.111 570 104.691 1259.65 491.4
469 0 49.0847 13.2017 648 113.779 1258.98 491.799
470 0 50.0197 14.5143 726 112.515 1258.87 489.223
471 0 52.1057 13.7221 715 113.81 1259 489.888
472 0 52.044 13.1811 686 116.332 1259.45 488.851
473 0 54.0725 13.2415 716 116.253 1258.87 488.453
474 0 56.0236 14.2083 796 114.206 1258.96 488.275
475 0 60.1286 14.0532 845 113.531 1259.06 487.418
476 0 60.0483 13.9721 839 115.865 1259.64 484.33
477 0 63.1862 13.9113 879 114.537 1258.77 484.454
478 0 63.1234 13.7033 865 116.55 1259.27 483.377
479 0 67.0905 13.8619 930 114.562 1259.6 482.013
480 0 68.0617 12.7384 867 116.502 1258.93 481.76
481 0 73.0965 15.1854 1110 107.895 1258.16 481.071
482 0 73.2224 12.4279 910 108.755 1260.63 481.18
483 0 75.1117 12.6345 949 109.203 1260.25 479.821
484 0 78.2243 12.1318 949 110.229 1260.53 477.785
485 0 81.1416 13.7044 1112 106.392 1260.77 476.907
486 0 86.207 13.5024 1164 106.555 1260.59 474.208
487 1 41.0347 11.6974 480 110.308 1261.58 494.348
488 0 45.038 12.2785 553 106.409 1261.55 494.844
489 0 45.0558 12.9617 584 107.841 1260.39 493.731
490 0 47.116 11.6945 551 110.661 1259.52 492.309
491 0 48.0228 12.265 589 108.998 1259.37 491.182
492 0 48.0764 12.3969 596 108.391 1259.65 490.913
493 0 51.1071 12.5618 642 108.324 1259.35 489.709
494 0 54.0395 14.1563 765 103.604 1258.74 490.085
495 0 54.0258 14.0118 757 105.205 1258.81 489.613
496 0 55.0552 13.5319 745 106.161 1259.43 489.528
497 0 60.0757 13.716 824 104.005 1259.83 487.284
498 0 60.0631 13.6357 819 105.961 1259.68 486.872
499 0 63.0314 13.4377 847 105.486 1259.59 486.074
500 0 65.0509 13.8814 903 107.33 1260.22 486.264
501 0 66.1193 12.1901 806 111.734 1260.98 482.45
502 0 69.088 12.9835 897 110.47 1260.33 481.109
503 0 68.0708 12.1785 829 114.337 1261.47 479.952
504 0 72.1411 11.5607 834 115.044 1260.77 478.867
505 0 75.1117 13.9792 1050 110.049 1260.75 476.768
506 0 77.0771 12.3772 954 114.505 1261.18 475.94
507 0 80.1363 13.1776 1056 112.461 1261.17 476.58
508 0 84.1097 12.02 1011 116.903 1261.4 475.176
509 0 88.1799 12.1796 1074 116.073 1261.94 474.122
510 0 90.1069 12.6849 1143 115.836 1260.65 471.542
511 0 93.1932 13.413 1250 115.48 1260.48 470.327
512 0 96.1945 13.5143 1300 116.078 1260.27 468.665
513 0 101.26 11.347 1149 120.273 1260.11 468.287
514 1 52.0429 11.8172 615 118.491 1259.35 490.969
515 0 54.1473 12.8169 694 116.707 1259.26 487.261
516 0 56.1116 12.7959 718 115.731 1259.23 485.976
517 0 58.1075 12.9415 752 114.541 1258.85 485.935
518 0 60.1039 14.0756 846 109.369 1259.62 485.579
519 0 62.1023 12.8337 797 112.294 1259.77 484.785
520 0 66.2661 11.6651 773 113.589 1259.43 483.427
521 0 67.242 14.2173 956 108.319 1258.62 481.729
522 0 68.1469 13.603 927 109.647 1259.25 479.287
523 0 71.201 13.6094 969 109.641 1258.8 479.037
524 0 73.1376 13.1806 964 110.524 1259.31 478.015
525 0 75.1767 13.1291 987 111.415 1259.98 476.875
526 0 77.2482 14.3952 1112 109.751 1259.2 474.283
527 0 80.2088 12.7043 1019 113.196 1259.39 475.277
528 0 82.2335 13.4373 1105 112.466 1259.61 472.546
529 0 84.1823 12.4492 1048 114.827 1259.58 472.632
530 0 87.2059 13.7491 1199 112.047 1259.44 470.646
531 0 88.236 13.2712 1171 114.079 1260.02 468.318
532 0 94.214 12.6839 1195 114.091 1259.17 467.48
533 0 97.2212 13.5464 1317 119.145 1259.43 466.983
534 0 99.1524 12.5363 1243 120.033 1259.79 467.094
535 0 105.232 13.4465 1415 115.83 1259.07 463.76
536 0 108.256 13.6621 1479 114.917 1259.14 463.913
537 0 112.15 14.2132 1594 116.413 1259.82 457.922
538 0 116.161 14.5143 1686 116.207 1259.28 455.972
539 1 57.0664 13.4931 770 112.739 1258.59 485.73
540 0 59.1066 13.2642 784 109.912 1259.96 485.607
541 0 60.1226 12.6408 760 112.734 1259.38 485.18
542 0 62.262 12.6241 786 112.878 1259.67 483.618
543 0 66.259 13.0247 863 111.671 1259.79 482.272
544 0 66.262 13.5221 896 113.474 1259.81 479.817
545 0 70.3378 13.6058 957 111.497 1259.64 480.89
546 0 69.3941 13.272 921 114.016 1259.58 479.682
547 0 74.1939 15.4999 1150 107.583 1260.01 478.935
548 0 74.2323 14.1987 1054 112.042 1260.49 478.751
549 0 76.318 14.1513 1080 112.158 1260.69 475.539
550 0 79.3615 14.4151 1144 111.579 1260.98 475.707
551 0 80.5158 14.2208 1145 112.412 1260.89 473.303
552 0 82.4097 13.4814 1111 112.505 1260.83 476.365
553 0 83.3101 12.8676 1072 114.938 1259.98 471.289
554 0 88.2101 14.3181 1263 110.493 1260.36 470.139
555 0 91.3164 14.7838 1350 108.426 1260.1 468.662
556 0 93.3072 13.2894 1240 112.877 1259.7 469.637
557 0 95.2328 14.2283 1355 111.21 1259.81 466.798
558 0 99.3054 14.541 1444 109.562 1259.55 464.857
559 0 104.236 14.5248 1514 109.328 1260.21 463.88
560 0 106.309 14.2415 1514 109.828 1259.58 461.441
561 0 111.236 14.5367 1617 103.915 1259.85 459.764
562 0 112.148 12.7599 1431 106.24 1259.37 457.055
563 1 56.1511 11.5581 649 102.35 1259.66 487.744
564 0 59.1657 11.8312 700 103.366 1260.31 486.081
565 0 60.0938 11.8481 712 102.622 1260.18 486.677
566 0 61.068 12.396 757 103.822 1259.61 481.908
567 0 65.1008 13.625 887 101.793 1259.69 481.609
568 0 68.0788 14.3216 975 100.896 1259.66 480.712
569 0 71.0574 14.0168 996 101.908 1259.77 477.155
570 0 72.1801 12.732 919 105.584 1259.55 478.435
571 0 75.1232 13.6576 1026 104.198 1259.92 476.642
572 0 78.181 13.0339 1019 111.345 1259.97 476.633
573 0 81.1795 14.7574 1198 110.304 1259.95 470.82
574 0 84.2804 13.4076 1130 111.954 1259.73 473.666
575 0 87.0852 13.6189 1186 111.137 1259.62 470.841
576 0 89.2305 12.5293 1118 112.345 1259.02 471.626
577 0 91.3072 13.5148 1234 109.295 1260.05 469.343
578 0 91.1292 11.5879 1056 108.559 1259.88 467.776
579 0 98.0926 12.9673 1272 106.807 1258.95 465.489
580 0 99.1097 12.6022 1249 107.942 1258.9 465.331
581 0 104.122 12.3413 1285 107.685 1259.29 465.433
582 0 108.135 11.9295 1290 109.438 1259.28 461.642
583 0 111.279 11.7542 1308 110.996 1259.2 459.842
584 0 116.119 12.8402 1491 109.122 1259.83 457.531
585 1 63.044 13.0544 823 103.416 1259.64 484.409
586 0 65.2387 13.213 862 104.182 1259.85 481.259
587 0 66.0688 11.7605 777 104.529 1260.14 480.987
588 0 68.0796 12.5588 855 103.36 1260.51 480.981
589 0 72.1302 12.519 903 104.506 1260.64 478.111
590 0 73.0989 12.7909 935 105.439 1261 475.589
591 0 75.1106 12.3817 930 106.32 1261.56 476.163
592 0 80.0532 12.6291 1011 105.451 1261.06 475.018
593 0 81.0647 12.3605 1002 107.834 1261.11 474.052
594 0 83.1261 13.2209 1099 106.98 1260.58 471.253
595 0 88.2001 12.9365 1141 105.917 1261.19 473.256
596 0 89.1198 13.8465 1234 105.984 1260.54 469.375
597 0 94.1808 13.3467 1257 106.783 1260.6 466.543
598 0 96.1316 13.0862 1258 107.781 1260.16 465.214
599 0 99.162 14.1082 1399 106.771 1260.39 465.132
600 0 102.481 13.1537 1348 109.599 1260.03 463.979
601 0 106.318 13.4408 1429 108.983 1260.26 463.38
602 0 108.308 12.7784 1384 110.874 1260 462.006
603 0 114.335 14.4487 1652 107.01 1259.98 458.284
604 0 116.082 13.344 1549 110.948 1259.87 456.121
605 0 122.096 13.8088 1686 109.517 1259.83 453.17
606 0 128.144 13.9296 1785 109.854 1260.03 451.182
607 1 69.2686 11.3471 786 110.062 1258.83 479.411
608 0 73.2792 11.6131 851 108.482 1260.4 480.439
609 0 75.1792 12.3305 927 108.428 1261.15 479.282
610 0 77.2864 12.9001 997 108.407 1260.63 475.55
611 0 80.1248 12.3183 987 109.977 1260.06 474.744
612 0 84.1131 12.7923 1076 109.047 1260.6 473.094
613 0 86.1899 12.2056 1052 112.122 1260.47 474.116
614 0 90.2211 11.6492 1051 113.678 1259.96 471.631
615 0 92.2637 13.2772 1225 111.05 1260.04 468.663
616 0 94.1094 11.6992 1101 115.993 1259.79 466.95
617 0 95.2093 12.0471 1147 117.173 1259.52 465.656
618 0 103.472 12.4865 1292 114.961 1258.61 465.481
619 0 104.465 12.7794 1335 116.971 1259.45 461.685
620 0 108.643 13.2452 1439 115.473 1259.69 460.912
621 0 110.576 13.0137 1439 116.628 1259.58 460.043
622 0 114.389 12.204 1396 118.977 1259.64 458.082
623 0 120.467 13.4974 1626 116.394 1260.01 454.542
624 0 124.551 13.1432 1637 117.116 1259.24 453.609
625 1 71.428 11.0321 788 114.202 1259.07 481.793
626 0 72.4297 12.0393 872 119.161 1258.9 478.255
627 0 75.1635 14.2889 1074 110.525 1259.03 477.484
628 0 79.1358 12.864 1018 118.557 1259.06 477.044
629 0 80.2286 12.1154 972 121.032 1260.88 475.745
630 0 85.2138 13.3194 1135 116.808 1260.05 473.449
631 0 87.2371 13.3086 1161 118.313 1260.59 471.61
632 0 90.2141 12.6588 1142 120.35 1260.21 469.139
633 0 92.2892 12.1249 1119 122.741 1260.08 469.499
634 0 95.3424 12.6596 1207 120.403 1259.84 467.948
635 0 98.3326 12.1221 1192 122.702 1259.07 461.686
636 0 104.364 11.824 1234 117.522 1258.59 461.907
637 0 103.345 11.8245 1222 126.087 1257.61 461.845
638 0 111.33 11.0213 1227 116.276 1260.26 460.062
639 0 115.271 11.3125 1304 111.272 1260.33 458.676
640 1 59.2634 8.99374 533 101.09 1258.7 480.086
641 0 62.2716 10.5024 654 97.6728 1259.34 478.613
642 0 65.0969 10.6457 693 101.544 1257.9 482.582
643 0 66.1228 11.5391 763 101.28 1258.79 482.367
644 0 68.16 10.8421 739 101.938 1258.58 482.793
645 0 71.0837 12.844 913 98.6101 1258.96 478.235
646 0 72.1724 11.431 825 102.227 1259.11 479.486
647 0 75.125 12.4459 935 101.879 1259.8 477.022
648 0 78.0993 11.8183 923 103.932 1259.29 475.249
649 0 79.2021 10.7699 853 107.219 1259.02 475.14
650 0 85.1404 12.2621 1044 104.561 1258.78 472.128
651 0 85.1267 10.3845 884 110.957 1259.08 470.691
652 0 92.3202 11.98 1106 107.313 1258.96 470.636
653 1 47.1482 11.5169 543 107.495 1257.6 491.864
654 0 47.1177 9.61421 453 111.863 1258.27 493.927
655 0 50.1306 10.4527 524 111.315 1258.43 490.771
656 0 52.1016 11.9958 625 107.898 1258.52 490.755
657 0 53.0689 12.4932 663 106.394 1258.57 489.566
658 0 55.0495 13.8602 763 103.637 1257.87 487.067
659 0 56.0369 13.3484 748 104.283 1257.91 488.469
660 0 58.0488 13.4714 782 104.394 1257.93 486.395
661 0 60.2215 13.2345 797 104.71 1258.31 486.077
662 0 62.0732 13.2263 821 104.849 1257.45 485.823
663 0 63.1148 12.1366 766 107.142 1258.19 485.115
664 0 66.0489 12.1122 800 106.281 1258.27 480.771
665 0 68.1186 13.3003 906 102.568 1257.84 484.26
666 0 71.263 13.8782 989 101.368 1258.31 481.875
667 0 71.2479 12.8706 917 102.723 1258.8 480.032
668 0 73.2564 12.1901 893 98.5946 1259.37 475.318
669 0 75.3571 12.3147 928 98.6013 1259.86 473.601
670 0 77.4618 12.6127 977 98.7779 1260.06 472.55
671 0 80.5165 12.7676 1028 98.7461 1259.14 472.008
672 0 81.4146 11.2265 914 102.562 1258.86 470.819
673 0 84.3705 12.1844 1028 103.16 1260.04 469.219
674 0 87.2936 12.2689 1071 102.04 1258.73 470.766
675 0 91.498 12.973 1187 101.069 1258.87 465.393
676 0 95.1584 13.0834 1245 102.568 1258.31 465.762
677 1 49.1732 11.5103 566 103.018 1257.54 492.332
678 0 51.2803 13.592 697 100.717 1257.85 491.943
679 0 52.5639 13.203 694 104.37 1258.93 489.151
680 0 53.4494 12.8159 685 105.799 1258.41 488.604
681 0 56.157 13.1773 740 101.793 1257.11 490.089
682 0 57.1767 13.3971 766 102.106 1258.05 488.155
683 0 59.1848 12.7904 757 103.538 1257.76 487.781
684 0 61.1706 15.0072 918 98.5261 1258.48 486.443
685 0 64.1133 13.8193 886 100.981 1258.7 486.269
686 0 64.096 13.9946 897 103.042 1258.75 483.693
687 0 66.1082 13.9922 925 103.532 1259.04 482.636
688 0 67.1634 13.5193 908 105.345 1258.84 483.018
689 0 72.0976 14.3555 1035 102.307 1258.18 481.254
690 0 74.1409 14.5938 1082 103.128 1258.17 481.333
691 0 77.084 14.3869 1109 102.867 1258.29 479.731
692 0 79.164 15.0574 1192 102.037 1258.87 477.833
693 0 82.1081 14.8097 1216 102.956 1258.54 475.326
694 0 85.1359 14.283 1216 103.699 1257.75 476.703
695 0 86.2685 12.3336 1064 110.478 1257.99 473.987
696 0 90.2196 14.2208 1283 106.385 1257.95 470.61
697 1 49.1422 12.4944 614 107.627 1258.08 493.782
698 0 51.2506 13.3462 684 105.74 1258.38 492.33
699 0 50.108 11.8544 594 107.288 1258.83 488.815
700 0 52.0729 12.0408 627 105.697 1260.39 485.868
701 0 52.0282 12.0127 625 106.954 1260.81 486.034
702 0 53.0958 11.8653 630 107.876 1260.12 484.054
703 0 54.0752 12.1682 658 107.044 1260.5 482.474
704 0 56.0796 11.8046 662 107.699 1260.41 482.612
705 0 58.068 12.9676 753 105.729 1259.72 480.801
706 0 58.0208 12.237 710 106.814 1260.54 481.699
707 0 61.1321 13.0046 795 106.243 1260.06 479.122
708 0 63.1127 13.0243 822 98.4599 1259.94 479.276
709 0 66.1417 11.5207 762 100.234 1259.68 478.234
710 0 67.1191 11.3381 761 101.967 1260.1 476.054
711 0 70.0785 12.1293 850 101.479 1259.11 475.336
712 0 73.0335 12.46 910 100.181 1259.41 476.036
713 0 75.1441 11.458 861 102.991 1259.31 473.627
714 0 76.0869 12.2754 934 101.489 1259.59 473.267
715 0 81.1593 12.6541 1027 100.684 1259.23 469.605
716 0 81.0772 11.8282 959 102.658 1259.49 469.175
717 0 86.127 12.9228 1113 100.827 1260.15 466.489
718 1 47.0839 10.0884 475 100.387 1259.36 491.147
719 0 48.0867 12.5398 603 106.741 1258.41 490.446
720 0 51.0632 13.1602 672 106.9 1258.88 490.591
721 0 50.0675 12.6629 634 106.112 1259.2 489.03
722 0 52.1292 12.3347 643 106.112 1258.97 487.577
723 0 55.0659 12.6394 696 103.859 1258.5 488.22
724 0 57.085 12.9982 742 103.05 1258.53 487.72
725 0 59.185 12.9594 767 103.794 1258.67 483.827
726 0 58.1676 13.3923 779 105.049 1258.44 485.448
727 0 63.1277 12.641 798 104.462 1258.7 483.538
728 0 66.156 14.5867 965 100.206 1258.97 482.098
729 0 68.1573 13.2194 901 103.957 1258.18 481.099
730 0 69.0797 13.7088 947 102.646 1258.25 480.136
731 0 71.0836 13.0832 930 103.705 1258.8 478.483
732 0 74.0663 13.1369 973 103.984 1259.15 479.374
733 0 76.2258 14.3127 1091 100.588 1258.4 478.03
734 0 79.138 13.0405 1032 104.048 1258.28 474.844
735 0 80.0912 11.7241 939 109.334 1258.03 475.012
736 0 83.2188 12.8577 1070 108.093 1258.26 472.704
737 1 45.1488 13.9539 630 102.683 1257.37 493.083
738 0 44.0695 11.5046 507 109.12 1256.86 492.207
739 0 48.0525 12.8193 616 107.096 1257.1 491.633
740 0 48.1039 12.764 614 107.627 1257.29 490.588
741 0 49.0988 12.3425 606 108.399 1257.56 490.224
742 0 49.0891 11.5301 566 110.799 1257.55 489.753
743 0 53.0535 13.0811 694 106.222 1257.95 489.238
744 0 54.0962 11.8308 640 108.683 1258.02 489.216
745 0 55.035 12.1559 669 108.849 1257.91 487.806
746 0 56.0626 11.9509 670 110.285 1257.64 486.634
747 0 60.0811 13.1489 790 107.194 1258.1 486.344
748 0 59.0596 11.2937 667 113.193 1257.61 485.108
749 0 61.1512 12.9188 790 109.044 1258.09 484.313
750 0 65.1156 13.9752 910 105.4 1258.06 482.467
751 0 68.1127 14.3292 976 104.68 1257.97 480.796
752 0 70.1698 13.1111 920 107.772 1258.81 480.117
753 0 71.2361 13.729 978 107.672 1258.87 479.645
754 0 73.1435 13.8222 1011 107.034 1258.16 480.726
755 0 76.1888 13.3484 1017 109.046 1258.46 476.198
756 0 79.291 13.4568 1067 109.251 1258.25 476.324
757 0 82.2213 14.6677 1206 106.55 1259.05 472.68
758 1 43.1071 12.5269 540 107.178 1259.74 495.106
759 0 44.4411 12.3084 547 106.101 1258.61 495.358
760 0 45.2625 14.1397 640 105.717 1258.64 491.714
761 0 47.1829 14.2636 673 105.468 1258.31 491.312
762 0 46.2945 13.6517 632 109.497 1258.26 490.165
763 0 50.3137 13.9723 703 107.22 1258.3 490.674
764 0 49.1817 12.3013 605 113.15 1258.93 489.152
765 0 52.2972 13.8057 722 107.767 1258.22 490.003
766 0 53.1981 13.5719 722 109.776 1258.86 488.434
767 0 53.2534 12.9569 690 112.867 1258.66 487.129
768 0 56.2369 12.7496 717 112.883 1259.08 485.844
769 0 58.2984 12.5218 730 113.059 1258.49 485.511
770 0 60.1982 12.4422 749 112.857 1258.81 484.716
771 0 60.2886 13.1534 793 113.301 1259.43 482.013
772 0 64.1945 13.2098 848 111.458 1258.41 484.511
773 0 65.1751 13.0878 853 112.789 1258.59 481.673
774 0 67.1493 14.1625 951 110.037 1258.8 480.667
775 0 69.2103 13.2928 920 112.075 1258.67 479.56
776 0 72.2613 13.9632 1009 108.94 1258.86 480.651
777 0 74.1007 13.0228 965 112.147 1258.73 477.968
778 0 77.2011 13.1216 1013 111.674 1259.8 477.526
779 0 77.1191 13.1226 1012 113.118 1259.18 474.291
780 0 82.068 13.964 1146 109.805 1259.36 474.494
781 0 83.0895 11.9991 997 113.845 1258.99 475.387
782 0 86.1369 12.84 1106 112.873 1258.56 470.562
783 1 47.059 11.7087 551 108.966 1258.52 492.267
784 0 48.0498 11.9459 574 105.228 1258.76 491.08
785 0 49.0236 11.5863 568 111.09 1258.63 489.113
786 0 52.1658 13.5338 706 105.482 1259.73 488.754
787 0 54.183 14.0634 762 104.304 1259.38 488.801
788 0 56.1735 12.5148 703 107.367 1259.24 487.755
789 0 54.1259 12.3046 666 109.492 1259.42 485.538
790 0 58.2306 13.1031 763 105.497 1259.52 486.742
791 0 59.1281 12.5152 740 106.908 1258.9 487.474
792 0 62.1281 11.428 710 108.907 1258.89 485.732
793 0 64.1087 12.4476 798 105.909 1259.43 483.401
794 0 67.1367 13.7034 920 102.884 1259.14 481.513
795 0 67.0722 13.0605 876 104.631 1258.39 482.986
796 0 70.1816 11.9404 838 106.148 1258.75 481.064
797 0 74.191 12.7643 947 104.963 1258.89 478.609
798 0 75.1221 13.0721 982 105.24 1258.15 476.325
799 0 79.1043 11.6049 918 107.313 1258.85 475.986
800 1 39.0155 10.97 428 106.582 1258.17 494.136
801 0 41.087 10.7577 442 105.76 1258.12 494.695
802 0 44.1809 11.9961 530 103.142 1258.28 493.702
803 0 43.1788 11.5798 500 105.106 1258.4 492.556
804 0 46.0185 12.1907 561 102.85 1257.85 493.952
805 0 44.1534 11.4827 507 108.588 1258.85 490.345
806 0 49.1899 12.035 592 105.074 1258.18 490.853
807 0 49.1679 10.8811 535 109.228 1259.2 490.88
808 0 51.2064 13.4944 691 103.753 1258.7 488.388
809 0 52.3509 12.7218 666 105.128 1258.69 489.649
810 0 52.1957 13.2195 690 106.483 1259.41 486.161
811 0 56.1666 13.3709 751 105.17 1258.96 486.252
812 0 57.2467 12.8566 736 107.083 1258.65 485.217
813 0 57.2506 12.8558 736 126.379 1258.68 485.151
814 0 60.1313 13.3708 804 107.219 1259.02 483.149
815 0 63.2217 12.733 805 107.198 1259.08 482.388
816 0 68.1615 13.0279 888 105.931 1258.86 481.66
817 0 68.1639 13.849 944 105.34 1258.46 481.571
818 0 71.1737 13.9658 994 106.389 1258.47 479.246
819 0 73.1883 13.5131 989 107.209 1258.57 478.329
820 0 75.1235 14.19 1066 107.318 1259.12 476.728
821 0 76.1696 13.0236 992 110.136 1259.35 474.603
822 0 79.1926 13.3472 1057 108.443 1259.31 476.902
823 0 80.2413 13.1977 1059 109.432 1258.68 474.385
824 0 83.3015 12.3047 1025 109.757 1259.37 474.064
825 0 87.3829 13.4008 1171 108.477 1259.05 469.158
826 0 89.475 11.3104 1012 113.476 1259.21 470.506
827 0 92.2261 13.0657 1205 108.454 1259.57 465.447
828 0 93.2143 10.3418 964 112.225 1259.97 462.852
829 1 51.107 11.3683 581 104.561 1259.44 481.988
830 0 52.2052 10.7077 559 107.324 1259.71 479.281
831 0 57.0668 12.757 728 94.4959 1259.53 482.934
832 0 58.0582 12.2463 711 95.7567 1259.19 482.859
833 0 58.0493 10.1982 592 101.787 1259.73 479.985
834 0 62.1208 10.6406 661 101.139 1259.29 478.057
835 0 65.1159 11.6869 761 99.1892 1258.53 475.08
836 0 68.1245 11.5524 787 101.377 1258.77 477.048
837 0 68.1577 11.5468 787 103.189 1258.63 471.931
838 0 72.046 11.5621 833 102.94 1259.32 474.58
839 0 75.1992 10.3458 778 104.618 1258.87 473.15
840 0 79.0999 11.0367 873 102.151 1258.89 472.663
841 0 83.243 13.6468 1136 97.7254 1259.24 470.338
842 0 86.2361 12.7325 1098 100.088 1259.48 470.133
843 1 41.0704 9.95851 409 96.1174 1258.39 491.166
844 0 43.2536 10.8893 471 92.6454 1258.75 491.919
845 0 45.1686 12.2873 555 98.6865 1258.29 494.281
846 0 47.1027 11.8252 557 99.9408 1258.94 493.485
847 0 48.1773 11.7067 564 100.376 1258.94 492.028
848 0 48.0825 11.3555 546 102.74 1258.07 491.996
849 0 51.1757 12.2324 626 99.7157 1258.86 490.49
850 0 53.1333 12.9674 689 98.5675 1257.4 490.54
851 0 53.0637 13.3236 707 99.8868 1258.42 488.245
852 0 56.0283 13.4575 754 99.5623 1258.23 488.359
853 0 57.0751 12.65 722 102.614 1258.33 488.742
854 0 60.0681 12.8687 773 101.304 1258.77 488.079
855 0 59.0462 12.5834 743 103.478 1258.05 485.914
856 0 64.1288 13.7848 884 99.681 1257.31 484.104
857 0 61.0718 13.5414 827 102.646 1258.33 483.149
858 0 64.1342 13.1911 846 103.18 1258.46 482.203
859 0 69.0791 14.4038 995 99.4141 1257.75 482.011
860 0 70.1484 12.1029 849 106.269 1258.06 479.529
861 0 72.175 12.7052 917 106.311 1258.68 477.809
862 0 76.0768 13.6572 1039 103.6 1258.24 479.682
863 0 79.0997 14.349 1135 102.451 1257.74 476.753
864 0 81.1503 13.2717 1077 105.884 1257.85 475.157
865 0 83.1264 13.6539 1135 105.174 1258.25 474.047
866 0 86.1454 13.6629 1177 105.816 1258.53 470.969
867 1 46.0445 11.8581 546 110.062 1257.92 491.599
868 0 49.0499 12.7421 625 107.741 1258.05 491.974
869 0 52.0567 14.3689 748 103.249 1257.45 490.671
870 0 52.0564 13.4662 701 104.96 1258.54 490.258
871 0 52.104 12.475 650 106.214 1259.7 490.168
872 0 55.0422 14.6978 809 101.958 1258.97 487.487
873 0 56.1365 13.6988 769 104.174 1258.43 486.824
874 0 59.0339 12.9417 764 105.97 1259.09 486.656
875 0 59.0339 12.8909 761 150.143 1260.1 486.745
876 0 63.0342 14.2938 901 102.472 1258.37 485.34
877 0 67.0321 13.9336 934 101.647 1258.38 483.625
878 0 67.1284 14.2265 955 103.549 1257.59 482.948
879 0 68.0661 13.2077 899 105.618 1258 483.894
880 0 71.0581 15.5788 1107 100.943 1258.44 481.931
881 0 72.059 13.8081 995 105.672 1257.77 479.465
882 0 73.1112 12.31 900 110.167 1257.71 480.492
883 0 77.1306 14.3912 1110 105.277 1258.01 477.645
884 0 78.0204 13.1632 1027 108.374 1258.2 477.053
885 0 84.1095 14.5168 1221 104.198 1258.53 475.665
886 0 83.0568 12.5456 1042 112.116 1258.17 473.644
887 0 88.1931 13.8106 1218 108.512 1258.41 472.324
888 0 90.1537 13.6101 1227 109.659 1258.8 470.958
889 0 95.1841 13.8258 1316 108.641 1258.62 469.337
890 1 48.2418 12.0435 581 114.885 1257.89 491.337
891 0 50.1805 12.9532 650 108.235 1258.08 489.786
892 0 51.12 12.3044 629 108.405 1258.15 489.199
893 0 55.2111 12.9865 717 107.729 1258.11 488.584
894 0 55.1508 12.3842 683 111.122 1257.7 487.048
895 0 56.158 13.0703 734 110.993 1257.33 485.722
896 0 60.2489 13.7928 831 108.394 1257.64 484.291
897 0 62.1056 12.9135 802 109.074 1257.81 483.43
898 0 61.0743 12.231 747 112.422 1258.26 482.847
899 0 65.0809 13.7982 898 107.306 1258.1 482.694
900 0 68.1637 13.1595 897 108.698 1257.94 481.754
901 0 69.0679 13.7401 949 107.828 1258.37 480.173
902 0 74.0857 13.6329 1010 107.363 1258.98 479.108
903 0 75.0642 14.0013 1051 107.793 1258.13 478.13
904 0 80.1313 13.6027 1090 108.502 1258.12 475.609
905 0 81.0717 13.2969 1078 108.994 1258.16 474.951
906 0 85.1257 14.4492 1230 105.661 1258.34 473.772
907 0 88.2341 14.4615 1276 105.837 1258.18 470.716
908 1 46.0537 10.3792 478 114.818 1257.94 492.01
909 0 48.0233 11.5985 557 111.583 1257.85 491.201
910 0 51.0523 12.3011 628 110.406 1257.63 491.393
911 0 52.1725 12.037 628 122.589 1257.37 486.71
912 0 53.14 13.2104 702 119.645 1257.68 485.986
913 0 55.2172 12.5866 695 120.63 1256.85 486.636
914 0 57.219 11.657 667 122.432 1257.07 485.975
915 0 59.1525 11.986 709 121.584 1259.2 486.309
916 0 62.2726 12.4453 775 120.25 1258.76 483.597
917 0 64.1249 13.1462 843 116.913 1259.4 483.262
918 0 66.1929 13.9894 926 116.13 1258.49 482.888
919 0 69.1531 13.2315 915 117.358 1259.53 482.307
920 0 70.0721 12.5585 880 118.397 1259.68 481.289
921 0 72.073 12.4596 898 116.477 1260.73 479.012
922 0 77.0674 13.0535 1006 115.278 1260.15 477.06
923 0 79.1834 12.932 1024 115.976 1259.39 474.563
924 0 80.0872 13.4104 1074 114.296 1259.72 473.176
925 0 83.2182 12.8097 1066 115.477 1259.39 473.23
926 0 88.1824 13.0865 1154 113.262 1259.21 472.059
927 0 88.1416 11.4135 1006 116.915 1259.16 470.803
928 1 48.0551 10.1758 489 107.444 1259.27 490.646
929 0 50.0345 10.9724 549 105.197 1259.7 490.792
930 0 51.1491 11.0657 566 103.535 1260.65 489.177
931 0 53.4387 12.8371 686 103.966 1258.54 486.84
932 0 56.1955 11.7803 662 101.134 1259.91 487.379
933 0 57.2212 12.4779 714 99.7899 1260.15 483.576
934 0 58.2456 11.2455 655 101.948 1259.19 483.311
935 0 61.1563 11.7895 721 101.031 1259.59 483.51
936 0 63.1423 12.258 774 99.8773 1258.79 484.231
937 0 66.1236 12.4313 822 99.9793 1259.49 481.178
938 0 68.1597 12.8081 873 100.058 1259.45 480.621
939 0 69.2139 12.1652 842 102.236 1259.59 479.811
940 0 72.1058 12.232 882 103.205 1259.51 478.13
941 0 75.2651 12.6885 955 102.694 1258.64 476.651
942 0 76.1666 12.6302 962 103.922 1259.02 474.571
943 0 80.1231 12.7554 1022 103.235 1259.29 474.58
944 0 81.3208 13.2315 1076 103.116 1259.45 472.52
945 0 85.1593 13.3514 1137 103.339 1259.45 471.931
946 0 86.2088 12.1217 1045 106.945 1259.31 470.892
947 0 90.1306 11.9604 1078 107.487 1259.45 467.428
948 0 93.1483 11.6481 1085 108.786 1259.62 465.288
949 1 49.047 10.4186 511 106.323 1260.59 491.207
950 0 49.0538 10.4375 512 105.064 1261.08 488.861
951 0 52.0881 12.5557 654 100.092 1260.2 488.7
952 0 53.1052 12.0704 641 100.009 1258.5 487.637
953 0 55.1659 11.1301 614 104.518 1258.38 488.899
954 0 54.1543 12.9445 701 101.385 1258.6 487.822
955 0 58.168 13.3579 777 99.7606 1257.72 485.457
956 0 56.0655 12.2535 687 104.338 1257.79 484.54
957 0 60.2266 12.5858 758 102.74 1258.41 483.063
958 0 63.11 13.0883 826 100.839 1257.54 483.748
959 0 65.138 12.7729 832 101.553 1257.69 482.429
960 0 67.1913 12.8142 861 102.026 1258.25 481.915
961 0 67.1547 12.4042 833 103.868 1257.61 480.223
962 0 69.2884 11.9789 830 104.461 1257.89 480.316
963 0 72.3398 12.9804 939 100.563 1258.14 478.378
964 0 75.3103 13.8626 1044 99.0977 1258.67 476.253
965 0 77.2508 14.3817 1111 96.8866 1258.71 475.998
966 0 80.3283 13.7809 1107 98.8943 1258.09 474.229
967 0 82.3308 13.4701 1109 100.307 1257.47 472.745
968 0 84.372 12.6819 1070 101.964 1258.05 472.033
969 0 87.3439 13.59 1187 97.0194 1258.26 469.207
970 0 90.3182 12.9653 1171 98.2639 1258.19 463.857
971 0 94.3184 13.1363 1239 98.3947 1258.63 464.553
972 0 96.3199 12.6765 1221 99.3292 1259.4 464.025
973 1 46.2593 11.1113 514 100.321 1258.54 486.471
974 0 51.2925 13.2573 680 104.347 1258.26 487.912
975 0 54.0929 12.8852 697 108.34 1259 488.663
976 0 56.0941 14.2261 798 104.586 1259.41 488.558
977 0 56.1159 13.2761 745 108.762 1259.4 486.711
978 0 55.0879 13.07 720 112.221 1258.69 485.536
979 0 58.0456 13.2654 770 110.594 1259.18 483.917
980 0 61.0911 14.4866 885 103.87 1258.42 486.194
981 0 63.0489 13.6402 860 107.271 1257.83 482.497
982 0 65.084 14.5043 944 106.861 1258.21 480.819
983 0 68.0318 15.1253 1029 105.668 1258.47 481.528
984 0 70.1501 14.4547 1014 107.907 1258.43 479.947
985 0 70.1536 14.7676 1036 108.903 1258.21 480.366
986 0 74.1905 14.5706 1081 109.682 1258.58 478.677
987 0 74.1602 12.9719 962 116.841 1258.66 475.381
988 0 78.2551 13.0982 1025 117.229 1259.89 474.649
989 0 81.1486 13.6416 1107 115.838 1259.57 474.404
990 0 84.3077 14.4945 1222 112.379 1259.15 472.319
991 0 87.3342 14.0266 1225 113.321 1259.6 473.086
992 0 89.3933 13.9384 1246 115.101 1259.39 469.429
993 1 50.2091 12.3882 622 119.852 1257.8 490.431
994 0 50.1334 13.1449 659 120.255 1258.87 489.032
995 0 52.4416 12.6808 665 119.128 1259.65 489.558
996 0 52.2129 13.1577 687 119.377 1259.32 488.041
997 0 52.2129 13.2151 690 163.238 1259.33 488.036
998 0 57.251 13.9736 800 116.129 1259.25 486.456
999 0 60.1333 14.1186 849 117.733 1259.24 485.409
1000 0 60.1333 14.1186 849 161.224 1259.27 485.36
1001 0 61.0562 13.0535 797 121.961 1258.61 483.967
1002 0 64.2233 13.8423 889 120.157 1258.95 482.258
1003 0 67.181 14.5577 978 118.791 1259.33 480.578
1004 0 69.1762 13.5451 937 119.781 1259 481.271
1005 0 71.1457 14.2103 1011 119.049 1259.08 480.229
1006 0 72.2378 14.8122 1070 119.175 1258.86 477.947
1007 0 74.2396 13.4026 995 123.64 1259 477.129
1008 0 78.1304 14.5014 1133 120.634 1259.09 475.252
1009 0 81.2156 15.268 1240 118.828 1258.36 473.747
1010 0 84.1418 13.4297 1130 119.994 1258.8 472.44
1011 0 85.1813 14.1346 1204 119.853 1259.43 468.117
1012 1 44.1169 10.4722 462 111.567 1259.05 487.866
1013 0 46.0982 11.5406 532 109.021 1259.14 486.438
1014 0 49.1345 12.5981 619 115.189 1259.53 489.351
1015 0 48.0167 13.0163 625 108.464 1260.79 489.928
1016 0 50.0195 12.5351 627 108.592 1260.61 490.241
1017 0 52.0161 11.8617 617 110.655 1260.46 488.942
1018 0 55.0286 13.5021 743 104.984 1260.41 487.943
1019 0 55.0478 12.4982 688 108.14 1260.5 486.999
1020 0 57.0707 14.2104 811 104.63 1260.23 484.406
1021 0 58.1124 13.1814 766 106.902 1259.77 484.675
1022 0 60.0295 12.977 779 106.537 1259.82 484.506
1023 0 62.0588 12.7621 792 107.324 1260.3 482.809
1024 0 64.0196 13.8708 888 105.231 1259.84 483.032
1025 0 67.1529 13.8639 931 103.644 1260.23 483.179
1026 0 68.0605 13.8112 940 106.391 1259.68 480.31
1027 0 70.0635 13.0881 917 109.22 1259.96 478.828
1028 0 73.0949 13.2157 966 109.772 1259.31 477.599
1029 0 77.1526 15.3592 1185 103.319 1259.52 479.187
1030 0 77.0707 12.8194 988 111.825 1260.03 473.901
1031 0 80.102 13.7699 1103 110.25 1260.09 474.147
1032 0 82.1285 14.2581 1171 109.711 1260.6 470.977
1033 0 85.2255 13.1181 1118 111.656 1260.75 470.19
1034 0 89.0792 13.5946 1211 110.738 1260.17 470.945
1035 0 91.1775 13.227 1206 113.241 1260.97 467.723
1036 1 48.0223 11.9944 576 113.931 1261.38 490.17
1037 0 51.0821 12.8029 654 113.119 1261.48 487.998
1038 0 51.0309 12.5414 640 114.797 1260.46 487.389
1039 0 53.0968 14.2193 755 110.85 1260.2 487.266
1040 0 54.0492 13.9503 754 110.259 1259.93 487.507
1041 0 57.1071 13.9037 794 109.05 1258.27 486.887
1042 0 58.0519 14.2975 830 108.133 1258.25 487.542
1043 0 63.1015 14.4054 909 106.321 1258.21 483.996
1044 0 64.2747 14.5625 936 107.14 1258.6 483.278
1045 0 66.1237 14.4124 953 107.492 1258.66 482.804
1046 0 67.1621 14.5618 978 108.548 1259 482.417
1047 0 71.2201 14.5184 1034 108.265 1258.85 480.765
1048 0 73.1458 14.2182 1040 110.951 1259.01 480.046
1049 0 76.1231 14.805 1127 109.112 1258.46 479.073
1050 0 79.3057 14.3117 1135 111.483 1258.59 476.685
1051 0 81.3672 15.682 1276 108.089 1259.13 474.876
1052 0 84.1493 16.447 1384 106.98 1260.25 476.046
1053 0 87.1285 14.1745 1235 111.675 1260.24 474.321
1054 0 89.2711 15.2457 1361 109.637 1259.91 473.459
1055 0 91.1733 14.8728 1356 110.842 1259.65 472.456
1056 0 94.1869 15.7771 1486 107.927 1258.93 470.426
1057 0 96.2475 14.6289 1408 112.007 1259.03 467.931
1058 0 97.2069 14.248 1385 114.159 1259.42 467.808
1059 0 101.362 14.7294 1493 113.21 1258.83 467.535
1060 0 101.367 13.0911 1327 118.136 1258.67 463.964
1061 0 107.247 14.406 1545 113.181 1258.58 459.986
1062 0 109.345 13.1144 1434 115.604 1258.82 458.57
1063 1 61.1735 13.241 810 112.569 1258.53 484.054
1064 0 62.0656 12.1484 754 107.29 1259.66 479.316
1065 0 62.0536 12.6181 783 106.974 1260.19 478.673
1066 0 67.0655 12.1225 813 105.807 1259.8 478.6
1067 0 68.0269 12.4363 846 104.571 1260.56 477.668
1068 0 72.0659 13.0297 939 102.763 1260.17 477.353
1069 0 72.1283 11.1607 805 107.134 1259.24 477.26
1070 0 72.1283 11.1468 804 145.837 1258.24 477.085
1071 0 79.0739 13.0511 1032 102.609 1259.73 472.294
1072 0 80.0669 12.2647 982 104.744 1259.84 470.428
1073 0 84.0508 12.0522 1013 104.459 1260.03 469.144
1074 0 85.0798 11.6244 989 105.76 1260.29 468.664
1075 0 87.0508 12.5674 1094 104.335 1259.77 465.268
1076 0 93.0562 12.1969 1135 103.799 1259.4 463.229
1077 0 94.063 12.5979 1185 102.685 1259.91 463.293
1078 0 97.122 12.6851 1232 102.942 1260.08 462.088
1079 0 101.151 11.5175 1165 104.918 1259.26 459.485
1080 0 106.095 12.5359 1330 101.792 1259.72 461.381
1081 1 55.1841 12.0324 664 102.742 1260.12 488.081
1082 0 59.2913 13.459 798 101.452 1258.4 485.398
1083 0 60.0679 12.3527 742 96.2817 1259.16 482.522
1084 0 63.0954 12.8219 809 96.974 1260.26 484.298
1085 0 66.131 13.685 905 95.411 1258.94 482.25
1086 0 69.0682 13.6387 942 95.4321 1259.95 482.313
1087 0 71.2912 14.2093 1013 94.7196 1259.58 482.359
1088 0 71.1802 14.8918 1060 94.7236 1259.06 481.853
1089 0 72.212 13.3773 966 99.0994 1259.55 479.878
1090 0 76.3012 12.2803 937 100.477 1259.09 479.18
1091 0 79.3078 13.9078 1103 98.9646 1259.65 476.456
1092 0 83.4137 15.3572 1281 96.0265 1259.54 476.03
1093 0 82.2374 14.3609 1181 101.25 1259.26 473.682
1094 0 87.3301 14.4051 1258 100.376 1259.39 474.955
1095 0 87.2442 13.9494 1217 102.28 1258.72 472.754
1096 0 90.3185 13.5853 1227 103.58 1258.18 471.312
1097 0 92.3227 13.377 1235 105.409 1258.46 472.151
1098 0 95.17 12.7456 1213 107.481 1259.01 469.447
1099 0 99.4306 14.6233 1454 104.596 1258.8 467.118
1100 0 102.397 13.4282 1375 106.159 1258.44 467.884
1101 0 105.816 12.8902 1364 107.172 1258.16 469.324
1102 0 109.39 14.2244 1556 106.612 1258.65 464.249
1103 0 113.72 13.7883 1568 107.452 1258.12 461.654
1104 0 117.505 15.2418 1791 105.299 1258.63 457.55
1105 0 121.665 15.0659 1833 106.262 1258.46 455.535
1106 0 126.611 15.4805 1960 108.256 1258.97 452.684
1107 0 129.532 14.2976 1852 111.075 1258.46 448.988
1108 0 135.625 15.7198 2132 106.856 1258.95 448.892
1109 0 138.505 14.5338 2013 108.64 1259.19 447.734
1110 1 75.5802 12.2122 923 111.889 1258.54 477.767
1111 0 78.3545 13.0688 1024 102.303 1258.57 474.459
1112 0 82.2466 13.5568 1115 98.7256 1258.76 475.866
1113 0 83.1854 12.9109 1074 100.224 1257.94 472.411
1114 0 88.6805 12.3364 1094 100.42 1258.33 472.842
1115 0 88.6907 12.4478 1104 135.972 1259.32 472.827
1116 0 92.355 12.3328 1139 100.318 1259.02 470.264
1117 0 97.4461 13.4125 1307 98.4545 1259.27 465.034
1118 0 99.4399 11.7961 1173 101.552 1259.02 461.721
1119 0 104.404 12.0398 1257 99.6221 1258.68 462.604
1120 0 106.276 12.7028 1350 100.195 1258.72 460.83
1121 0 112.37 13.3131 1496 100.46 1259.19 455.981
1122 0 114.452 11.9788 1371 101.799 1258.19 456.613
1123 1 64.445 11.0637 713 99.5077 1258.35 481.154
1124 0 64.4486 11.0786 714 99.8067 1258.09 483.36
1125 0 66.3508 10.7158 711 102.01 1258.67 480.243
1126 0 69.4337 12.0115 834 99.5827 1258.89 477.344
1127 0 74.1502 11.4362 848 99.8679 1258.79 477.737
1128 0 75.1124 12.914 970 98.868 1258.63 477.11
1129 0 79.1949 12.223 968 100.518 1259.11 472.8
1130 0 82.1186 11.7148 962 101.796 1258.92 471.236
1131 0 85.0721 12.4483 1059 100.273 1259.43 472.16
1132 0 87.1151 13.2124 1151 99.6212 1259.4 468.185
1133 0 92.2671 12.9407 1194 99.6449 1259.39 468.458
1134 0 97.1665 12.5764 1222 100.835 1259.49 467.852
1135 0 98.3796 12.5331 1233 101.165 1259.16 466.556
1136 0 104.197 12.7355 1327 102.358 1259.57 461.165
1137 1 53.1211 12.8009 680 95.3235 1258.8 488.828
1138 0 55.2072 12.1542 671 99.4471 1259.27 484.815
1139 0 56.1398 11.4892 645 101.639 1259.18 485.823
1140 0 58.1274 12.2145 710 98.6944 1258.9 485.327
1141 0 61.3032 11.2229 688 94.6933 1258.68 479.994
1142 0 61.2298 11.0894 679 95.894 1258 480.903
1143 0 61.2298 11.1384 682 135.768 1257.96 480.87
1144 0 67.2031 12.5292 842 94.2292 1258.52 480.69
1145 0 69.1379 12.7137 879 94.2389 1258.36 477.779
1146 0 72.1669 12.3048 888 95.4977 1257.71 477.88
1147 0 72.3915 12.6534 916 94.5087 1258 472.503
1148 0 75.2567 12.185 917 95.5256 1258.32 471.092
1149 0 77.5692 11.7701 913 96.7733 1257.53 468.365
1150 0 78.3983 11.3906 893 99.2072 1256.79 469.899
1151 0 84.1276 12.3859 1042 98.356 1258.08 470.946
1152 0 86.1219 12.9119 1112 98.33 1258.03 468.997
1153 0 87.1091 12.0194 1047 101.041 1257.91 467.396
1154 0 92.1364 12.5141 1153 99.2689 1257.75 467.321
1155 0 95.0851 12.8832 1225 99.8376 1258.43 464.689
1156 0 98.5438 12.4412 1226 100.092 1256.97 462.506
1157 1 53.3119 10.2229 545 98.1009 1257.5 486.446
1158 0 54.1718 12.7188 689 93.1205 1257.5 485.228
1159 0 54.5525 11.1086 606 94.335 1258.75 479.574
1160 0 56.4017 11.3649 641 95.1045 1257.93 479.165
1161 0 59.2501 11.308 670 97.291 1258.16 481.27
1162 0 60.1249 10.8108 650 100.9 1257.85 481.598
1163 0 62.1836 10.1474 631 101.788 1256.97 480.556
1164 0 66.1195 11.1162 735 98.6844 1256.63 481.533
1165 0 68.0772 12.1186 825 98.2497 1256.97 478.012
1166 0 69.0535 11.3245 782 100.996 1257.43 480.115
1167 0 73.1237 11.6241 850 101.359 1257.86 477.208
1168 0 76.09 11.0001 837 102.345 1257.72 473.994
1169 0 77.1631 10.4454 806 105.587 1256.35 475.165
1170 0 81.1353 9.86007 800 106.411 1257.57 474.835
1171 0 83.1522 11.6293 967 104.168 1257.25 470.312
1172 0 88.0976 11.3056 996 104.796 1257.98 469.904
1173 1 45.2522 11.0271 499 100.739 1257.54 490.126
1174 0 48.4632 10.6266 515 101.979 1257.88 489.524
1175 0 49.4529 11.9508 591 99.4264 1257.65 488.917
1176 0 51.1046 11.134 569 100.756 1258.38 488.698
1177 0 54.0937 13.3102 720 95.3181 1257.69 486.404
1178 0 56.1163 10.8881 611 100.535 1257.83 487.201
1179 0 57.0699 11.5648 660 100.244 1257.72 485.479
1180 0 59.147 12.1562 719 98.7441 1257.92 484.079
1181 0 62.1737 11.3553 706 101.255 1257.76 483.177
1182 0 62.1884 10.3717 645 103.257 1257.74 482.384
1183 0 63.1332 9.74131 615 106.68 1257.72 481.128
1184 0 66.1274 10.7671 712 104.367 1257.65 479.049
1185 0 70.1611 10.7752 756 104.374 1258.06 480.689
1186 0 72.2276 12.2529 885 102.207 1258.42 476.912
1187 0 76.1508 12.3439 940 102.617 1258.6 477.632
1188 0 75.1902 10.9323 822 108.547 1258.15 475.068
1189 0 80.1865 12.3961 994 105.238 1257.5 472.384
1190 0 83.217 11.9927 998 106.662 1257.36 473.518
1191 0 85.1755 10.3668 883 110.829 1259.35 467.019
1192 0 86.165 10.2362 882 112.617 1259.45 463.82
1193 0 91.2443 10.1595 927 111.839 1260.26 464.14
1194 0 94.2826 10.3413 975 111.596 1259.81 463.275
1195 1 47.068 10.6229 500 105.548 1260.32 487.534
1196 0 48.0665 10.215 491 107.041 1261.09 484.595
1197 0 52.0783 11.9244 621 103.15 1260.54 486.121
1198 0 52.0813 11.7509 612 105.525 1260.12 488.292
1199 0 55.1506 12.7107 701 109.424 1257.39 487.107
1200 0 58.1786 13.3039 774 108.284 1257.31 485.528
1201 0 58.1409 13.3469 776 108.903 1257.9 484.246
1202 0 59.1876 12.6378 748 112.238 1257.11 482.721
1203 0 61.1798 13.4358 822 111.001 1256.81 482.144
1204 0 61.0945 12.7998 782 112.199 1256.94 483.329
1205 0 64.296 14.06 904 109.376 1256.79 480.503
1206 0 65.2862 13.7089 895 110.55 1257.41 481.312
1207 0 68.338 12.804 875 112.705 1257.23 480.058
1208 0 69.1928 13.7009 948 112.995 1257.37 478.874
1209 0 70.3293 12.8538 904 115.144 1257.64 479.278
1210 0 73.2522 13.6378 999 114.215 1257.09 475.387
1211 0 74.2942 12.2621 911 118.061 1257.03 474.426
1212 0 80.2255 13.4995 1083 113.378 1257.37 474.223
1213 0 81.3051 12.1764 990 117.851 1257.77 474.209
1214 0 84.2905 13.2162 1114 114.828 1257.75 472.234
1215 0 87.1466 12.37 1078 115.533 1259.4 471.058
1216 0 91.2968 12.0815 1103 114.325 1259.57 471.629
1217 0 94.2477 14.2285 1341 105.527 1259.56 468.916
1218 0 94.1108 12.0815 1137 112.232 1259.29 468.332
1219 0 98.2337 12.4194 1220 111.664 1259.04 467.473
1220 0 100.26 11.8891 1192 113.408 1259.4 466.757
1221 0 104.271 12.0456 1256 113.97 1259.36 462.288
1222 1 56.1558 10.7914 606 112.185 1258.93 485.658
1223 0 55.1428 10.1736 561 113.332 1257.48 481.702
1224 0 60.4528 12.1417 734 109.661 1257.78 484.501
1225 0 63.5185 13.0671 830 110.811 1258.37 482.417
1226 0 64.3276 12.6695 815 111.399 1259.08 483.914
1227 0 66.435 12.2074 811 112.658 1258.15 482.877
1228 0 68.4572 12.2412 838 113.027 1258.9 480.47
1229 0 70.3334 14.1611 996 109.186 1258.49 478.798
1230 0 75.3913 14.0335 1058 107.814 1258.5 478.352
1231 0 76.4886 13.806 1056 108.05 1258.51 476.835
1232 0 76.3592 12.6769 968 111.067 1258.51 476.093
1233 0 80.3938 12.5258 1007 110.654 1258.95 477.049
1234 0 82.2879 13.1003 1078 110.379 1258.77 473.122
1235 0 86.4567 13.9492 1206 108.41 1258.82 471.983
1236 0 84.1161 11.9953 1009 109.599 1257.16 473.636
1237 0 88.0426 12.971 1142 106.072 1257.28 474.87
1238 0 90.0723 10.7469 968 111.7 1257.03 472.326
1239 0 96.1655 11.8234 1137 108.515 1257.61 472.047
1240 0 97.1203 13.3649 1298 107.706 1257.77 467.598
1241 0 102.26 13.1136 1341 107.696 1257.25 463.858
1242 0 102.205 11.9368 1220 108.828 1256.95 460.539
1243 0 105.319 11.337 1194 110.326 1256.79 455.704
1244 0 110.364 11.5346 1273 107.357 1258.29 457.847
1245 0 111.365 10.9101 1215 109.007 1257.78 457.955
1246 0 115.491 10.8839 1257 108.765 1257.45 454.469
1247 1 66.1126 10.7392 710 107.963 1256.29 473.642
1248 0 68.0383 11.9051 810 104.77 1256.06 476.652
1249 0 70.059 11.9613 838 106.081 1256.65 472.928
1250 0 73.062 13.0848 956 102.948 1256.73 474.874
1251 0 76.0686 13.4352 1022 105.456 1256.03 476.701
1252 0 75.161 12.2404 920 106.657 1256.2 477.516
1253 0 76.1226 12.0464 917 106.346 1256.15 479.552
1254 0 82.0907 12.6567 1039 105.808 1257.21 476.719
1255 0 91.0756 16.0965 1466 95.867 1257.49 467.975
1256 0 88.1354 12.8098 1129 105.923 1257.26 470.948
1257 0 92.0786 13.6948 1261 103.93 1257.3 470.474
1258 0 91.1829 10.5941 966 108.282 1258.42 474.416
1259 1 53.1847 11.1874 595 108.531 1257.02 490.733
1260 0 54.0843 12.9058 698 106.59 1257.49 488.072
1261 0 56.0781 12.9819 728 106.967 1256.99 487.632
1262 0 54.0294 12.086 653 103.201 1257.02 489.538
1263 0 59.0243 13.1641 777 100.032 1257.04 486.597
1264 0 61.0288 13.3544 815 99.5791 1256.69 485.703
1265 0 61.0941 11.9324 729 102.54 1257.02 489.033
1266 0 63.0235 14.4073 908 99.011 1256.8 485.702
1267 0 64.0214 12.6989 813 104.097 1256.98 485.795
1268 0 66.0669 12.3814 818 105.598 1256.91 484.15
1269 0 70.0581 13.6744 958 102.05 1257.66 483.069
1270 0 72.1178 13.367 964 103.539 1257.04 480.787
1271 0 77.0513 14.1334 1089 101.062 1257.13 478.392
1272 0 79.1298 14.3688 1137 101.014 1256.95 477.454
1273 0 79.1397 14.3291 1134 134.871 1256.95 477.454
1274 0 84.1234 13.9557 1174 103.789 1258.02 475.25
1275 0 85.1572 12.7059 1082 107.339 1258.17 476.054
1276 0 89.1734 14.2083 1267 104.046 1257.82 474.149
1277 0 91.2944 14.0096 1279 106.048 1257.88 473.928
1278 0 92.2532 11.5552 1066 112.022 1259.36 472.851
1279 1 50.1989 12.072 606 113.795 1259.1 492.947
1280 0 52.0698 13.4819 702 112.217 1259.98 488.796
1281 0 54.1446 14.0734 762 113.841 1259.81 487.751
1282 0 54.0551 12.0248 650 117.515 1259.74 488.046
1283 0 56.0394 13.2585 743 112.25 1259.69 487.301
1284 0 59.1047 14.009 828 111.045 1259.92 486.949
1285 0 62.1172 14.199 882 110.99 1258.89 486.795
1286 0 63.0662 14.3341 904 112.258 1258.86 485.529
1287 0 65.0486 14.8658 967 111.534 1259.09 483.026
1288 0 67.0616 15.4485 1036 110.515 1259.16 481.847
1289 0 71.0297 14.9233 1060 111.514 1259.19 480.666
1290 0 74.0765 14.6065 1082 112.405 1259.6 480.839
1291 0 77.0497 15.808 1218 108.718 1259.3 479.703
1292 0 79.1371 16.1997 1282 107.697 1259.45 477.726
1293 0 82.0893 15.2517 1252 107.534 1260.19 477.062
1294 0 84.0454 14.159 1190 111.479 1259.57 475.483
1295 0 88.0864 15.428 1359 108.68 1259.09 472.944
1296 0 92.1108 14.8191 1365 109.447 1259.86 471.334
1297 0 97.0999 17.7961 1728 83.794 1259.5 471.061
1298 0 98.1691 14.5667 1430 111.341 1259.28 468.522
1299 0 102.129 15.6861 1602 109.865 1259.47 468.259
1300 0 105.208 15.9303 1676 109.346 1259.3 465.662
1301 1 54.1719 13.4572 729 123.844 1257.76 488.587
1302 0 58.1647 13.8744 807 114.693 1258.73 485.525
1303 0 58.237 13.5996 792 115.591 1259.65 484.213
1304 0 62.1261 14.0521 873 112.647 1259.01 484.016
1305 0 62.021 14.0275 870 114.857 1258.39 482.536
1306 0 65.0519 14.4193 938 113.584 1258.77 481.055
1307 0 65.0519 14.3578 934 159.322 1259.78 480.991
1308 0 68.1487 13.9695 952 116.041 1258.2 481.039
1309 0 71.0807 13.7731 979 116.292 1258.81 479.892
1310 0 73.1619 14.9668 1095 114.458 1258.2 476.468
1311 0 76.1722 14.7954 1127 114.179 1259.08 474.905
1312 0 79.1462 14.0626 1113 115.143 1258.73 476.04
1313 0 82.1256 13.9786 1148 114.942 1258.91 473.425
1314 0 84.1326 14.0374 1181 115.013 1257.91 471.799
1315 0 87.2418 14.0529 1226 114.515 1258.07 471.029
1316 0 92.2578 14.6438 1351 111.761 1259.07 469.778
1317 0 93.1878 13.9503 1300 113.816 1258.61 467.742
1318 0 93.1878 13.8859 1294 149.495 1257.6 467.79
1319 0 98.1594 13.3864 1314 115.185 1258.88 463.224
1320 0 104.364 13.7882 1439 113.874 1257.93 459.297
1321 0 107.173 13.5855 1456 114.959 1258.86 457.111
1322 1 52.0786 13.7869 718 114.506 1258.9 487.021
1323 0 55.1638 14.466 798 110.665 1259.06 485.199
1324 0 56.034 14.741 826 110.179 1258.36 483.655
1325 0 59.2302 14.2157 842 102.577 1258.35 482.519
1326 0 60.2634 13.9388 840 103.538 1258.72 482.606
1327 0 63.3151 15.336 971 101.198 1258.53 481.367
1328 0 64.2652 12.8063 823 107.198 1258.52 482.089
1329 0 67.2288 13.8036 928 104.696 1258.04 478.975
1330 0 69.2852 13.8125 957 104.61 1257.85 477.48
1331 0 73.1994 14.5903 1068 102.959 1258.37 477.108
1332 0 73.3235 13.6927 1004 106.363 1258.23 476.753
1333 0 78.2334 13.971 1093 104.982 1257.94 474.48
1334 0 81.1789 13.5011 1096 105.66 1258.42 473.316
1335 0 84.3041 15.3848 1297 102.367 1257.73 472.998
1336 0 87.2087 15.6062 1361 102.755 1257.65 471.126
1337 0 92.264 16.1601 1491 100.236 1258.1 471.713
1338 0 92.0567 13.6981 1261 108.893 1258.57 469.652
1339 0 96.0748 14.3742 1381 109.549 1258.25 465.596
1340 0 100.215 14.1496 1418 110.126 1257.92 464.18
1341 1 51.0569 12.3 628 107.6 1258.14 487.489
1342 0 54.0586 12.6529 684 110.417 1258.39 487.447
1343 0 56.3369 13.0643 736 103.431 1258.49 484.654
1344 0 56.1337 12.4168 697 106.745 1258.51 480.482
1345 0 59.0506 14.0049 827 104.046 1258.28 484.399
1346 0 63.1134 13.0875 826 105.402 1258.27 483.999
1347 0 63.1925 13.2927 840 106.019 1257.9 481.229
1348 0 67.1089 12.6362 848 107.896 1257.94 476.008
1349 0 70.1234 13.5048 947 106.286 1258.07 476.129
1350 0 72.0635 12.9885 936 107.193 1258.25 477.731
1351 0 74.0732 13.6352 1010 106.509 1258.17 475.774
1352 0 75.1057 12.1163 910 110.335 1257.63 475.325
1353 0 79.0947 13.0603 1033 107.167 1258.26 475.685
1354 0 82.1305 13.1985 1084 107.833 1258.68 471.989
1355 0 83.1124 12.8501 1068 109.815 1258.11 470.658
1356 0 87.138 14.2303 1240 106.153 1258.4 468.898
1357 0 90.1423 13.1237 1183 107.982 1258.61 467.089
1358 0 93.134 13.2605 1235 107.549 1258.79 462.653
1359 0 97.186 13.7983 1341 106.644 1258.52 460.186
1360 0 99.2902 12.5289 1244 109.342 1259.33 457.256
1361 0 106.169 13.4409 1427 106.061 1258.33 455.802
1362 1 60.1822 13.293 800 101.696 1258.35 479.026
1363 0 61.059 12.4142 758 102.343 1257.61 481.967
1364 0 62.1156 12.1708 756 94.4722 1257.63 480.536
1365 0 65.0651 12.403 807 94.3135 1258.64 479.02
1366 0 68.0923 13.746 936 94.9391 1257.85 479.453
1367 0 69.0522 12.2082 843 96.6311 1257.58 477.286
1368 0 74.0693 13.6764 1013 95.3751 1257.58 477.543
1369 0 76.0957 12.4974 951 96.2597 1258.05 475.896
1370 0 78.084 11.1419 870 100.523 1257.5 475.056
1371 0 82.0682 13.2207 1085 98.2885 1258.16 474.828
1372 0 82.1946 13.4072 1102 100.946 1258.74 473.72
1373 0 84.1582 12.8092 1078 104.573 1258.36 473.328
1374 0 88.1283 13.1626 1160 103.832 1257.31 472.097
1375 0 87.2469 12.7684 1114 106.763 1258.06 466.729
1376 0 91.1039 10.9655 999 111.634 1257.74 472.005
1377 0 97.1427 13.4133 1303 107.367 1257.96 468.621
1378 0 99.1873 12.7839 1268 110.907 1258.11 466.941
1379 0 102.154 13.9886 1429 111.335 1258.48 464.563
1380 0 102.232 12.1293 1240 115.94 1258.59 460.994
1381 0 107.261 12.5115 1342 114.603 1258.59 461.14
1382 0 111.134 13.6232 1514 111.986 1258.6 458.827
1383 0 115.235 13.3119 1534 116.866 1258.61 456.474
1384 1 65.3364 10.775 704 111.077 1257.38 483.631
1385 0 69.3368 11.9706 830 108.272 1257.68 480.892
1386 0 70.403 12.8262 903 107.651 1258.15 477.092
1387 0 72.2961 12.4903 903 106.585 1258.62 479.045
1388 0 76.2156 12.2285 932 106.99 1258.15 476.685
1389 0 79.179 13.2485 1049 104.611 1257.94 474.844
1390 0 80.3526 12.9181 1038 105.531 1258.99 474.323
1391 0 83.1755 12.648 1052 106.459 1257.94 470.773
1392 0 83.1742 12.6962 1056 135.425 1256.96 470.673
1393 0 90.2917 12.9248 1167 105.156 1257.5 468.924
1394 0 92.4649 12.7508 1179 106.338 1257.17 469.004
1395 0 95.311 12.1707 1160 108.25 1257.55 465.576
1396 0 100.388 13.1391 1319 105.694 1257.4 463.679
1397 0 101.244 12.7711 1293 113.224 1257.3 463.006
1398 1 55.3681 10.7643 596 109.374 1257.56 484.765
1399 0 57.4272 12.2938 706 106.095 1257 483.673
1400 0 58.5247 12.0633 706 107.95 1257.2 483.278
1401 0 62.1605 12.9986 808 106.229 1257.43 483.473
1402 0 62.1319 12.7793 794 113.35 1258.15 480.65
1403 0 65.0965 12.4892 813 112.951 1258.1 478.55
1404 0 69.1467 11.6998 809 113.135 1257.9 479.491
1405 0 68.2607 11.6905 798 115.01 1257.42 475.331
1406 0 73.1962 12.2138 894 113.136 1257.65 477.202
1407 0 76.1195 11.8235 900 114.209 1257.63 474.917
1408 0 78.0745 12.4625 973 112.935 1257.34 473.811
1409 0 78.1515 12.1943 953 115.166 1256.74 473.28
1410 0 81.1573 12.6421 1026 115.729 1257.08 470.868
1411 0 84.3286 11.8821 1002 116.391 1257.5 471.96
1412 0 88.3739 13.2958 1175 114.01 1256.9 467.361
1413 0 90.2608 13.7269 1239 113.089 1256.69 468.249
1414 0 92.3913 13.7242 1268 114.741 1257.76 465.664
1415 0 96.2371 13.82 1330 114.12 1257.62 463.562
1416 0 100.318 14.0652 1411 113.541 1257.25 460.704
1417 0 104.156 14.5934 1520 111.367 1258.28 461.611
1418 1 57.0289 13.3617 762 109.066 1257.17 483.383
1419 0 56.111 12.0832 678 111.988 1256.04 484.242
1420 0 58.1216 12.8008 744 150.887 1255.09 482.835
1421 0 62.1982 14.3252 891 109.56 1256.56 479.327
1422 0 63.1392 12.9872 820 112.643 1257.44 478.874
1423 0 66.0844 13.9065 919 109.732 1259.02 472.818
1424 0 69.0979 13.025 900 110.031 1258.89 474.433
1425 0 70.0604 13.8595 971 109.156 1259.08 474.316
1426 0 71.067 13.7194 975 110.437 1260.86 471.849
1427 0 73.0806 12.5341 916 113.879 1260.88 467.773
1428 0 77.089 13.8411 1067 110.38 1260.52 468.143
1429 0 78.1012 13.8666 1083 111.328 1260.66 465.76
1430 0 83.0505 13.9554 1159 110.184 1259.94 465.596
1431 0 84.0399 13.803 1160 112.076 1259.39 463.67
1432 0 88.1417 13.535 1193 111.916 1259.62 462.094
1433 0 93.1602 14.4268 1344 108.918 1259.25 459.693
1434 0 94.179 13.2301 1246 113.055 1259.12 456.688
1435 1 50.0261 9.7749 489 108.035 1259.71 481.667
1436 0 52.1303 9.66808 504 106.315 1258.96 481.966
1437 0 54.2241 9.97711 541 101.153 1257.67 479.262
1438 0 55.2271 12.512 691 102.751 1257.12 480.452
1439 0 55.1088 10.8694 599 100.596 1256.59 482.277
1440 0 57.1118 11.4862 656 99.8247 1256.64 481.477
1441 0 56.0648 11.1478 625 100.611 1256.28 482.466
1442 0 60.075 10.6201 638 101.63 1256.65 479.77
1443 0 60.0622 11.7545 706 100.367 1256.83 479.023
1444 0 63.1201 11.2326 709 101.014 1256.8 479.728
1445 0 65.141 10.9301 712 102.188 1256.9 479.022
1446 0 67.0742 9.91439 665 103.442 1257.53 478.943
1447 0 68.0792 11.2075 763 103.21 1257.12 475.13
1448 0 71.1518 12.1431 864 101.243 1257.56 473.797
1449 0 73.1271 12.0338 880 101.633 1258.16 475.822
1450 0 74.1463 11.275 836 102.321 1258.2 475.384
1451 0 80.1672 10.9022 874 103.003 1257.91 473.741
1452 0 79.27 10.6598 845 104.131 1258.33 471.444
1453 0 81.121 10.5521 856 104.875 1258.5 470.5
1454 0 86.214 12.5038 1078 101.698 1257.55 466.856
1455 0 87.1806 10.5069 916 105.439 1257.79 468.189
1456 0 92.276 11.8991 1098 102.877 1257.66 466.113
1457 0 94.2579 11.999 1131 103.195 1257.84 463.874
1458 0 97.3305 10.788 1050 104.79 1258.54 462.743
1459 1 54.2744 11.2023 608 105.628 1257.79 480.704
1460 0 57.1246 8.68277 496 112.468 1257.49 481.337
1461 0 57.1636 10.1288 579 126.658 1257.25 483.389
1462 0 57.1724 12.4711 713 100.589 1258.26 480.99
1463 0 59.1398 10.7542 636 104.756 1258.39 480.381
1464 0 61.1287 11.4512 700 102.99 1258.52 477.489
1465 0 65.1451 11.9272 777 101.265 1257.95 479.934
1466 0 64.1157 10.9801 704 103.926 1257.77 478.78
1467 0 66.1947 9.69866 642 105.336 1258.31 478.715
1468 0 69.1654 11.4797 794 103.268 1258.2 474.116
1469 0 73.2008 11.2157 821 103.155 1258.3 474.85
1470 0 76.1556 13.3017 1013 98.7256 1258.28 474.66
1471 0 77.2339 11.4716 886 102.234 1258.56 471.221
1472 0 79.2031 10.492 831 105.413 1257.87 469.684
1473 0 84.2336 11.6224 979 101.278 1257.58 468.935
1474 0 85.4837 11.4759 981 101.372 1257.85 469.521
1475 0 91.2326 11.4323 1043 100.926 1257.34 466.875
1476 1 49.0806 10.9004 535 102.31 1257.09 486.146
1477 0 47.0246 7.93201 373 107 1256.58 485.062
1478 0 52.1133 11.3791 593 99.6779 1256.87 485.904
1479 0 52.1231 9.47756 494 95.3846 1257.98 486.204
1480 0 52.1345 9.18778 479 96.7954 1257.89 485.735
1481 0 53.1128 9.734 517 96.6944 1257.68 483.443
1482 0 55.2196 8.67445 479 97.4551 1257.4 483.503
1483 0 59.1198 8.59272 508 96.9902 1257.82 482.053
1484 0 58.2337 9.15278 533 96.6792 1257.53 484.852
1485 0 61.1306 9.24251 565 97.1487 1257.45 479.825
1486 0 64.1524 9.78919 628 96.0892 1257.69 481.516
1487 0 71.0954 11.7026 832 91.1166 1258.02 479.94
1488 0 71.0954 11.6041 825 120.725 1259.04 480.011
1489 0 74.1433 11.8959 882 92.6723 1257.93 477.542
1490 0 75.1668 11.4811 863 94.314 1258.31 478.867
1491 0 74.2354 9.69888 720 98.9847 1258.28 475.172
1492 0 83.152 12.399 1031 94.8836 1256.82 476.277
1493 0 85.2811 12.066 1029 97.3887 1257.12 472.925
1494 0 88.2511 12.3851 1093 97.0723 1257.4 472.552
1495 0 91.2183 13.0237 1188 96.3443 1256.65 471.399
1496 1 50.0667 11.6445 583 98.7822 1255.61 489.828
1497 0 52.2064 11.8951 621 98.744 1256.32 489.399
1498 0 52.1351 11.029 575 98.913 1256.28 490.917
1499 0 54.1534 11.2828 611 92.8331 1257.04 486.52
1500 0 55.2269 12.9466 715 95.8042 1256.81 485.052
1501 0 58.1864 11.7381 683 98.2211 1256.08 487.319
1502 0 58.1769 13.4589 783 96.0715 1255.96 485.584
1503 0 60.4001 13.6755 826 91.2567 1257.65 484.746
1504 0 60.0859 14.2629 857 89.5473 1257.72 485.875
1505 0 62.1476 13.0496 811 93.3305 1257.94 485.358
1506 0 62.0724 11.3577 705 101.75 1257.03 485.323
1507 0 62.1935 12.7505 793 100.24 1258.03 483.546
1508 0 62.1464 13.4682 837 99.2198 1258.03 484.368
1509 0 64.089 13.0132 834 101.106 1257.65 481.583
1510 0 66.1478 13.1524 870 100.647 1257.2 483.685
1511 0 70.1942 13.7191 963 97.1755 1257.28 482.139
1512 0 72.1248 12.7141 917 99.41 1257.59 479.606
1513 0 73.1258 12.1024 885 100.687 1257.26 478.754
1514 0 74.0833 12.5264 928 98.6347 1257.49 476.906
1515 0 75.1578 12.2808 923 98.9632 1257.27 477.555
1516 0 81.0712 13.0626 1059 96.5732 1257.06 476.345
1517 0 83.1034 13.1643 1094 96.7441 1256.84 474.221
1518 0 83.1807 12.2504 1019 99.7684 1256.78 472.984
1519 0 87.1324 12.8999 1124 98.8746 1257.46 470.934
1520 0 88.1555 12.6935 1119 100.771 1257.67 469.712
1521 0 90.0879 11.289 1017 105.365 1257.11 470.818
1522 1 46.0947 10.8255 499 104.892 1256.97 492.479
1523 0 47.1518 11.0918 523 106.6 1256.61 491.239
1524 0 52.0746 12.3669 644 101.904 1258.01 489.887
1525 0 52.1182 11.992 625 100.835 1258.45 487.91
1526 0 52.0928 13.1304 684 99.1053 1258.39 487.844
1527 0 52.2114 11.6833 610 103.705 1258.31 488.91
1528 0 55.0628 12.6764 698 101.883 1256.99 487.885
1529 0 54.075 12.2792 664 104.256 1256.93 487.355
1530 0 58.1121 13.4395 781 101.575 1257.92 485.813
1531 0 60.1023 12.0461 724 104.61 1257.97 487.134
1532 0 61.0904 13.0299 796 104.431 1257.57 485.73
1533 0 64.1208 14.192 910 102.407 1257.05 484.087
1534 0 63.2079 12.1662 769 109.446 1257.73 483.121
1535 0 65.0467 12.9138 840 109.187 1258.03 483.789
1536 0 68.0859 13.3508 909 108.743 1257.02 480.419
1537 0 70.1316 12.7617 895 110.292 1256.34 482.297
1538 0 71.1343 13.6081 968 109.415 1256.89 480.175
1539 0 74.1255 13.1669 976 110.527 1256.9 480.698
1540 0 76.2218 12.9359 986 112.095 1256.76 479.972
1541 0 79.2665 12.8049 1015 113.257 1256.48 478.987
1542 0 80.1383 12.4909 1001 115.054 1256.67 478.573
1543 0 82.157 12.537 1030 114.946 1256.79 478.929
1544 0 88.2134 13.354 1178 112.524 1256.13 476.894
1545 0 89.1096 13.0513 1163 113.846 1256.2 474.968
1546 0 91.125 13.9698 1273 112.123 1256.25 473.244
1547 0 94.4073 13.1981 1246 113.62 1256.74 469.257
1548 0 98.2309 12.4095 1219 114.545 1256.42 465.871
1549 0 100.298 12.1139 1215 115.841 1256.14 464.478
1550 1 56.1935 13.1688 740 109.831 1255.66 486.423
1551 0 59.2306 12.4767 739 114.149 1255.3 485.035
1552 0 60.184 13.4089 807 116.804 1255.08 485.881
1553 0 62.2339 13.3368 830 115.571 1255.78 485.311
1554 0 64.1024 13.5408 868 115.074 1255.07 484.794
1555 0 67.2178 13.1959 887 114.528 1254.3 481.984
1556 0 70.167 13.6816 960 112.518 1254.95 481.885
1557 0 72.2371 15.02 1085 109.386 1255.05 479.677
1558 0 75.1547 14.2373 1070 110.353 1255.32 476.783
1559 0 77.2443 13.5803 1049 111.245 1255.98 476.65
1560 0 80.3643 13.078 1051 112.796 1255.62 474.49
1561 0 83.3609 13.1836 1099 110.878 1256.37 474.375
1562 0 85.5027 13.8826 1187 109.367 1256.28 471.728
1563 0 90.4352 14.7067 1330 105.716 1256.29 469.596
1564 0 93.3171 14.4239 1346 106.886 1255.96 469.6
1565 0 93.324 12.8799 1202 109.973 1256.27 468.926
1566 0 97.2184 13.804 1342 108.599 1256.42 465.683
1567 0 102.159 14.732 1505 104.909 1256.38 464.801
1568 1 56.1341 11.8288 664 110.018 1256.92 482.967
1569 0 57.1612 12.7884 731 109.352 1256.51 482.611
1570 0 59.175 13.891 822 106.959 1256.36 481.873
1571 0 63.1861 13.9746 883 105.224 1256.43 481.488
1572 0 63.33 12.8059 811 109.094 1256.18 479.487
1573 0 65.4148 13.8348 905 107.579 1255.85 478.67
1574 0 69.2805 14.4341 1000 105.637 1255.65 477.812
1575 0 72.3043 13.6506 987 110.594 1256.38 479.943
1576 0 74.3327 14.2737 1061 109.857 1256.39 478.182
1577 0 73.3107 14.7455 1081 146.722 1257.42 478.337
1578 0 82.2793 13.7823 1134 107.015 1256.07 477.741
1579 0 82.2223 12.9405 1064 103.749 1255.53 474.714
1580 0 84.3446 13.2433 1117 103.765 1255.84 473.718
1581 0 87.2909 13.8273 1207 103.83 1256.09 473.948
1582 0 91.2726 13.4761 1230 105.333 1255.58 473.075
1583 0 93.3126 13.0958 1222 107.74 1255.73 469.62
1584 0 98.2376 13.8236 1358 105.527 1255.04 469.416
1585 0 100.327 14.1238 1417 105.737 1255.26 466.39
1586 0 103.405 14.0322 1451 106.716 1255.44 465.057
1587 0 106.311 13.564 1442 108.688 1255.66 462.729
1588 0 111.274 15.1159 1682 105.083 1255.1 462.389
1589 0 115.409 14.7129 1698 106.488 1255.9 458.097
1590 0 118.518 13.3819 1586 109.395 1255.92 457.962
1591 0 122.298 13.369 1635 109.857 1255.68 457.237
1592 0 127.248 14.4757 1842 108.46 1255.45 453.51
1593 0 131.439 13.8315 1818 110.063 1255.99 453.312
1594 1 67.4174 13.8095 931 110.754 1256.87 482.632
1595 0 70.1863 13.1792 925 112.933 1255.98 481.625
1596 0 70.2501 13.3665 939 115.737 1255.83 481.624
1597 0 73.1767 14.1165 1033 115.3 1256.32 480.344
1598 0 77.3746 13.622 1054 116.506 1256.7 477.992
1599 0 82.3514 15.786 1300 110.268 1256.49 478.664
1600 0 83.4118 16.0169 1336 109.775 1256.38 478.031
1601 0 86.2796 14.6037 1260 114.861 1256.19 472.799
1602 0 88.6359 15.8965 1409 112.724 1256.42 472.143
1603 0 91.3123 14.5106 1325 115.291 1256.53 471.192
1604 0 93.5522 14.3129 1339 115.996 1256.34 469.783
1605 0 97.3878 14.93 1454 106.532 1256.04 470.068
1606 0 100.284 13.6413 1368 109.976 1256.49 466.841
1607 0 104.451 14.4086 1505 109.145 1256.83 464.744
1608 0 106.286 13.8683 1474 110.486 1256.91 465.714
1609 0 110.405 14.0754 1554 112.794 1256.95 462.521
1610 1 56.0543 11.5959 650 111.185 1256.99 488.703
1611 0 58.1429 13.1572 765 108.728 1256.47 486.776
1612 0 61.1521 14.3413 877 105.206 1255.93 486.452
1613 0 61.1813 14.0729 861 106.64 1256.29 485.925
1614 0 65.4112 15.6548 1024 110.58 1256.72 483.529
1615 0 69.3989 15.6054 1083 89.8227 1256.73 483.224
1616 0 69.229 14.4881 1003 113.646 1256.62 481.489
1617 0 69.1888 13.1235 908 117.131 1256.95 481.264
1618 0 72.1831 14.9758 1081 112.19 1256.53 479.066
1619 0 76.7078 14.0664 1079 113.066 1255.63 479.921
1620 0 78.2545 13.3794 1047 115.245 1256.63 477.67
1621 0 80.3826 14.8166 1191 111.948 1255.78 476.647
1622 0 85.5886 14.3711 1230 112.446 1256.13 475.669
1623 0 87.4709 13.7646 1204 114.101 1255.8 475.282
1624 0 91.3851 15.079 1378 110.557 1255.65 472.519
1625 0 91.4908 13.6626 1250 114.828 1255.56 471.401
1626 0 98.2944 15.2603 1500 110.294 1255.22 470.723
1627 0 102.268 16.1439 1651 110.439 1255.46 465.313
1628 1 55.2503 14.4796 800 118.922 1255.23 490.056
1629 0 57.3435 16.2878 934 114.587 1255.23 487.095
1630 0 60.3192 16.6282 1003 113.278 1255.06 486.292
1631 0 60.2441 14.242 858 120.587 1255.53 485.089
1632 0 63.2361 15.2603 965 117.125 1255.25 485
1633 0 67.3628 15.7505 1061 115.125 1255.19 482.8
1634 0 67.1095 15.9441 1070 117.119 1255.83 483.415
1635 0 71.3268 15.7024 1120 117.013 1255.73 481.379
1636 0 75.5027 16.1319 1218 115.373 1255.51 481.063
1637 0 76.4515 14.7283 1126 120.147 1255.49 478.672
1638 0 79.2704 15.7057 1245 118.061 1254.58 478.353
1639 0 81.3232 15.0879 1227 120.673 1254.52 476.433
1640 0 85.349 15.8877 1356 119.609 1255.26 474.671
1641 0 87.2105 15.6518 1365 121.553 1254.95 473.492
1642 0 91.3052 15.848 1447 120.396 1255.46 473.412
1643 0 94.2387 16.0974 1517 120.662 1255.32 470.943
1644 0 95.3279 15.3365 1462 122.561 1255.18 472.451
1645 1 49.1533 16.8249 827 125.041 1254.54 490.875
1646 0 52.2753 15.954 834 125.966 1255.35 490.966
1647 0 50.1429 15.5755 781 130.049 1255.38 490.343
1648 0 53.1663 14.7086 782 130.792 1255.74 489.078
1649 0 57.3792 16.2951 935 124.585 1255.69 489.412
1650 0 56.2773 16.1699 910 127.214 1256.4 487.88
1651 0 60.1513 15.8101 951 127.538 1255.23 486.927
1652 0 62.2853 16.9382 1055 124.914 1256.09 484.934
1653 0 65.3272 16.9914 1110 123.41 1255.26 483.944
1654 0 67.3174 17.0238 1146 125.188 1255.52 482.913
1655 0 70.4899 16.1725 1140 127.204 1256.1 481.031
1656 0 71.4549 17.1577 1226 125.674 1256.53 478.841
1657 0 74.5393 15.8708 1183 128.583 1255.89 479.74
1658 0 77.5416 16.2107 1257 127.532 1254.97 479.073
1659 0 79.5492 16.1535 1285 130.158 1255.09 475.626
1660 0 82.3492 16.7943 1383 128.701 1255.89 471.802
1661 0 86.4303 16.7765 1450 128.08 1255.65 473.797
1662 0 89.5115 15.9197 1425 131.387 1256.27 471.234
1663 0 93.487 17.4891 1635 126.992 1256.25 471.306
1664 0 94.4476 17.0253 1608 130.147 1255.69 467.18
1665 0 98.6048 16.054 1583 133.826 1255.68 466.709
1666 0 104.588 16.1108 1685 133.619 1255.44 464.531
1667 1 50.3197 14.2092 715 139.028 1255.6 488.071
1668 0 51.4732 15.9501 821 134.784 1255.87 486.597
1669 0 54.3042 15.45 839 135.54 1255.77 487.172
1670 0 55.3717 16.019 887 135.858 1255.72 485.756
1671 0 60.3932 16.5085 997 131.734 1255.66 484.474
1672 0 61.3409 15.7318 965 134.709 1255.43 483.912
1673 0 60.2249 15.4587 931 139.407 1255.64 481.553
1674 0 64.4065 15.5109 999 137.511 1255.63 480.957
1675 0 68.2596 16.3933 1119 134.282 1255.8 479.768
1676 0 70.2465 15.8727 1115 135.858 1256 478.185
1677 0 70.3176 14.9465 1051 140.242 1255.69 476.498
1678 0 76.3703 15.726 1201 135.623 1255.31 474.887
1679 0 76.5028 15.4765 1184 137.518 1255.93 474.67
1680 0 79.3436 16.271 1291 134.905 1256.06 474.363
1681 0 78.5251 14.8615 1167 141.566 1255.96 471.746
1682 0 85.3617 15.5573 1328 137.834 1255.72 470.441
1683 0 85.3991 15.1407 1293 140.253 1255.92 469.898
1684 0 90.39 15.6323 1413 137.58 1255.95 468.061
1685 0 92.2725 16.0286 1479 138.138 1255.39 465.898
1686 0 96.2903 16.876 1625 135.608 1255.66 462.806
1687 0 100.211 16.7646 1680 136.586 1255.61 461.21
1688 0 103.296 15.4894 1600 140.522 1256.5 460.154
1689 0 104.393 15.2788 1595 142.141 1256.44 458.483
1690 0 108.245 16.3333 1768 138.715 1256.01 457.549
1691 0 113.301 16.2664 1843 139.884 1255.87 454.692
1692 0 116.197 15.2672 1774 145.416 1256.6 451.884
1693 0 120.316 16.1241 1940 141.742 1256.82 450.427
1694 0 124.25 16.1126 2002 144.402 1256.05 445.131
1695 0 129.5 16.9112 2190 141.777 1255.94 443.07
1696 0 134.333 16.8462 2263 141.614 1256.28 441.586
1697 0 138.322 15.9917 2212 145.966 1256.6 438.573
1698 0 145.332 16.218 2357 144.398 1256.37 437.686
1699 0 149.299 16.1287 2408 145.468 1255.81 434.027
1700 0 152.267 15.4334 2350 149.225 1255.71 429.815
1701 1 81.36 11.7871 959 148.181 1256.04 467.09
1702 0 83.4466 14.0928 1176 142.848 1256.45 464.579
1703 0 88.3511 13.6501 1206 146.214 1256.04 461.484
1704 0 91.2406 14.1604 1292 139.782 1255.65 459.654
1705 0 96.2609 13.9621 1344 139.545 1255.74 456.423
1706 0 99.3928 14.5081 1442 136.395 1255.9 454.47
1707 0 103.577 13.5744 1406 140.159 1256.06 451.455
1708 0 107.431 14.8188 1592 137.253 1255.73 449.057
1709 0 109.34 13.3986 1465 141.253 1256.02 446.819
1710 0 115.34 13.9414 1608 139.94 1256.26 443.856
1711 0 118.391 13.8693 1642 140.897 1255.97 440.657
1712 0 118.418 13.8915 1645 158.491 1255.96 440.633
1713 0 125.45 13.7823 1729 143.953 1256.03 435.971
1714 0 130.374 13.3692 1743 144.919 1255.96 432.96
1715 0 131.355 13.3379 1752 145.692 1255.55 428.793
1716 0 131.395 13.2958 1747 155.033 1254.56 428.702
1717 0 144.235 14.0951 2033 143.911 1254.86 424.551
1718 0 149.288 14.4218 2153 142.511 1254.62 424.017
1719 0 154.452 13.467 2080 145.826 1254.64 420.329
1720 0 157.462 13.0953 2062 148.401 1255.03 417.128
1721 0 165.398 14.0812 2329 144.094 1255.42 416.236
1722 0 171.442 14.0689 2412 144.379 1254.81 413.154
1723 0 175.372 14.8371 2602 142.49 1255.58 405.794
1724 0 183.428 13.5857 2492 145.816 1255.23 402.702
1725 0 186.368 13.9831 2606 145.993 1255.74 397.449
1726 0 193.48 13.2778 2569 147.757 1255.43 393.998
1727 0 202.457 13.4695 2727 146.424 1255.57 391.376
1728 1 215.527 14.0725 3033 144.525 1255.68 388.917
1729 1 43.1473 9.10833 393 101.98 1255.5 488.71
1730 0 43.2623 9.96249 431 106.292 1256.08 489.988
1731 0 41.2477 8.67928 358 112.226 1255.89 488.296
1732 0 47.2425 8.44578 399 111.14 1254.84 487.95
1733 0 50.0727 9.56608 479 109.129 1254.37 487.144
1734 0 51.0695 9.22272 471 111.745 1254.49 486.709
1735 0 50.0759 9.08621 455 113.2 1254.81 485.543
1736 0 52.0559 9.47058 493 112.929 1254.44 485.663
1737 0 56.1084 10.3015 578 110.962 1254.66 484.296
1738 0 54.0777 9.74523 527 113.774 1254.64 483.042
1739 0 58.1901 10.8953 634 110.651 1254.93 482.626
1740 0 60.392 9.60392 580 114.96 1254.34 481.379
1741 0 62.3017 10.2244 637 114.228 1255.3 479.284
1742 0 63.3363 10.7363 680 112.521 1255.01 479.335
1743 0 67.3603 10.7185 722 112.474 1255.34 476.432
1744 0 66.246 8.13634 539 120.581 1254.48 479.072
1745 1 38.0767 9.90106 377 114.753 1254.37 493.247
1746 0 38.018 9.54812 363 115.008 1253.62 492.623
1747 0 38.1707 9.98149 381 112.814 1255.32 493.352
1748 0 34.0556 7.63458 260 115.627 1253.49 494.815
1749 0 35.0447 8.38929 294 112.915 1254.3 494.986
1750 0 34.0616 8.66077 295 113.807 1254.34 493.983
1751 0 34.1163 7.76755 265 114.438 1253.8 495.819
1752 0 38.0626 7.27748 277 114.881 1254.3 493.903
1753 0 38.135 7.84057 299 112.13 1254.11 495.732
1754 1 79.4686 7.38657 587 123.489 1255.22 471.121
1755 0 84.3864 8.46108 714 122.183 1256.13 472.007
1756 1 52.2972 10.1535 531 108.186 1254.34 482.23
1757 0 60.4243 15.5401 939 90.4995 1254.03 478.437
1758 0 61.3955 16.8905 1037 87.2642 1254.08 478.052
1759 0 60.4216 13.4223 811 97.4155 1254.26 478.847
1760 0 63.2274 15.8317 1001 90.5125 1254.05 480.118
1761 0 55.303 9.52933 527 111.315 1254.07 483.939
1762 0 57.3962 9.73932 559 109.631 1253.72 483.597
1763 0 60.2571 11.9488 720 104.244 1254.01 483.917
1764 0 60.3029 9.86686 595 108.928 1253.7 484.461
1765 0 61.1846 11.31 692 107.886 1254.28 481.39
1766 0 62.383 9.60198 599 108.576 1253.26 484.813
1767 0 62.3551 10.6647 665 108.263 1254.15 480.42
1768 0 64.2241 11.3197 727 104.957 1254.39 481.175
1769 0 69.3711 10.4799 727 106.457 1254.23 479.128
1770 0 71.3813 11.1794 798 103.887 1253.96 477.53
1771 0 73.2542 10.7025 784 105.218 1254.57 475.886
1772 0 75.2213 11.2601 847 102.727 1254.62 478.59
1773 0 80.3498 12.2216 982 102.258 1254.58 473.753
1774 0 82.3069 11.3356 933 102.976 1254.89 473.273
1775 0 84.1629 12.1193 1020 101.596 1255.14 470.136
1776 0 89.2663 11.4041 1018 101.497 1254.28 470.379
1777 0 91.4563 13.2741 1214 96.6483 1256.94 468.203
1778 1 48.3415 10.7154 518 100.722 1256.83 488.371
1779 0 50.4908 11.1506 563 100.117 1254.96 485.714
1780 0 50.3856 11.2135 565 88.8053 1254.55 486.11
1781 0 50.4581 10.4641 528 90.642 1253.99 487.727
1782 0 53.2473 10.9677 584 89.7842 1255.06 484.62
1783 0 54.3292 10.6573 579 91.0466 1255.06 485.029
1784 0 56.4479 12.7551 720 86.9167 1254.57 486.067
1785 0 57.3104 11.3417 650 90.3154 1254.49 485.326
1786 0 57.2286 10.9211 625 91.6208 1255.23 483.56
1787 0 61.2261 11.1554 683 90.5549 1254.69 482.061
1788 0 60.3972 10.6296 642 92.8115 1255.09 482.083
1789 0 63.2945 11.6598 738 89.3862 1255.94 480.898
1790 0 63.2628 11.8395 749 90.6315 1255.13 481.013
1791 0 67.1251 13.4972 906 87.5762 1255.34 479.083
1792 0 68.1104 11.1437 759 92.195 1255.21 479.477
1793 0 70.2181 12.0909 849 90.8186 1255.45 475.498
1794 0 74.1973 11.9276 885 91.1028 1255.35 476.098
1795 0 75.1488 11.1379 837 92.9546 1255.09 475.487
1796 0 77.2118 12.252 946 92.1543 1255.7 473.228
1797 0 79.2143 11.7656 932 94.427 1255.8 472.339
1798 0 74.3508 7.59911 565 103.485 1255.27 462.892
1799 0 77.4544 8.61151 667 99.4603 1254.95 473.303
1800 0 85.3732 11.6079 991 95.9738 1255.5 469.04
1801 0 89.5027 10.0444 899 99.8643 1255.65 467.169
1802 1 45.2151 10.1294 458 95.1921 1254.81 490.926
1803 0 51.2601 11.627 596 91.5587 1255.75 489.371
1804 0 52.259 11.443 598 92.5635 1255.36 488.91
1805 0 51.1403 10.8134 553 99.5045 1255.25 486.553
1806 0 51.031 11.4048 582 102.698 1254.69 486.522
1807 0 54.1163 12.4177 672 100.665 1254.53 486.516
1808 0 58.1056 12.4773 725 100.47 1255.09 484.532
1809 0 58.0886 13.3933 778 98.7918 1254.93 483.852
1810 0 60.1667 12.3989 746 101.235 1255.14 483.08
1811 0 61.0333 13.0912 799 99.2466 1255.61 481.204
1812 0 65.1143 12.5779 819 99.3663 1255.28 479.85
1813 0 67.1782 12.638 849 98.5889 1254.85 479.804
1814 0 70.1659 11.6581 818 100.292 1254.85 479.93
1815 0 71.0469 13.1885 937 97.9584 1254.53 478.385
1816 0 74.1406 12.3549 916 98.4509 1254.98 475.029
1817 0 76.2325 12.6586 965 96.5917 1255.31 476.467
1818 1 41.0118 10.9481 449 99.4633 1254.46 492.744
1819 0 44.0638 13.5485 597 90.608 1254.64 493.6
1820 0 45.078 12.3564 557 92.6409 1254.26 494.278
1821 0 46.0612 10.942 504 96.0933 1254.24 492.381
1822 0 46.0761 14.0637 648 90.7407 1254.48 489.545
1823 0 48.1242 11.969 576 94.6007 1254.88 490.057
1824 0 48.0942 12.933 622 93.2412 1254.7 489.223
1825 0 48.0877 12.3316 593 95.1889 1255.02 490.379
1826 0 50.0542 12.6063 631 94.7306 1254.91 490.238
1827 0 52.1002 12.6487 659 95.0561 1255.09 487.998
1828 0 54.0419 12.8234 693 94.3362 1254.95 487.825
1829 0 56.0414 12.7227 713 95.4236 1254.94 487.366
1830 0 58.1108 12.631 734 95.4632 1254.95 485.114
1831 0 60.0438 13.4402 807 93.7732 1255.53 483.198
1832 0 63.0736 13.5556 855 92.9766 1255.45 484.678
1833 0 63.0854 14.1237 891 93.5152 1255.36 483.604
1834 0 66.0352 13.2959 878 94.9647 1255.2 480.689
1835 0 70.0841 12.5849 882 95.6803 1255.17 482.334
1836 0 71.1055 13.7401 977 94.2385 1254.79 481.758
1837 0 72.1651 13.289 959 95.4703 1255.1 479.202
1838 0 75.0717 13.5737 1019 94.6693 1255.28 478.004
1839 0 77.2312 12.1065 935 98.5615 1254.86 476.519
1840 1 41.0788 10.346 425 104.372 1254.06 495.188
1841 0 43.1003 12.1577 524 98.3034 1253.56 493.357
1842 0 43.3667 13.0054 564 99.2039 1254.13 492.154
1843 0 46.0607 11.8756 547 81.2797 1254.82 493.302
1844 0 46.3327 11.698 542 100.439 1254.05 491.906
1845 0 48.0895 12.1648 585 99.2701 1254.11 491.701
1846 0 49.0475 12.3554 606 99.3548 1254.94 492.487
1847 0 52.0258 13.5125 703 96.9516 1255.02 489.734
1848 0 55.0894 13.2512 730 97.8411 1254.81 489.734
1849 0 54.0852 12.3324 667 101.28 1255.01 488.15
1850 0 56.2367 13.6743 769 99.6931 1255.65 486.137
1851 0 56.1285 10.8679 610 111.185 1256.26 488.992
1852 0 58.0712 12.2264 710 110.492 1256.01 486.297
1853 0 61.0501 13.3661 816 107.839 1257.77 485.074
1854 0 61.0648 12.5277 765 110.661 1257.36 483.391
1855 0 62.0685 11.5034 714 114.189 1257.93 484.02
1856 0 66.0991 11.2256 742 114.796 1257.73 482.999
1857 0 68.1241 11.846 807 113.094 1256.74 482.601
1858 0 71.0785 11.6913 831 113.62 1257.97 480.409
1859 0 73.1109 12.652 925 111.533 1257.59 480.066
1860 0 74.1228 12.115 898 114.468 1257.76 477.59
1861 0 80.1508 13.6243 1092 108.778 1257.64 478.461
1862 0 82.0481 12.1392 996 112.974 1257.12 477.328
1863 0 85.1601 13.3044 1133 110.744 1257.55 473.874
1864 0 87.2565 12.744 1112 112.282 1257.14 472.756
1865 1 46.0621 11.3976 525 116.038 1257.8 490.773
1866 0 49.2615 12.0175 592 112.198 1255.32 491.209
1867 0 50.2868 12.0708 607 110.512 1255.2 491.72
1868 0 52.1679 13.9933 730 102.905 1254.71 490.978
1869 0 54.1895 12.1241 657 108.953 1255.07 489.247
1870 0 55.2983 13.9426 771 103.774 1254.8 488.8
1871 0 58.2501 13.2189 770 105.597 1254.98 486.482
1872 0 62.2716 14.0995 878 101.304 1254.77 485.836
1873 0 62.1561 12.9191 803 105.707 1254.67 486.05
1874 0 64.1573 14.2774 916 102.231 1254.48 484.415
1875 0 67.2333 13.5052 908 104.104 1255.4 483.339
1876 0 68.235 13.4095 915 104.325 1255.37 483.486
1877 0 71.1073 13.2898 945 105.441 1254.97 479.908
1878 0 72.2155 13.0858 945 106.237 1254.95 481.577
1879 0 76.235 13.6158 1038 104.354 1254.59 479.02
1880 0 77.07 13.5331 1043 106.122 1254.92 478.201
1881 0 79.1566 13.227 1047 106.906 1254.61 478.158
1882 0 82.2269 14.4357 1187 103.99 1254.57 476.784
1883 0 84.2493 15.3117 1290 102.827 1254.69 473.702
1884 0 88.2274 13.2499 1169 106.832 1256.76 474.187
1885 0 90.2558 13.9714 1261 105.752 1256.22 472.474
1886 0 94.3859 13.9851 1320 105.611 1256.62 470.18
1887 0 97.3906 14.6113 1423 104.529 1256.64 470.535
1888 1 52.2533 12.3054 643 110.145 1255.27 491.717
1889 0 49.2222 11.8239 582 161.878 1254.3 490.546
1890 0 53.3552 13.1196 700 109.274 1255.12 489.167
1891 0 52.2834 13.7711 720 101.024 1254.63 488.611
1892 0 56.2777 12.2784 691 110.427 1255.31 487.068
1893 0 56.3217 13.3341 751 108.22 1255.48 486.298
1894 0 57.0488 12.3403 704 109.067 1254.94 488.866
1895 0 59.0388 12.6358 746 110.021 1255.07 485.945
1896 0 60.1193 10.9283 657 113.236 1255.02 484.939
1897 0 63.0683 11.0832 699 111.296 1254.77 484.026
1898 0 66.0703 12.8045 846 106.057 1255.19 483.359
1899 0 67.0826 12.3877 831 107.723 1254.85 481.326
1900 0 71.0413 12.9784 922 105.294 1255.47 479.535
1901 0 71.0867 12.8857 916 106.047 1255.49 476.737
1902 0 74.1448 12.3272 914 106.914 1255.22 477.605
1903 0 78.0653 12.0156 938 106.084 1254.8 475.402
1904 0 82.1206 13.9794 1148 100.058 1255.17 475.087
1905 0 84.2497 12.0831 1018 103.969 1254.9 473.975
1906 0 86.2006 12.5753 1084 103.491 1254.9 471.61
1907 1 45.0145 10.0856 454 107.952 1253.95 492.04
1908 0 48.058 11.7982 567 102.862 1254.54 490.444
1909 0 48.0174 12.0373 578 102.891 1254.46 490.969
1910 0 49.0419 12.2548 601 93.9601 1254.17 490.263
1911 0 50.0991 12.8346 643 92.7325 1254.65 489.956
1912 0 52.0899 14.0526 732 89.7336 1254.81 489.514
1913 0 54.0914 12.6822 686 92.8338 1255.08 488.81
1914 0 53.0364 12.1803 646 95.2074 1255 489.735
1915 0 56.07 12.4487 698 95.9986 1254.73 487.139
1916 0 57.0906 12.4364 710 96.5056 1255.31 486.806
1917 0 57.074 12.3874 707 95.9929 1254.56 485.935
1918 0 59.0928 12.3534 730 99.5795 1254.56 484.959
1919 0 63.2585 13.8637 877 95.5006 1254.79 483.288
1920 0 64.1969 13.0692 839 98.2288 1255.25 483.919
1921 0 66.2021 13.5192 895 98.4246 1254.61 482.823
1922 0 66.0927 11.968 791 103.822 1254.37 481.827
1923 0 69.1197 13.2524 916 101.634 1254.18 480.114
1924 0 72.1291 12.7826 922 102.964 1254.38 478.604
1925 0 73.0942 13.2569 969 103.299 1254.86 477.969
1926 0 77.1319 13.1463 1014 103.17 1254.47 476.416
1927 0 82.1163 14.8935 1223 98.5168 1254.71 475.341
1928 0 84.1806 14.8253 1248 98.851 1254.81 473.862
1929 1 42.0587 11.4126 480 107.748 1254.77 494.215
1930 0 44.0411 12.284 541 105.081 1254.96 493.908
1931 0 46.1117 13.142 606 106.165 1254.65 491.198
1932 0 48.0997 12.9523 623 111.228 1253.97 492.902
1933 0 49.0673 12.7376 625 113.686 1254.09 491.974
1934 0 49.0609 12.6374 620 115.263 1254.54 490.615
1935 0 52.0275 13.6082 708 112.47 1254.69 490.343
1936 0 53.0962 13.259 704 114.166 1254.37 489.05
1937 0 53.0166 12.3923 657 118.644 1254.84 488.432
1938 0 57.1256 13.339 762 114.155 1254.23 489.15
1939 0 56.0925 12.4616 699 117.883 1254.55 487.585
1940 0 59.1302 12.8699 761 116.968 1254.29 488.081
1941 0 61.0621 13.3962 818 116.848 1254.56 486.064
1942 0 62.0773 13.2577 823 117.972 1254.85 483.848
1943 0 63.0406 13.7531 867 116.604 1254.49 485.67
1944 0 64.1717 13.682 878 113.596 1254.88 485.21
1945 0 67.1051 13.9781 938 112.16 1254.73 482.263
1946 0 68.1399 12.7825 871 115.201 1254.73 484.206
1947 0 70.213 12.3339 866 117.465 1254.92 481.05
1948 0 72.1891 12.3149 889 117.15 1255.35 481.803
1949 0 74.1691 12.1884 904 117.867 1256.98 478.991
1950 0 77.0403 12.7466 982 116.846 1256.96 478.769
1951 0 80.1551 12.0142 963 117.275 1257.06 478.734
1952 1 43.058 10.9155 470 122.834 1256.91 492.272
1953 0 46.0601 13.2002 608 115.919 1257.08 492.64
1954 0 50.1531 13.4189 673 113.886 1257.02 491.214
1955 0 49.0407 14.1515 694 114.8 1257.22 490.327
1956 0 51.0642 13.3949 684 115.787 1257.32 491.431
1957 0 50.0466 12.6082 631 121.292 1257.58 489.593
1958 0 53.0879 12.451 661 119.859 1257.83 489.053
1959 0 56.1178 13.3469 749 117.798 1258 487.355
1960 0 57.0518 13.0583 745 118.923 1257.37 486.008
1961 0 58.0372 12.1646 706 121.595 1257.2 484.506
1962 0 62.1492 14.1595 880 114.591 1257.2 483.867
1963 0 65.1301 13.3425 869 116.652 1257.75 483.327
1964 0 64.2029 13.1147 842 118.281 1256.96 482.948
1965 0 66.0931 13.9198 920 115.415 1256.83 482.139
1966 0 68.115 13.5359 922 117.002 1256.81 480.139
1967 0 71.2465 13.1796 939 118.013 1256.27 479.496
1968 0 72.209 12.6577 914 119.741 1256.37 478.53
1969 0 76.2669 13.3347 1017 116.226 1256.96 477.881
1970 1 39.0216 10.1226 395 119.035 1257.52 495.365
1971 0 37.6203 11.6427 438 117.975 1255.63 494.397
1972 0 37.2354 12.0316 448 108.643 1254.72 495.696
1973 0 39.4137 12.4068 489 107.039 1254.7 495.984
1974 0 42.3652 12.0382 510 106.224 1254.3 495.339
1975 0 40.2194 11.661 469 110.028 1254.79 493.463
1976 0 44.1641 12.7705 564 104.8 1255.24 494.809
1977 0 45.1473 13.2898 600 103.855 1255.11 493.267
1978 0 46.12 13.4866 622 102.738 1254.89 492.817
1979 0 48.0464 12.4879 600 105.15 1254.82 492.177
1980 0 48.0654 11.2971 543 107.586 1255.28 492.024
1981 0 49.0255 12.5445 615 105.115 1255.15 489.915
1982 0 51.0883 11.9988 613 105.548 1255.5 490.158
1983 0 54.0371 14.157 765 99.4588 1255.64 488.769
1984 0 54.0914 12.9226 699 101.007 1255.03 487.913
1985 0 56.1248 12.1337 681 103.51 1255.65 486.17
1986 0 57.0444 11.5524 659 103.263 1255.44 487.516
1987 0 61.0626 13.0358 796 99.9472 1254.59 485.796
1988 0 62.0842 12.5153 777 101.876 1254.19 484.735
1989 0 64.1323 13.1291 842 100.599 1254.72 482.033
1990 0 66.1717 12.5582 831 102.693 1255.03 481.409
1991 0 68.1264 12.1098 825 103.915 1255.62 479.033
1992 0 70.1305 13.5462 950 101.087 1255.01 479.121
1993 1 37.0132 10.888 403 109.36 1254.16 495.164
1994 0 39.074 11.5678 452 109.588 1253.96 493.633
1995 0 42.0142 12.3292 518 107.313 1254.37 493.458
1996 0 43.0388 11.873 511 110.732 1254.97 492.988
1997 0 45.11 11.749 530 110.474 1254.73 492.375
1998 0 45.0328 11.3695 512 112.805 1254.42 492.449
1999 0 46.0351 11.035 508 114.813 1254.81 492.183
2000 0 48.0346 13.2821 638 109.27 1255.04 489.925
2001 0 48.1434 12.5251 603 111.469 1254.45 490.318
2002 0 48.1685 12.6431 609 136.499 1253.42 490.307
2003 0 50.0255 13.9129 696 109.223 1254.55 488.618
2004 0 52.1014 12.8595 670 110.81 1254.35 488.801
2005 0 54.1378 12.5605 680 111.266 1254.34 486.097
2006 0 56.0425 13.5433 759 109.319 1254.31 484.066
2007 0 57.1175 12.9558 740 110.38 1254.61 483.697
2008 0 60.0787 13.216 794 108.355 1254.17 484.63
2009 0 61.076 12.8037 782 109.765 1254.6 483.217
2010 0 61.0795 12.0499 736 111.296 1254.44 482.952
2011 0 65.0934 13.1964 859 107.832 1254.45 480.988
2012 0 65.1021 12.4574 811 109.413 1254.41 480.464
2013 0 69.0992 11.7946 815 110.528 1254.74 477.858
2014 0 73.1351 13.9331 1019 105.675 1254.94 476.054
2015 1 40.1119 12.141 487 107.655 1255.12 492.713
2016 0 41.0715 12.0035 493 108.708 1254.09 493.237
2017 0 42.1677 13.304 561 105.913 1256.11 492.176
2018 0 44.1211 12.6697 559 107.299 1256.06 493.222
2019 0 47.2087 12.8366 606 107.31 1255.74 491.203
2020 0 48.1652 12.9346 623 107.226 1255.82 490.682
2021 0 48.2206 12.9198 623 108.297 1256.14 489.793
2022 0 50.1918 12.9503 650 108.757 1255.59 489.311
2023 0 50.1351 13.0847 656 110.252 1255.82 487.884
2024 0 52.2674 13.6414 713 107.875 1256.14 488.749
2025 0 55.2855 14.4523 799 105.667 1256.41 485.97
2026 0 54.3057 12.8347 697 110.567 1255.94 486.874
2027 0 57.153 13.7001 783 107.787 1256.45 485.798
2028 0 60.2959 13.3342 804 108.376 1256.28 485.036
2029 0 62.3186 14.1852 884 106.648 1256.69 483.665
2030 0 64.2535 14.0848 905 108.033 1256.29 481.557
2031 0 67.2951 14.8005 996 106.621 1256.64 480.091
2032 0 69.3129 15.0044 1040 106.54 1256.56 479.748
2033 0 72.3111 14.41 1042 108.148 1256.29 479.744
2034 0 74.269 13.9762 1038 109.802 1256.19 477.883
2035 0 76.2956 15.2696 1165 107.954 1255.02 475.487
2036 0 79.3469 15.5016 1230 108.115 1255.2 473.782
2037 0 82.4993 15.0547 1242 109.675 1254.92 472.697
2038 1 40.1943 12.9869 522 112.921 1255.5 492.123
2039 0 42.2742 12.8447 543 110.282 1256.21 490.077
2040 0 44.2703 14.0275 621 112.101 1255.67 490.433
2041 0 43.2504 13.1328 568 117.452 1256.62 491.187
2042 0 45.0994 13.8805 626 116.73 1257.62 491.468
2043 0 44.1863 12.1078 535 121.798 1256.89 491.458
2044 0 50.188 14.1468 710 115.624 1257.05 490.386
2045 0 48.2261 12.8146 618 120.96 1256.6 489.474
2046 0 51.1704 13.1326 672 119.308 1256.72 489.189
2047 0 51.1154 12.5598 642 122.327 1256.76 488.444
2048 0 53.2333 12.2668 653 123.221 1255.92 485.489
2049 0 55.1232 13.3882 738 119.72 1255.94 485.931
2050 0 58.3172 13.8896 810 117.085 1255.99 485.994
2051 0 59.2702 13.9868 829 117.812 1256.65 484.923
2052 0 62.3036 13.4824 840 119.668 1256.41 481.542
2053 0 66.2716 13.3089 882 118.099 1256.18 483.328
2054 0 66.5784 13.5029 899 118.931 1256.83 481.314
2055 0 70.2877 14.0281 986 117.518 1257.01 479.867
2056 0 72.1512 14.5389 1049 116.559 1257.1 480.013
2057 0 75.1814 13.7667 1035 119.759 1255.78 477.758
2058 0 78.2236 14.0239 1097 119.205 1256.05 475.972
2059 0 80.4819 13.8043 1111 120.604 1256.5 472.982
2060 0 82.188 13.3839 1100 121.702 1255.57 472.227
2061 1 44.3626 12.1273 538 121.199 1255.69 491.658
2062 0 45.2635 12.0406 545 121.356 1255.91 492.95
2063 0 47.4192 12.6742 601 119.341 1255.87 489.894
2064 0 49.2548 13.6027 670 117.625 1255.82 489.707
2065 0 50.2925 14.1373 711 116.827 1256.11 490.364
2066 0 52.323 14.3914 753 116.59 1255 489.054
2067 0 53.0792 14.1675 752 118.186 1256.08 488.291
2068 0 56.1472 12.9303 726 121.474 1256.23 486.18
2069 0 56.1177 12.9549 727 122.431 1255.24 487.087
2070 0 58.1492 13.9125 809 120.6 1254.69 485.52
2071 0 60.2321 14.1287 851 119.596 1254.98 484.184
2072 0 63.2076 13.8275 874 121.422 1255.36 481.954
2073 0 64.3056 14.4777 931 119.811 1255.71 482.502
2074 0 68.112 13.6833 932 118.992 1254.99 482.538
2075 0 69.1758 12.779 884 122.896 1254.89 481.502
2076 0 73.1711 13.8989 1017 122.169 1255.43 478.347
2077 0 74.1219 14.3682 1065 119.588 1255.42 479.673
2078 0 76.1556 14.4704 1102 122.351 1255.51 475.828
2079 0 78.207 15.1265 1183 121.548 1255.18 474.146
2080 0 81.2254 15.0692 1224 121.066 1255.06 473.797
2081 0 82.3355 14.6717 1208 123.77 1255.53 470.724
2082 0 85.4482 13.6574 1167 126.153 1255.56 470.051
2083 0 86.1614 14.2639 1229 125.547 1255.67 469.497
2084 0 89.3273 13.9487 1246 126.933 1255.15 466.734
2085 0 90.3689 13.6662 1235 129.207 1255.29 464.951
2086 0 95.2628 14.0769 1341 126.438 1255.34 466.323
2087 0 97.3173 13.8824 1351 128.745 1255.63 464.637
2088 0 98.3861 13.569 1335 130.207 1255.55 463.308
2089 0 101.37 13.7319 1392 129.629 1255.35 461.5
2090 0 105.398 13.5392 1427 131.484 1255.46 459.367
2091 0 110.379 14.1693 1564 128.561 1255.24 458.462
2092 0 114.166 13.9972 1598 128.795 1255.24 458.478
2093 0 118.205 13.4428 1589 128.469 1255.69 456.17
2094 1 61.1678 11.5911 709 113.509 1256.58 484.398
2095 0 63.0544 11.9104 751 117.009 1256.56 484.013
2096 0 65.0774 11.494 748 118.46 1256.4 482.449
2097 0 66.1838 11.7703 779 118.555 1256.39 478.493
2098 0 68.0651 12.9288 880 116.994 1256.55 478.167
2099 0 71.1324 14.3113 1018 113.429 1256.42 476.855
2100 0 74.0594 11.9499 885 120.327 1256.13 475.754
2101 0 78.0807 13.4988 1054 116.957 1256.3 473.561
2102 0 78.1189 12.6218 986 120.175 1256.66 472.95
2103 0 84.0946 12.9259 1087 118.623 1256.78 472.824
2104 0 85.1855 12.9365 1102 119.579 1256.17 471.437
2105 0 89.1405 12.9795 1157 119.011 1256.18 471.474
2106 0 89.1178 12.6125 1124 122.276 1256.26 468.552
2107 0 93.1049 12.4268 1157 121.507 1256.02 468.809
2108 0 97.141 12.3738 1202 122.048 1255.86 466.146
2109 0 101.123 13.3006 1345 120.924 1256.84 463.194
2110 0 101.076 11.7733 1190 126.701 1254.67 464.076
2111 0 104.09 11.9512 1244 126.663 1254.25 462.166
2112 1 55.029 10.3037 567 124.899 1253.51 487.139
2113 0 57.0601 11.6719 666 118.598 1253.65 487.859
2114 0 60.2199 11.375 685 117.755 1254.84 486.641
2115 0 64.0662 12.3466 791 113.681 1254.1 483.991
2116 0 64.0875 12.5453 804 113.688 1253.84 483.779
2117 0 66.0757 12.6976 839 112.911 1253.64 483.964
2118 0 69.0944 12.6638 875 112.273 1253.64 479.539
2119 0 72.0391 12.521 902 111.22 1253.65 481.016
2120 0 74.1402 12.6382 937 111.117 1254.15 478.118
2121 0 74.0333 12.1702 901 112.999 1254.55 476.075
2122 0 80.153 13.1499 1054 108.324 1254.29 477.309
2123 0 80.1044 13.6447 1093 108.253 1254.77 473.645
2124 0 84.1867 12.5911 1060 109.707 1254.69 474.771
2125 0 87.2415 12.7004 1108 109.709 1254.67 472.88
2126 0 89.1208 12.152 1083 111.332 1253.99 471.796
2127 0 91.1222 12.39 1129 111.455 1254.74 468.482
2128 0 95.2396 12.9988 1238 109.601 1254.56 467.595
2129 0 98.1529 12.8167 1258 110.273 1254.42 465.471
2130 0 100.239 13.1087 1314 109.49 1254.54 462.438
2131 0 105.163 14.644 1540 106.105 1254.02 462.552
2132 0 107.154 12.0947 1296 112.666 1253.34 463.725
2133 1 59.2518 12.7085 753 111.082 1253.29 485.336
2134 0 60.181 12.5289 754 111.98 1254.31 483.533
2135 0 59.1708 11.509 681 109.579 1253.51 479.771
2136 0 60.083 11.6173 698 112.364 1253.43 479.607
2137 0 64.0986 11.0143 706 112.861 1254.12 478.718
2138 0 66.1016 12.6926 839 108.231 1254.03 477.502
2139 0 67.1629 11.4349 768 111.826 1254 476.673
2140 0 67.2482 11.7921 793 111.66 1254.29 474.274
2141 0 69.1535 11.4094 789 111.82 1254.43 472.738
2142 0 71.2754 10.9715 782 113.095 1254.25 473.133
2143 0 77.148 11.9511 922 110.646 1254.33 470.705
2144 0 77.185 12.036 929 111.174 1254.58 470.185
2145 0 80.1883 11.9594 959 111.167 1255.18 471.245
2146 0 81.2166 12.4728 1013 111.685 1254.24 466.766
2147 0 88.2448 12.9413 1142 110.788 1254.54 467.065
2148 0 88.2608 13.4148 1184 111.277 1254.63 464.875
2149 0 91.1597 12.9224 1178 112.843 1254.65 465.264
2150 0 97.242 13.996 1361 108.868 1254.1 462.263
2151 0 99.2608 13.3285 1323 110.513 1254.4 461.404
2152 0 103.205 13.2648 1369 110.818 1254.85 460.213
2153 1 52.2507 10.2582 536 111.724 1255.76 483.483
2154 0 56.1197 12.4555 699 109.293 1255.53 484.642
2155 0 57.1677 12.5945 720 110.221 1255.42 485.674
2156 0 57.2442 13.5385 775 110.901 1255.73 484.421
2157 0 58.3265 12.31 718 114.543 1256.37 483.458
2158 0 63.2135 12.9877 821 110.761 1256.69 483.597
2159 0 65.4148 13.8654 907 108.37 1255.93 482.939
2160 0 65.2774 12.6384 825 112.404 1256.07 481.436
2161 0 68.33 12.1323 829 112.8 1256.08 480.359
2162 0 70.494 13.0082 917 110.811 1256.53 478.276
2163 0 72.4034 13.632 987 110.071 1256.15 477.852
2164 0 74.5239 13.499 1006 110.576 1255.72 476.211
2165 0 78.4399 13.692 1074 109.507 1255.39 473.936
2166 0 81.4433 13.5186 1101 108.758 1254.88 474.007
2167 0 83.6598 13.77 1152 109.07 1255.31 471.958
2168 0 84.7954 13.5974 1153 110.193 1254.76 470.844
2169 0 89.6811 14.6408 1313 106.236 1254.85 468.839
2170 0 90.5335 14.1495 1281 108.206 1254.62 469.221
2171 0 95.9506 15.5913 1496 103.876 1254.93 466.513
2172 0 96.3557 12.4642 1201 104.484 1255.17 466.741
2173 0 100.538 13.5472 1362 103.103 1255.01 466.079
2174 0 101.415 12.6708 1285 106.923 1254.29 463.409
2175 0 104.411 11.5984 1211 109.509 1254.45 459.094
2176 1 56.5309 11.4274 646 99.5201 1254.8 486.836
2177 0 58.5408 12.5383 734 98.0708 1255.79 486.104
2178 0 62.4319 12.6538 790 94.9722 1255.99 484.084
2179 0 63.1351 10.8022 682 98.5161 1256.69 483.689
2180 0 66.2266 12.5478 831 93.9122 1256.76 483.696
2181 0 69.2794 13.0053 901 92.6049 1256.16 481.679
2182 0 70.0576 12.0044 841 95.2699 1255.85 480.667
2183 0 72.2225 12.7661 922 93.4371 1256.06 478.422
2184 0 75.1167 12.647 950 93.48 1256 477.582
2185 0 77.1789 12.1147 935 94.677 1256.43 475.785
2186 0 81.1475 11.7564 954 94.0545 1256.43 475.596
2187 0 82.2487 10.9911 904 97.5077 1256.01 471.119
2188 0 84.2257 10.6975 901 97.778 1255.47 473.923
2189 0 89.228 12.4737 1113 94.0045 1255.75 474.076
2190 0 91.1993 11.0856 1011 99.2829 1256.71 468.607
2191 0 95.3604 11.9546 1140 97.95 1256.47 469.029
2192 0 99.2889 11.0889 1101 101.52 1255.71 465.751
2193 0 102.371 12.2398 1253 102.801 1254.33 462.687
2194 0 106.215 11.4579 1217 103.49 1254.38 463.68
2195 0 110.188 10.4458 1151 105.81 1254.15 463.419
2196 0 112.196 11.8186 1326 102.483 1253.69 464.624
2197 1 56.1896 12.7782 718 101.274 1253.71 484.893
2198 0 57.1496 12.3185 704 102.739 1253.47 483.959
2199 0 61.0746 12.9841 793 100.633 1253.58 484.304
2200 0 62.0472 13.4897 837 99.7957 1254.32 482.056
2201 0 64.0227 12.6361 809 101.597 1253.42 482.708
2202 0 66.0797 13.5745 897 100.05 1253.34 481.249
2203 0 69.0829 13.3029 919 100.399 1253.6 477.674
2204 0 70.0224 12.0818 846 103.649 1253.63 478.204
2205 0 74.123 12.9245 958 102.019 1253.65 478.567
2206 0 74.1083 12.7381 944 103.74 1254.17 476.588
2207 0 77.0266 11.4766 884 106.742 1254 478.883
2208 0 79.09 12.3404 976 105.724 1254.1 474.969
2209 0 83.082 12.602 1047 104.751 1254.44 474.904
2210 0 84.0663 12.6448 1063 105.735 1253.97 472.707
2211 0 87.0753 12.7017 1106 106.094 1254.1 472.076
2212 0 89.1225 10.8839 970 110.631 1254.08 470.579
2213 0 93.1089 11.4275 1064 110.571 1254.07 465.567
2214 0 96.144 12.6685 1218 108.356 1254.08 464.742
2215 0 100.155 11.8116 1183 108.694 1253.27 462.675
2216 1 53.0776 10.3057 547 100.91 1252.56 483.148
2217 0 52.0819 10.7331 559 99.7281 1253.25 479.639
2218 0 57.0726 9.60181 548 98.4197 1254.34 484.049
2219 0 54.1885 9.06096 491 97.3483 1255.48 481.89
2220 0 58.1844 9.41833 548 95.2993 1255.74 483.308
2221 0 59.0941 9.52718 563 96.6306 1256.04 480.131
2222 0 62.1259 10.5592 656 94.2134 1255.84 481.073
2223 0 64.1444 9.79041 628 96.4475 1256.14 480.215
2224 0 64.1521 9.80483 629 119.715 1256.12 479.979
2225 0 69.0413 10.3416 714 96.7185 1256.92 477.63
2226 0 69.0359 8.87944 613 99.6346 1257.16 479.749
2227 0 73.0496 10.883 795 95.9761 1256.69 474.474
2228 0 75.0446 12.3527 927 93.644 1256.29 473.598
2229 0 76.0357 11.3368 862 95.6949 1255.87 474.546
2230 0 81.1394 12.1273 984 93.2652 1256.1 475.801
2231 0 80.0375 10.5575 845 99.3172 1256.67 471.769
2232 0 84.0843 10.8225 910 98.7626 1255.9 472.357
2233 0 86.1018 10.8825 937 99.4141 1255.91 470.665
2234 0 91.1076 12.6663 1154 95.9879 1256.65 467.904
2235 0 95.0293 12.6803 1205 97.029 1256.84 465.849
2236 0 97.1566 11.1675 1085 100.641 1255.64 462.813
2237 1 49.067 8.98772 441 98.8866 1255.55 489.345
2238 0 53.0337 10.2388 543 96.0516 1255.12 488.551
2239 0 55.1609 11.1855 617 95.2804 1253.98 486.977
2240 0 55.0704 12.2389 674 97.868 1255.69 487.427
2241 0 56.1809 11.9792 673 100.865 1253.94 488.52
2242 0 56.2333 11.5768 651 101.849 1254.57 487.837
2243 0 61.1362 11.5643 707 101.778 1254.08 487.083
2244 0 61.1707 11.5415 706 103.373 1254.33 485.718
2245 0 64.1758 11.936 766 103.167 1254.22 485.428
2246 0 65.0866 11.0468 719 102.803 1254.77 484.317
2247 0 67.0924 12.1027 812 101.725 1254.56 481.724
2248 0 69.1342 11.6874 808 103.47 1254.98 481.015
2249 0 69.0716 10.8583 750 106.591 1254.95 481.507
2250 0 73.1074 12.6526 925 104.112 1254.72 479.372
2251 0 75.2264 11.6847 879 106.289 1254.69 479.195
2252 0 79.153 12.1031 958 105.204 1254.45 478.449
2253 0 78.1466 10.1476 793 112.673 1254.8 477.194
2254 0 80.1052 11.1728 895 111.653 1254.83 476.918
2255 0 84.0633 13.1805 1108 106.573 1255.6 475.037
2256 0 88.1504 12.2178 1077 108.798 1256.58 474.793
2257 0 90.0751 11.8457 1067 110.244 1255.64 473.463
2258 0 92.1802 12.1718 1122 110.229 1254.82 471.241
2259 0 96.1545 12.2823 1181 109.732 1255.19 471.196
2260 0 98.0786 12.4288 1219 112.406 1255.71 470.635
2261 0 101.081 11.4364 1156 114.143 1255.46 472.785
2262 0 103.127 11.2773 1163 117.801 1255.83 470.75
2263 1 56.2047 10.6397 598 112.766 1255.33 493.473
2264 0 58.1485 11.4362 665 113.26 1254.99 492.484
2265 0 60.1306 12.4562 749 111.756 1254.02 493.204
2266 0 60.1652 11.3853 685 115.666 1254 495.699
2267 0 64.1292 11.9446 766 112.183 1253.67 494.333
2268 0 67.1386 11.8114 793 111.718 1254.04 493.055
2269 0 67.3644 11.5937 781 114.028 1252.5 493.648
2270 0 72.2949 13.0023 940 109.778 1251.97 492.364
2271 0 73.284 14.4916 1062 107.379 1252.52 490.172
2272 0 75.4484 11.9022 898 114.575 1252.62 490.021
2273 0 77.521 13.0029 1008 112.791 1252.19 485.212
2274 0 82.3116 13.0723 1076 113.594 1251.26 484.478
2275 0 83.4468 12.6548 1056 117.307 1250.22 483.599
2276 0 88.5068 12.6318 1118 117.658 1251.01 483.71
2277 0 90.2929 11.8836 1073 123.267 1251.23 485.085
2278 0 94.5171 12.1565 1149 124.038 1250.02 480.93
2279 0 97.4684 12.958 1263 124.075 1249.76 476.778
2280 0 101.443 12.7855 1297 123.752 1249.24 473.972
2281 0 102.5 12.1757 1248 126.194 1248.65 473.338
2282 0 105.527 12.5845 1328 126.191 1249.24 471.433
2283 0 110.542 12.3483 1365 125.793 1249.63 470.758
2284 1 58.3377 13.0276 760 118.247 1248.56 493.682
2285 0 58.2993 11.9898 699 122.07 1248.23 493.735
2286 0 61.2423 12.2954 753 120.781 1249.64 494.088
2287 0 62.1326 12.8113 796 120.479 1250.24 492.572
2288 0 64.1083 12.7129 815 120.496 1249.98 493.42
2289 0 68.1291 12.036 820 121.034 1249.41 492.34
2290 0 69.1193 11.9938 829 120.575 1249.94 494.276
2291 0 73.1636 12.8753 942 118.381 1249.96 493.301
2292 0 74.1399 13.4206 995 118.547 1249.53 491.399
2293 0 77.054 13.2245 1019 118.475 1250.56 490.198
2294 0 82.0337 13.7992 1132 117.027 1250.59 488.63
2295 0 82.0981 12.0587 990 122.112 1250.58 487.457
2296 0 87.1165 13.4418 1171 117.37 1250.56 486.21
2297 0 90.2834 13.3247 1203 117.446 1250.55 483.383
2298 0 94.2599 13.5476 1277 116.981 1250.18 480.266
2299 0 97.2135 12.5086 1216 118.18 1249.72 480.408
2300 0 100.246 13.0778 1311 117.895 1249.57 474.884
2301 1 51.0642 10.9274 558 112.489 1250.78 502.674
2302 0 54.0381 11.4179 617 111.29 1250.18 501.843
2303 0 55.0568 11.8423 652 111.276 1251.02 498.506
2304 0 58.145 12.5204 728 106.992 1248.24 500.57
2305 0 60.1202 13.0073 782 104.65 1248.88 498.437
2306 0 59.1228 12.1611 719 108.024 1248.64 499.287
2307 0 61.1614 10.5622 646 111.565 1247.92 497.297
2308 0 67.1606 12.418 834 105.71 1248.17 495.554
2309 0 67.1169 12.6198 847 105.558 1248.35 494.351
2310 0 69.145 12.9149 893 105.723 1247.6 491.961
2311 0 72.247 12.2912 888 105.775 1248.01 492.128
2312 0 72.1722 11.8328 854 108.752 1248.63 489.263
2313 0 76.142 12.2665 934 107.155 1247.9 490.072
2314 0 77.1144 11.9303 920 108.089 1248.1 488.961
2315 0 81.1814 12.3304 1001 107.281 1248.46 487.247
2316 0 82.1951 12.6042 1036 107.727 1248.3 485.455
2317 0 85.1244 11.3129 963 110.899 1248.04 483.232
2318 0 88.2439 11.0036 971 110.23 1248 485.272
2319 0 88.172 9.19793 811 115.101 1247.6 483.24
2320 0 92.1746 10.1655 937 113.521 1247.51 482.733
2321 0 97.4415 11.8738 1157 110.492 1247.4 479.315
2322 0 98.1876 11.9465 1173 110.838 1247.87 477.757
2323 0 101.199 11.1364 1127 112.825 1248.57 475.639
2324 0 105.262 13.1291 1382 108.398 1248.88 474.09
2325 0 107.24 12.0104 1288 112.62 1248.59 472.722
2326 0 110.235 11.5934 1278 113.381 1248.24 470.888
2327 0 113.25 11.373 1288 114.554 1248.2 469.085
2328 1 59.0724 11.0034 650 111.915 1248.07 493.632
2329 0 60.1198 10.7618 647 112.889 1248.56 492.825
2330 0 63.1149 12.3743 781 109.504 1248.13 491.177
2331 0 64.1931 11.8704 762 114.009 1249.09 490.109
2332 0 69.1405 13.7546 951 108.123 1251.47 489.53
2333 0 72.1167 13.2979 959 107.947 1251.18 488.71
2334 0 75.1287 13.8695 1042 107.563 1251.2 487.068
2335 0 76.0847 14.3524 1092 107.756 1250.71 485.731
2336 0 79.2205 13.4309 1064 110.262 1250.86 484.011
2337 0 79.2006 12.2853 973 114.831 1250.94 481.635
2338 0 84.2292 12.561 1058 112.716 1250.91 482.937
2339 0 86.133 14.1758 1221 110.574 1250.8 478.697
2340 0 89.2176 14.1004 1258 111.351 1250.6 476.225
2341 0 90.083 13.2655 1195 115.006 1250.93 475.369
2342 0 94.0852 13.4559 1266 115.118 1250.68 471.927
2343 0 98.2022 13.1769 1294 115.565 1250.96 471.939
2344 0 98.2011 12.5966 1237 117.816 1251.17 469.098
2345 0 104.121 13.8012 1437 114.602 1249.69 469.639
2346 0 107.117 12.2296 1310 118.314 1249.78 467.549
2347 0 111.101 12.4661 1385 119.141 1249.96 464.373
2348 1 60.0695 11.7198 704 113.939 1248.83 490.061
2349 0 60.1665 12.4322 748 104.282 1249.18 488.762
2350 0 63.1308 11.5791 731 105.78 1249.28 486.81
2351 0 65.1532 13.2611 864 101.209 1250.17 487.414
2352 0 67.1027 12.071 810 105.342 1249.92 484.214
2353 0 68.2142 12.2848 838 105.313 1249.43 482.747
2354 0 72.1485 12.2664 885 104.307 1251.13 480.765
2355 0 76.0456 14.0179 1066 99.2251 1250.71 480.716
2356 0 78.1265 13.2478 1035 101.594 1251.01 480.406
2357 0 80.2135 12.7659 1024 103.802 1250.56 479.121
2358 0 83.1041 13.1883 1096 103.758 1250.65 476.784
2359 0 85.2233 13.7521 1172 103.648 1251.43 475.826
2360 0 88.0989 13.8935 1224 103.85 1251.67 474.062
2361 0 92.1824 13.3757 1233 105.698 1250.69 472.208
2362 0 95.1391 13.5065 1285 106.695 1251.05 468.305
2363 0 99.141 13.5665 1345 106.482 1250.57 470.425
2364 1 57.0651 12.1966 696 107.563 1250.71 490.404
2365 0 54.0731 11.7988 638 114.011 1251.09 486.702
2366 0 59.1794 13.4506 796 108.337 1251.05 484.732
2367 0 61.0941 13.2419 809 117.012 1250.39 484.754
2368 0 63.0846 14.0922 889 114.12 1250.61 485.358
2369 0 66.0688 13.94 921 114.872 1250.76 484.726
2370 0 68.0534 13.4894 918 116.469 1251.14 482.466
2371 0 70.1103 13.5358 949 116.079 1251.56 481.384
2372 0 71.0733 13.6197 968 117.669 1250.85 480.262
2373 0 74.184 14.3292 1063 116.013 1251.1 478.021
2374 0 75.1174 13.4456 1010 118.174 1251.11 478.776
2375 0 81.0907 14.0337 1138 114.743 1251.64 478.013
2376 0 81.155 14.1211 1146 116.848 1251.28 473.855
2377 0 85.1733 14.042 1196 117.581 1251 472.793
2378 0 87.2208 13.5633 1183 119.301 1251.75 470.478
2379 1 44.011 11.2699 496 116.31 1251.73 493.954
2380 0 48.0375 12.9482 622 109.918 1251.51 493.513
2381 0 47.0705 12.4919 588 113.488 1250.6 492.012
2382 0 47.0648 11.856 558 109.441 1251.13 492.281
2383 0 49.0319 13.1343 644 106.474 1251.7 491.158
2384 0 49.0324 11.5434 566 111.376 1251.78 492.018
2385 0 51.0402 12.4412 635 109.953 1251.61 490.657
2386 0 51.0706 13.1974 674 109.104 1251.39 489.921
2387 0 56.1544 13.2492 744 107.591 1251.84 490.089
2388 0 57.113 12.6766 724 110.525 1251.59 489.112
2389 0 57.0581 12.9167 737 110.769 1251.63 487.688
2390 0 57.0977 12.7851 730 113.593 1251.71 486.321
2391 0 59.0913 13.4199 793 112.151 1252.31 486.926
2392 0 61.0504 13.3169 813 112.518 1252.33 485.079
2393 0 64.086 14.2621 914 109.858 1251.66 483.488
2394 0 66.1254 13.9432 922 111.012 1251.68 483.207
2395 0 68.1358 14.4858 987 109.078 1252.4 483.176
2396 0 72.2319 14.578 1053 107.243 1252.24 479.875
2397 0 73.0917 13.3941 979 111.02 1252.59 479.388
2398 0 76.0695 13.2773 1010 110.595 1252.65 478.65
2399 0 79.0959 14.0083 1108 108.719 1252.16 476.323
2400 0 81.1273 13.2385 1074 110.731 1252.49 476.222
2401 0 85.0687 14.7528 1255 105.959 1252.24 473.53
2402 1 45.0677 13.4908 608 111.227 1251.5 493.531
2403 0 45.0526 11.7196 528 116.898 1251.64 492.782
2404 0 47.0176 12.1869 573 115.059 1251.55 492.215
2405 0 48.0858 12.8728 619 114.141 1251.18 490.33
2406 0 50.0442 13.568 679 112.57 1251.61 490.355
2407 0 50.0323 12.372 619 116.9 1252.07 491.504
2408 0 52.0284 13.3197 693 113.654 1251.66 490.302
2409 0 51.0298 11.9146 608 115.76 1251.47 490.502
2410 0 54.0787 13.7207 742 110.984 1252.16 489.81
2411 0 55.0573 13.9491 768 109.901 1252.06 488.479
2412 0 56.041 12.8656 721 113.094 1252.42 486.71
2413 0 61.0469 14.7264 899 106.433 1252.63 487.17
2414 0 62.094 15.541 965 105.269 1252.8 483.887
2415 0 63.0874 13.7428 867 110.332 1252.76 483.356
2416 0 66.1779 14.0984 933 108.96 1252.5 481.15
2417 0 67.0947 14.3081 960 109.621 1252.31 480.703
2418 0 69.2442 14.4128 998 109.608 1252.14 480.998
2419 0 74.2139 14.6603 1088 107.356 1252.42 480.528
2420 0 74.2164 14.3365 1064 109.403 1252.42 479.147
2421 0 76.218 15.0358 1146 108.462 1252.04 475.187
2422 0 79.205 14.4183 1142 110.248 1252.63 476.204
2423 0 82.3703 16.2073 1335 105.825 1252.79 474.065
2424 0 83.214 14.2404 1185 111.813 1252.12 474.213
2425 0 87.2538 14.9793 1307 109.107 1252.01 471.568
2426 1 47.0714 13.5964 640 110.609 1252.38 490.888
2427 0 48.1462 12.7736 615 113.689 1252.15 489.941
2428 0 49.0817 14.2008 697 111.75 1252.27 489.537
2429 0 49.1134 13.2754 652 115.092 1252.48 491.051
2430 0 53.0747 13.7542 730 113.91 1252.22 489.088
2431 0 54.0248 13.5863 734 114.858 1251.73 491.04
2432 0 55.0355 13.7002 754 115.44 1252.1 489.212
2433 0 56.1028 13.7783 773 114.907 1251.74 490.147
2434 0 59.0614 14.1886 838 114.764 1251.73 487.637
2435 0 62.0901 13.2549 823 117.673 1251.61 486.818
2436 0 63.0568 13.6068 858 117.152 1253.05 486.401
2437 0 65.083 13.598 885 117.948 1252.24 484.697
2438 0 67.2145 12.7354 856 120.944 1252.16 483.604
2439 0 69.2161 14.5197 1005 117.554 1252.38 483.056
2440 0 73.1745 14.6909 1075 117.877 1251.83 481.633
2441 0 72.1302 13.5311 976 123.811 1252.23 481.106
2442 0 76.1629 14.4165 1098 120.985 1252.86 479.087
2443 0 78.2081 15.1902 1188 119.77 1252.31 478.278
2444 0 79.1295 14.5331 1150 124.374 1251.82 477.802
2445 0 83.1773 15.8697 1320 121.38 1251.7 475.698
2446 0 83.2537 14.3777 1197 128.733 1251.52 473.46
2447 0 85.1259 15.1893 1293 126.761 1251.29 472.78
2448 0 90.302 15.1159 1365 126.314 1251.59 471.536
2449 0 92.1906 14.329 1321 129.109 1252.24 471.377
2450 1 48.1488 11.5475 556 134.532 1252.28 490.326
2451 0 51.1552 12.1591 622 130.363 1251.67 491.82
2452 0 51.1924 12.287 629 129.989 1253.73 491.299
2453 0 54.3046 12.0984 657 117.216 1252.16 491.519
2454 0 55.1732 13.2673 732 114.855 1252.55 488.067
2455 0 56.1907 12.3864 696 116.671 1252.87 490.004
2456 0 58.209 12.4036 722 116.453 1252.57 488.565
2457 0 59.312 12.645 750 115.613 1252.63 486.763
2458 0 62.2054 12.6999 790 114.533 1253.48 486.196
2459 0 62.2528 11.887 740 117.453 1253.4 484.823
2460 0 67.1665 13.1315 882 112.497 1252.68 483.609
2461 0 68.3498 12.6262 863 112.914 1253.08 481.82
2462 0 72.2356 12.9853 938 111.451 1253.25 481.657
2463 0 74.3172 13.2002 981 111.071 1253.06 478.706
2464 0 79.2628 14.8115 1174 105.6 1252.17 477.631
2465 0 79.2725 14.8728 1179 127.642 1251.15 477.661
2466 0 84.1865 13.577 1143 107.975 1252.22 475.233
2467 0 85.2868 13.1439 1121 109.247 1252.11 474.179
2468 0 88.3546 13.4571 1189 108.454 1252.09 472.47
2469 0 91.3364 13.8499 1265 107.094 1252.89 471.16
2470 0 90.4151 12.2435 1107 113.009 1252.97 469.367
2471 0 93.2638 12.0197 1121 112.335 1253.47 466.987
2472 0 99.195 11.6034 1151 112.317 1252.64 466.21
2473 0 102.178 12.4978 1277 109.214 1252.82 465.799
2474 1 53.1218 11.8784 631 105.105 1252.23 489.621
2475 0 55.1462 12.1495 670 104.425 1252.77 488.697
2476 0 56.1596 12.9096 725 102.612 1252.79 487.16
2477 0 58.1135 11.6496 677 111.009 1252.42 482.765
2478 0 58.0511 12.334 716 110.205 1252.66 483.589
2479 0 61.101 12.6839 775 108.477 1252.74 482.163
2480 0 65.0889 13.4278 874 106.285 1253.3 481.381
2481 0 68.095 13.4077 913 105.234 1252.26 481.046
2482 0 70.1461 13.8996 975 103.612 1252.61 478.097
2483 0 74.1817 13.9118 1032 102.857 1252.8 478.028
2484 0 73.0414 13.2528 968 106.33 1252.93 475.761
2485 0 75.0878 13.6507 1025 105.852 1252.35 475.752
2486 0 77.0996 13.6966 1056 105.562 1253.03 472.463
2487 0 82.1561 13.876 1140 104.751 1252.92 473.014
2488 0 83.1948 13.5706 1129 106.482 1252.47 469.291
2489 0 86.2833 14.8812 1284 103.306 1252.42 469.649
2490 0 88.2545 14.2656 1259 105.882 1252.16 467.828
2491 0 91.2115 14.0881 1285 106.586 1253.23 466.033
2492 0 90.2358 12.423 1121 111.229 1252.6 464.355
2493 0 95.343 12.3554 1178 109.997 1252.26 466.607
2494 0 95.1355 11.6991 1113 112.88 1252.37 464.053
2495 0 95.206 11.2598 1072 111.635 1252.17 460.818
2496 0 98.2734 10.7862 1060 116.03 1251.92 455.196
2497 0 102.399 11.4063 1168 114.951 1252.61 451.115
2498 0 106.308 11.9747 1273 113.608 1252.8 451.914
2499 0 110.304 11.5589 1275 113.937 1252.98 451.712
2500 0 115.279 12.0317 1387 114.205 1253.09 446.014
2501 0 118.364 11.8702 1405 115.623 1252.66 441.922
2502 0 122.206 13.3217 1628 112.647 1253.24 441.902
2503 0 124.295 13.1945 1640 113.704 1253.14 439.68
2504 0 130.313 12.2628 1598 115.263 1252.67 440.604
2505 0 135.239 13.1397 1777 114.322 1252.85 435.164
2506 0 142.357 13.8315 1969 112.051 1252.84 433.397
2507 0 146.29 13.0563 1910 114.603 1253.38 430.012
2508 0 153.388 13.0909 2008 113.85 1253.06 429.534
2509 0 158.279 12.9708 2053 114.554 1253.46 427.794
2510 0 161.345 11.4103 1841 118.718 1253.6 429.174
2511 0 168.403 14.1209 2378 112.802 1254.32 423.631
2512 0 173.392 13.3858 2321 114.944 1253.69 421.285
2513 0 180.37 13.8937 2506 113.176 1253.85 419.693
2514 0 182.455 13.839 2525 113.617 1254.25 414.605
2515 0 190.433 12.7027 2419 115.607 1254.23 417.853
2516 0 197.359 13.5793 2680 114.052 1254.24 414.337
2517 0 201.335 12.2929 2475 118.465 1253.57 414.325
2518 0 210.663 13.1252 2765 117.072 1254.41 409.209
2519 0 216.456 13.5686 2937 116.575 1254.13 409.232
2520 0 225.449 13.4398 3030 117.757 1254.2 400.55
2521 0 234.625 14.1161 3312 115.509 1253.53 395.339
2522 0 243.516 14.0237 3415 115.927 1254.64 391.057
2523 1 175.341 12.1649 2133 122.13 1253.68 422.625
2524 0 182.409 13.8919 2534 119.091 1254.54 415.872
2525 0 187.493 13.1418 2464 120.619 1254.59 416.164
2526 0 192.382 12.0698 2322 124.689 1254.91 414.195
2527 0 198.362 12.9158 2562 124.461 1254.2 407.938
2528 0 207.46 13.3279 2765 123.082 1253.86 405.682
2529 0 214.289 12.8098 2745 124.373 1254.23 400.847
2530 0 222.29 13.4149 2982 122.875 1254.05 403.262
2531 0 230.318 13.2035 3041 125.912 1253.66 396.168
2532 0 236.453 13.1316 3105 126.887 1253.81 384.004
2533 0 247.388 13.97 3456 124.647 1253.72 378.34
2534 0 254.594 12.8754 3278 126.519 1254.17 384.65
2535 1 285.762 8.01715 2291 131.024 1253.77 402.843
2536 0 278.709 15.0228 4187 123.299 1253.54 370.713
2537 1 230.747 13.2916 3067 124.464 1253.7 395.782
2538 0 238.777 13.3262 3182 125.307 1252.76 377.064
2539 0 244.911 14.2664 3494 121.802 1253.59 371.389
2540 0 250.884 13.3727 3355 123.999 1253.34 369.745
2541 0 259.817 13.8366 3595 122.71 1254.06 363.403
2542 0 267.871 12.883 3451 124.486 1254.33 363.987
2543 0 274.817 13.4417 3694 123.663 1254.76 359.12
2544 1 287.7 14.1154 4061 120.514 1254.55 350.267
2545 0 295.887 15.4653 4576 117.071 1254.8 337.486
2546 0 305.782 15.4424 4722 117.402 1255.01 333.915
2547 0 316.751 15.8737 5028 115.115 1254.85 321.174
2548 0 326.893 15.2405 4982 116.642 1255.13 320.377
2549 0 337.996 15.7309 5317 114.69 1254.29 311.266
2550 0 348.636 15.2193 5306 114.88 1254.17 313.165
2551 0 358.756 13.7196 4922 119.024 1254.98 306.447
2552 0 372.592 15.4754 5766 114.137 1255.36 307.107
