time division length width area intensity CMx CMy
0 0 111.32 13.4387 1496 94.3336 54.5555 406.25
1 0 111.345 13.0675 1455 95.5189 54.7787 397.967
2 0 115.337 13.3522 1540 94.5208 54.3123 401.553
3 0 113.267 10.9829 1244 103.013 54.1294 396.084
4 0 121.218 14.0326 1701 97.1499 54.1164 392.333
5 0 120.129 11.6957 1405 96.869 53.2954 394.138
6 1 74.1179 10.5912 785 93.2624 54.3134 424.209
7 0 74.1707 9.82867 729 85.8285 55.1756 424.209
8 0 77.133 9.94386 767 86.2842 54.6349 422.359
9 0 79.1508 10.6253 841 84.8216 54.6587 423.48
10 0 81.1679 11.4084 926 84.7743 54.5691 423.129
11 0 84.3336 10.3992 877 86.7799 55.431 430.213
12 0 89.1848 10.9996 981 85.9959 57.2426 432.969
13 0 91.1657 11.5614 1054 85.6461 56.3207 431.041
14 0 92.2399 11.7737 1086 88.1317 56.3886 427.904
15 0 95.2939 10.7247 1022 89.7857 56.2299 429.22
16 0 98.2378 10.6476 1046 93.586 56.0029 427.794
17 0 103.565 12.3883 1283 90.0133 56.4014 432.636
18 0 104.184 12.0556 1256 93.9873 56.793 433.774
19 0 110.422 11.945 1319 95.8355 56.5527 429.998
20 0 113.455 12.9391 1468 94.7309 55.8542 430.704
21 0 118.404 13.4793 1596 93.3083 56.1122 430.464
22 0 121.31 13.9148 1688 92.2565 55.9733 430.952
23 0 123.374 10.7884 1331 97.1923 55.7528 430.932
24 1 174.55 13.0507 2278 94.8099 57.0457 407.957
25 1 132.454 13.4462 1781 93.388 57.2195 426.882
26 0 136.541 14.2155 1941 93.4024 56.8733 422.149
27 0 139.444 13.9267 1942 92.6921 56.1447 420.619
28 0 144.355 14.4713 2089 89.5816 56.1996 419.913
29 0 146.364 11.9087 1743 93.506 55.6919 411.853
30 0 153.293 11.8792 1821 91.3169 57.0308 414.738
31 0 157.216 12.9758 2040 89.7765 57.1691 412.695
32 0 159.254 11.2713 1795 92.522 56.2652 410
33 1 98.5881 10.6707 1052 89.8508 57.2909 440.017
34 0 102.351 12.164 1245 92.0578 56.959 439.838
35 0 103.197 12.326 1272 84.206 56.6376 440.878
36 0 104.193 9.3096 970 88.0536 56.7186 441.357
37 0 110.195 11.8154 1302 87.6697 56.3295 436.684
38 0 109.218 11.5183 1258 90.0016 56.4706 430.995
39 0 115.21 11.8219 1362 89.7628 56.8186 431.622
40 0 116.175 12.7308 1479 88.8878 56.783 430.453
41 0 118.216 11.8004 1395 90.6323 57.7634 431.71
42 0 124.226 12.2358 1520 89.9783 57.3711 432.318
43 0 128.252 13.9413 1788 87.91 57.2696 429.49
44 0 133.187 13.3797 1782 88.9473 57.408 424.914
45 0 137.301 13.5177 1856 89.4343 57.2182 425.284
46 0 142.325 13.5184 1924 89.3274 57.1902 423.519
47 0 144.134 13.2585 1911 91.63 57.2145 417.801
48 0 148.22 12.0631 1788 93.0129 57.3423 420.031
49 0 153.135 13.1844 2019 92.4666 57.056 413.779
50 0 155.186 11.367 1764 97.8107 56.9609 408.467
51 0 162.251 13.0662 2120 94.2292 57.1297 405.847
52 0 165.309 11.7295 1939 97.9319 56.7741 406.828
53 0 168.316 11.1219 1872 102.179 57.4562 401.683
54 0 176.344 13.8649 2445 96.984 57.1395 399.885
55 0 180.364 12.9959 2344 98.683 57.5205 398.35
56 0 186.34 13.1158 2444 98.2222 57.2815 395.953
57 0 191.254 12.6899 2427 99.2073 57.1875 394.242
58 0 197.423 13.7674 2718 98.933 56.5843 393.134
59 0 205.332 12.7793 2624 100.651 55.8716 391.295
60 0 210.487 13.597 2862 100.877 56.0604 385.638
61 0 216.278 13.1821 2851 102.759 56.1056 377.42
62 0 225.247 15.3432 3456 97.9763 56.8365 379.451
63 0 232.416 14.6246 3399 101.137 56.6617 373.661
64 0 240.504 14.2742 3433 103.167 56.6947 369.27
65 1 57.2307 11.0256 631 88.8526 55.7052 456.425
66 0 65.0988 11.7206 763 93.3106 54.7339 459.337
67 0 64.0521 10.148 650 99.0123 55.5415 460.185
68 0 68.2246 11.2716 769 96.2601 56.5423 460.497
69 0 70.0605 11.2189 786 98.2417 55.799 458.042
70 0 71.0939 11.6747 830 98.1253 56.0458 458.2
71 0 69.0562 11.2083 774 89.0594 57.1202 459.916
72 0 70.041 9.99414 700 92.0571 55.8643 459.24
73 0 70.0692 9.77605 685 93.3445 56.2642 459.054
74 0 75.0872 10.0949 758 92.8892 56.8641 456.078
75 0 83.1401 10.2357 851 92.4183 57.0881 454.831
76 0 82.0762 9.71048 797 93.9548 57.5571 454.812
77 0 81.2288 10.1565 825 94.4145 57.2642 453.585
78 0 83.2019 10.4805 872 95.4897 57.086 451.666
79 0 87.3209 10.0892 881 94.7037 56.7719 453.762
80 0 93.1993 12.307 1147 90.7881 56.3531 447.387
81 0 93.219 11.6393 1085 94.4313 56.9014 447.693
82 0 93.0767 11.0446 1028 93.5564 56.7043 445.295
83 0 99.0707 11.6281 1152 91.3924 57.3568 444.907
84 0 102.2 11.7319 1199 91.2836 57.3503 442.707
85 0 105.217 11.6331 1224 91.7565 56.9003 442.576
86 0 107.098 13.6137 1458 88.1578 56.2126 435.479
87 0 110.184 11.7894 1299 94.8722 56.5004 437.896
88 0 119.28 14.3948 1717 95.6989 55.7199 415.617
89 0 120.291 10.9734 1320 104 55.5379 419.271
90 0 124.447 11.8444 1474 103.369 56.3745 423.529
91 0 130.392 11.0206 1437 101.52 55.7397 428.922
92 0 132.232 12.6444 1672 97.802 56.6136 427.274
93 0 136.268 11.9911 1634 98.7099 56.1891 428.302
94 0 140.215 11.1471 1563 102.573 56.1132 424.377
95 1 92.208 23.6097 2177 72.1667 57.0808 445.057
96 0 101.271 14.8414 1503 87.7705 57.0466 448.02
97 0 101.181 16.3074 1650 86.2061 57.5006 443.923
98 0 106.947 18.7009 2000 80.86 56.523 442.12
99 0 100.182 22.9683 2301 72.4259 55.9948 437.179
100 0 102.174 17.0591 1743 80.0993 56.5812 443.277
101 0 102.216 17.3554 1774 81.2807 56.9526 444.292
102 0 106.186 19.0421 2022 78.4327 56.9555 440.026
103 0 106.088 17.8437 1893 81.4675 57.197 439.666
104 0 106.176 17.4333 1851 83.4284 57.5554 441.378
105 0 106.137 14.4813 1537 90.8367 56.9805 442.137
106 0 105.11 13.3764 1406 93.771 56.5213 442.339
107 0 110.145 14.5718 1605 91.4019 56.767 441.143
108 0 113.115 14.2598 1613 92.3478 57.2232 437.709
109 0 113.082 14.0871 1593 94.2605 56.7012 434.348
110 0 115.076 13.2781 1528 96.3874 56.8959 432.106
111 0 120.191 13.2872 1597 96.6832 57.1741 429.177
112 0 123.166 13.6402 1680 97.3399 56.3827 426.737
113 0 127.284 13.6388 1736 95.4643 55.5248 415.187
114 0 129.106 12.4316 1605 99.0486 55.9016 412.32
115 0 132.292 13.5836 1797 97.3968 55.2209 411.401
116 0 132.262 12.0292 1591 102.373 56.0905 405.022
117 0 139.254 14.0319 1954 97.6684 55.8434 405.831
118 0 142.224 13.753 1956 97.6907 55.5869 409.263
119 1 89.093 11.4599 1021 94.093 55.6885 442.92
120 0 87.3095 12.2782 1072 93.3293 55.7435 440.528
121 0 92.2254 11.1466 1028 91.3687 56.0321 444.47
122 0 95.074 10.2131 971 96.3244 56.0113 438.702
123 0 103.147 11.5854 1195 92.2042 55.8544 440.297
124 0 105.11 11.6259 1222 92.2537 55.1874 438.145
125 0 105.102 10.152 1067 98.0675 54.4649 432.129
126 0 109.204 12.0051 1311 93.2799 55.0694 435.303
127 0 114.281 11.4892 1313 94.9223 54.9825 431.669
128 0 119.367 12.6752 1513 92.499 54.4924 431.726
129 0 119.163 11.5891 1381 96.6495 53.5431 426.342
130 0 125.26 13.1726 1650 93.6848 54.137 427.568
131 0 128.124 11.6138 1488 96.0027 54.2224 431.328
132 0 132.363 11.0454 1462 97.2223 55.1826 426.199
133 0 136.534 11.9531 1632 96.655 54.258 423.025
134 0 140.246 12.9273 1813 95.0623 55.2057 421.015
135 0 145.244 12.6684 1840 94.8451 55.1027 421.61
136 0 148.277 12.888 1911 95.2193 54.9901 416.408
137 0 154.333 13.3608 2062 93.9874 54.8371 416.115
138 0 157.451 14.1123 2222 92.7624 55.0423 414.123
139 0 158.291 12.2559 1940 97.1165 54.4959 411.607
140 0 165.424 13.0876 2165 95.2319 54.8217 406.855
141 0 168.325 14.074 2369 94.4652 55.6593 404.878
142 0 174.18 14.0601 2449 94.1972 54.8485 403.033
143 0 178.339 16.9565 3024 88.9888 55.2976 404.527
144 0 182.25 13.454 2452 96.9633 55.6913 399.146
145 0 187.359 13.0178 2439 98.4317 55.5834 399.971
146 0 191.435 12.8242 2455 99.6937 54.1874 398.516
147 0 199.486 13.8907 2771 98.1043 53.7283 396.659
148 0 208.376 14.2963 2979 97.3424 53.7647 392.192
149 1 154.405 12.26 1893 101.086 54.561 418.137
150 0 162.348 14.5367 2360 97.5581 55.0059 413.147
151 0 165.458 12.3476 2043 101.917 55.1243 409.401
152 0 168.274 13.478 2268 100.626 54.265 401.846
153 0 173.505 12.8411 2228 102.565 55.1827 399.942
154 0 179.339 13.1873 2365 102.126 54.5188 395.233
155 0 185.237 13.2047 2446 99.9706 54.121 395.195
156 1 196.526 13.067 2568 98.6195 54.53 396.218
157 1 145.389 14.1001 2050 98.7776 55.598 411.171
158 0 151.64 13.6178 2065 97.6484 55.1259 414.304
159 0 154.381 13.6998 2115 98.7991 55.1073 408.693
160 0 158.373 13.1462 2082 100.557 55.0159 406.66
161 0 168.228 15.5562 2617 94.5017 54.9266 405.256
162 0 172.241 13.574 2338 98.8867 53.9358 398.121
163 0 175.335 12.5303 2197 101.909 54.6036 400.331
164 0 180.155 13.988 2520 99.3135 54.5456 394.898
165 0 186.299 12.8664 2397 102.232 54.7192 392.072
166 0 193.39 13.6615 2642 100.058 54.9864 390.831
167 0 200.234 12.8699 2577 102.126 55.376 381.549
168 0 208.369 12.7946 2666 102.467 55.1684 383.403
169 1 150.428 13.6677 2056 102.415 55.0102 409.67
170 0 157.18 14.0349 2206 101.959 54.4773 402.093
171 0 157.325 11.918 1875 106.866 54.8091 403.619
172 0 161.242 11.9324 1924 107.409 55.3436 400.041
173 0 168.349 12.7117 2140 104.961 54.7318 397.363
174 0 175.277 12.9053 2262 103.609 54.3479 395.6
175 0 181.227 11.8415 2146 105.43 55.096 392.992
176 0 186.37 12.561 2341 104.28 54.1431 392.833
177 0 196.412 12.7232 2499 102.91 53.8243 390.501
178 0 199.213 11.8717 2365 105.192 53.2292 383.249
179 0 205.205 12.9626 2660 103.44 54.2538 376.188
180 0 215.406 13.1705 2837 103.029 54.123 376.673
181 0 218.395 12.8208 2800 104.497 54.2514 369.686
182 0 230.279 14.0873 3244 101.149 54.6156 371.081
183 0 237.282 14.2615 3384 100.238 54.3144 363.078
184 0 247.324 14.4588 3576 100.407 54.0098 367.729
185 0 255.429 13.6554 3488 102.345 53.9705 365.78
186 1 62.1442 10.1699 632 93.0506 54.2437 460.544
187 0 62.1636 10.6493 662 90.9653 54.4577 458.864
188 0 66.1028 12.9949 859 86.1048 55.6251 459.637
189 0 66.157 12.0924 800 80.1612 55.5675 461.611
190 0 66.2025 10.4226 690 84.2319 55.1797 459.307
191 0 67.1025 11.5048 772 83.5609 55.0117 456.975
192 0 70.0894 11.5709 811 84.9864 54.6264 457.835
193 0 71.115 10.6447 757 88.3633 55.6697 456.635
194 0 71.0904 11.408 811 88.0481 54.9088 452.589
195 0 75.1336 10.9006 819 89.5629 55.2772 454.656
196 0 74.2078 10.0124 743 92.6608 55.895 452.324
197 0 77.1466 11.4587 884 90.3462 55.4559 452.173
198 0 79.1235 11.7411 929 90.0097 54.93 453.315
199 0 81.1833 11.665 947 90.8596 54.3685 453.076
200 0 83.1148 11.2736 937 93.1601 54.6499 450.054
201 0 86.1831 12.485 1076 91.105 54.4154 449.501
202 0 85.2567 10.4743 893 95.7525 54.6898 447.894
203 0 90.1056 11.1092 1001 93.2897 54.2707 449.889
204 0 92.2114 11.8424 1092 92.7372 55 444.572
205 0 95.2219 11.2054 1067 93.8922 54.6336 442.796
206 0 96.1986 11.9232 1147 93.0724 54.3409 442.895
207 0 98.28 11.4571 1126 95.3206 54.3135 438.756
208 0 98.1979 11.375 1117 95.3384 54.4781 439.224
209 0 101.48 11.618 1179 96.7133 53.821 431.015
210 0 104.231 10.659 1111 97.8749 54.0594 432.575
211 0 112.339 12.3554 1388 91.1931 54.0101 416.321
212 0 112.287 13.5189 1518 91.637 54.6186 411.624
213 0 118.207 12.292 1453 93.9608 54.4061 408.672
214 0 119.445 13.0018 1553 93.6079 55.2234 414.229
215 0 124.289 12.1652 1512 95.8386 55.5827 411.434
216 0 123.25 13.7201 1691 93.7528 56.0207 410.747
217 0 132.372 14.0966 1866 91.6763 55.8237 409.324
218 0 133.381 12.2056 1628 94.715 55.0068 413.044
219 0 139.288 13.131 1829 94.8464 54.4494 401.444
220 1 85.2602 10.8491 925 95.213 55.1373 429.97
221 0 87.1319 13.7148 1195 91.4201 54.9883 431.096
222 0 92.1116 11.7792 1085 92.2221 56.1714 425.081
223 0 94.1121 12.177 1146 91.0454 55.4197 426.374
224 0 97.1774 13.1203 1275 90.3302 55.0008 426.478
225 0 98.2585 10.8082 1062 96.8945 55.5584 421.439
226 0 103.186 11.7554 1213 94.1937 55.047 421.78
227 0 105.118 12.2815 1291 92.5926 54.3803 424.752
228 0 106.148 10.4665 1111 90.4887 53.8587 433.818
229 0 110.113 11.6517 1283 90.4154 54.1161 431.249
230 0 114.129 11.9602 1365 90.8022 54.6821 430.02
231 0 118.139 12.2229 1444 92.3934 54.3532 427.232
232 0 119.124 12.701 1513 92.2776 55.2247 427.856
233 0 122.206 12.0371 1471 94.2896 55.2991 428.208
234 0 125.214 11.4124 1429 95.7754 54.6592 424.796
235 0 128.176 12.475 1599 95.005 54.9756 425.324
236 0 133.113 12.4782 1661 94.9621 54.1915 422.702
237 0 135.173 13.0056 1758 96.3788 54.9977 418.608
238 0 138.161 13.4915 1864 96.904 55.1057 419.791
239 0 143.292 13.1898 1890 99.2825 55.1222 412.337
240 0 152.27 14.6845 2236 99.1923 54.5461 416.736
241 0 153.235 13.8807 2127 106.472 54.0701 415.862
242 0 159.277 14.8044 2358 103.641 53.8715 410.562
243 0 163.231 13.968 2280 103.818 54.0816 405.247
244 0 167.232 14.3633 2402 101.582 53.5895 404.876
245 0 171.249 13.9796 2394 100.893 54.4804 401.956
246 0 175.428 14.9463 2622 100.487 54.2258 396.985
247 1 108.28 13.9638 1512 101.13 55.078 439.78
248 0 107.238 13.3161 1428 104.879 55.0819 433.485
249 0 112.14 13.3851 1501 104.528 55.6376 435.203
250 0 116.251 13.8666 1612 103.13 54.6762 436.521
251 0 117.187 14.848 1740 93.2305 54.4845 436.039
252 0 119.092 12.1922 1452 98.2335 53.8815 432.564
253 0 120.247 11.0606 1330 100.698 54.1331 431.199
254 0 127.115 12.7522 1621 96.7915 54.3226 430.418
255 0 130.246 13.5666 1767 96.275 54.5218 430.68
256 0 134.235 14.1618 1901 96.9911 54.4519 426.936
257 0 137.173 13.1367 1802 99.1842 54.4256 427.093
258 0 142.145 13.0641 1857 100.055 54.5676 424.496
259 0 145.379 13.6333 1982 98.616 54.3683 422.517
260 0 150.192 12.8635 1932 102.579 53.4472 415.13
261 0 157.258 13.1313 2065 104.333 53.5249 409.245
262 0 162.256 14.2552 2313 101.498 53.7739 411.243
263 0 168.224 15.3188 2577 99.466 54.3752 400.588
264 0 172.294 13.3376 2298 102.656 54.1532 402.868
265 0 179.327 14.3147 2567 100.906 54.5018 401.915
266 0 182.246 13.8658 2527 102.313 54.463 398.172
267 0 191.246 15.7075 3004 97.7094 53.8103 395.874
268 0 195.472 14.1657 2769 100.881 53.9603 393.588
269 0 200.38 13.7788 2761 103.017 53.9352 389.85
270 0 205.299 13.3659 2744 104.394 54.4147 389.349
271 0 210.245 14.8113 3114 101.202 54.4644 385.022
272 0 218.397 14.4462 3155 102.106 54.7715 380.82
273 0 225.372 14.6558 3303 101.824 54.4208 375.426
274 1 54.0864 7.82083 423 91.9953 54.9645 458.199
275 0 58.0879 9.84714 572 90.6364 54.2343 462.913
276 0 59.2167 10.8246 641 90.7129 55.805 462.168
277 0 58.0945 10.2764 597 93.8291 55.67 459.032
278 0 61.2859 11.3403 695 91.5165 55.7712 459.131
279 0 64.2034 11.0274 708 90.8446 55.7076 459.917
280 0 66.2222 12.0201 796 88.147 55.9862 461.27
281 0 69.125 12.0651 834 88.3321 56.1319 458.149
282 0 73.2305 11.0746 811 90.5487 55.7053 456.027
283 0 73.0698 11.2495 822 89.2883 54.8333 456.588
284 0 76.0791 11.8167 899 87.2725 54.5762 457.046
285 0 78.1058 11.8301 924 88.6981 53.9253 453.083
286 0 81.112 11.3423 920 89.4902 53.7098 451.152
287 0 82.0982 12.5825 1033 87.6186 53.9816 451.271
288 0 84.0853 11.8213 994 90.0252 54.2978 449.96
289 0 86.1094 10.5099 905 92.4088 54.7149 450.198
290 0 85.19 11.175 952 65.7773 54.7416 449.748
291 0 90.2784 12.8381 1159 88.8274 55.1648 444.728
292 0 93.1876 12.1583 1133 90.188 54.3998 446.786
293 0 94.2886 13.5117 1274 85.3611 54.3619 442.328
294 0 98.312 12.5926 1238 88.7569 53.1381 443.59
295 0 99.089 10.7378 1064 92.1852 54.3158 442.548
296 0 102.172 10.864 1110 92.0532 53.6937 441.989
297 0 104.202 11.6505 1214 90.6054 54.2092 437.31
298 0 107.091 12.3913 1327 90.4424 53.8455 437.091
299 0 111.199 11.0163 1225 93.1273 54.5918 434.271
300 0 112.234 10.8345 1216 93.4021 54.2533 435.858
301 0 117.269 12.5779 1475 89.8481 53.7478 433.95
302 0 119.236 11.8085 1408 92.2955 53.3068 431.357
303 0 123.223 11.4426 1410 93.3809 53.9972 432.574
304 0 128.189 12.0993 1551 90.9955 55.3462 428.623
305 0 130.234 10.8344 1411 96.6704 55.4302 421.938
306 1 58.1312 11.5601 672 81.7083 56.3229 465.982
307 0 61.0844 11.4595 700 88.2 55.9243 462.07
308 0 60.1065 11.1635 671 92.699 55.5559 459.079
309 0 64.0846 12.9672 831 87.8652 56.8051 459.748
310 0 64.0777 11.5641 741 92 56.7099 459.001
311 0 65.0864 11.2619 733 94.2292 57.5225 457.121
312 0 66.0539 11.3544 750 94.788 57.1093 457.063
313 0 65.0509 11.3911 741 86.6437 55.9163 460.56
314 0 67.0809 12.0153 806 86.4293 55.6749 461.639
315 0 66.144 11.0214 729 88.4403 55.893 461.852
316 0 72.1147 10.6774 770 88.1 55.9961 461.447
317 0 74.0569 12.855 952 84.8046 55.6376 458.143
318 0 75.1987 11.4763 863 90.8656 55.263 457.632
319 0 76.1218 12.2435 932 91.1448 55.7135 456.158
320 0 80.3142 12.5632 1009 89.8276 56.2983 456.88
321 0 80.1251 12.1185 971 92.1576 55.8538 454.822
322 0 84.1415 11.6589 981 93.7982 55.1621 453.157
323 0 86.1865 12.705 1095 93.7032 55.1196 452.212
324 0 88.136 12.3219 1086 96.0331 55.4208 453
325 0 89.147 12.8552 1146 95.7225 55.4572 450.776
326 0 93.1387 13.0665 1217 95.7872 55.857 451.466
327 0 94.2495 13.2521 1249 96.9175 56.1249 447.615
328 0 96.1668 13.6222 1310 96.8969 56.471 448.716
329 0 99.1451 12.5069 1240 99.9355 56.6685 448.12
330 0 102.308 15.0623 1541 95.4919 56.5698 445.35
331 0 104.23 13.4223 1399 98.737 56.1987 441.442
332 0 105.342 13.6128 1434 98.0635 55.5042 442.89
333 0 109.189 14.0949 1539 97.7329 55.5029 439.016
334 0 112.241 13.3552 1499 99.0207 55.511 436.761
335 0 115.28 13.8966 1602 97.2391 56.6586 435.51
336 0 116.113 12.6343 1467 100.631 56.5999 433.628
337 0 120.229 11.9938 1442 102.193 56.448 431.51
338 0 122.162 12.7045 1552 100.041 55.9652 428.613
339 0 124.139 11.181 1388 103.277 56.3213 428.122
340 0 130.278 13.6938 1784 98.1771 55.6945 421.924
341 0 134.288 12.7785 1716 99.676 55.6294 420.836
342 0 142.308 14.8762 2117 94.7681 55.5621 420.38
343 0 143.242 13.348 1912 99.5262 55.6177 414.392
344 0 151.275 13.1879 1995 98.5794 55.4386 416.569
345 0 154.271 12.8475 1982 102.677 55.1912 408.27
346 1 90.254 11.9662 1080 102.34 55.0722 441.247
347 0 96.2566 12.5602 1209 100.037 55.4673 444.209
348 0 98.1859 12.9245 1269 100.861 54.9236 444.591
349 0 99.1293 12.8317 1272 101.542 54.4387 444.351
350 0 104.286 12.6383 1318 100.785 55.3369 440.95
351 0 106.294 12.3243 1310 99.916 54.9924 439.425
352 0 110.158 13.0177 1434 99.1618 55.0607 436.254
353 0 112.17 12.2136 1370 99.0781 56.0336 438.118
354 0 111.249 11.3169 1259 102.542 54.8515 427.783
355 0 116.285 13.5959 1581 97.3283 54.0987 427.834
356 0 119.183 12.9464 1543 98.5165 54.5237 427.436
357 0 122.219 12.4612 1523 99.5857 54.694 425.362
358 0 124.214 12.6073 1566 99.6066 55.2905 421.041
359 0 131.202 12.4312 1631 99.4684 54.794 421.786
360 0 135.34 14.3934 1948 95.7125 54.847 418.989
361 0 139.189 12.9249 1799 99.5675 54.876 406.976
362 0 143.265 11.3915 1632 102.909 54.796 405.126
363 0 147.176 12.7399 1875 100.27 54.8896 405.706
364 0 153.286 13.3802 2051 99.5856 54.4905 402.579
365 0 157.187 12.4056 1950 101.033 55.0077 403.829
366 0 161.327 13.2774 2142 100.718 54.7913 396.989
367 0 169.242 13.1646 2228 100.011 54.5907 396.794
368 0 174.198 14.4376 2515 98.3423 55.1988 390.865
369 0 180.218 14.9208 2689 97.9799 55.3343 389.864
370 0 182.393 13.4709 2457 102.393 55.7888 388.027
371 0 192.445 13.2141 2543 100.933 55.0547 400.975
372 0 197.449 12.8742 2542 103.188 54.6983 391.535
373 0 202.454 12.5559 2542 103.72 54.5614 383.149
374 0 208.364 12.8765 2683 102.17 54.498 377.445
375 0 217.484 13.6194 2962 99.4315 54.2066 380.452
376 0 225.445 13.6353 3074 99.5654 54.7899 376.345
377 0 235.283 13.5242 3182 98.9409 54.3558 372.83
378 1 184.253 13.8885 2559 101.347 54.9175 402.253
379 0 190.422 13.99 2664 105.531 54.3465 398.219
380 0 195.384 13.7422 2685 107.343 54.9371 397.954
381 0 202.423 14.0498 2844 101.897 54.7166 386.617
382 0 206.325 12.8535 2652 104.136 54.3277 378.199
383 0 215.332 14.3871 3098 106.028 54.917 384.445
384 1 66.1398 11.7478 777 96.9936 54.4607 458.967
385 0 67.1046 12.0409 808 96.5161 56.3948 458.708
386 0 69.1881 13.2393 916 89.1157 55.3559 461.627
387 0 71.0543 12.3568 878 92.2722 55.426 459.949
388 0 73.059 12.5241 915 92.2557 55.4667 459.752
389 0 75.1445 13.2944 999 92.2142 55.7317 456.244
390 0 78.1382 13.1434 1027 93.2863 54.7546 456.536
391 0 78.0396 12.609 984 96.126 55.1474 456.201
392 0 83.2173 12.7377 1060 95.6991 55.4594 455.611
393 0 85.0736 14.9165 1269 92.617 55.6761 453.454
394 0 88.118 14.2309 1254 94.5726 55.1483 451.737
395 0 91.0978 14.1496 1289 94.1078 55.301 452.562
396 0 95.0981 14.2169 1352 94.6294 55.3669 448.999
397 0 96.1363 14.8435 1427 95.6594 55.8626 447.53
398 0 97.1799 13.8197 1343 98.545 55.4103 449.693
399 0 99.0851 12.9787 1286 101.977 54.9067 444.1
400 0 101.226 13.5143 1368 102.226 54.8509 444.445
401 0 104.114 14.6858 1529 100.101 54.9961 443.033
402 0 106.131 13.2666 1408 104.35 55.5916 441.099
403 0 111.354 13.6412 1519 103.442 55.5576 439.33
404 0 114.238 13.9008 1588 101.644 54.8136 436.244
405 0 119.145 15.5357 1851 98.4878 55.5991 431.728
406 0 124.135 15.1931 1886 98.9417 54.7259 432.757
407 0 125.087 14.0543 1758 102.36 54.9215 432.675
408 0 128.157 14.2014 1820 104.247 55.3665 426.61
409 0 134.181 14.95 2006 101.957 54.7562 426.071
410 1 80.1282 12.7046 1018 104.694 55.2908 455.682
411 0 82.1696 14.5187 1193 100.748 55.0176 455.562
412 0 84.085 12.6895 1067 105.268 53.6813 450.774
413 0 86.2243 13.0242 1123 105.18 53.2297 451.97
414 0 88.2477 14.3573 1267 103.013 53.7364 450.171
415 0 90.0957 15.3614 1384 100.832 54.19 448.075
416 0 90.1042 13.5066 1217 106.397 54.0657 446.862
417 0 94.2344 13.8166 1302 106.028 53.3233 446.102
418 0 98.0957 13.9048 1364 104.49 53.5762 445.274
419 0 95.0943 11.8409 1126 111.415 53.2043 443.857
420 0 98.2267 12.9293 1270 107.744 53.6591 441.321
421 0 103.142 12.4974 1289 108.953 54.159 440.192
422 0 105.28 11.9491 1258 110.623 54.4833 436.723
423 0 107.194 13.331 1429 107.77 54.4234 435.118
424 0 111.105 13.4557 1495 107.735 54.7037 432.872
425 0 114.154 12.4569 1422 110.205 53.9466 431.949
426 0 119.244 13.334 1590 108.697 53.6252 429.611
427 0 120.284 15.1142 1818 105.249 53.9818 427.884
428 0 122.13 13.9115 1699 108.858 54.1048 424.557
429 0 127.388 13.6433 1738 110.49 54.1231 420.304
430 0 133.241 14.5676 1941 106.762 54.4796 419.925
431 0 137.22 14.6334 2008 108.29 54.2595 418.184
432 0 141.318 14.2515 2014 110.528 54.3376 413.216
433 0 149.192 14.5785 2175 109.877 54.1559 414.206
434 0 153.402 13.8134 2119 111.217 53.7433 414.714
435 0 160.459 13.5923 2181 112.002 53.9395 413.073
436 0 164.245 13.2972 2184 114.272 52.9322 410.807
437 0 171.196 13.7737 2358 111.735 54.1022 409.013
438 1 99.2264 12.2649 1217 102.855 54.0181 443.847
439 0 102.289 11.9172 1219 101.737 54.2576 444.6
440 0 106.161 12.9144 1371 98.9861 54.8534 445.495
441 0 111.196 12.0059 1335 100.282 54.5393 441.508
442 0 114.126 13.1171 1497 99.3641 54.4496 440.494
443 0 114.247 12.7006 1451 101.181 54.6961 436.8
444 0 120.227 12.9006 1551 98.6886 54.4275 440.123
445 0 122.097 13.047 1593 100.017 53.4834 436.594
446 0 127.097 14.0759 1789 98.7842 53.8849 433.69
447 0 129.213 12.638 1633 109.928 54.7103 430.461
448 0 133.26 12.2542 1633 109.732 54.9186 430.729
449 0 137.173 12.0578 1654 110.543 54.8966 425.949
450 0 142.261 11.9428 1699 109.084 55.0895 424.699
451 0 148.421 12.9699 1925 105.984 54.9221 421.891
452 0 152.107 12.0836 1838 107.4 54.8857 421.551
453 0 157.126 11.8949 1869 107.705 54.6586 418.69
454 0 163.171 12.6738 2068 107.305 55.5503 414.894
455 0 166.124 13.0686 2171 107.559 54.8148 411.12
456 0 173.206 12.6843 2197 107.768 54.6714 408.948
457 0 177.21 13.8931 2462 105.766 54.7547 403.013
458 0 182.196 12.6347 2302 108.361 54.4722 405.497
459 0 188.316 13.6048 2562 107.453 53.9871 399.205
460 0 194.363 12.0805 2348 109.846 54.0234 399.679
461 0 199.273 13.6094 2712 106.949 53.7895 395.956
462 0 206.308 13.853 2858 106.483 53.5234 390.397
463 0 212.317 13.7766 2925 107.663 53.5685 384.677
464 0 219.447 15.0241 3297 104.652 53.761 382.357
465 0 224.261 14.3761 3224 106.571 53.8952 378.793
466 0 228.377 13.9638 3189 107.453 54.037 373.055
467 0 236.432 14.7484 3487 104.787 53.7058 364.831
468 0 246.581 14.2752 3520 104.806 53.9528 364.662
469 1 255.71 14.1723 3624 105.873 54.3394 359.099
470 1 63.238 11.5437 730 97.2055 53.7288 460.758
471 0 66.1107 11.2085 741 100.973 54.0607 460.777
472 0 66.0686 11.367 751 95.6085 54.4181 461.856
473 0 69.0702 12.3787 855 94.1333 53.9684 463.93
474 0 70.1307 11.9634 839 95.0179 53.0453 461.417
475 0 71.0902 12.2239 869 95.8562 53.6283 460.499
476 0 74.1419 12.5165 928 96.4688 53.2403 457.942
477 0 76.1907 12.2456 933 98.5466 54.3976 456.386
478 0 79.039 13.0821 1034 96.4062 54.0977 455.986
479 0 81.0998 11.4674 930 100.224 53.5624 454.654
480 0 84.1219 12.4106 1044 98.6897 53.9693 454.845
481 0 88.0552 12.1855 1073 99.2684 54.1883 451.791
482 0 90.095 12.3869 1116 98.4319 54.069 450.78
483 0 89.11 11.1996 998 103.72 53.2445 446.317
484 0 96.0909 12.7588 1226 99.177 53.6721 447.648
485 0 96.2859 12.8368 1236 101.15 53.3115 442.518
486 0 102.121 13.3665 1365 99.2374 53.5927 445.123
487 0 104.266 12.2667 1279 101.892 54.3941 443.411
488 0 105.162 12.2667 1290 104.648 54.1969 436.604
489 0 110.192 11.6161 1280 106.123 54.018 435.087
490 0 113.323 12.3629 1401 104.41 53.6952 433.602
491 0 116.141 13.4923 1567 102.95 53.9087 431.587
492 0 119.219 12.1457 1448 107.662 53.9372 430.737
493 0 121.283 11.5515 1401 109.693 53.5403 427.819
494 0 128.344 14.017 1799 103.926 53.6476 424.788
495 0 132.301 14.4368 1910 105.602 54.511 421.31
496 1 61.1141 10.1777 622 97.6849 55.1945 455.759
497 0 64.0482 10.9605 702 98.7094 55.4658 456.642
498 0 69.1102 13.0806 904 93.2035 55.1338 456.542
499 0 65.2219 11.8979 776 97.0812 54.5606 455.179
500 0 72.1192 12.9369 933 99.6892 55.0332 459.874
501 0 71.2243 12.3975 883 93.2072 54.2775 465.315
502 0 71.1794 12.2367 871 97.1366 54.7819 461.607
503 0 74.1655 11.8249 877 99.9453 54.4356 458.83
504 0 73.2566 10.9478 802 100.776 54.7481 460.892
505 0 77.1696 12.7511 984 97.9533 53.935 458.243
506 0 78.1571 12.6028 985 100.415 54.8924 457.248
507 0 80.2423 11.8267 949 101.945 54.5532 455.366
508 0 83.1441 12.7129 1057 99.9518 54.6102 456.551
509 0 83.246 11.7964 982 104.069 54.3401 452.21
510 0 87.1143 12.2942 1071 103.835 54.1447 455.125
511 0 87.0874 11.4827 1000 103.252 55.382 454.236
512 0 91.1498 13.0225 1187 101.54 54.9924 452.215
513 0 94.1021 13.8785 1306 100.873 55.9602 449.637
514 0 95.2442 11.4443 1090 106.279 55.6165 449.057
515 0 97.1498 13.3196 1294 102.803 56.1028 444.529
516 0 101.103 13.2538 1340 102.946 55.9037 445.113
517 0 105.127 14.3255 1506 101.029 54.9973 442.441
518 0 106.148 13.6884 1453 104.734 54.8741 439.84
519 0 109.073 12.8721 1404 106.515 55.0057 441.267
520 0 113.087 13.1403 1486 105.791 54.3378 436.071
521 0 116.155 12.7416 1480 106.759 54.7608 436.653
522 0 120.127 12.7781 1535 107.748 54.1831 433.197
523 0 123.176 13.3792 1648 106.059 54.5807 431.436
524 0 125.141 12.6258 1580 108.37 54.3342 430.659
525 0 130.268 13.3571 1740 110.364 55.2655 425.272
526 0 134.175 13.8625 1860 108.81 54.2263 426.938
527 0 141.327 13.3025 1880 108.312 54.3431 426.993
528 1 83.165 11.3629 945 105.741 53.9429 453.538
529 0 84.2312 11.7415 989 105.628 54 451.53
530 0 89.2334 13.2574 1183 101.15 53.2773 452.033
531 0 90.2376 13.5088 1219 99.8597 54.2371 449.056
532 0 93.2189 12.712 1185 101.958 53.0937 447.803
533 0 96.1042 13.2564 1274 101.047 54.2049 444.713
534 0 99.185 13.0665 1296 100.74 54.0116 442.67
535 0 103.095 14.2879 1473 97.5635 54.5804 443.617
536 0 105.063 13.1825 1385 99.4838 54.3711 442.448
537 0 108.166 13.1187 1419 100.576 54.8534 436.517
538 0 111.108 12.9424 1438 101.111 54.1912 435.866
539 0 113.146 12.8772 1457 102.623 53.965 430.875
540 0 115.118 12.726 1465 103.829 54.2846 433.801
541 0 118.113 12.1155 1431 105.566 54.6688 431.772
542 0 120.156 13.4492 1616 102.964 54.1825 428.762
543 0 127.264 14.2932 1819 100.08 54.3419 431.142
544 0 126.108 12.743 1607 105.741 54.1176 423.145
545 0 130.22 12.2255 1592 107.969 54.5383 423.568
546 0 136.198 12.6507 1723 107.258 55.0139 420.887
547 0 139.147 14.438 2009 103.867 54.8815 422.294
548 0 143.17 14.5073 2077 105.224 54.9668 418.076
549 0 145.171 12.7298 1848 109.692 54.3333 415.669
550 0 153.177 14.6758 2248 104.802 54.137 412.072
551 0 156.176 13.6513 2132 107.734 54.6276 411.606
552 0 159.134 13.2844 2114 110.103 54.5132 406.572
553 0 167.214 13.5156 2260 109.238 54.6164 404.788
554 0 171.153 12.9825 2222 111.813 54.1242 403.495
555 0 177.302 13.5926 2410 108.514 54.5925 401.298
556 0 179.193 14.0854 2524 112.094 55.0305 395.129
557 0 183.255 14.3734 2634 113.849 54.0725 396.141
558 0 182.259 13.9198 2537 105.589 54.2519 396.538
559 0 184.277 13.6262 2511 111.049 55.0569 390.75
560 0 186.387 13.6705 2548 112.119 54.6907 392.244
561 0 186.422 14.6603 2733 110.589 55.008 393.944
562 0 188.161 13.3024 2503 115.052 54.0623 396.244
563 0 191.242 12.7117 2431 118.446 54.2217 393.191
564 0 192.289 12.4396 2392 121.433 52.7157 387.452
565 1 141.249 13.6355 1926 115.047 54.0389 420.578
566 0 143.141 12.086 1730 119.276 53.7434 419.217
567 0 144.147 12.4734 1798 117.162 53.5184 416.156
568 0 148.383 13.1619 1953 114.39 53.7885 411.964
569 0 153.176 12.5281 1919 113.814 54.4106 411.888
570 0 158.228 12.6463 2001 111.379 54.7391 409.205
571 0 163.298 12.7681 2085 107.771 54.7266 410.625
572 0 169.168 12.5497 2123 109.975 54.4296 401.554
573 0 175.185 12.8721 2255 107.416 54.706 404.012
574 0 179.245 13.6461 2446 106.769 53.825 396.419
575 0 184.369 13.2832 2449 107.878 53.9894 395.031
576 0 190.26 13.9441 2653 106.558 53.715 392.799
577 0 193.476 12.5804 2434 109.864 53.1339 392.251
578 0 197.276 12.9413 2553 113.024 53.5088 382.806
579 0 203.28 12.6869 2579 114.222 53.6375 380.27
580 0 211.288 13.7632 2908 112.849 53.3755 381.867
581 0 215.405 12.4974 2692 117.503 53.3536 380.203
582 0 225.34 14.4271 3251 114.237 52.9154 379.086
583 0 232.541 14.019 3260 115.731 52.7528 374.177
584 0 238.409 14.2989 3409 117.04 52.6718 370.693
585 0 245.321 14.797 3630 115.401 52.273 370.985
586 0 249.413 14.1733 3535 117.604 52.712 365.396
587 1 54.2067 8.68896 471 93.3376 53.7516 468.994
588 0 54.1919 8.39608 455 95.9516 53.9912 466.971
589 0 56.1609 9.68645 544 95.9596 53.0055 467.075
590 0 60.0677 12.2861 738 93.0596 52.5095 466.936
591 0 58.1102 9.41315 547 97.1389 53.2523 470.102
592 0 58.1119 9.58495 557 98.7217 52.6858 467.163
593 0 62.0725 11.0677 687 95.7511 52.8734 466.969
594 0 64.1213 11.0728 710 96.4577 52.4606 465.156
595 0 64.1346 10.5092 674 97.8576 53.0519 465.763
596 0 65.3307 9.59732 627 100.081 52.1499 465.175
597 0 68.2884 10.4703 715 100.68 52.2979 463.408
598 0 69.1243 10.4884 725 101.244 52.6579 463.531
599 0 71.166 10.5106 748 101.396 52.639 463.063
600 0 72.1478 9.97952 720 102.531 52.5639 463.49
601 0 74.0891 10.4874 777 103.449 52.5894 461.351
602 0 75.2053 10.0126 753 105.255 53.2218 460.805
603 0 77.1214 10.3214 796 104.008 52.8367 459.714
604 0 79.2042 11.4262 905 103.087 53.2309 459.977
605 0 82.1148 11.3865 935 101.881 53.1722 456.313
606 0 86.1356 12.8054 1103 97.9982 52.7044 454.447
607 0 86.1189 12.1228 1044 101.249 53.6513 452.57
608 0 91.1272 12.488 1138 99.1951 53.0773 453.844
609 0 91.0616 11.5856 1055 101.928 53.31 453.071
610 0 95.182 13.9312 1326 99.2549 53.4842 451.384
611 0 98.1752 12.6407 1241 100.793 52.9863 448.601
612 0 102.094 12.6647 1293 101.768 53.2514 448.793
613 0 106.142 14.3016 1518 97.3906 53.3722 443.2
614 0 115.155 14.5022 1670 93.5257 52.9844 440.126
615 0 116.201 14.2942 1661 94.8019 52.7423 436.166
616 0 116.126 15.7502 1829 95.5976 52.474 439.404
617 0 118.212 14.5924 1725 100.275 53.0087 436.064
618 0 119.114 12.7357 1517 105.626 53.2762 438.693
619 0 122.293 11.3744 1391 109.03 53.161 433.876
620 0 126.239 12.4209 1568 107.121 52.771 432.833
621 0 129.225 11.569 1495 107.709 52.7659 431.482
622 0 132.269 11.7412 1553 107.83 52.7959 429.41
623 0 137.219 12.9429 1776 105.285 52.7202 428.158
624 0 139.24 12.0799 1682 106.668 53.1356 427.354
625 0 143.294 13.085 1875 103.396 51.9024 426.791
626 0 148.197 11.9908 1777 106.569 52.3708 422.577
627 0 151.178 12.0851 1827 105.646 52.3607 420.453
628 0 157.178 12.8517 2020 103.745 52.5644 418.084
629 0 164.21 12.2404 2010 103.947 51.896 418.447
630 0 169.376 12.7409 2158 102.559 53.5816 414.629
631 0 172.335 11.5472 1990 104.453 52.705 408.917
632 0 179.275 11.0501 1981 105.483 52.6047 407.676
633 0 183.308 10.7088 1963 106.575 52.6587 401.372
634 1 107.185 11.1023 1190 98.0479 52.337 444.322
635 0 110.186 10.6094 1169 101.279 52.923 438.736
636 0 116.183 12.1877 1416 97.0791 53.4004 435.181
637 0 118.207 11.649 1377 97.4299 53.5207 439.543
638 0 121.3 12.4732 1513 95.8202 53.5208 438.007
639 0 125.335 11.6168 1456 98.294 53.7163 435.762
640 0 128.156 10.4092 1334 100.443 52.8561 433.874
641 0 133.193 11.9601 1593 97.8506 53.5775 431.205
642 0 139.407 11.3911 1588 99.1411 52.3401 427.554
643 0 141.338 11.9147 1684 99.4537 52.0754 420.799
644 0 147.351 12.6976 1871 99.1395 52.3629 421.056
645 0 150.221 10.8307 1627 103.76 52.7707 417.556
646 0 156.519 11.1616 1747 102.595 52.8082 415.341
647 0 161.309 10.8921 1757 103.836 53.3307 410.541
648 0 167.461 12.6836 2124 100.28 52.7109 408.842
649 0 173.302 12.8735 2231 101.178 53.4989 405.867
650 0 178.371 13.556 2418 99.7982 53.1741 402.756
651 0 186.407 13.5349 2523 100.259 52.6239 406.636
652 0 190.446 14.0775 2681 99.9157 52.2003 401.768
653 0 196.558 13.2226 2599 100.687 53.3536 395.763
654 0 202.36 13.6539 2763 98.9305 53.511 397.511
655 0 207.657 12.0824 2509 101.367 52.5006 394.426
656 0 214.523 13.2387 2840 100.447 52.5275 382.884
657 0 221.461 13.6051 3013 100.046 53.4368 382.855
658 0 229.479 14.4457 3315 97.0335 53.5472 377.716
659 0 232.531 12.9316 3007 98.9661 53.3678 374.066
660 0 238.393 11.6782 2784 101.258 52.4544 368.158
661 1 62.0446 9.57376 594 86.138 52.9209 459.788
662 0 64.0561 10.3659 664 86.7123 52.1898 460.654
663 0 69.1055 11.6778 807 86.9628 52.1078 462.392
664 0 71.1272 12.2457 871 83.5086 53.0723 462.134
665 0 73.1332 12.361 904 83.531 52.9392 461.971
666 0 75.0803 11.7741 884 84.4966 53.2715 457.847
667 0 75.1562 10.1921 766 83.3577 53.5705 462.393
668 0 78.1433 10.9798 858 83.4091 53.8788 458.731
669 0 82.1006 10.9013 895 83.0536 52.7218 458.387
670 0 85.1239 12.3115 1048 81.2471 53.0401 457.231
671 0 84.1436 10.3514 871 82.8106 53.6498 448.389
672 0 88.1062 12.0196 1059 82.4278 53.7205 455.696
673 0 92.1635 11.816 1089 83.1598 53.4261 448.4
674 0 93.0749 11.3672 1058 84.8091 53.8318 448.616
675 0 96.099 10.9054 1048 85.2385 54.0038 445.001
676 0 101.198 11.3145 1145 82.6803 54.2664 441.085
677 0 100.126 10.1572 1017 86.1642 53.7935 443.208
678 0 105.092 11.5422 1213 85.0511 53.404 442.675
679 0 106.156 10.5787 1123 89.195 53.5307 440.88
680 0 109.077 10.6072 1157 89.1063 54.4304 443.374
681 0 113.109 12.0769 1366 85.937 54.47 439.17
682 0 114.177 8.29412 947 94.1404 54.6917 439.545
683 0 124.147 14.6037 1813 81.9134 53.9879 428.044
684 0 123.157 10.6612 1313 89.7677 54.0625 433.071
685 0 125.16 10.0751 1261 91.9175 54.4385 433.288
686 0 129.189 10.7517 1389 91.0742 53.707 431.38
687 0 130.197 8.17994 1065 98.1465 53.5822 421.325
688 0 136.162 10.9135 1486 93.6777 54.2887 426.284
689 0 141.127 12.301 1736 93.6584 53.5766 421.732
690 0 145.378 12.9387 1881 93.2435 54.5189 415.902
691 0 149.387 12.9194 1930 102.925 54.1321 414.947
692 0 155.166 14.3846 2232 103.48 55.1183 413.463
693 0 158.362 13.4944 2137 105.104 54.8956 407.695
694 0 160.266 13.4588 2157 104.936 54.8336 410.645
695 0 167.213 13.9463 2332 108.949 54.6072 413.039
696 1 97.1033 11.0501 1073 103.792 53.6934 449.518
697 0 98.0658 11.013 1080 100.219 54.338 447.63
698 0 104.209 13.0411 1359 106.497 54.7013 442.22
699 0 106.16 13.084 1389 110.583 54.4082 439.276
700 0 108.277 12.6897 1374 112.164 55.0073 438.959
701 0 114.12 13.6699 1560 107.42 54.7147 439.831
702 0 115.226 12.0979 1394 112.392 55.3608 435.497
703 0 118.171 12.0926 1429 112.794 55.0203 432.833
704 0 124.144 13.5891 1687 107.928 54.652 434.275
705 0 126.218 13.5639 1712 109.889 54.6396 430.733
706 0 126.127 13.1455 1658 112.253 54.1423 426.836
707 0 133.093 13.4342 1788 110.133 54.6616 426.476
708 0 136.163 13.6087 1853 109.776 54.4738 422.805
709 0 142.168 13.5896 1932 108.533 54.3163 420.61
710 0 146.115 13.0787 1911 104.072 54.0999 422.054
711 0 148.142 13.2981 1970 104.837 53.6335 421.072
712 0 156.224 14.1912 2217 102.749 54.1633 416.412
713 0 157.118 12.4238 1952 107.09 53.9426 413.52
714 0 161.19 12.7799 2060 107.694 54.4146 409.617
715 0 169.278 13.8352 2342 104.689 53.8288 411.483
716 0 175.366 14.2901 2506 108.171 53.1057 403.164
717 0 180.262 15.1446 2730 105.477 53.7205 398.665
718 0 184.369 14.0534 2591 108.268 54.1023 397.903
719 0 191.346 13.8388 2648 109.52 53.8421 394.093
720 0 196.327 13.9869 2746 108.815 54.508 392.527
721 0 205.352 13.9663 2868 108.023 54.1346 390.215
722 0 209.362 14.8355 3106 107.099 54.3493 387.032
723 0 217.448 14.8495 3229 107.526 54.1762 384.79
724 0 224.521 14.4619 3247 108.068 53.4912 382.352
725 0 231.359 13.8356 3201 110.131 54.3508 377.188
726 0 241.375 14.7861 3569 107.546 53.9753 373.927
727 0 247.372 14.2943 3536 107.823 54.1162 370.387
728 0 256.427 14.7371 3779 106.249 53.5015 366.02
729 0 262.64 14.2781 3750 108.265 54.2024 365.21
730 0 274.575 15.606 4285 105.147 53.5711 351.942
731 0 280.354 15.5411 4357 104.246 53.1005 349.5
732 0 286.428 15.6793 4491 102.787 53.2783 337.785
733 0 297.376 16.1109 4791 102.325 52.627 336.59
734 0 305.585 15.5636 4756 104.102 53.5332 326.115
735 0 315.542 16.7236 5277 101.395 52.8054 321.884
736 0 327.582 16.1059 5276 103.338 52.9983 323.197
737 0 329.507 13.936 4592 109.672 53.4848 329.733
738 0 328.575 12.119 3982 114.011 53.5414 332.695
739 0 328.576 12.6424 4154 113.472 54.0626 335.318
740 0 314.353 10.6027 3333 115.188 52.7363 347.167
741 0 316.605 10.0472 3181 115.951 53.9396 351.555
742 0 315.436 9.49798 2996 119.455 52.9079 345.548
743 0 317.464 15.5797 4946 110.413 53.5394 320.044
744 0 326.422 14.2852 4663 114.065 53.7622 324.924
745 0 334.488 16.3593 5472 109.947 53.9653 321.807
746 0 347.704 14.8287 5156 113.829 53.4926 308.125
747 0 361.59 16.7372 6052 108.524 53.226 302.327
748 0 370.565 16.7879 6221 110.873 52.6896 298.537
749 0 379.786 17.0754 6485 111.826 53.7682 291.902
751 0 380.674 17.6056 6702 107.662 53.3696 289.689
752 0 203.647 18.6204 3792 87.678 53.2025 386.458
753 0 206.244 15.055 3105 96.0325 53.7523 387.406
754 0 208.252 14.1031 2937 102.529 53.1399 388.202
755 0 214.429 13.6082 2918 108.635 53.9812 386.344
756 0 220.315 12.5184 2758 109.639 54.1751 382.016
757 0 230.256 16.6163 3826 97.0998 53.7297 374.088
758 1 174.283 10.7928 1881 101.389 53.2913 404.201
759 0 180.352 12.5587 2265 99.7801 53.1651 404.177
760 0 184.297 11.2915 2081 105.396 52.7107 402.161
761 0 189.583 12.4273 2356 104.615 52.857 399.119
762 0 194.345 12.9409 2515 104.619 53.1654 398.165
763 0 199.377 12.2933 2451 107.088 52.3427 393.807
764 0 206.245 11.9615 2467 108.759 52.5679 390.155
765 0 211.25 13.7088 2896 107.197 52.6036 392.688
766 0 217.217 12.7338 2766 113.293 52.6515 386.996
767 0 222.404 12.6481 2813 117.354 51.6801 376.503
768 0 225.385 12.7338 2870 120.961 51.4359 367.068
769 0 234.481 13.3401 3128 121.68 52.4597 373.133
770 0 242.272 14.0668 3408 118.738 52.4674 366.625
771 0 246.33 13.827 3406 121.159 51.9445 358.249
772 0 253.402 12.3835 3138 125.398 52.4356 354.614
773 0 261.437 13.2422 3462 122.991 52.3001 350.483
774 1 46.0967 9.89225 456 87.3487 52.4693 468.024
775 0 46.0967 9.89225 456 103.708 51.4737 467.987
776 0 46.0496 9.18574 423 89.1631 53.3641 468.53
777 0 47.0973 9.06633 427 87.9157 53.8525 466.496
778 0 47.0813 9.09066 428 90.0958 54.0514 470.063
779 0 47.0823 10.8321 510 90.9549 53.7392 470.259
780 0 50.0641 9.80743 491 93.9532 54.0122 468.371
781 0 49.0761 11.6758 573 90.1867 53.836 470.836
782 0 51.0654 9.71303 496 96.5726 54.1794 469.069
783 0 50.0254 8.03592 402 88.6169 53.7537 469.386
784 0 50.021 9.23613 462 88.4827 54.5411 472.506
785 0 50.0727 8.78722 440 90.0841 54.2795 473.539
786 0 51.0252 9.09355 464 90.7586 54.0539 472.336
788 0 29.1996 14.6577 428 87.9229 52.6028 315.654
789 0 28.1889 14.4738 408 84.7549 52.6422 361.071
790 0 27.0624 12.8222 347 90.5908 55.3977 363.429
791 0 27.1695 14.4647 393 84.6794 52.9415 402.28
792 0 28.0345 13.2694 372 88.7124 55.5108 407.89
793 0 29.0199 14.3695 417 87.7626 52.8993 436.885
794 0 27.0374 14.4245 390 88.5897 55.2795 485.856
795 0 26.0188 12.3372 321 95.6262 54.3396 485.972
796 0 29.0498 13.2531 385 89.5143 54.6416 485.273
797 0 29.1169 13.0165 379 91.0369 54.1319 484.554
798 0 29.0654 13.7277 399 89.3333 54.4662 485.892
799 0 29.0086 14.3061 415 88.6843 53.9759 484.429
800 0 28.0551 13.723 385 91.961 54.1714 484.434
801 0 30.0362 14.8487 446 87.8565 52.9731 483.399
802 0 29.0445 12.7735 371 93.6361 52.655 480.534
803 0 29.0243 12.9891 377 93.5358 53.8806 485.127
804 0 30.0464 13.0465 392 93.1301 53.1429 482.538
805 0 29.1388 12.4576 363 96.3085 53.6612 486.055
806 0 29.1546 13.8571 404 92.354 54.1287 486.475
807 0 28.054 14.2939 401 93.1471 54.1297 483.895
808 0 30.0115 13.3949 402 93.5249 53.4925 481.918
809 0 29.0797 15.0277 437 90.0526 53.6819 482.645
810 0 30.0085 13.8294 415 92.5759 53.694 484.627
811 0 28.0302 11.7374 329 101.046 54.4407 484.991
812 0 30.0109 14.0949 423 92.4657 51.6501 483.08
813 0 32.0649 14.19 455 90.5121 51.2418 483.343
814 0 27.0154 13.2887 359 99.2953 52.0139 484.081
815 0 30.0813 14.4608 435 93.0782 52.7149 480.26
816 0 30.0618 14.2374 428 93.2804 52.8411 485.023
817 0 31.0568 15.1336 470 90.9787 52.317 484.66
818 0 29.0199 13.06 379 98.6675 52.1873 484.763
819 0 29.0353 12.9153 375 100.712 51.656 483.925
820 0 30.0142 14.9596 449 92.6303 52.3252 485.334
821 0 30.0306 13.2532 398 98.0578 52.2864 483.776
822 0 28.0115 13.4231 376 99.8165 52.8085 484.649
823 0 29.0191 13.7496 399 98.787 53.3534 484.318
824 0 30.0181 15.424 463 93.3024 53.5659 484.832
825 0 30.1067 13.8507 417 97 52.6115 484.103
826 0 31.0644 13.6813 425 96.2941 52.9294 484.421
827 0 30.0131 14.6269 439 95.6014 52.9818 484.109
828 0 30.0282 14.22 427 97.5527 51.9133 484.253
829 0 29.0326 13.0888 380 102.068 53.0605 483.745
830 0 28.0155 14.135 396 100.48 52.7702 483.288
831 0 29.0278 13.711 398 100.523 52.3166 484.118
832 0 31.0148 14.7671 458 94.8515 52.2489 482.915
833 0 30.1048 14.217 428 98.25 52.993 484.129
834 0 30.0674 14.401 433 98.2933 51.709 484.095
835 0 29.0079 12.6517 367 104.692 51.9074 483.272
836 0 30.0883 13.693 412 100.76 52.3883 484.308
837 0 30.0298 14.2525 428 99.243 51.8131 484.143
838 0 30.0122 14.4608 434 98.5945 53.1866 484.182
839 0 32.0219 15.6143 500 93.156 52.35 483.096
840 0 30.0278 15.0194 451 98.4412 52.5144 483.06
841 0 30.0062 15.1635 455 96.9824 52.5824 483.431
842 0 30.0077 13.6965 411 100.747 52.9732 483.82
843 0 30.0216 13.9233 418 100.292 53.3301 483.16
844 0 30.0699 12.9033 388 103.936 54.3608 483.464
