time division length width area intensity CMx CMy
544 0 65.0511 13.082 851 118.61 1180.65 428.448
545 0 68.0555 12.3135 838 121.049 1180.97 428.717
546 0 69.0583 13.2207 913 119.852 1181.02 428.245
547 0 72.0823 13.7898 994 120.125 1180.65 427.458
548 0 75.0428 13.6722 1026 122.567 1181.11 423.015
549 0 77.1205 13.7966 1064 122.398 1180.99 423.635
550 0 79.121 14.1176 1117 120.755 1180.91 425.614
551 0 84.1227 14.3481 1207 120.196 1180.25 422.331
552 0 85.1221 14.0739 1198 120.818 1181.27 421.659
553 0 87.0795 13.6886 1192 123.241 1181.02 420.692
554 0 90.1032 15.4268 1390 118.009 1180.71 420.797
555 0 92.0807 14.2918 1316 120.329 1180.7 421.216
556 0 96.1094 14.9517 1437 119.276 1180.89 417.834
557 0 98.0957 15.2504 1496 118.966 1180.59 415.309
558 0 102.055 15.1976 1551 118.404 1180.85 414.818
559 0 107.066 15.738 1685 115.791 1181.07 410.961
560 0 110.074 14.7628 1625 117.996 1181.8 409.892
561 1 58.0668 10.6257 617 116.053 1181.88 439.488
562 0 57.0665 11.5655 660 116.22 1180.44 437.692
563 0 59.0629 11.8687 701 116.936 1180.63 436.837
564 0 62.2019 12.7327 792 114.542 1181.17 436.413
565 0 62.0727 13.0009 807 116.379 1181 434.637
566 0 66.1178 13.0222 861 115.768 1180.8 435.012
567 0 67.0815 12.4625 836 117.574 1180.07 433.852
568 0 70.1336 12.4762 875 118.543 1180.91 433.654
569 0 71.1495 13.1554 936 117.952 1180.4 431.635
570 0 72.0418 12.6871 914 117.965 1180.89 430.746
571 0 78.0667 13.1682 1028 116.119 1180.89 430.046
572 0 79.0861 12.4801 987 118.216 1180.7 429.889
573 0 83.0267 13.9353 1157 116.627 1181.09 428.643
574 0 85.1206 12.6996 1081 119.525 1181.67 427.92
575 0 86.0858 12.1507 1046 121.8 1181.14 427.692
576 0 91.1466 14.5151 1323 115.011 1181.13 426.674
577 0 92.0991 13.0294 1200 119.665 1180.35 424.154
578 0 96.0913 13.9034 1336 117.622 1180.75 421.772
579 0 96.088 13.9039 1336 152.49 1180.74 421.856
580 0 103.194 12.9658 1338 119.347 1181.08 417.303
581 0 106.241 12.9422 1375 119.055 1180.65 415.014
582 1 54.0338 11.3633 614 107.394 1181.18 442.679
583 0 56.0216 11.6205 651 104.18 1180.8 442.937
584 0 58.03 11.7008 679 107.555 1181.53 441.418
585 0 60.1221 11.2937 679 108.477 1181.02 439.486
586 0 61.072 12.0022 733 107.254 1180.89 438.098
587 0 64.0556 12.1145 776 105.84 1181.28 438.365
588 0 65.087 11.646 758 107.375 1180.32 435.883
589 0 64.0295 11.8851 761 109.604 1180.66 433.661
590 0 72.0723 13.098 944 108.683 1180.27 434.985
591 0 73.053 12.9632 947 109.472 1179.93 434.867
592 0 76.0968 11.2883 859 112.802 1180.19 433.484
593 0 79.0681 11.6229 919 111.829 1181.05 432.584
594 0 82.0745 10.99 902 113.591 1181.06 430.579
595 0 85.1132 11.9605 1018 110.917 1180.8 429.323
596 0 87.0495 11.0052 958 114.39 1180.68 426.399
597 1 45.0438 8.72485 393 109.181 1180.5 448.341
598 0 48.025 10.3071 495 103.883 1180.58 446.79
599 0 50.0767 11.063 554 101.608 1181.24 445.751
600 0 51.0254 11.4649 585 106.809 1181.25 446.096
601 0 54.1555 12.7226 689 104.44 1181.14 445.104
602 0 53.0407 11.3309 601 110.018 1180.8 443.343
603 0 57.0956 11.2793 644 108.345 1180.69 443.132
604 0 57.0891 11.9988 685 107.142 1180.62 443.572
605 0 60.0605 11.6716 701 107.783 1181.34 440.344
606 0 62.1843 13.2349 823 105.299 1180.98 440.351
607 0 62.0807 11.6783 725 109.312 1180.67 438.397
608 0 65.0557 11.6669 759 109.993 1180.06 436.672
609 0 67.0684 12.3605 829 107.862 1181.14 437.963
610 0 70.0302 10.8239 758 112.335 1180.62 433.226
611 0 72.0507 11.0339 795 111.937 1180.81 434.957
612 0 76.0372 11.4944 874 111.104 1180.79 432.013
613 0 79.1236 13.283 1051 107.769 1180.48 431.277
614 0 83.1057 12.4059 1031 110.142 1180.85 430.02
615 1 40.0369 9.29142 372 107.185 1181.3 451.032
616 0 43.0781 11.9782 516 101.328 1180.12 449.068
617 0 44.047 10.4434 460 107.483 1180.96 446.935
618 0 47.0482 10.5849 498 106.498 1181.18 449.221
619 0 49.0406 10.8278 531 105.266 1181.18 448.755
620 0 49.0168 11.1186 545 106.286 1181.43 446.461
621 0 52.0459 10.9903 572 104.899 1181.87 447.386
622 0 55.0316 12.4111 683 102.855 1181.02 444.135
623 0 56.0182 12.6566 709 102.449 1181.3 444.697
624 0 59.0749 11.0707 654 103.202 1180.47 444.526
625 0 58.0369 11.889 690 101.219 1180.21 442.342
626 0 60.1237 10.9441 658 104.336 1180.78 438.804
627 0 62.1143 11.5915 720 103.304 1181.04 440.587
628 0 65.0317 11.4406 744 104.035 1180.44 438.625
629 0 68.0578 11.7841 802 103.354 1179.93 436.13
630 0 72.2117 11.4524 827 102.828 1180.11 435.874
631 0 73.0496 11.7181 856 103.833 1179.73 435.464
632 0 76.0581 11.7542 894 104.489 1180.18 431.93
633 0 79.0941 11.3789 900 105.63 1179.96 432.609
634 0 81.1164 11.2678 914 105.921 1180.02 427.523
635 1 41.0842 10.2716 422 101.429 1180.87 449.974
636 0 43.0751 10.7254 462 107.249 1181.61 451.461
637 0 46.1184 13.3569 616 101.489 1180.05 449.209
638 0 47.108 12.206 575 104.873 1179.31 449.79
639 0 48.0583 12.1935 586 105.491 1180.05 449.874
640 0 47.151 10.8163 510 110.453 1180.6 449.575
641 0 50.1609 12.0811 606 107.754 1179.93 448.625
642 0 50.1523 11.6844 586 109.459 1180.01 447.089
643 0 54.1919 13.6367 739 104.555 1179.45 445.79
644 0 53.0802 12.0196 638 109.506 1179.97 446.423
645 0 56.0897 12.5691 705 107.688 1180.25 446.339
646 0 57.0789 12.6842 724 108.032 1180.31 445.637
647 0 60.062 11.9377 717 110.138 1179.44 444.195
648 0 61.0519 13.7424 839 106.224 1180.29 443.018
649 0 61.0738 12.4931 763 111.113 1179.63 442.903
650 0 64.112 12.6497 811 110.961 1179.51 441.584
651 0 69.1016 14.428 997 104.562 1179.4 441.746
652 0 70.0472 13.0198 912 109.225 1179.29 440.918
653 0 73.0646 14.0287 1025 107.957 1180.17 438.861
654 0 75.0778 13.839 1039 108.321 1179.82 438.713
655 0 78.0781 13.9476 1089 108.08 1179.9 436.157
656 0 82.0788 14.5714 1196 105.957 1179.89 435.479
657 0 86.1552 13.4409 1158 107.928 1179.77 433.5
658 0 89.0542 13.6321 1214 107.416 1179.31 433.928
659 0 91.075 13.0552 1189 109.056 1179.78 430.478
660 1 48.0653 12.2334 588 107.983 1179.37 451.129
661 0 50.0718 12.542 628 98.8758 1180.42 448.941
662 0 51.0317 12.1689 621 97.8969 1180.1 448.375
663 0 52.0623 12.1201 631 98.4612 1180.22 447.482
664 0 56.0983 12.4959 701 95.2611 1180.55 446.951
665 0 54.1005 11.5526 625 98.032 1180.47 446.659
666 0 58.066 12.6064 732 95.6284 1180.05 444.977
667 0 58.0202 12.1682 706 97.9065 1179.39 445.035
668 0 62.0777 12.6132 783 96.9374 1179.4 443.115
669 0 64.0258 12.5106 801 98.3421 1180.05 441.255
670 0 64.0388 12.3987 794 99.6297 1179.56 442.462
671 0 67.0501 12.0656 809 101.007 1180.04 440.953
672 0 68.0482 12.6234 859 101.357 1179.7 440.7
673 0 68.0556 11.8726 808 105.897 1179.54 436.308
674 0 75.1005 13.1823 990 103.404 1179.75 437.262
675 0 77.1354 12.8994 995 104.442 1180.56 434.972
676 0 79.0724 13.5951 1075 105.167 1179.84 433.803
677 0 81.0516 13.0658 1059 108.069 1179.98 434.677
678 0 84.0553 14.4667 1216 110.393 1180.4 431.98
679 0 86.1445 14.2667 1229 111.508 1180.31 429.969
680 0 92.1481 13.6736 1260 111.498 1180.48 430.401
681 0 92.1623 12.912 1190 114.549 1180.22 429.869
682 1 50.0292 10.8137 541 109.538 1179.58 451.013
683 0 49.09 11.8558 582 110.909 1180.16 448.514
684 0 52.074 12.3478 643 109.224 1180.2 448.019
685 0 55.0741 12.5286 690 108.058 1179.84 447.71
686 0 55.0833 13.0529 719 108.423 1179.78 447.017
687 0 58.0532 12.9192 750 109.244 1180.03 444.601
688 0 56.047 11.758 659 113.59 1180.15 445.596
689 0 60.1919 12.8256 772 110.38 1180.21 444.063
690 0 61.026 12.8306 783 111.166 1180.62 443.298
691 0 63.0832 12.7768 806 105.352 1180.22 442.144
692 0 66.0381 12.4171 820 106.116 1180.06 441.704
693 0 66.078 11.6378 769 108.583 1180.34 440.567
694 0 67.0827 11.8659 796 109.459 1180.52 439.531
695 0 73.0642 12.4 906 107.652 1180.41 438.393
696 0 73.0485 12.1837 890 110.255 1180.04 436.838
697 0 77.1385 12.134 936 110.334 1180.63 434.203
698 0 78.0308 11.5083 898 112.619 1180.11 434.17
699 0 82.1152 12.4581 1023 111.28 1180.83 431.346
700 0 86.095 13.5316 1165 107.645 1180.34 430.547
701 0 88.1121 12.1096 1067 111.356 1180.64 428.405
702 0 91.1083 12.5455 1143 115.984 1179.97 427.731
703 0 96.0732 13.6146 1308 113.38 1179.98 424.588
704 0 99.1175 14.4475 1432 111.631 1180.1 422.288
705 0 102.048 12.5529 1281 117.153 1180.19 420.752
706 0 108.098 13.978 1511 112.458 1179.41 419.091
707 0 111.237 13.2689 1476 113.721 1180.42 417.148
708 0 117.238 13.9204 1632 112.854 1179.52 415.669
709 0 123.136 14.4636 1781 111.706 1178.9 412.766
710 0 124.195 13.052 1621 116.907 1179.92 411.271
711 0 127.252 13.8701 1765 115.62 1179.89 407.39
712 1 66.0707 12.5623 830 110.466 1179.54 437.092
713 0 66.0555 12.1716 804 106.422 1179.78 437.989
714 0 72.0732 11.9184 859 105.059 1179.97 438.036
715 0 73.0203 10.9559 800 109.198 1179.29 436.354
716 0 77.0798 12.0395 928 106.968 1179.21 435.642
717 0 79.0576 12.0166 950 109.531 1180.22 433.448
718 0 83.0925 12.6847 1054 108.514 1179.57 432.371
719 0 85.0724 12.2484 1042 110.961 1179.77 430.808
720 0 86.0667 12.7576 1098 111.643 1179.43 430.006
721 0 89.0341 12.0965 1077 112.88 1179.61 426.625
722 0 90.1065 11.3199 1020 114.194 1179.8 425.489
723 0 96.1477 11.7112 1126 112.845 1180.2 424.303
724 1 53.0423 10.4445 554 104.417 1179.58 448.561
725 0 53.053 9.68842 514 105.576 1179.05 447.426
726 0 56.024 10.0493 563 110.156 1180.03 446.934
727 0 57.0916 11.5604 660 108.37 1180.42 445.336
728 0 60.1272 11.642 700 108.157 1180.58 443.496
729 0 63.1349 11.7843 744 106.698 1180.64 443.013
730 0 64.0686 11.3472 727 107.941 1180.93 441.011
731 0 68.0617 12.5768 856 102.611 1180.26 442.138
732 0 69.027 11.9374 824 105.09 1180.18 438.869
733 0 71.1213 11.2203 798 106.333 1179.98 437.733
734 0 75.0946 10.3603 778 107.22 1179.63 436.593
735 0 79.1315 11.7273 928 103.351 1180.02 435.824
736 0 81.1752 12.2821 997 103.179 1179.62 434.074
737 0 85.1503 11.8966 1013 103.91 1179.62 431.05
738 0 88.1949 12.3136 1086 103.75 1179.74 430.564
739 0 90.1359 11.0833 999 108.529 1180.7 427.904
740 1 46.0955 9.41523 434 99.2465 1179.48 453.666
741 0 47.0867 9.87539 465 102.303 1179.71 450.918
742 0 49.1635 11.5126 566 100.746 1179.17 452.088
743 0 50.0925 12.1575 609 100.818 1178.93 450.415
744 0 52.1689 12.402 647 108.638 1179.4 448.835
745 0 51.173 10.9042 558 105.346 1179.69 450.168
746 0 55.1741 12.1434 670 101.845 1179.34 449.204
747 0 56.1243 12.4901 701 102.719 1178.66 447.997
748 0 58.1387 11.7822 685 103.769 1178.85 447.159
749 0 58.1454 10.9381 636 106.709 1178.97 446.45
750 0 60.1083 11.08 666 106.246 1179.18 443.865
751 0 62.1023 11.7709 731 105.302 1179.68 442.501
752 0 62.1408 11.0555 687 107.601 1179.06 443.054
753 0 66.1869 12.0114 795 105.874 1180.15 441.376
754 0 69.0885 12.3175 851 105.078 1179.88 440.1
755 0 70.1703 12.3414 866 106.207 1178.65 439.867
756 0 73.0709 13.0832 956 105.319 1179.58 438.404
757 0 76.1087 13.0865 996 104.237 1179.84 439.144
758 0 79.1624 12.986 1028 104.591 1179.22 437.757
759 0 81.1147 13.7953 1119 102.489 1179.84 435.542
760 0 85.2433 13.8662 1182 102.525 1178.82 435.274
761 0 86.1837 12.8679 1109 106.436 1179.63 432.226
762 0 89.1874 13.2418 1181 106.201 1179.67 429.626
763 0 93.1667 13.1485 1225 107.61 1179.85 431.219
764 0 97.2886 13.609 1324 112.25 1180.53 425.052
765 1 52.1451 10.49 547 111.318 1180.55 449.824
766 0 54.1179 12.1956 660 103.092 1180.14 446.267
767 0 56.0758 11.5915 650 105.769 1180.15 446.708
768 0 57.1428 11.9875 685 105.647 1179.93 444.908
769 0 59.1116 11.3514 671 107.125 1179.88 445.733
770 0 60.0885 11.949 718 106.344 1179.9 443.487
771 0 63.0989 11.9336 753 106.07 1179.78 442.814
772 0 66.0963 12.5574 830 104.03 1180.5 442.006
773 0 64.0878 12.9042 827 106.145 1180 440.628
774 0 68.0938 12.1891 830 107.918 1180.35 439.158
775 0 72.1054 12.6898 915 105.498 1180.13 437.362
776 0 74.0815 12.5402 929 105.84 1179.93 435.954
777 0 77.0926 12.3618 953 107.123 1180.08 435.059
778 0 78.0756 12.9618 1012 106.317 1180.03 434.372
779 0 82.1362 12.5036 1027 103.2 1180.68 432.894
780 0 83.1426 12.8334 1067 105.33 1180.5 430.552
781 0 86.136 12.7821 1101 105.994 1180.87 429.655
782 0 87.1476 12.9206 1126 106.277 1179.81 426.526
783 0 90.1704 11.7888 1063 108.334 1179.68 427.1
784 0 96.1508 13.4684 1295 104.96 1180.59 425.758
785 0 98.2277 13.2447 1301 105.368 1180.76 426.942
786 0 102.305 12.9319 1323 106.797 1180.3 423.619
787 0 103.263 12.7829 1320 108.795 1179.1 422.433
788 0 108.251 14.143 1531 104.965 1179.63 419.138
789 0 111.23 14.2857 1589 104.734 1180.13 418.683
790 0 115.173 13.1107 1510 108.146 1179.1 416.032
791 0 120.143 12.8513 1544 106.938 1179.28 417.034
792 0 124.227 12.2517 1522 109.543 1179.18 413.716
793 0 126.283 12.6382 1596 109.258 1179.86 409.721
794 1 66.1721 12.1804 806 103.902 1180.18 440.134
795 0 68.2351 11.6949 798 105.358 1180.84 438.377
796 0 71.1017 11.6312 827 104.741 1180.13 437.886
797 0 71.0543 12.4412 884 104.373 1180.28 434.281
798 0 74.0963 11.3771 843 102.138 1180.14 436.044
799 0 78.1631 10.977 858 103.302 1180.13 434.429
800 0 81.0939 12.3807 1004 102.862 1180.49 431.58
801 0 83.1374 11.3186 941 105.661 1180.54 432.962
802 0 86.1567 11.6416 1003 105.938 1179.93 431.506
803 0 88.1511 11.5824 1021 106.818 1179.69 431.142
804 0 90.3083 11.3389 1024 110.401 1180.4 425.676
805 0 95.1157 12.4165 1181 106.888 1180.09 426.666
806 0 98.2266 12.685 1246 107.283 1180.14 425.021
807 0 101.19 12.6396 1279 110.518 1179.89 421.33
808 0 104.188 12.4966 1302 111.346 1179.32 419.492
809 0 107.265 10.5999 1137 114.982 1180.28 419.778
810 1 60.145 10.3749 624 102.885 1180.03 443.931
811 0 62.098 11.3691 706 102.916 1181.6 439.867
812 0 62.1341 10.6705 663 106.192 1180.19 438.297
813 0 65.0816 11.6776 760 104.805 1179.54 441.446
814 0 68.0546 11.5936 789 106.028 1179.14 439.312
815 0 70.1567 11.6169 815 107.801 1179.43 437.45
816 0 71.0487 11.0206 783 110.064 1180.16 436.82
817 0 73.085 11.4387 836 109.638 1179.42 434.184
818 0 75.0603 11.4308 858 109.223 1180.16 436.506
819 0 77.1093 12.0478 929 108.928 1179.98 431.637
820 0 82.1114 11.6184 954 109.461 1179.99 430.787
821 0 84.1876 12.4959 1052 107.647 1179.42 431.029
822 0 87.1238 12.4535 1085 109.263 1180.77 428.362
823 0 93.1377 12.7768 1190 106.387 1180.26 426.419
824 0 94.1959 12.2404 1153 107.765 1179.84 426.537
825 0 97.1391 12.0549 1171 109.538 1180.26 421.843
826 1 52.0874 9.96401 519 102.557 1180.03 445.252
827 0 58.1119 12.1834 708 102.032 1179.66 445.79
828 0 55.2262 12.2043 674 103.058 1180.54 444.366
829 0 59.1678 12.0674 714 101.752 1180.37 445.578
830 0 60.3089 13.7459 829 98.0555 1179.6 443.709
831 0 65.262 14.1736 925 96.2595 1179.06 443.157
832 0 64.0957 13.3862 858 100.11 1179.67 441.068
833 0 66.1801 13.6144 901 100.055 1180.04 441.341
834 0 68.2801 13.0345 890 101.925 1179.69 440.197
835 0 69.2212 13.204 914 102.97 1179.85 438.856
836 0 71.1397 12.7496 907 103.069 1179.57 437.835
837 0 74.1727 12.9832 963 101.342 1179.49 437.707
838 0 76.142 12.9495 986 103.642 1179.73 436.346
839 0 80.2413 12.7864 1026 104.367 1179.58 433.447
840 0 81.2184 12.2879 998 107.026 1180.21 433.412
841 0 85.2552 13.5593 1156 103.173 1179.67 433.817
842 0 86.2215 12.6187 1088 107.134 1179.78 430.277
843 0 90.1968 13.2156 1192 106.368 1179.42 429.448
844 0 94.3169 12.9775 1224 105.56 1179.45 428.833
845 0 96.3796 13.1044 1263 105.391 1179.73 428.758
846 1 50.1633 11.3429 569 105.548 1179.94 449.1
847 0 54.0696 12.7243 688 102.362 1180.3 447.057
848 0 55.0987 12.3233 679 97.1782 1179.97 445.932
849 0 56.1026 11.3898 639 99.2379 1179.36 447.881
850 0 56.1077 10.3194 579 102.61 1180.75 447.805
851 0 58.1156 10.1866 592 103.91 1180.53 445.541
852 0 58.1336 10.9919 639 103.895 1179.79 442.538
853 0 60.1757 11.483 691 102.971 1180.28 444.505
854 0 64.1039 11.3098 725 101.788 1180.49 443.474
855 0 66.1651 11.3655 752 102.572 1179.8 441.573
856 0 69.1242 11.8772 821 100.336 1180.68 442.347
857 0 70.1925 12.7934 898 99.6949 1180.59 440.661
858 0 74.1249 12.6273 936 100.564 1180.57 438.375
859 0 74.118 12.1023 897 102.203 1180.04 438.808
860 0 76.1584 9.99233 761 107.629 1180.02 437.807
861 0 81.1763 14.1667 1150 100.957 1180.25 434.922
862 0 83.1045 13.0679 1086 104.379 1180.51 433.841
863 0 85.1083 12.5605 1069 107.531 1179.72 433.522
864 0 88.0755 12.5461 1105 110.111 1179.97 431.144
865 1 49.1648 10.6784 525 109.766 1180.94 450.293
866 0 50.1115 10.1574 509 110.179 1181.02 450.933
867 0 50.0768 11.4624 574 113.627 1180.97 448.436
868 0 52.0432 12.4128 646 117.807 1180.57 446.483
869 0 56.0771 13.7668 772 113.365 1181.17 446.67
870 0 57.0831 12.7008 725 117.764 1180.59 446.623
871 0 58.072 13.5005 784 116.75 1180.43 443.291
872 0 59.1254 12.4481 736 120.201 1180.87 444.031
873 0 62.1183 13.6031 845 117.051 1181.24 442.231
874 0 63.2115 13.0356 824 119.266 1180.34 441.363
875 0 65.0898 12.0603 785 122.303 1180.52 440.852
876 0 69.1338 13.2641 917 118.298 1180.26 440.231
877 0 70.1856 12.1962 856 121.632 1179.77 439.478
878 0 71.171 13.4465 957 120.171 1180.06 437.609
879 0 75.1233 12.7124 955 119.673 1180.02 438.361
880 0 78.0925 13.087 1022 119.42 1179.84 436.939
881 0 80.0853 12.2619 982 122.786 1179.83 434.234
882 1 40.0749 11.4536 459 113.105 1180.74 454.002
883 0 42.0946 11.4029 480 115.75 1180.71 452.215
884 0 42.2442 10.676 451 119.446 1179.19 454.268
885 0 44.2221 11.3518 502 117.95 1178.88 453.072
886 0 44.333 11.5038 510 119.18 1179.05 451.086
887 0 48.2417 11.9191 575 114.677 1178.47 452.009
888 0 46.1667 11.6318 537 119.188 1178.46 451.508
889 0 48.1828 11.6639 562 119.317 1178.77 450.158
890 0 49.1509 11.4342 562 119.176 1178.41 450.117
891 0 50.0941 12.0573 604 118.77 1178.84 449.995
892 0 52.1917 11.8218 617 119.736 1178.6 449.525
893 0 50.1538 10.9663 550 124.451 1178.86 447.589
894 0 58.1324 12.9876 755 114.621 1178.69 446.603
895 0 57.1843 12.5384 717 118.49 1179.37 445.233
896 0 57.1805 11.2801 645 121.04 1179.18 446.05
897 0 59.0868 12.6086 745 117.87 1178.83 443.725
898 0 61.0959 12.9469 791 116.215 1178.86 442.891
899 0 61.1059 13.2066 807 116.6 1179.19 441.68
900 0 64.1323 12.7705 819 116.433 1178.42 443.06
901 0 65.1837 12.227 797 119.573 1179.17 439.817
902 0 68.1457 12.6934 865 117.904 1179.16 439.091
903 0 71.1478 12.5794 895 115.999 1179.29 438.269
904 0 73.1048 13.2823 971 114.144 1178.53 436.631
905 0 71.0705 10.9328 777 115.022 1178.83 437.075
906 0 75.067 11.563 868 113.349 1178.95 435.871
907 0 79.1253 12.1327 960 111.465 1178.81 434.633
908 0 82.1318 12.5043 1027 111.701 1178.87 432.073
909 1 42.0264 10.66 448 112.556 1178.23 451.964
910 0 45.0822 11.0243 497 112.308 1178.87 451.535
911 0 46.0796 11.2197 517 107.07 1178.55 451.578
912 0 47.12 12.1392 572 103.253 1178.67 450.857
913 0 48.2084 11.1391 537 106.138 1178.44 451.376
914 0 48.0796 12.0217 578 105.766 1178.87 449.277
915 0 50.0983 13.0943 656 102.122 1178.41 448.866
916 0 52.1825 11.1532 582 106.029 1178.45 449.256
917 0 54.0544 12.9684 701 101.05 1178.73 447.866
918 0 56.1728 12.3903 696 102.218 1178.24 446.519
919 0 56.071 12.3058 690 102.791 1178.46 446.22
920 0 57.0728 11.6693 666 103.131 1178.49 446.306
921 0 60.143 12.0047 722 101.478 1178.57 444.278
922 0 62.0422 12.282 762 100.521 1178.9 442.955
923 0 62.0873 10.3081 640 104.067 1178.77 444.467
924 0 66.1161 11.6613 771 100.281 1178.15 441.886
925 0 66.0879 10.592 700 102.681 1178.86 440.493
926 0 68.1739 10.8399 739 101.662 1178.57 439.499
927 0 70.1542 11.0756 777 100.104 1178.57 440.317
928 0 75.0656 10.4975 788 100.872 1178.64 437.042
929 0 77.1684 9.71901 750 101.771 1178.77 436.748
930 0 81.0872 11.5678 938 99.1109 1178.97 433.163
931 0 84.1212 11.0079 926 100.031 1179.08 429.995
932 0 87.137 11.3729 991 97.9374 1179.39 430.837
933 0 91.0844 9.29907 847 103.222 1178.77 432.251
934 0 94.1838 9.72566 916 100.952 1179.25 429.51
935 1 50.1289 13.3855 671 93.0015 1179.31 447.775
936 0 52.1873 12.7426 665 92.0556 1179.45 446.459
937 0 54.1402 12.0059 650 93.2646 1178.69 444.531
938 0 56.155 12.8395 721 91.111 1178.42 445.592
939 0 58.1619 11.5883 674 93.8249 1178.6 441.881
940 0 61.0864 12.1467 742 93.2412 1178.56 442.606
941 0 61.1702 11.5743 708 94.5395 1178.37 443.194
942 0 64.0617 12.8938 826 92.8983 1178.72 439.929
943 0 65.1181 12.3468 804 95.2948 1178.62 440.731
944 0 65.1418 11.2217 731 99.1765 1178.83 440.506
945 0 68.077 12.5152 852 96.7042 1178.98 437.846
946 0 71.06 12.2572 871 96.8668 1178.44 437.956
947 0 75.124 11.2348 844 98.0972 1179.16 436.027
948 0 76.0898 12.1041 921 97.0011 1178.94 432.293
949 0 78.093 10.4619 817 100.633 1178.49 432.333
950 1 40.0542 9.91158 397 102.285 1178.07 450.569
951 0 44.0817 11.2972 498 96.7952 1178.46 451.147
952 0 43.1057 10.6019 457 100.989 1177.9 450.589
953 0 47.1293 11.5215 543 97.2652 1177.75 450.074
954 0 47.1308 11.6909 551 98.9238 1178.48 448.982
955 0 50.1317 11.011 552 99.9203 1178.87 448.545
956 0 51.1433 11.067 566 102.171 1178.55 447.74
957 0 53.0926 12.4688 662 99.074 1178.25 448.711
958 0 54.0861 12.5541 679 101.43 1178.71 445.443
959 0 54.2002 11.6789 633 104.995 1178.4 446.226
960 0 56.1728 10.9306 614 107.849 1178.18 445.186
961 0 59.113 12.1801 720 104.61 1178.21 444.815
962 0 61.0658 13.2316 808 103.395 1178.71 443.058
963 0 63.1255 12.4039 783 105.862 1178.37 443.462
964 0 65.1262 13.1437 856 105.37 1178.83 441.956
965 0 66.2006 13.1117 868 106.365 1178.46 439.429
966 0 69.1421 13.3638 924 105.708 1178.56 439.726
967 0 72.1204 12.798 923 106.709 1178.67 439.429
968 0 74.1055 13.1704 976 107.325 1178.85 438.656
969 0 76.1235 13.0052 990 109.088 1178.13 436.089
970 0 77.0839 12.0907 932 111.562 1179.04 437.641
971 0 82.2517 13.3979 1102 109.034 1178.5 434.039
972 0 83.1324 12.5944 1047 112.163 1178.59 432.06
973 1 42.1038 10.8779 458 113.1 1178.64 451.504
974 0 47.078 11.1729 526 108.861 1178.89 450.513
975 0 47.1164 11.9279 562 106.34 1178.59 450.527
976 0 49.1209 13.3752 657 104.615 1178.78 448.703
977 0 49.2016 12.8654 633 107.842 1179.62 448.101
978 0 51.1265 12.3419 631 109.578 1178.73 447.935
979 0 50.0677 12.7228 637 110.275 1178.89 448.231
980 0 54.0332 13.3807 723 108.397 1178.52 446.559
981 0 54.0876 12.5907 681 110.292 1178.93 445.91
982 0 56.1991 12.8294 721 109.527 1179.27 445.313
983 0 59.0711 14.1016 833 106.341 1179.07 444.826
984 0 62.0761 13.5801 843 107.064 1179.54 443.515
985 0 62.1079 13.4121 833 107.806 1178.55 443.229
986 0 66.0675 13.7738 910 106.613 1179.51 440.666
987 0 67.0682 13.7323 921 107.903 1179.76 438.759
988 0 69.1309 13.3226 921 109.377 1179.79 438.269
989 0 72.2068 13.2259 955 109.837 1180.01 436.858
990 0 76.0731 13.6579 1039 112.958 1180.09 436.293
991 0 78.1828 13.737 1074 113.602 1179.67 434.911
992 0 78.1675 13.2536 1036 116.182 1179.63 432.551
993 0 83.2845 14.5525 1212 111.355 1180.07 432.817
994 0 85.2244 13.4938 1150 115.936 1179.37 428.707
995 0 89.2599 13.7912 1231 113.978 1179.54 429.891
996 1 44.1159 12.3312 544 110.467 1179.81 451.305
997 0 41.0666 9.83768 404 112.866 1180.67 448.569
998 0 48.0684 12.3574 594 102.576 1179.44 449.389
999 0 49.0728 12.8992 633 103.757 1179.27 449.605
1000 0 49.0914 13.3628 656 102.963 1179.77 448.761
1001 0 51.0637 12.4355 635 105.809 1178.86 447.213
1002 0 51.1108 14.2631 729 102.01 1178.85 448.132
1003 0 54.1112 13.3983 725 102.537 1179.93 447.076
1004 0 57.0433 14.077 803 100.213 1179.22 447.107
1005 0 55.0666 12.839 707 105.624 1179.38 445.768
1006 0 59.1003 13.604 804 103.495 1179.73 444.058
1007 0 63.0388 13.7693 868 101.324 1180.04 443.703
1008 0 64.068 14.3441 919 101.505 1179.27 442.45
1009 0 65.1308 14.3557 935 101.565 1180.11 440.502
1010 0 68.2486 13.993 955 101.526 1180.15 439.643
1011 0 70.053 14.4605 1013 100.502 1179.41 438.435
1012 0 71.0756 13.352 949 103.905 1179.51 436.731
1013 0 74.0713 12.4745 924 105.748 1179.68 436.9
1014 0 77.0664 13.8322 1066 102.833 1178.69 433.921
1015 0 80.1399 13.1271 1052 105.162 1178.92 436.223
1016 0 79.073 12.8742 1018 108.458 1178.81 433.271
1017 0 84.1363 12.6224 1062 107.539 1179.31 430.278
1018 0 87.1635 12.8838 1123 108.625 1180 429.844
1019 0 89.211 12.3976 1106 111.443 1179.82 429.909
1020 1 47.1118 11.2923 532 108.148 1179.05 452.265
1021 0 51.0944 13.6218 696 105.523 1178.99 449.293
1022 0 50.0851 12.3789 620 106.348 1178.96 449.037
1023 0 52.086 11.9226 621 107.023 1178.89 449.129
1024 0 53.1329 12.9675 689 106.096 1179.14 447.475
1025 0 55.0742 12.7827 704 104.811 1180 445.871
1026 0 57.1682 13.8538 792 103.112 1178.61 446.447
1027 0 56.1159 11.3871 639 110.469 1179.39 445.218
1028 0 61.0896 13.6193 832 105.338 1178.46 443.787
1029 0 62.1094 12.9449 804 108.088 1179 441.284
1030 0 65.0966 13.2726 864 106.598 1179.15 441.862
1031 0 67.1498 13.1348 882 107.74 1179.44 440.819
1032 0 71.0801 13.0557 928 106.933 1179.8 440.27
1033 0 71.1382 13.5792 966 108.287 1179.61 438.294
1034 0 74.1384 12.8409 952 109.384 1179.79 437.714
1035 0 77.0448 12.5122 964 110.579 1179.34 436.333
1036 0 79.1714 11.8098 935 112.714 1179.32 435.78
1037 0 82.049 13.5285 1110 109.748 1180.18 432.065
1038 0 86.103 12.4154 1069 107.878 1179.96 432.237
1039 1 43.0467 9.98916 430 101.607 1179.92 451.105
1040 0 44.0394 11.3989 502 98.3546 1179.62 451.325
1041 0 44.0778 11.5024 507 103.655 1179.85 450.69
1042 0 48.031 12.8042 615 98.8748 1178.19 450.424
1043 0 48.1451 10.1776 490 104.235 1179.3 450.508
1044 0 50.0602 12.2053 611 99.527 1179.39 448.633
1045 0 52.0655 11.2743 587 100.876 1179.5 448.751
1046 0 52.0869 12.2488 638 98.663 1179.26 447.409
1047 0 55.162 13.4513 742 96.4865 1179.29 446.666
1048 0 55.1005 11.8148 651 102.275 1179.37 445.591
1049 0 57.187 11.8559 678 101.181 1178.84 446.17
1050 0 58.0807 12.2933 714 101.07 1179.68 444.653
1051 0 60.0408 11.0425 663 103.451 1179.41 443.617
1052 0 60.1109 10.8133 650 104.428 1178.73 442.842
1053 0 65.1693 13.7642 897 98.1093 1178.87 440.043
1054 0 67.1873 12.3982 833 100.299 1179.08 439.348
1055 0 69.2161 12.5693 870 100.859 1179.47 437.139
1056 0 73.345 12.1208 889 101.258 1179.21 438.133
1057 0 75.3142 12.1889 918 101.874 1179.45 435.524
1058 0 77.1668 10.7818 832 105.868 1179.86 432.915
1059 1 39.0817 10.3885 406 103.869 1179.53 454.113
1060 0 41.1664 10.9555 451 103.772 1179.49 454.082
1061 0 42.1071 11.4708 483 98.3727 1178.81 453.364
1062 0 41.1228 10.3835 427 100.822 1178.46 451.967
1063 0 43.1768 11.6035 501 99.0838 1178.76 450.293
1064 0 42.1635 10.1035 426 102.362 1179.27 451.502
1065 0 46.1602 13.6481 630 94.6746 1179.13 452.025
1066 0 48.2094 12.5494 605 95.9107 1179.72 451.243
1067 0 48.0961 12.3503 594 97.3519 1179.59 449.729
1068 0 48.0982 11.2062 539 99.9722 1179.37 448.974
1069 0 52.2419 12.0593 630 97.981 1179.63 449.605
1070 0 55.115 12.5374 691 96.2373 1179.18 448.142
1071 0 55.2609 11.9614 661 100.231 1179.61 447.239
1072 0 57.1006 11.9788 684 100.985 1179.64 448.004
1073 0 57.2158 13.0034 744 99.2755 1179.33 446.808
1074 0 61.1698 12.0484 737 100.856 1179.33 444.841
1075 0 63.2232 11.8944 752 101.301 1179.42 445.235
1076 0 65.2303 12.5095 816 100.077 1179.1 443.466
1077 0 66.3362 14.0195 930 97.3559 1178.39 441.674
1078 0 69.1326 12.6424 874 98.1041 1178.69 442.255
1079 0 70.1407 12.9169 906 99.4382 1179.28 439.883
1080 0 72.1364 12.5457 905 99.2331 1178.67 440.177
1081 0 76.1931 12.9671 988 97.4889 1179.55 439.092
1082 0 79.1277 12.9664 1026 98.5799 1179.08 436.356
1083 0 82.1243 12.5298 1029 99.9155 1178.68 434.261
1084 0 86.155 11.9436 1029 102.893 1178.47 433.362
1085 0 86.1995 11.1834 964 104.278 1178.91 434.728
1086 0 94.4139 13.4726 1272 98.9591 1178.73 432.083
1087 1 48.0992 11.2268 540 99.5333 1178.02 452.863
1088 0 52.1469 11.7169 611 98.545 1178.71 453.671
1089 0 51.0337 10.2677 524 96.4237 1178.85 450.536
1090 0 53.141 12.5703 668 97.4461 1179.54 449.235
1091 0 54.1293 10.3456 560 99.3911 1179.62 447.302
1092 0 55.2027 11.4306 631 97.3185 1179.64 445.769
1093 0 55.2027 11.3763 628 127.662 1178.63 445.803
1094 0 59.045 12.1263 716 96.4064 1177.65 443.353
1095 0 56.0702 9.93398 557 100.079 1177.7 443.488
1096 0 63.0876 10.3665 654 98.3731 1178.7 443.115
1097 0 64.1615 10.4424 670 99.1522 1179.09 440.075
1098 0 68.1505 10.5502 719 98.7274 1178.62 439.855
1099 0 71.0876 11.0427 785 98.293 1179.37 438.076
1100 0 74.279 11.0933 824 97.6663 1179.27 438.107
1101 0 75.1872 10.7731 810 100.73 1179.38 435.189
1102 0 76.1485 10.8866 829 102.591 1179.08 435.059
1103 0 81.1634 11.1503 905 100.988 1178.99 434.937
1104 0 85.1613 11.989 1021 100.093 1178.98 433.346
1105 0 87.2465 12.6882 1107 98.6893 1179.23 433.274
1106 1 44.0939 10.0241 442 100.029 1178.95 454.5
1107 0 46.0923 11.477 529 102.807 1179.61 452.465
1108 0 47.1098 11.8871 560 101.146 1178.39 451.716
1109 0 49.0924 12.6496 621 102.459 1178.78 451.256
1110 0 48.1296 11.6353 560 105.807 1178.46 452.005
1111 0 50.1711 11.9392 599 105.119 1178.16 450.514
1112 0 53.1843 12.5789 669 103.43 1178.96 448.61
1113 0 54.1676 13.1998 715 102.871 1178.85 447.776
1114 0 56.1259 13.5588 761 102.364 1178.9 447.398
1115 0 54.1107 12.382 670 106.846 1179.24 446.639
1116 0 54.1092 12.4748 675 148.776 1179.25 446.693
1117 0 59.1484 11.6656 690 107.465 1178.02 445.504
1118 0 65.0786 13.2301 861 102.659 1178.28 444.347
1119 0 64.1528 12.6729 813 106.242 1178.67 441.847
1120 0 66.1591 12.4851 826 105.904 1177.84 442.397
1121 0 68.0734 11.4141 777 109.109 1178.49 440.542
1122 0 73.1618 13.7093 1003 103.649 1178.05 439.982
1123 0 74.0773 14.1744 1050 103.65 1177.53 437.274
1124 0 75.0455 13.6184 1022 102.149 1178.1 436.263
1125 0 76.0889 12.6825 965 105.298 1178.77 436.484
1126 0 79.0588 12.282 971 107.558 1179.28 434.655
1127 0 85.1319 14.0018 1192 102.623 1178.81 432.518
1128 1 44.0426 10.7623 474 96.3333 1178.75 453.494
1129 0 44.0332 11.2642 496 98.5726 1178.33 451.504
1130 0 45.0274 10.6602 480 98.3271 1178.68 450.608
1131 0 48.0785 11.8348 569 91.9455 1178.81 451.062
1132 0 49.0435 11.2349 551 93.6352 1178.15 448.673
1133 0 50.1819 12.5145 628 90.9299 1178.91 448.771
1134 0 51.0877 10.8832 556 94.0701 1178.29 448.437
1135 0 52.0528 11.8149 615 93.8228 1178.76 446.446
1136 0 54.0238 13.4015 724 90.4903 1178.23 446.714
1137 0 57.0986 11.6991 668 94.003 1178.54 444.527
1138 0 57.0525 10.8497 619 96.2553 1178.99 444.032
1139 0 60.1647 11.535 694 95.6326 1178.51 443.646
1140 0 63.136 11.0713 699 97.0615 1178.73 443.565
1141 0 64.1101 12.1042 776 95.5735 1178.98 443.424
1142 0 67.1103 13.068 877 94.4071 1179.2 442.088
1143 0 69.1558 13.4479 930 94.4559 1178.44 439.889
1144 0 72.0457 13.5192 974 93.8409 1178.47 440.023
1145 0 74.0596 12.3954 918 97.5458 1178.12 438.662
1146 0 76.2252 12.896 983 97.7701 1177.74 436.739
1147 0 78.0896 11.6789 912 99.9605 1178.18 436.956
1148 1 41.0416 11.598 476 98.6345 1177.78 454.742
1149 0 44.0851 11.75 518 97.4459 1178.38 453.936
1150 0 44.0356 12.2628 540 100.689 1177.43 452.654
1151 0 46.0441 11.3587 523 101.925 1177.91 451.975
1152 0 45.0732 11.9139 537 102.646 1177.85 451.162
1153 0 47.0785 11.5339 543 102.486 1178.08 451.414
1154 0 51.0484 12.4979 638 99.6928 1177.71 450.028
1155 0 50.0726 11.1438 558 104.041 1177.91 450.118
1156 0 55.0776 12.0013 661 99.8638 1178.13 449.941
1157 0 55.1504 12.9645 715 98.4042 1177.71 448.456
1158 0 56.1989 12.7583 717 97.8787 1177.28 448.502
1159 0 59.0706 12.4597 736 93.8315 1177.82 448.072
1160 0 59.1912 11.2179 664 97.8509 1178.36 445.761
1161 0 63.1898 12.9293 817 94.6989 1177.33 444.977
1162 0 64.0888 13.0912 839 96.1061 1177.34 443.647
1163 0 67.1631 12.4026 833 98.3625 1177.5 441.072
1164 0 68.0671 13.3545 909 96.8449 1177.23 440.142
1165 0 72.0982 14.0503 1013 94.1017 1178.12 440.724
1166 0 74.0618 12.9081 956 97.9529 1178.12 440.001
1167 0 76.1404 12.8578 979 98.0112 1178.07 439.081
1168 0 78.0825 13.4729 1052 97.1568 1178.44 436.525
1169 1 40.0339 11.5652 463 99.0562 1177.82 456.311
1170 0 43.0629 13.6312 587 97.937 1177.5 455.039
1171 0 45.0735 14.1103 636 98.0157 1178.99 453.852
1172 0 45.0672 12.3149 555 101.544 1178.95 455.191
1173 0 45.1049 13.0806 590 98.0339 1178.45 452.02
1174 0 48.0244 12.0564 579 99.0104 1178.5 452.56
1175 0 50.0347 13.1709 659 96.1305 1178.03 451.235
1176 0 52.0114 11.2475 585 100.867 1177.46 451.055
1177 0 53.2082 11.5584 615 99.9285 1178.62 450.171
1178 0 52.0746 11.6948 609 101.136 1178.54 448.389
1179 0 56.1096 12.3508 693 99.3795 1177.59 447.446
1180 0 57.1271 13.8988 794 97.0831 1178.12 446.987
1181 0 59.0457 12.719 751 100.322 1178.81 444.599
1182 0 60.0688 12.0029 721 102.422 1178.45 443.77
1183 0 65.0327 12.7782 831 99.4898 1178.17 445.029
1184 0 65.0538 12.8048 833 101.685 1178.32 441.339
1185 0 68.0448 13.0943 891 102.579 1177.94 440.562
1186 0 71.034 13.036 926 103.173 1177.73 441.895
1187 0 74.0462 12.9919 962 104.243 1177.5 439.233
1188 0 77.057 14.1843 1093 103.526 1177.75 436.529
1189 0 80.0445 13.8298 1107 104.76 1177.64 435.387
1190 0 80.0445 13.7548 1101 135.701 1177.64 435.371
1191 0 85.1726 13.1498 1120 107.76 1177.74 433.618
1192 0 90.0323 13.1397 1183 107.544 1178.35 431.302
1193 1 44.0423 12.2155 538 109.73 1178.63 452.89
1194 0 47.0569 11.4542 539 111.484 1179.58 451.408
1195 0 48.0559 12.5479 603 110.65 1179.13 450.242
1196 0 50.2262 12.0455 605 110.212 1178.43 451.111
1197 0 51.1337 12.8682 658 110.202 1178.46 448.9
1198 0 52.1401 11.776 614 113.007 1178.17 448.072
1199 0 56.1189 13.0081 730 109.579 1178.62 447.471
1200 0 58.1198 14.1088 820 107.339 1178.51 447.134
1201 0 59.0995 13.9595 825 108.44 1178.7 445.315
1202 0 62.1188 14.4562 898 106.643 1178.52 444.863
1203 0 65.1097 13.5771 884 108.92 1178 444.307
1204 0 67.0872 13.6091 913 109.314 1177.67 442.378
1205 0 69.078 14.4474 998 108.318 1177.62 442.185
1206 0 69.1708 13.763 952 109.749 1178.32 440.7
1207 0 72.1177 13.9217 1004 109.889 1178.37 439.103
1208 0 76.0253 13.7586 1046 108.877 1178.12 438.411
1209 0 78.1241 14.2594 1114 108.654 1177.66 437.041
1210 0 81.044 14.7327 1194 108.407 1177.52 435.053
1211 0 86.1894 14.7582 1272 107.548 1177.67 434.598
1212 0 88.1541 14.1457 1247 110.022 1178.15 433.359
1213 0 89.078 13.303 1185 114.055 1178.26 432.394
1214 0 94.14 14.0854 1326 111.237 1178.02 429.686
1215 1 49.1033 10.427 512 118.967 1177.78 452.434
1216 0 49.0908 11.7333 576 115.679 1177.41 451.024
1217 0 53.0711 13.3406 708 109.945 1178.26 450.032
1218 0 53.0862 13.0354 692 113.246 1177.2 449.036
1219 0 54.0371 13.4352 726 112.109 1177.55 449.178
1220 0 57.0498 14.1806 809 110.371 1178.24 448.506
1221 0 60.1032 14.941 898 108.194 1178.85 445.948
1222 0 60.1265 14.403 866 110.941 1179.04 446.9
1223 0 60.1155 14.4555 869 162.119 1179.05 446.862
1224 0 65.0855 14.6884 956 108.916 1178.86 443.585
1225 0 67.0994 13.8004 926 113.314 1178.63 442.04
1226 0 70.206 15.5685 1093 107.963 1179.05 441.167
1227 0 70.0806 14.8971 1044 109.326 1177.98 440.253
1228 0 72.0733 14.2078 1024 110.979 1178.19 440.473
1229 0 73.0508 13.7165 1002 114.907 1178.66 436.978
1230 0 78.1009 14.5965 1140 111.225 1178.63 437.501
1231 0 80.1305 15.8117 1267 108.221 1178.69 435.182
1232 0 81.0981 13.8598 1124 115.098 1178.55 433.275
1233 0 84.0855 14.735 1239 113.138 1178.21 434.254
1234 0 89.1279 14.956 1333 111.558 1178.76 430.152
1235 0 90.2265 14.4525 1304 114.571 1178.37 429.945
1236 0 96.2571 15.2716 1470 110.428 1177.59 431.254
1237 0 96.1113 14.3792 1382 115.578 1177.05 427.399
1238 1 48.1617 11.5237 555 112.76 1177.65 452.054
1239 0 51.1405 13.0621 668 113.189 1178.32 451.302
1240 0 51.1421 12.6901 649 109.924 1177.52 451.086
1241 0 52.1661 12.0768 630 110.246 1177.99 449.887
1242 0 55.103 12.3224 679 108.261 1178.52 450.346
1243 0 55.0271 12.9027 710 108.93 1178.11 448.175
1244 0 59.0679 12.7311 752 107.601 1178.01 446.832
1245 0 60.2309 12.917 778 108.152 1177.84 446.54
1246 0 61.1542 13.4414 822 107.445 1177.63 445.918
1247 0 65.0855 13.9355 907 105.515 1177.7 443.622
1248 0 67.0448 13.2747 890 107.021 1177.75 443.593
1249 0 70.1125 13.1788 924 107.556 1177.73 440.965
1250 0 72.1289 13.9195 1004 106.396 1177.1 440.012
1251 0 76.0967 12.5235 953 109.774 1177.44 439.784
1252 0 77.0974 13.243 1021 109.57 1177.73 436.975
1253 0 80.1348 11.4307 916 113.326 1178.19 437.192
1254 0 82.1378 12.2964 1010 110.976 1178.55 437.665
1255 1 43.0394 11.5011 495 109.954 1178.21 455.822
1256 0 46.0657 12.3736 570 109.746 1177.75 453.707
1257 0 48.0711 12.3983 596 108.878 1177.49 453.329
1258 0 49.0533 11.8035 579 107.185 1177.84 453.021
1259 0 51.096 11.723 599 106.414 1177.56 451.356
1260 0 53.0629 13.06 693 104.632 1177.78 449.499
1261 0 56.0944 11.8372 664 107.803 1177.41 449.438
1262 0 55.0433 11.3184 623 110.514 1177.79 446.836
1263 0 59.1207 14.445 854 102.228 1178.38 446.328
1264 0 58.0569 13.8485 804 106.51 1178.13 446.506
1265 0 61.0868 12.9324 790 108.554 1178 445.558
1266 0 64.0952 12.8715 825 108.948 1177.96 444.199
1267 0 65.0956 12.9195 841 109.625 1177.95 443.772
1268 0 66.099 13.5403 895 108.739 1178.22 440.835
1269 0 70.0198 14.4245 1010 106.189 1177.96 441.105
1270 0 73.1154 12.8017 936 110.015 1178.16 440.262
1271 0 75.1554 13.4255 1009 109.8 1178.27 438.291
1272 0 78.0969 13.3296 1041 111.094 1178.45 435.939
1273 0 82.078 12.9024 1059 115.958 1178.66 436.1
1274 0 83.1817 12.8754 1071 116.983 1179.34 432.899
1275 0 88.196 13.1072 1156 114.951 1178.87 432.789
1276 0 90.1172 12.8166 1155 117.865 1179.18 429.338
1277 1 44.1197 11.8994 525 117.55 1177.59 453.756
1278 0 45.1183 12.2345 552 151.341 1176.66 454.139
1279 0 49.087 13.3844 657 113.052 1178.11 452.234
1280 0 50.1386 12.8843 646 115.362 1178.36 452.025
1281 0 51.1752 13.4049 686 115.937 1178.04 450.362
1282 0 52.1017 13.2625 691 117.983 1178.59 448.038
1283 0 56.1332 14.0202 787 113.726 1179.12 449.3
1284 0 55.2405 12.7443 704 119.27 1178.88 448.088
1285 0 59.1151 13.9897 827 114.57 1178.01 446.658
1286 0 63.2493 14.3243 906 112.158 1177.82 446.286
1287 0 64.3866 13.683 881 114.365 1177.33 444.963
1288 0 66.183 13.7951 913 114.307 1177.77 445.311
1289 0 68.1327 13.9874 953 114.188 1177.53 444.827
1290 0 67.1747 14.0529 944 116.734 1178.28 443.041
1291 0 71.1662 14.5575 1036 112.937 1177.87 443.621
1292 0 74.1824 13.0624 969 117.427 1177.38 441.448
1293 0 77.1248 14.2496 1099 114.59 1178.22 439.497
1294 0 78.2353 13.9451 1091 116.553 1177.29 437.202
1295 0 81.2067 13.9767 1135 116.987 1178.18 434.448
1296 0 85.1058 12.3728 1053 119.269 1177.79 435.506
1297 0 87.306 13.2408 1156 116.834 1177.48 434.535
1298 0 92.2461 15.2527 1407 111.495 1176.85 430.525
1299 0 94.0797 14.2432 1340 113.95 1177.36 430.934
1300 0 99.2946 14.4419 1434 112.81 1177.21 429.93
1301 0 100.29 14.6276 1467 113.575 1178.47 426.553
1302 0 104.164 14.2275 1482 114.571 1178.5 425.096
1303 0 107.172 13.455 1442 117.284 1178.23 422.821
1304 1 58.1388 11.9885 697 117.981 1178 448.344
1305 0 61.1033 14.7128 899 111.115 1178.47 445.497
1306 0 63.1358 13.8115 872 114.1 1178.07 443.933
1307 0 63.1758 13.2171 835 117.678 1177.49 442.923
1308 0 66.0978 12.7538 843 116.618 1177.58 443.486
1309 0 68.1526 12.8095 873 118.152 1177.49 441.664
1310 0 71.1991 14.3682 1023 114.64 1177.62 440.708
1311 0 73.3142 13.8172 1013 116.325 1178.24 439.106
1312 0 76.0924 13.1813 1003 117.532 1177.68 437.669
1313 0 80.1284 13.5532 1086 115.97 1178.2 435.583
1314 0 84.1268 15.0368 1265 112.192 1177.77 434.551
1315 0 87.1784 14.3499 1251 114.233 1177.81 433.912
1316 0 86.1157 12.6109 1086 120.308 1178.25 432.911
1317 0 93.0849 13.6112 1267 117.768 1177.9 429.98
1318 0 96.146 14.4364 1388 115.656 1177.58 429.532
1319 0 100.173 13.9459 1397 117.253 1177.08 427.96
1320 0 103.112 14.9934 1546 115.79 1177.74 423.777
1321 1 54.0951 11.7755 637 115.02 1176.61 450.559
1322 0 55.0848 12.8711 709 115.717 1176.93 446.231
1323 0 57.0301 11.678 666 119.384 1178.3 445.15
1324 0 58.0405 12.543 728 106.724 1178.13 442.628
1325 0 61.0545 12.0384 735 105.63 1177.59 444.132
1326 0 63.1044 11.4889 725 108.243 1177.85 440.923
1327 0 65.1144 12.5471 817 106.983 1176.97 440.206
1328 0 66.1009 12.1027 800 108.243 1177.32 439.934
1329 0 68.0599 11.534 785 108.818 1177.74 439.762
1330 0 69.0514 11.7738 813 109.197 1178.11 438.036
1331 0 74.0802 12.2435 907 108.577 1177.66 436.405
1332 0 75.089 11.8526 890 110.54 1178.41 436.253
1333 0 77.1228 12.6811 978 110.289 1177.29 434.796
1334 0 81.0757 11.9518 969 111.78 1177.5 434.759
1335 0 83.0986 12.3829 1029 111.409 1176.98 432.871
1336 0 87.0971 13.9729 1217 114.435 1177.18 430.802
1337 0 90.1613 13.62 1228 116.343 1177.87 429.098
1338 0 91.1069 12.8969 1175 118.161 1177.58 427.772
1339 0 97.2413 13.3277 1296 116.671 1176.86 424.268
1340 0 100.097 12.8076 1282 116.114 1177.22 424.61
1341 0 102.106 12.9277 1320 117.391 1177.74 422.267
1342 0 105.145 12.6111 1326 118.532 1177.92 419.462
1343 0 110.196 12.4142 1368 118.587 1178.01 418.322
1344 1 57.0658 10.1988 582 108.763 1177.91 445.105
1345 0 58.1111 10.3939 604 107.8 1178.16 442.015
1346 0 60.0836 10.1858 612 104.307 1178.38 441.495
1347 0 63.1364 10.9129 689 102.149 1178.51 442.216
1348 0 63.0605 10.7357 677 103.976 1179.31 439.75
1349 0 66.1066 9.24265 611 106.61 1178.49 440.771
1350 0 68.0451 9.84641 670 106.787 1178.86 439.715
1351 0 72.0909 12.3455 890 102.001 1179.27 438.97
1352 0 74.1216 11.8049 875 104.837 1178.73 436.56
1353 0 77.0572 12.8346 989 103.013 1178.61 436.821
1354 0 79.0955 11.1637 883 108.1 1179.43 434.556
1355 0 84.1802 12.0218 1012 106.654 1179.06 433.661
1356 0 85.1554 11.8959 1013 110.54 1178.78 431.024
1357 0 86.1225 11.205 965 113.431 1179.27 429.66
1358 0 92.0956 12.259 1129 110.154 1179.56 428.932
1359 0 96.2097 11.8283 1138 111.548 1178.09 427.609
1360 1 51.0765 10.592 541 110.882 1178.18 449.377
1361 0 53.0323 12.3132 653 107.435 1178.76 447.98
1362 0 52.0723 10.8695 566 110.562 1177.73 447.118
1363 0 56.0788 12.4646 699 105.288 1177.58 446.936
1364 0 55.1146 11.086 611 109.421 1178.06 447.332
1365 0 60.2107 11.9414 719 106.402 1177.9 445.591
1366 0 61.1393 10.6315 650 109.915 1177.91 445.689
1367 0 64.3247 12.5146 805 106.376 1178.09 441.939
1368 0 66.2513 12.3469 818 107.174 1178.29 442.156
1369 0 65.0698 11.2034 729 112.473 1177.92 439.465
1370 0 67.2087 11.9479 803 109.903 1178.55 438.167
1371 0 73.1925 12.5969 922 106.283 1178.72 439.729
1372 0 72.0948 11.471 827 110.611 1178.33 437.618
1373 0 75.0504 12.5382 941 102.935 1179.36 438.917
1374 0 77.0494 12.6802 977 104.44 1179.02 436.569
1375 0 78.0797 11.6291 908 108.23 1178.2 434.678
1376 0 82.126 12.0303 988 106.185 1178.42 434.672
1377 0 86.1071 13.4019 1154 103.628 1178.98 432.794
1378 0 88.2821 12.5507 1108 105.05 1178.21 432.464
1379 0 91.1164 12.4895 1138 105.3 1178.16 431.736
1380 1 44.035 10.151 447 108.306 1178.91 452.096
1381 0 48.0389 10.9495 526 103.977 1178.75 451.403
1382 0 49.1655 10.9223 537 105.073 1178.93 450.467
1383 0 51.2164 12.8279 657 101.516 1178.18 449.387
1384 0 53.1761 12.0543 641 101.421 1177.98 447.825
1385 0 54.1327 11.8597 642 102.466 1178.89 447.606
1386 0 54.1327 11.8413 641 134.287 1179.9 447.566
1387 0 60.2135 12.1235 730 101.745 1178.28 446.121
1388 0 60.1702 12.2652 738 100.997 1179.68 445.795
1389 0 63.2253 13.444 850 98.6941 1179.19 444.353
1390 0 65.2419 13.8255 902 98.2306 1179.25 443.142
1391 0 67.2052 13.987 940 97.4979 1178.38 440.935
1392 0 69.1758 12.4899 864 101.233 1178.54 440.274
1393 0 72.167 12.6651 914 100.364 1178.57 437.951
1394 0 71.1152 12.3602 879 101.519 1178.82 440.662
1395 0 74.1222 12.5603 931 101.946 1178.53 436.638
1396 0 78.1428 12.0549 942 102.433 1178.7 435.837
1397 0 80.0905 12.2237 979 97.5761 1178.88 435.655
1398 0 83.0983 12.3709 1028 100.03 1179.09 432.11
1399 0 84.0697 12.9416 1088 96.7178 1177.6 428.365
1400 0 87.0942 12.8367 1118 101.957 1177.19 428.326
1401 0 91.0384 13.4009 1220 100.434 1176.96 427.661
1402 0 95.1223 13.7402 1307 100.034 1177.49 427.155
1403 1 47.2767 11.0414 522 98.6073 1177.79 449.262
1404 0 48.0337 12.4912 600 97.1183 1178.31 447.308
1405 0 50.2128 11.7102 588 98.2959 1177.68 447.201
1406 0 52.1845 12.13 633 97.6919 1178.41 446.724
1407 0 54.1569 11.7621 637 98.2418 1177.41 445.608
1408 0 54.3112 11.3052 614 100.008 1178.05 443.842
1409 0 58.1804 11.7737 685 97.9095 1178.12 444.061
1410 0 57.1223 11.7642 672 99.6696 1177.66 442.46
1411 0 60.1323 12.0734 726 99.2397 1178.03 440.452
1412 0 61.2121 12.1708 745 100.005 1177.82 438.791
1413 0 63.181 12.1081 765 100.642 1177.62 439.404
1414 0 65.1532 11.803 769 101.328 1177.78 439.092
1415 0 68.3586 13.0342 891 99.8945 1177.93 434.783
1416 0 71.0593 13.5661 964 99.2261 1177.85 434.738
1417 0 73.13 11.9103 871 104.127 1178.07 434.162
1418 0 75.1569 12.0548 906 104.461 1177.8 433.014
1419 0 77.1585 12.0013 926 104.95 1177.33 432.156
1420 0 81.1643 13.9593 1133 102.143 1177.5 428.674
1421 0 84.1588 12.6428 1064 104.587 1177.49 429.329
1422 0 87.1075 11.6982 1019 102.937 1177.57 425.449
1423 0 90.0929 11.4992 1036 102.366 1177.85 427.416
1424 0 92.1632 11.8703 1094 105.808 1177.58 421.337
1425 0 96.1315 11.5779 1113 105.467 1178.56 424.098
1426 1 50.1163 10.5953 531 104.036 1179.02 447.834
1427 0 52.0459 11.1056 578 104.517 1179.05 444.623
1428 0 54.2428 11.6513 632 93.7405 1179.16 441.994
1429 0 57.0387 11.8165 674 94.2478 1178.52 443.228
1430 0 57.0595 11.3916 650 96.6 1178.85 441.208
1431 0 58.0657 12.2792 713 96.6045 1178.82 440.481
1432 0 61.1139 11.5195 704 97.6491 1178.4 439.587
1433 0 62.0606 10.7315 666 100.569 1178.09 437.101
1434 0 65.1072 11.9802 780 98.8962 1178.54 436.11
1435 0 68.066 12.2528 834 98.464 1179.12 435.275
1436 0 69.0677 11.6263 803 100.983 1178.85 434.3
1437 0 72.0729 12.973 935 98.6941 1179.06 431.453
1438 0 75.063 12.3496 927 100.816 1178.98 431.836
1439 0 77.1122 12.1771 939 102.054 1178.71 431.799
1440 0 78.1175 12.3532 965 102.756 1178.95 429.06
1441 0 83.1668 13.0701 1087 104.526 1178.11 427.145
1442 1 44.0388 9.37809 413 105.368 1178.96 447.022
1443 0 45.0258 10.4829 472 105.144 1179.66 444.822
1444 0 48.082 11.7092 563 102.119 1179.77 443.893
1445 0 50.1453 10.1704 510 104.331 1178.97 445.063
1446 0 51.0461 9.61877 491 102.513 1178.39 443.295
1447 0 51.0737 10.1814 520 103.338 1178.76 441.208
1448 0 54.0234 10.3104 557 103.172 1178.53 440.878
1449 0 57.0621 10.4272 595 101.434 1177.61 442.506
1450 0 59.1167 9.9126 586 102.258 1178.29 441.338
1451 0 59.073 10.0892 596 102.977 1178.27 441.277
1452 0 60.1692 9.24061 556 105.854 1177.41 438.797
1453 0 63.1687 10.4957 663 102.913 1178.62 437.905
1454 0 66.2015 10.2112 676 102.987 1177.48 436.154
1455 0 68.101 10.9984 749 102.107 1177.17 433.991
1456 0 69.0954 9.94277 687 104.557 1178.26 434.536
1457 0 71.1368 9.44659 672 104.597 1178.4 433.109
1458 0 76.0873 9.42338 717 102.868 1178.05 433.569
1459 0 82.2296 10.2396 842 102.515 1177.54 429.17
1460 1 41.115 7.95331 327 96.2966 1176.8 450.297
1461 0 42.0503 10.321 434 97.1014 1177.15 451.627
1462 0 43.1774 10.0052 432 97.6181 1176.8 451.095
1463 0 44.0951 9.70629 428 98.6682 1176.96 449.928
1464 0 47.1155 9.76324 460 98.1304 1176.6 448.843
1465 0 49.1213 11.0746 544 94.7868 1176.2 446.807
1466 0 51.1479 10.323 528 96.3352 1176.15 448.388
1467 0 52.1118 11.5137 600 94.0933 1176.13 445.752
1468 0 53.1797 10.6808 568 96.6039 1176.92 444.829
1469 0 57.1095 11.1365 636 94.3821 1177.2 445.695
1470 0 57.2665 12.241 701 93.0599 1176.86 442.797
1471 0 60.1594 11.8518 713 94.1038 1177.27 444.259
1472 0 60.1805 12.1468 731 94.119 1177.46 442.941
1473 0 62.1835 12.9777 807 92.7125 1177.16 442.198
1474 0 63.1444 12.9069 815 93.3877 1177.05 442.447
1475 0 65.1632 12.6452 824 95.284 1176.42 439.199
1476 0 68.156 13.2197 901 93.5505 1176.79 439.095
1477 0 69.1185 12.0807 835 97.5281 1176.63 437.883
1478 0 73.1479 12.2628 897 96.6332 1177.06 436.66
1479 0 74.154 11.8942 882 134.073 1178.03 436.798
1480 0 78.1458 12.771 998 95.6904 1177.36 435.076
1481 0 81.1415 12.928 1049 96.2641 1176.69 433.996
1482 0 82.2366 11.4183 939 100.701 1177.6 434.737
1483 0 85.1628 12.3763 1054 99.3178 1177.33 431.092
1484 0 89.1752 12.1558 1084 99.7887 1177.72 430.17
1485 0 91.2796 12.6206 1152 99.9852 1177.52 428.295
1486 1 50.202 10.5175 528 100.71 1176.72 450.322
1487 0 49.2229 11.1127 547 102.419 1176.11 447.87
1488 0 52.2452 11.982 626 100.01 1176.03 446.786
1489 0 54.2606 11.5369 626 100.751 1175.95 448.107
1490 0 54.0983 10.6843 578 104.856 1175.74 446.49
1491 0 57.0692 11.5649 660 102.298 1176.44 447.386
1492 0 58.121 10.6674 620 107.682 1176.26 446.295
1493 0 61.145 11.4646 701 106.091 1176.17 445.643
1494 0 60.1087 10.9967 661 109.129 1176.23 445.021
1495 0 63.1017 12.5353 791 105.839 1176.03 444.561
1496 0 65.1188 11.1181 724 109.09 1175.86 444.424
1497 0 68.0922 12.5271 853 106.249 1175.77 440.715
1498 0 69.0852 11.5075 795 108.41 1176.38 441.311
1499 0 71.105 11.5885 824 109.242 1176.59 438.557
1500 0 74.1256 11.2512 834 109.162 1175.99 437.964
1501 0 76.0871 12.4463 947 105.073 1176.15 440.02
1502 0 78.0887 11.8199 923 106.221 1176.28 438.464
1503 0 81.0375 11.7353 951 101.102 1176.62 434
1504 0 83.0369 11.6454 967 102.569 1177.02 433.115
1505 0 83.032 12.8023 1063 101.93 1176.37 431.683
1506 0 87.1489 13.4942 1176 97.7287 1176.56 432.486
1507 0 87.0804 11.4951 1001 109.28 1176.44 431.733
1508 0 89.0838 12.1908 1086 107.706 1176.97 431.172
1509 0 91.0501 11.7737 1072 110.85 1176.49 428.782
1510 1 45.0958 10.9323 493 111.485 1175.92 450.714
1511 0 49.0465 11.0303 541 110.017 1175.46 448.591
1512 0 51.0529 11.968 611 105.223 1176.1 448.144
1513 0 53.1974 12.0307 640 102.141 1176.74 448.641
1514 0 54.0782 10.8177 585 105.959 1176.04 446.371
1515 0 54.1417 11.6361 630 103.76 1176.63 447.66
1516 0 55.0899 11.5992 639 104.46 1176.53 445.573
1517 0 59.0976 13.097 774 99.2455 1176.84 445.911
1518 0 59.0647 10.7848 637 113.451 1176.78 445.918
1519 0 61.0907 10.8036 660 115.086 1176.72 443.394
1520 0 65.2391 12.1093 790 112.339 1177.36 443.106
1521 0 64.1198 12.4922 801 113.889 1177.13 441.396
1522 0 67.1209 12.8872 865 113.605 1176.81 441.183
1523 0 71.1317 13.3133 947 112.736 1176.2 440.326
1524 0 73.1345 12.73 931 116.715 1176.4 439.629
1525 0 75.1114 13.3668 1004 117.178 1176.7 438.099
1526 0 76.1242 12.8343 977 121.345 1176.82 437.388
1527 0 80.1084 12.7827 1024 121.949 1176.9 437.064
1528 0 82.2585 14.0168 1153 120.714 1176.44 434.384
1529 1 43.1387 11.3355 489 121.951 1175.94 455.528
1530 0 44.0827 12.0909 533 118.919 1175.91 455.351
1531 0 44.1263 12.5775 555 118.384 1176.53 454.917
1532 0 43.0755 11.9093 513 123.181 1177.21 454.32
1533 0 47.0888 13.1879 621 114.62 1176.32 454.303
1534 0 46.1339 12.3553 570 120.586 1176.21 452.307
1535 0 48.0668 12.6907 610 119.98 1175.2 451.911
1536 0 50.1617 12.6591 635 120.165 1175.51 451.052
1537 0 52.0464 12.6233 657 120.394 1174.88 450.604
1538 0 53.1163 12.7456 677 120.266 1175.17 451.261
1539 0 53.1353 12.7034 675 122.316 1175.7 450.973
1540 0 57.0999 13.1524 751 119.86 1175.66 450.19
1541 0 56.0763 13.9809 784 120.468 1175.7 448.666
1542 0 61.1219 14.103 862 117.521 1175.43 448.651
1543 0 60.1203 13.8888 835 119.408 1175.23 448.19
1544 0 63.0874 13.41 846 120.597 1176.14 447.713
1545 0 65.1142 13.4072 873 121.109 1175.97 446.985
1546 0 67.1121 13.9617 937 120.018 1175.28 446.292
1547 0 69.1829 13.9052 962 121.119 1175 443.626
1548 0 70.1716 13.6807 960 121.497 1175.19 443.029
1549 0 71.0685 13.5081 960 123.17 1175.4 441.914
1550 0 75.146 13.5869 1021 121.722 1174.88 440.11
1551 0 78.1439 13.6031 1063 121.526 1175.55 438.155
1552 0 81.0903 13.2075 1071 121.715 1175.65 435.821
1553 0 83.1252 12.8962 1072 127.233 1175.72 434.516
1554 0 86.0569 13.1773 1134 124.891 1175.46 434.422
1555 0 88.0773 13.0226 1147 126.45 1175.46 431.975
1556 0 92.0752 12.7396 1173 126.447 1175.18 432.055
1557 1 45.0606 10.8964 491 120.919 1174.65 454.324
1558 0 47.0596 11.0711 521 123.326 1174.83 453.282
1559 0 48.2014 13.3606 644 119.523 1175.24 453.134
1560 0 51.1436 12.9244 661 119.144 1175.2 452.127
1561 0 52.1314 13.7921 719 118.14 1175.73 450.73
1562 0 52.0366 12.6065 656 122.694 1175.03 450.046
1563 0 55.0772 13.2723 731 119.021 1175.57 449.451
1564 0 57.211 14.1057 807 115.373 1175.09 448.528
1565 0 60.0831 14.1304 849 115.105 1175.83 447.08
1566 0 59.234 12.8473 761 120.565 1175.53 445.682
1567 0 62.0933 13.9951 869 117.376 1175.93 444.189
1568 0 65.1384 12.9417 843 118.254 1175.67 444.822
1569 0 67.0856 14.2355 955 115.708 1175.15 443.082
1570 0 69.1484 13.8977 961 117.821 1175.09 440.442
1571 0 72.1606 13.9688 1008 118.166 1175.6 439.736
1572 0 73.1538 12.5352 917 124.227 1174.98 439.508
1573 0 76.0653 13.5673 1032 119.944 1175.8 436.696
1574 0 77.1421 14.5187 1120 118.392 1175.87 434.296
1575 0 81.168 14.3283 1163 116.199 1175.32 432.059
1576 0 84.0591 13.669 1149 116.343 1175.86 431.693
1577 0 85.1314 13.2384 1127 118.61 1176.13 430.884
1578 1 45.0094 11.2199 505 116.945 1175.38 451.709
1579 0 50.1607 11.7423 589 115.374 1175.43 452.022
1580 0 49.1797 11.1428 548 112.02 1174.85 449.812
1581 0 50.0745 10.8239 542 111.511 1175.38 449.491
1582 0 54.0824 11.4455 619 108.968 1174.96 449.286
1583 0 55.2053 12.1184 669 108.294 1174.85 446.664
1584 0 55.1747 12.3064 679 108.404 1174.74 446.568
1585 0 58.1137 13.0606 759 105.563 1174.81 446.194
1586 0 60.1396 12.2548 737 108.533 1175.22 444.524
1587 0 61.126 12.5642 768 108.314 1175.18 443.139
1588 0 64.0704 12.1117 776 109.634 1174.18 443.649
1589 0 65.1611 12.3233 803 109.432 1174.16 442.347
1590 0 68.0533 12.4755 849 110.02 1174.08 439.453
1591 0 67.1237 11.1287 747 115.498 1173.89 438.647
1592 0 71.1587 11.2284 799 114.877 1174.62 436.176
1593 0 72.0631 11.3789 820 114.598 1174.79 437.665
1594 0 76.1315 11.6115 884 114.613 1174.85 437.012
1595 0 78.109 11.1767 873 116.537 1174.91 435.261
1596 0 78.1769 10.7065 837 119.104 1174.87 432.118
1597 0 84.0977 11.5223 969 115.818 1175.11 433.148
1598 0 88.2769 12.8913 1138 112.683 1174.69 431.491
1599 0 90.1588 11.0804 999 117.185 1174.98 430.916
1600 0 92.212 10.465 965 118.714 1175.44 428.754
1601 0 96.1343 11.2447 1081 117.501 1175.09 427.212
1602 0 98.1678 10.7775 1058 118.043 1174.95 427.798
1603 1 51.0596 10.1842 520 108.517 1174.37 451.212
1604 0 54.1576 13.2945 720 103.682 1174.71 449.686
1605 0 53.1148 11.5034 611 108.352 1176.38 447.625
1606 0 57.1444 12.9671 741 103.344 1176.87 446.781
1607 0 58.1024 11.7895 685 107.613 1176.8 444.873
1608 0 59.0785 11.2901 667 108.109 1177.24 445.976
1609 0 63.0895 12.2683 774 106.045 1176.84 443.357
1610 0 64.0996 11.4197 732 108.011 1175.97 442.959
1611 0 66.073 12.9402 855 104.739 1176.38 441.807
1612 0 67.0963 12.102 812 107.81 1176.68 441.421
1613 0 70.0538 12.2906 861 107.107 1176.18 440.955
1614 0 70.0538 12.3905 868 137.157 1175.13 440.862
1615 0 71.1068 10.0553 715 110.579 1176.29 436.684
1616 0 75.3288 10.952 825 108.67 1175.75 437.417
1617 0 78.0619 12.6566 988 106.005 1175.72 434.362
1618 0 82.1135 11.9103 978 106.897 1176.01 432.403
1619 1 42.1311 9.61286 405 107.21 1176.11 452.217
1620 0 43.1554 11.4007 492 103.311 1174.88 452.006
1621 0 45.0777 11.2472 507 102.327 1175.72 449.899
1622 0 46.0373 10.7521 495 103.796 1175.08 449.012
1623 0 47.0375 10.2684 483 105.348 1175.32 449.064
1624 0 51.0261 11.6019 592 101.419 1174.58 449.228
1625 0 49.0188 10.955 537 105.609 1174.61 447.68
1626 0 51.0269 12.4444 635 101.937 1174.68 446.384
1627 0 52.0678 11.5618 602 104.299 1175.32 446.462
1628 0 53.1321 10.7656 572 106.21 1175.11 443.857
1629 0 56.0393 12.17 682 102.723 1174.79 443.507
1630 0 57.0663 12.0211 686 103.636 1174.95 443.563
1631 0 60.0533 11.0402 663 105.661 1175.3 443.59
1632 0 60.0583 10.7229 644 106.893 1174.88 442.264
1633 0 64.0831 11.6255 745 104.695 1174.83 441.584
1634 0 64.0633 10.0057 641 108.045 1175.1 442.101
1635 0 68.0638 11.7831 802 104.054 1174.97 439.769
1636 0 71.063 11.3561 807 104.866 1175.85 438.405
1637 0 72.1544 10.8794 785 105.357 1174.76 438.098
1638 0 75.0769 12.4939 938 101.835 1175.37 434.914
1639 0 76.0861 10.751 818 105.654 1174.9 432.966
1640 0 81.2207 10.9455 889 105.199 1175.42 433.507
1641 1 41.019 9.84909 404 100.423 1174.76 451.626
1642 0 43.0472 10.686 460 100.065 1175.05 450.554
1643 0 45.0259 10.4384 470 100.8 1176.39 450.43
1644 0 49.0211 12.9536 635 101.098 1175.8 451.047
1645 0 48.137 11.7996 568 103.408 1174.86 451.063
1646 0 51.0862 12.2342 625 102.285 1175.16 447.97
1647 0 53.1101 13.7262 729 98.3704 1174.78 449.573
1648 0 53.0791 12.3024 653 103.596 1175.93 447.545
1649 0 53.0791 12.3401 655 125.492 1177.96 447.385
1650 0 57.1005 11.6636 666 105.498 1174.74 447.32
1651 0 57.0787 12.0886 690 105.271 1175.57 447.284
1652 0 58.0582 12.4358 722 105.601 1174.75 444.508
1653 0 60.0545 11.423 686 107.426 1174.09 444.8
1654 0 63.0901 12.078 762 106.201 1174.85 442.923
1655 0 64.1163 13.0388 836 105.09 1174.5 440.508
1656 0 67.0478 12.3643 829 106.829 1174.63 439.752
1657 0 69.1036 11.5768 800 109.021 1174.21 439.877
1658 0 72.2102 13.4607 972 104.802 1174.82 438.033
1659 0 74.1051 13.3594 990 106.437 1174.54 436.841
1660 0 76.2538 12.3666 943 118.849 1174.89 437.001
1661 0 79.1456 13.3678 1058 117.501 1174.54 434.578
1662 0 82.0838 12.8527 1055 118.882 1174.92 433.882
1663 0 84.1219 12.5057 1052 121.403 1174.24 433.175
1664 0 86.2191 12.5378 1081 120.998 1173.66 431.52
1665 1 46.0844 10.3723 478 112.749 1174.53 445.764
1666 0 47.0244 10.2925 484 112.448 1174.87 450.163
1667 0 47.1434 11.7514 554 111.354 1175.21 447.681
1668 0 50.0646 11.8447 593 108.868 1174.77 443.648
1669 0 51.0903 11.4699 586 110.623 1175.45 446.628
1670 0 51.0513 12.7519 651 110.08 1175.1 444.859
1671 0 53.0248 12.447 660 110.88 1174.14 443.959
1672 0 57.0593 12.7762 729 108.025 1175.71 446.262
1673 0 57.0619 12.3024 702 111.977 1175.73 444.242
1674 0 59.0857 11.9149 704 112.014 1175.16 443.871
1675 0 62.0734 12.4691 774 110.415 1175.6 444.479
1676 0 63.0578 12.544 791 112.087 1175.95 439.688
1677 0 65.033 13.2856 864 110.435 1175.85 440.992
1678 0 68.0526 12.5344 853 112.6 1175.84 439.729
1679 0 69.067 12.6833 876 113.174 1176.13 437.148
1680 0 73.0183 12.5859 919 112.893 1176.1 438.342
1681 0 73.0791 12.8491 939 113.608 1176.04 436.849
1682 0 76.0494 12.6497 962 114.754 1175.96 434.305
1683 0 80.0714 13.6878 1096 112.51 1175.54 433.536
1684 0 84.081 13.82 1162 113.547 1176.54 432.817
1685 0 86.0329 13.7738 1185 115.029 1175.33 430.704
1686 1 45.0408 11.2565 507 110.055 1175.48 451.793
1687 0 44.0698 10.6876 471 111.085 1174.95 451.52
1688 0 45.1158 11.9692 540 112.743 1175.66 450.911
1689 0 49.0399 12.9283 634 111.721 1175.11 450.019
1690 0 49.0501 11.2742 553 109.391 1175.73 449.92
1691 0 51.0251 12.1509 620 107.629 1175.45 448.934
1692 0 52.0065 11.4216 594 110.781 1175.01 447.678
1693 0 52.0588 11.0452 575 111.285 1174.51 447.786
1694 0 55.0752 10.8579 598 111.244 1175.18 446.445
1695 0 59.0634 13.5448 800 103.851 1175.85 444.594
1696 0 60.0185 12.5295 752 106.569 1175.04 444.254
1697 0 61.0798 11.3131 691 110.897 1174.84 442.822
1698 0 62.0394 11.2993 701 111.752 1175.34 442.016
1699 0 65.066 11.6036 755 111.49 1173.86 441.86
1700 0 66.0897 10.9548 724 112.974 1174.74 440.859
1701 0 69.0558 11.4545 791 113.772 1175.07 438.407
1702 0 71.0754 12.5782 894 111.464 1174.9 436.86
1703 0 72.0851 11.861 855 114.4 1174.44 437.563
1704 0 74.0907 13.4835 999 107.198 1174.8 436.742
1705 0 76.0816 12.5917 958 109.684 1174.62 435.313
1706 0 78.082 12.2692 958 111.951 1175.16 434.363
1707 0 80.1562 12.2261 980 112.985 1175.29 432.506
1708 0 83.1776 11.8301 984 112.639 1175.13 434.103
1709 0 86.1837 12.3689 1066 111.977 1174.52 432.828
1710 0 86.1322 11.9932 1033 115.73 1174.5 429.492
1711 0 91.136 12.1796 1110 115.594 1175.45 428.905
1712 0 94.1307 13.0351 1227 113.03 1174.67 427.108
1713 0 94.0477 13.2061 1242 114.582 1174.88 424.684
1714 0 99.0885 12.5242 1241 114.916 1175.21 424.352
1715 0 102.113 13.2403 1352 113.967 1174.38 420.783
1716 0 105.209 14.0197 1475 112.991 1174.82 420.604
1717 0 109.178 12.7957 1397 115.696 1174.78 418.728
1718 0 112.077 13.6246 1527 116.053 1174.77 418.64
1719 0 119.148 13.9491 1662 114.557 1174.3 417.514
1720 1 60.0636 10.5055 631 117.883 1173.84 441.629
1721 0 62.1306 10.7354 667 117.396 1174.55 441.549
1722 0 65.1425 13.0176 848 113.108 1174.65 440.494
1723 0 67.0926 12.1921 818 114.533 1175.96 439.889
1724 0 69.079 12.4495 860 115.297 1174.98 437.573
1725 0 73.1494 13.8347 1012 111.676 1175.23 436.392
1726 0 73.0716 12.8641 940 115.311 1174.64 435.553
1727 0 77.104 13.164 1015 114.954 1174.9 433.115
1728 0 80.1546 13.6361 1093 115.07 1174.94 433.36
1729 0 82.0537 13.5034 1108 115.266 1175.87 433.625
1730 0 84.0453 13.8973 1168 114.603 1176.03 432.423
1731 0 85.0713 11.5668 984 121.145 1176.07 430.851
1732 0 88.0738 12.728 1121 117.932 1175.52 428.891
1733 0 92.0749 12.6202 1162 118.358 1175.11 428.084
1734 0 95.086 13.6823 1301 115.689 1174.38 425.344
1735 1 52.0553 10.7578 560 114.529 1174.72 447.475
1736 0 52.0331 10.9353 569 116.218 1174.48 445.583
1737 0 55.0596 12.6045 694 111.892 1174.35 444.268
1738 0 53.0402 11.9155 632 115.592 1174.72 443.397
1739 0 57.0746 12.142 693 108.625 1175.21 444.648
1740 0 60.0168 13.0797 785 105.792 1175.44 442.706
1741 0 60.0661 11.7204 704 111.026 1174.03 443.062
1742 0 64.0252 12.3545 791 108.491 1175.01 441.009
1743 0 65.0464 12.345 803 108.808 1175.02 440.147
1744 0 66.0444 12.1585 803 109.969 1174.7 437.94
1745 0 69.0895 12.5489 867 108.392 1174.8 438.516
1746 0 71.0606 12.4401 884 108.326 1174.45 438.596
1747 0 73.1889 12.3516 904 112.115 1174.39 434.298
1748 0 76.0511 12.5311 953 111.108 1174.39 432.863
1749 0 79.0581 12.2062 965 111.407 1175.64 433.658
1750 0 80.0384 12.3316 987 112.723 1174.71 431.339
1751 0 84.0921 13.7349 1155 108.929 1174.32 429.167
1752 0 86.1138 11.2061 965 114.967 1174.59 428.45
1753 0 89.1617 11.3389 1011 115.271 1174.35 425.375
1754 0 93.1672 12.2897 1145 112.208 1175.1 425.358
1755 1 48.0738 11.4824 552 102.333 1175.33 449.234
1756 0 51.0364 9.38546 479 109.484 1175.02 448.605
1757 0 52.042 11.4523 596 102.122 1175.22 445.513
1758 0 55.0118 10.7068 589 103.251 1175.48 445.878
1759 0 55.154 9.50068 524 105.55 1175.85 444.71
1760 0 56.1439 10.58 594 103.412 1175.13 443.608
1761 0 58.0447 11.3016 656 103.041 1174.74 439.934
1762 0 61.0759 11.1501 681 102.17 1175.3 439.937
1763 0 64.032 12.0252 770 100.091 1175.98 438.012
1764 0 63.0482 9.73858 614 106.484 1175.17 436.37
1765 0 71.1152 11.7556 836 100.12 1175.3 437.882
1766 0 72.0822 11.3204 816 102.29 1175 435.826
1767 0 72.0637 9.0753 654 107.203 1175.41 435.346
1768 0 78.1359 11.1217 869 102.298 1175.42 433.993
1769 0 79.1721 11.1024 879 103.22 1175.35 432.372
1770 0 84.0394 11.7564 988 103.281 1175.48 430.262
1771 0 88.1598 10.9801 968 104.924 1174.61 429.239
1772 1 45.0603 9.69811 437 96.4943 1174.74 450.828
1773 0 47.0797 10.8115 509 95.5855 1175.83 448.399
1774 0 48.0359 9.68026 465 105.286 1175.65 447.308
1775 0 49.1166 10.9942 540 105.026 1175.18 447.256
1776 0 51.0124 10.7229 547 104.532 1175.06 445.258
1777 0 51.0446 10.8728 555 104.89 1175.04 445.178
1778 0 53.0956 10.5847 562 105.016 1174.99 442.639
1779 0 56.0309 10.6548 597 105.571 1175.14 442.771
1780 0 53.1268 10.1455 539 107.848 1174.83 442.601
1781 0 57.0618 10.3572 591 107.206 1175.18 441.342
1782 0 59.0492 9.68683 572 109.017 1175.62 440.089
1783 0 61.1136 10.5705 646 106.703 1175.56 439.947
1784 0 62.0952 10.0652 625 108.022 1175.28 439.218
1785 0 66.1094 11.0574 731 105.949 1174.89 439.84
1786 0 69.1107 12.4727 862 103.584 1174.87 437.23
1787 0 70.2008 12.4642 875 102.955 1174.96 435.569
1788 0 72.1859 9.91883 716 107.634 1174.91 434.877
1789 0 73.121 10.7219 784 101.786 1174.49 430.747
1790 0 77.0933 11.4277 881 100.395 1175.16 432.068
1791 0 81.1088 10.5291 854 102.637 1175.29 430.897
1792 0 83.0549 10.6917 888 104.914 1174.78 429.689
1793 0 85.163 11.0846 944 103.878 1174.97 430.812
1794 0 87.1486 11.8304 1031 104.353 1174.99 427.029
1795 0 90.1477 11.8583 1069 104.306 1174.94 425.136
1796 0 90.1477 11.9471 1077 125.773 1173.93 424.935
1797 0 98.0923 10.1639 997 107.488 1175.62 423.96
1798 0 99.2048 10.8966 1081 106.542 1175.32 422.222
1799 1 55.0922 10.3281 569 99.1037 1175.45 447.698
1800 0 56.1343 10.9202 613 98.2496 1176.06 445.467
1801 0 56.0932 10.3756 582 100.335 1176.36 443.39
1802 0 58.1106 10.7726 626 100.589 1176.24 442.649
1803 0 60.0573 10.7397 645 101.115 1176.13 441.026
1804 0 61.1315 10.2729 628 101.65 1175.54 440.654
1805 0 63.0986 11.3156 714 99.8235 1176.05 439.779
1806 0 63.0986 11.4107 720 129.754 1176.03 439.693
1807 0 67.1047 11.5342 774 99.5594 1176.07 439.717
1808 0 71.1233 12.2745 873 98.7572 1175.96 437.42
1809 0 75.0908 10.9734 824 100.095 1176.32 437.642
1810 0 75.0952 11.8383 889 100.44 1176.22 433.408
1811 0 78.1955 11.7654 920 101.497 1175.71 434.953
1812 0 82.0697 12.2944 1009 100.89 1175.43 432.722
1813 0 82.1041 11.8508 973 104.2 1175.39 430.045
1814 0 85.1304 12.2518 1043 103.661 1175.43 429.965
1815 0 90.0693 12.3349 1111 104.077 1175.21 427.042
1816 0 90.0724 11.5907 1044 107.02 1175.3 425.638
1817 0 97.1559 11.2397 1092 107.311 1175.23 426.307
1818 1 52.0519 10.355 539 106.878 1174.49 445.577
1819 0 53.0671 11.5703 614 110.362 1174.23 445.819
1820 0 56.0521 11.1503 625 110.984 1174.42 443.442
1821 0 61.078 13.4909 824 103.204 1174.2 445.158
1822 0 62.0885 11.9024 739 109.069 1174.27 443.498
1823 0 63.1173 13.0075 821 107.296 1174.71 441.141
1824 0 66.0688 12.714 840 108.014 1174.72 441.131
1825 0 68.1106 11.1583 760 112.846 1174.73 441.582
1826 0 70.1423 12.5602 881 110.712 1174.51 440.417
1827 0 72.0478 13.3245 960 109.949 1174.21 437.825
1828 0 75.1161 13.153 988 110.604 1174.36 437.031
1829 0 77.0677 12.6642 976 112.147 1174.95 435.235
1830 0 77.1972 12.9668 1001 114.293 1175.43 432.953
1831 0 81.1498 12.8651 1044 113.44 1174.71 433.311
1832 0 84.0651 12.645 1063 115.008 1175.21 431.452
1833 0 87.133 12.7736 1113 116.192 1175.2 430.331
1834 0 88.0616 12.1279 1068 118.672 1174.84 429.531
1835 0 90.1549 12.9 1163 117.801 1174.36 426.195
1836 0 94.2076 12.7591 1202 119.15 1175.76 424.087
1837 0 97.0945 12.9565 1258 120.857 1175.8 423.975
1838 0 99.1605 12.6159 1251 121.292 1175.58 422.065
1839 0 103.187 12.7923 1320 123.132 1175.44 421.717
1840 0 105.113 11.8254 1243 127.423 1176.25 421.829
1841 0 109.185 12.117 1323 127.555 1175.86 417.803
1842 0 112.168 13.2569 1487 123.92 1175.24 415.5
1843 0 116.187 14.2185 1652 118.285 1175.1 413.86
1844 0 120.182 13.5711 1631 119.85 1175.54 413.613
1845 0 124.225 14.2081 1765 118.703 1174.85 410.473
1846 1 64.0437 10.8676 696 123.359 1176.31 439.157
1847 0 66.0446 11.0229 728 121.464 1176.21 437.816
1848 0 72.0496 12.6718 913 117.232 1176.31 437.103
1849 0 73.0648 11.7567 859 111.717 1175.13 435.618
1850 0 76.0571 11.0969 844 112.293 1175.58 435.376
1851 0 78.1873 11.5108 900 111.619 1175.54 432.666
1852 0 80.103 12.072 967 109.793 1175.57 433.429
1853 0 83.1476 12.0509 1002 112.691 1175.98 429.12
1854 0 88.0777 11.3082 996 112.911 1175.36 430.426
1855 0 89.1039 12.5359 1117 112.807 1175.17 426.916
1856 0 92.0973 9.92428 914 118.387 1174.91 425.671
1857 0 97.1749 12.4621 1211 112.205 1175.22 421.868
1858 0 99.0731 11.5571 1145 113.318 1174.75 422.544
1859 0 103.218 11.5193 1189 113.829 1174.86 419.5
1860 1 57.0331 9.78379 558 105.935 1174.56 444.604
1861 0 58.1169 11.8726 690 108.261 1174.57 443.633
1862 0 59.1671 12.8957 763 106.903 1174.41 444.406
1863 0 61.1781 11.7526 719 109.038 1174.11 442.659
1864 0 64.1045 13.478 864 104.076 1174.56 443.157
1865 0 63.0889 12.2526 773 109.006 1174.51 439.658
1866 0 67.072 13.2097 886 104.727 1175.24 440.479
1867 0 68.1236 12.859 876 106.046 1174.94 439.971
1868 0 70.1169 11.7375 823 108.038 1174.38 438.247
1869 0 72.1317 11.9088 859 107.816 1174.93 438.912
1870 0 75.0669 13.7744 1034 102.14 1175.22 436.812
1871 0 77.1355 12.8216 989 104.555 1175.37 436.44
1872 0 79.0904 13.3645 1057 103.313 1174.77 433.036
1873 0 83.0542 13.9186 1156 100.604 1174.08 433.415
1874 0 84.1139 14.0048 1178 100.481 1174.84 432.477
1875 0 86.11 13.8195 1190 102.015 1174.64 429.693
1876 0 89.1571 13.9192 1241 101.786 1175.05 429.413
1877 0 93.1619 13.9864 1303 101.361 1174.81 425.949
1878 0 94.0712 13.4792 1268 102.496 1175.49 428.136
1879 0 98.1177 13.9934 1373 101.714 1174.66 424.974
1880 0 101.171 13.9565 1412 103.036 1174.79 422.071
1881 0 104.116 12.4285 1294 107.291 1175.33 421.179
1882 0 107.223 13.7098 1470 104.682 1175.4 419.664
1883 0 110.126 12.7854 1408 107.37 1174.95 419.619
1884 0 112.19 12.2827 1378 109.4 1174.99 416.569
1885 1 57.0765 12.2818 701 101.951 1174.72 444.25
1886 0 57.0213 11.3817 649 104.966 1174.85 444.724
1887 0 59.1355 12.1923 721 105.074 1175.39 443.158
1888 0 60.0691 13.5344 813 99.2079 1176.77 442.133
1889 0 62.029 11.8815 737 103.518 1176.35 440.649
1890 0 65.0758 11.8016 768 103.122 1176.84 439.634
1891 0 66.1344 13.2609 877 101.742 1176.54 437.81
1892 0 69.0877 12.7809 883 101.161 1176.8 439.621
1893 0 69.1953 11.9517 827 105.936 1176.65 437.776
1894 0 71.0699 11.8475 842 107.53 1176.66 434.709
1895 0 74.2135 11.7095 869 107.983 1176.43 435.71
1896 0 73.1327 11.5817 847 111.117 1176.32 432.812
1897 0 79.1304 13.3703 1058 106.34 1176.54 431.927
1898 0 81.1515 12.6184 1024 108.131 1176.44 430.633
1899 0 83.1379 11.932 992 110.567 1175.86 430.012
1900 0 85.0581 13.673 1163 106.942 1176.06 428.538
1901 0 87.1388 12.8875 1123 105.507 1176 428.41
1902 1 50.1173 11.2137 562 104.573 1176.13 447.153
1903 0 50.0295 10.6737 534 106.697 1175.41 446.783
1904 0 53.0527 11.2718 598 103.831 1176.06 444.804
1905 0 53.1125 10.8261 575 103.598 1175.43 444.81
1906 0 58.0802 10.8299 629 102.183 1175.63 442.289
1907 0 59.0509 10.9228 645 104.526 1175.53 440.64
1908 0 59.0999 10.5922 626 105.898 1175.43 440.687
1909 0 61.129 11.2222 686 105.025 1175.32 438.108
1910 0 63.0635 11.5281 727 102.785 1174.84 438.769
1911 0 65.0422 10.4394 679 105.359 1175.04 437.784
1912 0 67.0434 11.7536 788 103.376 1175.24 438.523
1913 0 68.0437 12.8153 872 102.319 1175.24 435.679
1914 0 73.0939 11.5742 846 102.374 1175.03 434.305
1915 0 75.0833 12.8391 964 101.192 1174.65 432.905
1916 0 76.0981 11.1172 846 106.121 1175.41 433.384
1917 0 75.1591 11.1497 838 106.405 1175.56 431.243
1918 0 82.0821 11.9027 977 105.736 1175.39 429.802
1919 0 83.172 11.0855 922 108.277 1175.93 428.475
1920 0 87.057 11.1996 975 107.16 1175.85 429.51
1921 1 48.0856 10.918 525 100.754 1176.22 448.396
1922 0 51.0571 11.8103 603 101.852 1175.98 448.088
1923 0 48.1606 10.5065 506 107.753 1176.28 446.451
1924 0 52.0787 11.2714 587 104.973 1176.41 446.533
1925 0 55.0925 11.9798 660 102.192 1175.56 447.221
1926 0 57.1128 13.4821 770 99.0234 1176.16 444.397
1927 0 57.1301 12.9354 739 100.82 1176.63 444.349
1928 0 59.0819 12.1357 717 102.643 1176.22 444.268
1929 0 61.0697 12.7232 777 101.32 1176.3 442.876
1930 0 63.1114 12.2482 773 102.647 1176.6 442.594
1931 0 66.122 12.5677 831 102.923 1176.62 440.243
1932 0 68.2002 12.478 851 105.546 1175.98 438.586
1933 0 70.0896 12.641 886 106.622 1176.2 438.567
1934 0 70.1404 12.5178 878 107.498 1175.95 436.222
1935 0 74.0788 12.8242 950 106.311 1176.13 436.483
1936 0 78.0632 13.8221 1079 103.765 1176.16 433.916
1937 0 80.1963 13.2425 1062 106.396 1175.66 431.281
1938 0 83.0486 13.0887 1087 107.857 1175.99 433.046
1939 0 83.156 12.687 1055 110.486 1175.79 431.074
1940 0 86.1037 11.4165 983 111.238 1175.24 430.046
1941 0 87.0963 11.8604 1033 113.376 1175.22 426.036
1942 0 90.1455 9.89511 892 117.754 1174.93 425.343
1943 0 93.1431 11.5414 1075 115.841 1175.52 421.887
1944 1 47.0506 10.0318 472 108.129 1175.83 448.324
1945 0 51.0523 12.2032 623 109.774 1176.94 446.719
1946 0 51.1149 11.6013 593 114.514 1176.5 444.496
1947 0 53.1131 12.0309 639 112.534 1176.95 445.466
1948 0 54.0552 12.1913 659 111.499 1176.21 446.181
1949 0 58.0944 11.9805 696 109.839 1176.02 445.892
1950 0 57.1052 12.5032 714 110.447 1175.32 444.225
1951 0 60.0876 12.2155 734 110.381 1175.27 444.534
1952 0 63.1299 14.1137 891 106.086 1175.06 441.47
1953 0 64.063 12.8623 824 110.672 1175.27 441.539
1954 0 67.0967 13.0111 873 109.672 1175.92 440.447
1955 0 67.0942 12.1024 812 114.171 1175.66 437.654
1956 0 70.0605 13.0173 912 112.238 1175.4 437.053
1957 0 70.0607 12.9745 909 125.438 1175.38 437.068
1958 0 74.0948 13.8201 1024 111.225 1175.32 436.284
1959 0 75.0601 12.7365 956 115.55 1175.96 437.042
1960 0 78.0688 13.5009 1054 114.343 1175.57 433.712
1961 0 82.0544 12.6623 1039 116.89 1176.51 432.314
1962 0 84.2187 13.0375 1098 116.445 1176.14 432.186
1963 0 87.0614 12.5199 1090 118.715 1175.57 431.046
1964 0 91.0487 12.6416 1151 117.646 1176.51 429.176
1965 0 91.1259 12.2358 1115 120.428 1176.27 426.646
1966 1 49.0278 10.8714 533 119.642 1177.04 449.396
1967 0 50.0435 10.4509 523 122.677 1176.32 448.153
1968 0 53.0846 12.2258 649 117.279 1176.5 445.285
1969 0 54.1147 12.492 676 117.964 1175.16 443.494
1970 0 57.1419 13.4052 766 114.384 1175.8 444.035
1971 0 58.1062 14.0605 817 112.614 1174.97 445.024
1972 0 58.0438 12.8524 746 117.11 1175.15 443.505
1973 0 60.0427 13.9068 835 115.005 1175.31 441.425
1974 0 63.1247 13.7823 870 113.749 1174.68 441.69
1975 0 65.0505 12.621 821 116.297 1174.15 441.346
1976 0 66.0345 13.7655 909 113.955 1174.98 438.663
1977 0 68.0648 13.4431 915 114.421 1175.58 437.469
1978 0 69.0357 12.298 849 118.505 1175.07 437.385
1979 0 72.0334 12.4109 894 117.447 1174.88 436.449
1980 0 75.0667 12.9751 974 115.007 1174.16 435.772
1981 0 72.0635 10.2271 737 117.163 1175.36 434.293
1982 0 77.0629 11.1208 857 114.767 1174.85 433.772
1983 0 79.0879 11.8729 939 112.372 1175.3 432.565
1984 0 84.0624 12.8238 1078 110.549 1175.49 431.404
1985 0 88.0324 12.9043 1136 109.537 1174.33 428.012
1986 0 89.0434 12.1963 1086 112.944 1175 426.162
1987 1 48.062 11.0898 533 107.473 1175.35 447.385
1988 0 48.0541 11.1957 538 129.645 1175.38 447.366
1989 0 48.0143 11.33 544 108.119 1174.46 442.994
1990 0 53.0596 11.4588 608 97.9145 1175.62 444.587
1991 0 52.0746 9.81284 511 101.262 1176.32 443.687
1992 0 55.0661 10.9323 602 98.1761 1176.1 444.523
1993 0 54.0494 10.6569 576 100.141 1174.87 442.3
1994 0 58.0216 11.0993 644 98.5016 1175 441.43
1995 0 61.0321 10.7976 659 97.0759 1175.16 442.361
1996 0 64.0609 11.7388 752 96.3298 1175.9 439.307
1997 0 64.0957 10.0319 643 99.6283 1175.61 438.481
1998 0 66.0423 11.4169 754 96.4111 1174.89 438.94
1999 0 69.1424 11.122 769 97.5722 1175.5 437.194
2000 0 70.0729 11.3168 793 97.372 1175.16 435.286
2001 0 76.1662 10.8972 830 97.7518 1176.1 433.687
2002 0 78.0964 10.7944 843 98.2954 1175.73 432.159
2003 0 82.1127 12.3732 1016 96.311 1175.81 428.905
2004 1 43.0452 10.6864 460 91.65 1175.82 451.337
2005 0 44.1275 10.311 455 95.6352 1175.35 447.273
2006 0 45.0207 10.3508 466 92.6652 1175.58 450.869
2007 0 47.0912 11.3609 535 91.1907 1175.92 449.105
2008 0 47.0275 10.2918 484 94.6343 1174.81 448.217
2009 0 49.0666 10.8832 534 94.4307 1175.35 447.371
2010 0 48.1066 9.52053 458 97.5371 1175.66 448.066
2011 0 52.0497 11.1624 581 93.9793 1175.79 447.518
2012 0 53.0624 11.7032 621 94.2979 1175.51 445.246
2013 0 55.0522 11.8978 655 94.2916 1175.87 444.243
2014 0 56.0553 11.0427 619 96.6688 1175.43 442.735
2015 0 58.0299 11.6836 678 95.9779 1175.24 442.409
2016 0 61.0423 12.0736 737 94.3908 1175.46 442.765
2017 0 61.0659 11.4467 699 96.6781 1175.01 442.043
2018 0 63.0292 11.9627 754 96.4271 1175.56 441.775
2019 0 66.047 10.9165 721 98.4882 1175.61 439.3
2020 0 65.0636 11.312 736 98.7242 1175.59 438.481
2021 0 72.0511 12.5883 907 94.8975 1174.95 438.583
2022 0 72.0539 12.0743 870 97.3402 1175.54 434.126
2023 0 76.1185 13.9388 1061 93.1442 1175.59 434.264
2024 0 77.0854 13.0634 1007 95.6931 1175.69 433.695
2025 0 82.0874 12.0969 993 97.5347 1175.71 432.033
2026 0 84.1596 11.6683 982 102.489 1176.06 430.317
2027 0 87.065 12.393 1079 95.9101 1176.32 430.549
2028 0 90.2156 12.9246 1166 95.4485 1175.92 426.843
2029 0 94.0955 14.4959 1364 92.4106 1175.42 425.556
2030 0 95.0812 11.9056 1132 99.3693 1175.59 423
2031 1 54.1247 11.88 643 94.6781 1176.46 446.263
2032 0 56.045 12.8647 721 93.6782 1175.43 444.09
2033 0 56.0307 12.8144 718 94.5557 1175.49 444.706
2034 0 59.0351 12.4672 736 95.1168 1175.54 444.596
2035 0 61.064 12.5442 766 96.0901 1175.38 441.698
2036 0 63.0492 12.8788 812 95.8103 1174.71 439.95
2037 0 64.0424 11.508 737 99.1805 1175.41 441.902
2038 0 64.0475 10.3361 662 102.612 1175.57 441.447
2039 0 68.0305 11.8476 806 100.572 1175.1 439.556
2040 0 70.1744 11.0582 776 102.541 1175.32 438.97
2041 0 73.0757 12.3844 905 102.173 1175 434.496
2042 0 75.0718 11.096 833 106.295 1175.59 435.581
2043 0 76.0957 11.8272 900 106.762 1175.6 432.922
2044 0 80.034 12.4072 993 106.725 1175.89 431.442
2045 0 84.1609 12.2979 1035 108.25 1175.18 431.462
2046 0 85.0782 12.8823 1096 110.045 1175.17 427.47
2047 0 90.0936 13.153 1185 108.504 1176.2 429.899
2048 0 92.0609 12.2962 1132 112.973 1175.55 427.825
2049 0 94.0965 13.2098 1243 112.463 1175.96 424.463
2050 0 97.1152 12.2741 1192 113.646 1175.3 424.834
2051 0 103.082 12.9606 1336 112.702 1175.01 421.126
2052 1 56.0552 12.2915 689 104.673 1175.83 444.594
2053 0 57.0732 11.1961 639 109.584 1176.06 443.155
2054 0 61.0844 12.1635 743 108.583 1175.48 441.969
2055 0 61.1912 12.224 748 106.404 1175.24 443.025
2056 0 63.0968 11.3318 715 109.806 1174.91 441.993
2057 0 64.0923 11.031 707 110.187 1175.67 442.757
2058 0 67.1013 13.3231 894 105.624 1175.25 440.034
2059 0 67.0654 12.197 818 107.773 1175.5 441.285
2060 0 71.1068 12.3195 876 108.62 1175.33 438.975
2061 0 74.1127 12.6969 941 109.016 1175.57 436.346
2062 0 76.1392 12.7136 968 109.637 1175.46 434.511
2063 0 77.1462 13.4291 1036 108.924 1175.27 433.471
2064 0 80.1912 14.4654 1160 106.881 1174.85 433.068
2065 0 82.067 13.1844 1082 111.229 1175.65 433.303
2066 0 85.0857 13.3395 1135 111.811 1175.9 431.818
2067 0 86.1255 13.341 1149 113.715 1174.92 428.028
2068 0 91.0778 13.5489 1234 112.406 1175.36 428.9
2069 0 93.1349 13.1315 1223 115.115 1174.92 424.53
2070 0 96.1752 12.2381 1177 117.017 1174.21 421.907
2071 0 100.145 13.85 1387 112.1 1175.21 419.481
2072 0 103.208 14.3303 1479 110.947 1175.19 419.717
2073 0 103.208 14.3497 1481 141.681 1175.2 419.736
2074 0 108.157 14.2386 1540 112.786 1174.84 411.377
2075 0 113.1 13.5721 1535 115.351 1174.52 412.734
2076 0 115.133 13.4367 1547 116.466 1175.19 411.381
2077 0 119.072 14.2939 1702 114.41 1174.86 411.948
2078 0 124.275 14.0575 1747 114.88 1175.08 410.023
2079 0 128.166 14.3485 1839 113.722 1174.8 406.544
2080 0 134.096 14.8177 1987 111.517 1174.09 405.028
2081 1 72.0797 12.181 878 114.626 1174.04 434.887
2082 0 75.1754 13.3953 1007 111.009 1174.14 432.583
2083 0 77.084 10.7156 826 108.547 1174.01 433.916
2084 0 79.0904 12.5932 996 107 1174.71 431.234
2085 0 81.0955 11.9489 969 109.129 1175.33 429.345
2086 0 84.0693 12.0139 1010 109.772 1174.84 426.101
2087 0 88.0868 12.7488 1123 107.462 1175.28 427.734
2088 0 91.1307 12.696 1157 108.729 1175.51 425.322
2089 0 92.1723 13.0082 1199 109.421 1174.94 424.814
2090 0 95.0989 12.1873 1159 111.664 1175.26 425.517
2091 0 98.1522 12.9697 1273 111.353 1174.74 421.883
2092 0 101.109 13.6189 1377 110.399 1174.54 419.391
2093 0 104.137 14.116 1470 108.665 1174.43 418.893
2094 0 107.122 13.62 1459 110.359 1175.08 415.056
2095 0 109.141 12.1036 1321 114.696 1175.32 416.91
2096 0 111.059 11.9396 1326 115.593 1175.48 413.744
2097 0 117.205 12.0217 1409 113.806 1175.01 413.662
2098 0 121.054 12.3416 1494 113.842 1175.7 406.675
2099 1 63.0531 9.45235 596 111.141 1175.07 437.978
2100 0 67.129 10.6213 713 110.931 1175.84 436.029
2101 0 71.0958 11.6322 827 106.482 1174.91 437.363
2102 0 71.0403 10.9656 779 108.878 1175.02 432.838
2103 0 71.1424 10.1205 720 111.132 1174.55 433.878
2104 0 76.0736 10.779 820 109.58 1175.09 431.705
2105 0 77.1682 11.0279 851 110.085 1175.22 429.823
2106 0 80.1111 11.2594 902 109.344 1174.14 429.859
2107 0 83.3592 10.5687 881 110.472 1174.98 427.503
2108 0 87.0838 11.7358 1022 108.449 1175.5 427.277
2109 0 91.147 10.7958 984 112.126 1174.59 427.571
2110 0 93.1656 11.0126 1026 113.807 1175.24 425.325
2111 0 96.1388 11.9619 1150 113.305 1174.71 422.435
2112 0 99.2663 13.1263 1303 110.213 1174.29 421.35
2113 0 102.188 11.9779 1224 113.873 1174.61 419.905
2114 0 106.156 11.6903 1241 115.039 1174.51 417.835
2115 0 109.29 12.0596 1318 114.77 1174.51 412.302
2116 1 57.1894 9.91443 567 107.48 1175.77 444.312
2117 0 58.0983 10.6716 620 108.439 1175.83 441.811
2118 0 61.0735 11.0686 676 112.358 1174.99 440.994
2119 0 66.0958 11.2715 745 110.313 1174.77 439.07
2120 0 66.0636 12.6848 838 108.365 1174.45 438.384
2121 0 66.1318 10.8117 715 114.281 1174.38 435.241
2122 0 71.1007 12.419 883 110.043 1174.13 435.351
2123 0 73.1798 12.4625 912 110.208 1174.28 435.485
2124 0 76.1191 11.4951 875 112.017 1174.77 434.858
2125 0 78.0891 12.7291 994 111.332 1175.18 431.788
2126 0 81.2651 12.5638 1021 112.422 1174.81 428.61
2127 0 84.1967 12.1501 1023 113.778 1174.58 427.674
2128 0 87.2242 12.4277 1084 113.49 1174.25 425.744
2129 0 90.1471 11.8362 1067 114.379 1174.25 427.273
2130 0 93.1253 13.412 1249 111.877 1174.89 423.155
2131 1 49.0675 9.25256 454 113.337 1173.97 450.835
2132 0 50.2179 10.5739 531 114.087 1175.11 448.401
2133 0 53.2528 11.4924 612 112.949 1174.79 447.348
2134 0 51.1505 11.0263 564 116.941 1174.65 445.621
2135 0 55.1555 11.6579 643 114.703 1174.72 444.703
2136 0 57.1342 12.2168 698 113.291 1174.41 444.36
2137 0 61.3959 12.9813 797 109.62 1175.05 445.305
2138 0 60.2235 11.7396 707 114.603 1174.96 444.389
2139 0 63.0931 13.2186 834 109.65 1174.13 442.07
2140 0 64.2265 12.5649 807 111.418 1175.2 442.82
2141 0 66.0888 12.5437 829 112.07 1174.4 440.735
2142 0 68.2011 13.123 895 110.707 1174.94 440.573
2143 0 71.1878 12.8533 915 111.285 1174.75 440.86
2144 0 72.1017 12.3437 890 114.045 1173.77 438.42
2145 0 76.105 13.2711 1010 111.86 1174.03 436.856
2146 0 78.2386 13.3566 1045 112.618 1174.31 436.05
2147 0 81.1957 13.3258 1082 112.445 1174.01 433.918
2148 0 82.2159 12.5037 1028 122.071 1173.61 432.558
2149 0 86.2227 12.7461 1099 118.617 1174.67 430.202
2150 1 45.0946 10.6221 479 109.981 1174.61 452.574
2151 0 47.0879 11.8714 559 113.962 1173.91 450.052
2152 0 49.0499 12.5179 614 107.664 1174.42 449.248
2153 0 49.0464 11.4585 562 111.786 1174.64 447.406
2154 0 49.073 12.5527 616 109.802 1173.89 447.87
2155 0 49.0645 11.0263 541 115.874 1174.83 445.183
2156 0 53.0462 12.4797 662 110.787 1174.67 446.054
2157 0 53.089 12.3943 658 111.03 1174.99 445.603
2158 0 56.0114 12.9795 727 109.807 1173.95 444.303
2159 0 56.0182 12.0318 674 112.97 1173.53 443.211
2160 0 57.0157 12.5229 714 111.406 1174.44 444.189
2161 0 60.04 13.2245 794 109.168 1174.72 442.074
2162 0 63.0531 13.8137 871 106.681 1175.05 441.823
2163 0 62.0431 12.4591 773 111.991 1174.3 440.696
2164 0 64.0929 12.2791 787 112.121 1174.23 439.172
2165 0 66.1572 13.1052 867 111.409 1173.57 436.038
2166 0 68.0974 12.673 863 112.152 1173.78 435.968
2167 0 72.094 12.7056 916 110.672 1173.7 435.166
2168 0 74.0949 13.7796 1021 108.669 1174.25 434.312
2169 0 77.1341 14.8702 1147 105.615 1174.19 432.466
2170 0 77.1705 12.6862 979 112.4 1174.06 431.351
2171 0 82.2474 13.2041 1086 110.219 1174.48 430.634
2172 0 83.0658 13.7843 1145 111.312 1174.68 428.365
2173 0 86.0606 14.118 1215 112.683 1174.83 429.035
2174 0 90.2847 14.5318 1312 111.974 1174.79 426.934
2175 0 93.132 13.7869 1284 115.005 1174.38 425.695
2176 0 95.2143 14.1995 1352 113.681 1174.22 424.294
2177 0 97.3203 13.7895 1342 118.277 1174.25 420.346
2178 0 100.174 12.8976 1292 119.145 1174.53 422.261
2179 0 106.255 14.8134 1574 113.514 1175.49 418.1
2180 1 59.1097 10.0999 597 122.156 1174.45 439.975
2181 0 65.0751 12.9543 843 115.365 1173.84 426.154
2182 0 67.0689 13.3892 898 105.174 1174.41 431.731
2183 0 67.1209 11.74 788 108.907 1174.41 431.029
2184 0 71.1573 13.0977 932 106.281 1174.97 430.966
2185 0 72.0718 12.8483 926 108.423 1174.67 431.027
2186 0 75.0808 13.4389 1009 106.887 1174.45 429.238
2187 0 77.0636 13.4694 1038 107.685 1173.56 432.051
2188 0 80.1054 12.8206 1027 110.196 1174.85 432.491
2189 0 81.0608 12.2871 996 114.668 1174.52 430.529
2190 0 85.1422 14.141 1204 111.395 1174.18 430.04
2191 0 87.1474 13.7124 1195 113.074 1175.26 427.878
2192 0 90.1382 12.503 1127 116.381 1174.87 425.672
2193 0 93.098 13.7597 1281 113.488 1174.39 425.364
2194 0 97.1126 13.8087 1341 112.371 1174.25 422.637
2195 0 101.087 14.908 1507 109.498 1174.29 422.386
2196 0 104.11 13.5434 1410 112.739 1174.2 419.346
2197 1 55.11 11.7946 650 113.463 1175.2 444.128
2198 0 57.0273 11.9417 681 110.653 1175.07 441.846
2199 0 57.0185 10.4878 598 108.299 1174.99 441.375
2200 0 61.0843 11.8852 726 103.598 1175.29 441.828
2201 0 61.114 10.8649 664 107.976 1174.78 439.828
2202 0 65.0633 11.4504 745 106.803 1174.27 438.773
2203 0 67.0511 11.096 744 109.23 1175.06 437.12
2204 0 71.113 12.67 901 105.284 1174.72 437.459
2205 0 70.0395 13.5781 951 104.913 1174.77 435.976
2206 0 74.0293 12.8463 951 106.038 1174.35 435.128
2207 0 75.1132 13.0603 981 107.601 1174.64 431.818
2208 0 77.0874 12.7777 985 109.012 1174.09 430.244
2209 0 78.0645 12.9765 1013 110.707 1174.63 430.507
2210 0 82.066 13.3795 1098 111.295 1174.91 430.913
2211 0 82.0528 12.6504 1038 114.434 1174.79 428.757
2212 0 88.1125 13.7551 1212 111.501 1174.86 424.63
2213 0 88.0788 12.7613 1124 114.828 1174.87 423.379
2214 0 91.1386 12.7827 1165 114.406 1174.82 424.62
2215 0 93.1967 13.3374 1243 113.714 1174.41 423.307
2216 0 95.2278 11.9923 1142 118.223 1174.19 421.586
2217 0 99.1877 12.2697 1217 118.991 1174.3 414.93
2218 0 102.127 11.9655 1222 120.408 1174.31 414.773
2219 1 56.1781 10.4489 587 115.836 1174.94 440.206
2220 0 58.0767 11.5192 669 113.184 1174.8 440.598
2221 0 60.1055 12.8774 774 100.911 1175.5 440.557
2222 0 63.024 11.0751 698 104.607 1175.3 438.815
2223 0 62.0292 10.8981 676 107.133 1175.03 436.806
2224 0 66.0689 11.9269 788 103.839 1175.54 438.212
2225 0 67.0785 10.5697 709 108.346 1175.76 435.622
2226 0 70.0623 11.2043 785 106.638 1176.01 436.054
2227 0 73.0344 11.5836 846 106.301 1175.53 434.901
2228 0 74.0964 11.2961 837 106.884 1175.13 433.354
2229 0 77.0586 13.8466 1067 102.575 1174.6 431.253
2230 0 80.1828 12.0475 966 106.531 1174.08 432.153
2231 0 82.1541 12.3548 1015 106.842 1174.51 431.323
2232 0 87.0635 12.9446 1127 106.744 1174.62 427.067
2233 0 89.126 13.3519 1190 106.001 1175.03 426.335
2234 1 51.0647 10.9665 560 107.693 1174.47 445.659
2235 0 54.0286 12.4194 671 107.077 1174.92 441.996
2236 0 55.0432 11.8452 652 112.138 1174.7 438.692
2237 0 57.0757 12.79 730 100.837 1174.59 444.064
2238 0 58.0448 13.0416 757 102.956 1174.77 442.066
2239 0 58.1436 11.7812 685 105.164 1174.42 442.476
2240 0 60.0363 12.5757 755 104.487 1174.22 441.75
2241 0 62.1044 11.8188 734 105.583 1174.57 440.519
2242 0 65.0705 13.1242 854 102.464 1173.92 438.011
2243 0 67.0298 11.7858 790 105.814 1174.47 437.48
2244 0 69.1634 11.7258 811 105.74 1174.4 435.403
2245 0 72.0709 13.0566 941 102.498 1174.99 435.054
2246 0 75.0747 11.7083 879 108.328 1174.35 434.048
2247 0 79.0723 12.0902 956 104.9 1174.02 433.816
2248 0 83.12 13.4143 1115 102.667 1173.73 431.66
2249 0 84.1334 12.7654 1074 105.121 1173.89 430.266
2250 0 87.1927 13.9347 1215 102.482 1174.91 429.853
2251 0 89.0906 11.898 1060 106.696 1174.48 427.418
2252 0 93.0626 12.9483 1205 104.634 1174.04 428.048
2253 0 96.239 12.6872 1221 105.93 1173.84 424.765
2254 1 52.1632 11.6749 609 102.862 1173.81 445.358
2255 0 51.0386 11.168 570 110.374 1173.62 445.421
2256 0 55.1291 12.8244 707 105.007 1174.61 445.417
2257 0 57.1082 12.38 707 104.607 1174.05 444.779
2258 0 57.1082 12.38 707 131.778 1174.07 444.798
2259 0 59.0471 11.838 699 101.674 1174.91 444.308
2260 0 61.0621 11.2017 684 102.769 1175.34 444.722
2261 0 62.0704 13.2269 821 100.001 1174.64 443.391
2262 0 64.0433 11.5235 738 102.721 1174.6 444.94
2263 0 66.0362 13.3412 881 99.403 1173.96 445.093
2264 0 66.042 10.7507 710 107.566 1174.26 443.585
2265 0 68.1521 11.7825 803 106.615 1173.65 443.36
2266 0 72.0465 11.1733 805 106.553 1173.63 442.836
2267 0 72.0532 11.1307 802 108.121 1173.3 440.443
2268 0 77.0859 13.4525 1037 101.821 1173.29 443.58
2269 0 81.0954 11.9859 972 105.162 1172.82 443.261
2270 0 82.0965 11.9372 980 105.302 1172.51 441.007
2271 0 85.0605 12.5323 1066 104.055 1171.8 441.23
2272 0 85.0605 12.7791 1087 134.267 1170.8 441.56
2273 0 90.093 12.8756 1160 105.222 1171.13 437.978
2274 0 91.0319 13.2811 1209 105.415 1171.44 436.228
2275 0 93.1444 11.9814 1116 108.847 1171.38 437.764
2276 0 96.0693 13.7401 1320 106.703 1170.33 433.742
2277 0 101.184 13.5595 1372 106.921 1170.49 433.291
2278 0 105.097 13.1117 1378 109.303 1170.04 430.795
2279 0 108.09 13.8126 1493 109.342 1169.87 427.597
2280 0 112.122 14.5021 1626 108.874 1169.01 423.135
2281 0 118.127 14.2812 1687 110.214 1169.16 422.152
2282 1 65.0595 11.5894 754 108.842 1169.61 446.347
2283 0 67.0478 12.2599 822 107.167 1169.37 448.867
2284 0 68.0671 12.4289 846 107.9 1169.28 447.052
2285 0 71.0384 12.9085 917 100.697 1168.95 445.481
2286 0 71.0436 11.8378 841 103.845 1169.02 444.539
2287 0 74.0293 12.8733 953 102.288 1168.88 443.999
2288 0 79.1068 12.0596 954 103.195 1168.09 443.901
2289 0 81.097 13.7983 1119 100.303 1168.33 441.975
2290 0 84.0604 12.4672 1048 102.564 1167.68 443.213
2291 0 87.0485 12.4528 1084 102.878 1168.08 439.823
2292 0 90.0548 13.1364 1183 102.321 1168.17 437.76
2293 0 94.0893 12.1268 1141 104.728 1167.65 436.856
2294 0 97.0798 12.9893 1261 102.411 1169.67 437.229
2295 0 102.121 12.8083 1308 102.368 1169.5 434.423
2296 0 104.142 12.3294 1284 105.009 1169.18 432.576
2297 1 56.0395 11.367 637 102.314 1169.77 456.518
2298 0 59.1001 11.1167 657 99.6043 1169.38 457.006
2299 0 60.0401 11.026 662 97.7085 1169.1 452.711
2300 0 63.0447 12.1501 766 94.9987 1169.06 452.376
2301 0 68.0416 11.3754 774 94.5814 1168.87 451.504
2302 0 68.0542 11.726 798 95.7494 1168.76 450.34
2303 0 71.0631 12.7774 908 93.9295 1168.06 449.362
2304 0 72.0876 12.4432 897 94.466 1169.02 448.382
2305 0 74.0335 13.5074 1000 93.012 1168.86 447.653
2306 0 79.0548 12.0802 955 96.4115 1168.92 445.245
2307 0 80.2602 10.9394 878 99.0228 1168.55 444.483
2308 0 83.0858 12.0237 999 96.958 1168.33 442.439
2309 0 87.1209 12.0178 1047 96.6686 1168.04 442.716
2310 0 87.0976 11.0106 959 101.652 1167.99 436.248
2311 0 92.0613 12.0355 1108 98.4684 1167.77 436.153
2312 1 50.0394 10.2719 514 94.0739 1168.3 459.481
2313 0 52.0856 10.406 542 98.2915 1169.06 458.531
2314 0 53.0849 10.8505 576 93.6944 1168.54 455.766
2315 0 56.0493 10.7049 600 93.5683 1167.92 456.158
2316 0 56.1514 11.006 618 93.5566 1168.7 453.646
2317 0 59.1936 10.5586 625 93.696 1168.71 455.781
2318 0 60.1978 11.6948 704 92.6548 1168.3 452.882
2319 0 59.1871 10.3232 611 96.0147 1167.93 452.951
2320 0 61.0947 9.39526 574 98.1045 1168.6 450.695
2321 0 66.1349 11.4312 756 93.3571 1168.35 450.282
2322 0 66.1427 8.88988 588 98.1054 1168.57 449.917
2323 0 68.0813 11.1631 760 94.8118 1169.22 448.751
2324 0 72.1233 11.7854 850 93.4353 1169.42 447.118
2325 0 71.0702 9.77907 695 98.6849 1169.1 446.478
2326 0 74.0724 11.4753 850 95.5106 1168.68 446.411
2327 0 78.1174 13.7869 1077 91.6156 1168.94 442.883
2328 0 81.0982 11.3073 917 97.1003 1168.75 441.833
2329 0 84.0856 11.6429 979 97.2533 1168.9 439.688
2330 0 84.0548 10.7073 900 99.3911 1169.34 439.704
2331 0 88.0935 12.2483 1079 96.924 1169.25 438.335
2332 0 90.1025 11.4869 1035 97.7585 1169.08 436.967
2333 0 95.0634 11.4134 1085 97.4968 1169.8 434.235
2334 0 96.1881 11.9869 1153 97.6036 1169.12 433.784
2335 1 53.0299 10.8995 578 93.9343 1169.82 455.348
2336 0 55.0249 10.2863 566 98.0159 1169.87 452.449
2337 0 58.1755 11.8607 690 95.5493 1168.64 451.765
2338 0 59.1246 12.1269 717 95.5105 1169.33 448.773
2339 0 58.1437 10.5085 611 99.6727 1169.81 447.481
2340 0 61.07 11.8061 721 97.251 1169.5 446.103
2341 0 63.0584 11.1801 705 101.2 1169.66 447.424
2342 0 63.1011 11.4578 723 102.766 1169.67 442.909
2343 0 66.0359 10.0703 665 105.089 1169.85 444.117
2344 0 70.1444 11.3908 799 102.302 1169.86 442.927
2345 0 72.0858 11.5279 831 102.659 1170.45 442.677
2346 0 75.086 11.893 893 103.249 1170.48 440.934
2347 0 75.0972 11.5583 868 106.084 1170.6 436.563
2348 0 78.057 10.7998 843 108.047 1170.13 435.394
2349 0 83.0439 11.2712 936 105.828 1170.91 435.462
2350 0 85.0735 12.6714 1078 104.646 1171.27 432.413
2351 0 87.0618 11.4516 997 108.004 1170.74 432.538
2352 0 91.089 13.0202 1186 105.621 1171.2 428.611
2353 0 92.1213 11.6477 1073 109.589 1170.97 428.311
2354 0 96.1262 11.7034 1125 109.45 1170.81 427.671
2355 0 97.0971 11.3701 1104 111.588 1170.9 425.401
2356 1 51.0599 11.3396 579 106.174 1170.45 450.173
2357 0 50.0673 11.2049 561 108.073 1171.43 448.519
2358 0 55.0729 12.2565 675 104.068 1171 448.172
2359 0 54.0173 11.3667 614 103.327 1171.31 446.264
2360 0 56.0845 11.1261 624 103.779 1171.76 445.546
2361 0 58.0323 11.4936 667 104.367 1172.35 443.4
2362 0 60.0348 12.4095 745 102.993 1172.15 443.209
2363 0 60.0478 12.4567 748 104.87 1172.26 439.714
2364 0 63.0443 12.055 760 105.728 1172.39 438.642
2365 0 66.0235 13.3286 880 103.511 1172.78 438.673
2366 0 67.0995 13.1 879 105.35 1172.13 438.217
2367 0 69.0435 13.2525 915 103.822 1171.34 437.224
2368 0 72.1315 11.8118 852 108.053 1171.54 436.155
2369 0 77.1279 14.0416 1083 103.548 1171.69 436.03
2370 0 76.1045 13.3895 1019 104.104 1172.46 434.822
2371 0 80.0719 12.3389 988 106.252 1172.6 433.401
2372 0 79.0646 13.002 1028 109.512 1172.33 432.896
2373 0 81.1203 13.1533 1067 109.438 1172.5 431.722
2374 0 87.1062 13.8681 1208 107.658 1172.51 428.236
2375 0 88.0575 13.6956 1206 109.65 1172.58 423.968
2376 0 91.1097 13.3136 1213 110.57 1172.79 426.397
2377 0 97.1843 13.6133 1323 109.423 1172.54 424.364
2378 0 98.146 12.7769 1254 112.744 1172.16 425.951
2379 0 103.146 14.0384 1448 110.229 1172.95 422.423
2380 0 104.164 13.1908 1374 111.336 1173.32 421.371
2381 0 108.147 12.6124 1364 113.209 1173.23 416.619
2382 1 59.1166 11.5196 681 106.565 1173.49 442.01
2383 0 61.09 11.7368 717 105.657 1173.4 442.745
2384 0 64.076 12.7817 819 104.427 1174.08 442.346
2385 0 64.1182 11.8531 760 105.832 1174.26 441.268
2386 0 66.1057 10.5588 698 109.034 1174.18 440.408
2387 0 70.0842 13.4695 944 104.247 1173.58 436.944
2388 0 71.0795 12.6619 900 106.881 1173.4 435.812
2389 0 72.1097 11.8015 851 112.068 1173.29 433.754
2390 0 77.1011 12.7236 981 109.381 1173.61 433.761
2391 0 79.1048 12.8184 1014 108.541 1173.26 431.443
2392 0 81.0524 12.1773 987 110.814 1173.45 429.469
2393 0 84.1681 12.9146 1087 109.285 1173.4 430.029
2394 0 87.1101 12.9836 1131 109.184 1172.75 428.836
2395 0 90.1179 12.8609 1159 110.286 1172.7 427.52
2396 0 91.1237 13.0921 1193 111.049 1173.13 424.299
2397 0 95.1499 12.8849 1226 110.869 1172.48 423.551
2398 0 98.1074 12.1703 1194 112.882 1172.83 420.675
2399 0 102.12 12.1034 1236 111.816 1172.86 421.946
2400 1 56.0758 11.7876 661 106.422 1172.83 446.415
2401 0 58.0295 11.925 692 108.5 1172.95 444.058
2402 0 60.0745 12.4512 748 106.64 1172.57 445.215
2403 0 60.0516 11.8398 711 105.963 1172.66 443.325
2404 0 63.0778 12.3815 781 104.666 1172.15 441.698
2405 0 67.0497 11.6182 779 105.103 1172.94 440.7
2406 0 70.163 12.1147 850 103.211 1172.21 440.805
2407 0 71.1013 11.6172 826 106.159 1172.59 437.334
2408 0 74.1724 11.689 867 106.145 1172.87 436.344
2409 0 76.0945 12.2479 932 104.105 1172.77 437.955
2410 0 79.0348 12.1465 960 105.727 1173.3 434.142
2411 0 79.1304 11.9676 947 107.516 1173.28 433.439
2412 0 83.0878 11.7948 980 107.722 1173.33 433.066
2413 0 85.0933 12.6449 1076 107.623 1172.48 430.016
2414 0 90.0406 13.9271 1254 103.552 1172.95 429.043
2415 0 92.0615 12.5134 1152 107.869 1172.8 427.238
2416 0 93.2577 13.7147 1279 106.544 1172.74 425.721
2417 0 97.1429 12.8882 1252 108.401 1173.34 425.849
2418 0 97.0757 11.5889 1125 113.076 1173.09 423.215
2419 0 103.125 12.897 1330 108.72 1173.37 423.159
2420 0 106.092 12.9982 1379 110.054 1172.91 419.232
2421 0 110.124 13.2941 1464 109.276 1172.96 419.068
2422 0 113.328 13.0242 1476 109.516 1172.73 418.856
2423 0 117.06 13.3778 1566 107.946 1172.93 415.745
2424 0 120.062 12.8851 1547 109.731 1172.36 412.048
2425 0 128.277 13.7827 1768 106.465 1172.63 410.325
2426 1 68.1162 12.0089 818 102.166 1172.99 440.067
2427 0 71.0877 12.5479 892 100.877 1173.05 438.713
2428 0 74.1068 13.0217 965 101.419 1173.79 435.59
2429 0 75.1202 11.8743 892 104.566 1173.6 434.075
2430 0 78.0704 12.873 1005 103.075 1173.27 433.267
2431 0 82.1335 13.7824 1132 101.118 1173.57 434.246
2432 0 83.1228 13.1973 1097 102.888 1174.17 432.289
2433 0 85.1631 13.4918 1149 102.639 1173.3 432.398
2434 0 88.0762 13.4656 1186 103.325 1173.51 430.799
2435 0 91.1098 11.8758 1082 107.344 1173.71 428.001
2436 0 93.2128 13.3029 1240 105.073 1172.82 427.002
2437 0 96.1293 12.608 1212 107.164 1173.33 426.244
2438 0 99.1475 12.9706 1286 108.32 1173.45 421.593
2439 0 104.232 14.9954 1563 103.597 1173.22 421.164
2440 0 105.189 13.2143 1390 107.981 1173.86 422.559
2441 0 109.165 13.0536 1425 109.156 1174.02 419.914
2442 0 113.142 13.8322 1565 108.564 1173.46 418.452
2443 0 117.191 13.1665 1543 109.778 1173.81 414.307
2444 0 120.239 14.729 1771 106.013 1173.82 412.829
2445 1 68.1256 12.1834 830 104.613 1172.93 436.535
2446 0 69.0583 12.989 897 103.876 1172.66 437.838
2447 0 73.1518 11.5923 848 106.699 1172.84 437.712
2448 0 76.0804 12.7628 971 104.538 1172.84 436.604
2449 0 79.1124 12.8046 1013 104.449 1173.17 435.34
2450 0 81.1625 11.7788 956 106.65 1172.48 433.66
2451 0 84.1531 12.4891 1051 106.139 1172.16 432.123
2452 0 89.0887 13.2789 1183 104.299 1172.58 431.659
2453 0 89.0881 12.0555 1074 108.422 1173.14 428.192
2454 0 92.1332 12.5036 1152 106.801 1173.22 427.631
2455 0 94.153 12.4691 1174 107.782 1173.69 424.589
2456 0 100.078 13.0598 1307 105.979 1173.75 422.949
2457 0 101.137 11.3212 1145 109.727 1173.5 421.441
2458 0 105.133 14.1059 1483 104.482 1173.39 419.369
2459 0 110.132 13.838 1524 104.305 1173.43 419.212
2460 0 110.151 13.5632 1494 106.753 1173.27 414.845
2461 0 115.068 13.4616 1549 106.432 1173.92 414.409
2462 0 117.187 12.5014 1465 107.68 1173.85 412.722
2463 0 119.131 12.5325 1493 108.425 1173.57 407.891
2464 0 127.383 13.1022 1669 105.243 1173.76 409.228
2465 1 71.107 10.8147 769 100.148 1174.95 439.733
2466 0 73.1791 12.6949 929 99.9774 1174.53 434.039
2467 0 75.1605 11.1628 839 101.598 1173.94 435.261
2468 0 78.1649 12.3457 965 101.032 1174.66 433.254
2469 0 79.0943 12.0742 955 103.33 1174.43 430.131
2470 0 85.1499 13.8109 1176 98.9821 1174.04 430.74
2471 0 86.0522 13.4802 1160 100.708 1174.55 428.138
2472 0 89.2676 12.3785 1105 101.776 1175.17 427.005
2473 0 91.162 12.6478 1153 102.225 1174.33 426.048
2474 0 94.1809 13.3998 1262 101.22 1174.79 422.813
2475 0 97.1526 13.2781 1290 102.895 1174.73 419.126
2476 0 103.178 13.4815 1391 100.252 1174.76 422.262
2477 0 106.265 14.0874 1497 100.289 1174.85 418.882
2478 0 108.296 12.8721 1394 103.656 1174.61 417.981
2479 0 108.296 12.8998 1397 148.568 1174.6 418.029
2480 0 115.323 13.2671 1530 104.16 1173.78 413.166
2481 0 120.268 13.4782 1621 104.322 1174.08 410.634
2482 0 123.355 13.4328 1657 107.361 1174 407.334
2483 0 128.324 13.2711 1703 106.096 1173.99 408.403
2484 1 73.1144 11.6803 854 99.7787 1174.14 435.509
2485 0 74.124 10.6173 787 102.086 1174.62 432.729
2486 0 78.0869 11.6665 911 100.896 1174.13 432.619
2487 0 78.1009 10.7809 842 103.42 1174.37 432.063
2488 0 82.1628 12.5726 1033 101.516 1173.71 428.31
2489 0 84.1425 11.2428 946 104.137 1174.43 428.11
2490 0 88.2207 11.8226 1043 102.935 1174.42 426.513
2491 0 91.1296 11.4452 1043 103.46 1175.27 426.097
2492 0 95.1571 12.1904 1160 102.261 1174.91 424.021
2493 0 97.0909 12.4625 1210 103.801 1174.52 419.18
2494 0 101.235 13.4045 1357 101.913 1174.64 417.813
2495 0 103.256 12.2414 1264 105.023 1173.37 414.823
2496 0 107.3 11.7428 1260 104.752 1174.02 416.245
2497 1 59.1324 11.3305 670 99.6836 1174.58 440.376
2498 0 62.1258 10.6075 659 101.853 1174.74 436.46
2499 0 62.1258 10.5914 658 134.222 1174.75 436.447
2500 0 64.1278 11.7422 753 102.7 1174.17 433.024
2501 0 68.1244 12.4478 848 98.8396 1175.03 436.706
2502 0 68.1266 10.8915 742 103.709 1174.24 434.408
2503 0 71.0963 11.0976 789 103.074 1174.99 434.444
2504 0 73.2325 11.0334 808 103.856 1174.83 431.922
2505 0 76.1395 11.19 852 104.407 1174.67 429.298
2506 0 77.2228 11.3438 876 103.888 1174.6 430.816
2507 0 79.1599 10.7757 853 104.815 1175.16 430.549
2508 0 86.2126 12.678 1093 101.002 1174.99 427.371
2509 0 86.3073 10.451 902 105.411 1174.49 428.054
2510 0 88.3384 9.85981 871 107.334 1174.73 426.233
2511 0 92.1875 11.7261 1081 105.488 1174.78 420.574
2512 0 95.2554 11.023 1050 106.03 1175.2 420.512
2513 0 98.2202 11.5353 1133 105.057 1175.12 419.82
2514 0 104.263 10.8284 1129 106.157 1175.84 418.333
2515 0 107.36 12.5746 1350 102.78 1175.39 415.797
2516 0 109.227 12.2223 1335 104.855 1175.73 411.259
2517 1 61.1216 10.2092 624 102.051 1175.73 438.074
2518 0 67.0359 10.7256 719 99.9611 1175.16 437.25
2519 0 69.0958 12.1715 841 97.8026 1175.07 436.226
2520 0 67.1487 10.8416 728 108.832 1175.48 433.363
2521 0 73.1057 11.0115 805 102.881 1175.66 430.812
2522 0 74.0985 11.0528 819 102.927 1175.16 432.385
2523 0 78.2134 9.92158 776 104.586 1175.8 432.353
2524 0 81.1092 12.1195 983 101.927 1174.96 428.635
2525 0 82.1078 12.2522 1006 102.887 1174.01 427.022
2526 0 84.1321 11.2442 946 105.235 1174.83 427.056
2527 0 87.1127 11.8352 1031 104.757 1175.17 422.991
2528 0 92.049 13.6232 1254 100.762 1174.65 423.107
2529 0 94.1341 11.4836 1081 106.004 1174.76 423.836
2530 0 98.3836 11.5365 1135 105.685 1174.45 422.271
2531 0 99.1603 11.0528 1096 108.634 1174.58 418.235
2532 0 106.28 12.4388 1322 105.961 1173.9 415.622
2533 0 108.355 11.9422 1294 106.997 1175.61 414.189
2534 0 110.295 12.122 1337 106.66 1175.87 414.915
2535 0 116.294 12.2449 1424 107.678 1175.37 410.364
2536 1 64.1231 11.244 721 102.68 1175.63 435.437
2537 0 66.2073 10.2406 678 103.5 1175.92 433.034
2538 0 67.1155 10.9513 735 102.683 1175.78 433.254
2539 0 68.2062 10.5856 722 106.084 1175.16 430.377
2540 0 73.0958 12.4905 913 101.461 1176.24 428.877
2541 0 75.1471 11.3245 851 105.436 1176.26 428.31
2542 0 77.1175 10.8147 834 105.687 1175.69 427.739
2543 0 81.2582 12.7741 1038 101.969 1175.71 425.141
2544 0 80.2197 10.8328 869 106.613 1176.45 426.041
2545 0 85.1524 12.3308 1050 104.024 1176.28 423.302
2546 0 89.1772 12.7835 1140 103.491 1175.95 419.898
2547 0 90.3123 11.1723 1009 108.378 1176.11 420.395
2548 0 93.2457 13.191 1230 104.937 1176.94 416.988
2549 0 98.3164 13.304 1308 103.99 1176.67 417.881
2550 0 101.26 13.0258 1319 104.525 1176.11 417.395
2551 0 102.083 12.5976 1286 108.316 1176.61 414.006
2552 0 107.122 14.3015 1532 104.917 1176.55 413.559
2553 0 107.122 14.3015 1532 149.128 1175.54 413.592
2554 0 113.224 13.3717 1514 109.385 1176.54 408.701
2555 0 116.226 13.0436 1516 110.57 1176.36 407.162
2556 0 121.266 12.6334 1532 110.926 1176.65 405.443
2557 0 125.149 13.368 1673 108.621 1176.24 402.899
2558 0 127.186 13.2877 1690 110.022 1176.75 397.803
2559 1 73.0587 10.4984 767 99.601 1175.74 431.979
2560 0 75.2092 11.1954 842 100.633 1176.22 428.076
2561 0 76.106 11.6679 888 99.2342 1176.06 424.725
2562 0 78.0793 10.5534 824 99.7415 1175.28 428.092
2563 0 83.1395 12.028 1000 98.013 1175.49 423.207
2564 0 84.0786 11.9412 1004 97.8576 1175.75 424.217
2565 0 87.1125 11.2843 983 100.91 1176.37 419.154
2566 0 90.1364 11.1054 1001 100.901 1175.3 420.009
2567 0 93.276 10.7959 1007 101.185 1176.11 418.267
2568 0 96.1443 11.5972 1115 99.5812 1175.83 417.253
2569 0 100.141 11.8033 1182 99.8443 1175.6 414.548
2570 0 102.244 12.118 1239 100.069 1175.4 411.081
2571 0 108.248 12.693 1374 97.8828 1176.04 412.258
2572 0 109.111 12.0061 1310 100.298 1176.13 405.391
2573 0 114.167 12.2452 1398 99.4878 1176.19 410.034
2574 0 117.198 11.8518 1389 100.811 1176.79 409.54
2575 0 122.197 11.8579 1449 104.464 1176.92 402.202
2576 0 122.197 11.8007 1442 154.709 1176.92 402.034
2577 0 130.249 12.0999 1576 101.836 1175.73 397.284
2578 0 134.122 12.7123 1705 97.8029 1175.79 398.441
2579 1 79.2574 11.3302 898 92.8976 1175.6 427.322
2580 0 78.108 10.9592 856 93.6986 1175.91 425.993
2581 0 84.1798 12.402 1044 90.1552 1175.59 426.686
2582 0 86.0805 11.3034 973 92.9836 1175.21 426.572
2583 0 88.1597 12.8857 1136 90.7896 1175.03 423.714
2584 0 92.1214 11.7345 1081 93.2923 1175.3 423.073
2585 0 94.1153 12.5378 1180 92.7492 1174.9 419.592
2586 0 95.1581 10.8136 1029 97.3333 1175.14 417.174
2587 0 101.099 13.373 1352 92.5762 1175.49 417.08
2588 0 102.144 11.5915 1184 97.4747 1175.68 415.515
2589 0 106.147 11.6536 1237 98.3921 1175.93 413.848
2590 0 109.148 11.6081 1267 99.6977 1174.95 413.185
2591 0 113.165 13.2992 1505 96.6897 1175.47 411.43
2592 0 114.091 12.1482 1386 101.154 1175.21 408.851
2593 0 118.123 11.505 1359 102.854 1175.09 408.432
2594 0 122.067 11.6575 1423 103.098 1175.61 406.498
2595 0 127.157 11.7414 1493 103.283 1175.64 403.646
2596 0 131.175 13.3181 1747 100.504 1175.79 403.204
2597 0 135.271 11.6876 1581 104.669 1176.1 399.297
2598 0 142.209 13.5786 1931 100.249 1176.42 397.785
2599 0 144.213 13.4732 1943 101.516 1176.08 395.728
2600 0 149.225 12.9201 1928 104.775 1176.6 389.159
2601 0 155.407 12.9209 2008 105.098 1176.79 387.196
2602 0 161.336 13.6609 2204 103.3 1175.68 383.913
2603 1 93.0674 12.7005 1182 94.5905 1175.65 424.51
2604 0 96.1642 11.9483 1149 97.6301 1175.01 419.005
2605 0 100.408 11.7322 1178 99.4593 1175.8 418.542
2606 0 101.123 12.0645 1220 100.693 1175.23 415.621
2607 0 101.145 10.7667 1089 105.863 1175.29 412.977
2608 0 105.134 11.2523 1183 105.503 1175.84 411.835
2609 0 109.125 12.8294 1400 102.361 1174.7 414.066
2610 0 109.125 12.8844 1406 140.475 1173.7 414.004
2611 0 117.167 12.3926 1452 103.337 1175.56 411.118
2612 0 120.254 13.2969 1599 102.861 1175.16 408.292
2613 0 124.27 13.2292 1644 102.892 1175.63 407.057
2614 0 128.214 12.7054 1629 104.622 1175.7 406.289
2615 0 131.213 12.0186 1577 106.94 1176.13 401.2
2616 0 135.166 12.5993 1703 106.385 1176.47 400.143
2617 0 142.314 13.7443 1956 103.336 1175.83 399.624
2618 0 145.26 12.6945 1844 107.438 1175.34 391.819
2619 1 82.1901 10.208 839 99.0453 1175.79 428.99
2620 0 84.2528 11.786 993 94.7784 1175.76 427.051
2621 0 86.1519 10.8297 933 96.6002 1175.28 424.989
2622 0 89.1353 11.4994 1025 96.2361 1174.65 425.199
2623 0 90.1133 10.8863 981 97.4077 1174.87 425.222
2624 0 94.1662 10.7576 1013 97.773 1174.82 422.798
2625 0 98.0569 10.8304 1062 98.0885 1174.73 421.255
2626 0 102.095 12.3415 1260 94.6929 1174.48 421.765
2627 0 106.094 11.2825 1197 97.7452 1174.56 417.364
2628 0 108.195 11.5994 1255 98.557 1174.27 415.141
2629 0 109.167 11.3221 1236 99.1837 1174.65 417.108
2630 0 112.181 10.8842 1221 99.887 1174.62 416.594
2631 0 118.128 12.4103 1466 97.4482 1174.89 413.831
2632 0 120.17 11.2175 1348 99.8583 1174.7 413.308
2633 0 124.152 12.8633 1597 98.0526 1173.89 408.226
2634 0 130.127 12.7337 1657 97.7719 1173.78 406.757
2635 1 72.0615 11.6706 841 91.9203 1174.03 438.484
2636 0 73.1871 11.2998 827 93.4486 1174.77 436.207
2637 0 76.1542 12.9474 986 91.0649 1174.39 438.362
2638 0 77.1205 11.4496 883 91.5595 1174.59 433.582
2639 0 77.1163 11.2298 866 93.2656 1174.31 430.342
2640 0 80.3095 11.767 945 92.4497 1174.19 431.72
2641 0 82.0859 10.7936 886 94.8499 1174.44 431.982
2642 0 86.1401 11.9341 1028 93.9767 1174.82 430.615
2643 0 88.1598 10.946 965 96.9617 1173.81 428.073
2644 0 90.2365 10.5057 948 99.4747 1174.07 428.541
2645 0 92.1831 12.5945 1161 97.1344 1173.71 424.767
2646 0 97.1665 10.6415 1034 98.4304 1173.36 429.342
2647 0 97.2973 11.9736 1165 98.3605 1173.31 426.132
2648 0 99.1661 11.3345 1124 101.778 1173.45 422.26
2649 0 105.136 13.3065 1399 98.5761 1173.86 420.415
2650 0 108.123 12.0419 1302 102.893 1173.47 421.06
2651 0 112.22 13.429 1507 101.632 1173.78 416.473
2652 0 116.215 14.1376 1643 99.1309 1173.85 408.257
2653 0 120.173 13.0561 1569 101.428 1172.74 404.553
2654 1 64.1725 11.1263 714 105.286 1174.01 438.235
2655 0 66.0353 11.3273 748 104.616 1174.3 439.616
2656 0 70.0631 12.6029 883 101.706 1172.68 431.537
2657 0 72.126 12.8802 929 102.062 1173.66 430.944
2658 0 72.0974 11.4012 822 98.5158 1173.53 436.062
2659 0 76.2051 13.6999 1044 93.9272 1174.01 435.284
2660 0 78.127 12.5693 982 96.1782 1174.07 434.543
2661 0 82.0872 13.5588 1113 95.3181 1173.21 432.765
2662 0 83.1207 12.8849 1071 97.8077 1173.93 429.958
2663 0 84.1096 11.6752 982 101.98 1173.82 429.768
2664 0 90.0922 13.2198 1191 98.2729 1172.8 428.547
2665 0 91.1064 13.5446 1234 98.0511 1173.06 428.526
2666 0 92.0801 12.6955 1169 100.766 1173.53 422.456
2667 0 97.1882 12.553 1220 100.755 1173.44 424.85
2668 0 92.1049 10.944 1008 105.61 1173.68 422.121
2669 0 103.099 13.5501 1397 101.12 1173.36 413.312
2670 0 105.081 12.3524 1298 103.934 1173.81 415.749
2671 0 108.064 13.8436 1496 102.531 1173.37 409.782
2672 0 112.125 13.7436 1541 102.507 1174.38 411.274
2673 0 115.111 13.1004 1508 105.195 1173.79 409.55
2674 0 115.111 13.0744 1505 163.591 1173.8 409.632
2675 0 122.221 13.9992 1711 104.054 1173.4 405.056
2676 0 127.115 14.0581 1787 102.892 1173.56 406.705
2677 1 72.0434 12.5619 905 103.505 1174.47 430.793
2678 0 72.134 11.3816 821 106.89 1174.34 429.132
2679 0 77.0587 13.055 1006 98.1252 1174.02 434.364
2680 0 78.0552 13.4264 1048 98.9704 1174.24 434.302
2681 0 81.1059 13.6735 1109 101.196 1173.45 431.537
2682 0 84.1426 13.0136 1095 103.57 1174.39 431.921
2683 0 84.0753 13.702 1152 104.099 1174.34 430.275
2684 0 89.1793 14.0728 1255 102.905 1174.29 423.739
2685 0 89.0673 13.7649 1226 105.586 1174.28 422.073
2686 0 94.1859 14.3015 1347 105.475 1174.27 420.11
2687 0 96.049 13.9304 1338 106.532 1173.82 421.41
2688 0 99.1338 14.0517 1393 106.476 1173.64 421.696
2689 0 100.161 13.3285 1335 109.016 1173.71 420.469
2690 0 105.091 14.1401 1486 106.454 1173.9 419.505
2691 0 107.083 14.8296 1588 105.966 1174.33 417.033
2692 0 111.102 14.7522 1639 106.074 1174 414.409
2693 0 116.063 14.2251 1651 106.535 1173.65 413.018
2694 0 118.099 13.9544 1648 107.03 1173.73 412.651
2695 0 126.304 16.1753 2043 100.914 1173.72 408.367
2696 0 126.232 13.2455 1672 108.044 1173.29 409.311
2697 0 129.108 12.4159 1603 109.462 1173.85 403.471
2698 0 137.175 12.9543 1777 107.373 1174.02 402.085
2699 1 79.0887 10.7474 850 102.186 1173.99 431.816
2700 0 83.1544 12.7353 1059 103.513 1173.65 429.505
2701 0 86.1234 12.424 1070 102.796 1174.29 429.638
2702 0 89.2119 12.2181 1090 101.106 1173.55 424.735
2703 0 89.1289 11.029 983 104.003 1173.81 425.551
2704 0 93.1601 11.6788 1088 102.958 1174.43 422.75
2705 0 95.1657 11.9476 1137 102.865 1173.71 419.199
2706 0 99.1404 11.6804 1158 103.19 1173.26 419.56
2707 0 103.151 13.4851 1391 99.6786 1173.72 417.77
2708 0 105.09 10.8955 1145 104.363 1173.35 416.541
2709 0 109.163 11.5698 1263 103.793 1174.22 414.892
2710 0 110.22 10.0889 1112 107.423 1174.22 412.283
2711 0 117.071 12.2405 1433 103.833 1174.32 409.625
2712 0 121.316 11.8946 1443 104.448 1174.07 408.943
2713 1 68.117 10.9811 748 103.043 1174.18 438.267
2714 0 69.1204 11.0821 766 97.6044 1174.67 440.715
2715 0 71.054 11.5687 822 96.4939 1174.23 434.507
2716 0 76.127 13.4512 1024 91.7617 1174.35 435.604
2717 0 78.1281 12.5691 982 93.1365 1174.22 435.811
2718 0 79.0554 12.1687 962 95.9563 1174.33 430.354
2719 0 83.1189 13.7394 1142 93.1602 1174.98 430.608
2720 0 85.0873 12.8926 1097 96.4585 1174.21 427.003
2721 0 86.0832 12.6273 1087 98.356 1174.87 428.179
2722 0 89.0758 11.8663 1057 100.2 1174.42 429.788
2723 0 94.1029 12.752 1200 99.3958 1175.19 426.012
2724 0 95.0718 13.6739 1300 98.5385 1174.12 424.533
2725 0 98.1315 12.0756 1185 102.019 1174.07 422.417
2726 0 103.149 12.8552 1326 100.921 1174.67 420.305
2727 0 105.057 13.6117 1430 99.8552 1174.59 415.987
2728 0 109.104 13.73 1498 99.769 1173.47 416.908
2729 0 111.058 12.8131 1423 102.007 1173.68 415.464
2730 0 117.241 13.178 1545 101.987 1174.28 413.183
2731 0 120.158 13.7568 1653 101.705 1174.55 408.838
2732 1 68.1264 11.3612 774 100.457 1174.65 435.729
2733 0 71.0843 12.5625 893 99.4143 1173.45 433.946
2734 0 73.0797 12.6985 928 98.6498 1174.38 432.959
2735 0 74.0723 12.2448 907 98.366 1174.45 432.408
2736 0 76.1543 12.1201 923 98.701 1173.76 432.049
2737 0 78.0722 12.7318 994 97.993 1173.88 431.974
2738 0 82.0759 11.9158 978 100.371 1174.28 428.291
2739 0 84.1771 12.046 1014 100.994 1174.2 427.926
2740 0 86.1042 13.3211 1147 99.0009 1175.1 426.217
2741 0 90.0635 12.6355 1138 100.591 1174.22 425.278
2742 0 94.1355 12.8113 1206 100.682 1174.56 425.063
2743 0 96.1538 12.8856 1239 102.128 1174.64 421.736
2744 0 97.1144 12.7067 1234 104.109 1175 421.464
2745 0 100.172 12.3388 1236 105.858 1175.74 421.036
2746 0 104.131 13.5406 1410 103.424 1175.31 418.82
2747 0 107.173 12.9696 1390 105.47 1175.15 415.41
2748 0 110.163 13.0625 1439 105.568 1175.23 415.318
2749 0 114.139 13.396 1529 106.804 1175.11 412.583
2750 0 116.16 13.2661 1541 107.506 1174.98 412.482
2751 0 120.246 13.9796 1681 105.521 1175.67 411.049
2752 0 125.226 13.272 1662 106.107 1175.66 408.064
2753 1 69.0837 10.9143 754 108.605 1175.48 433.735
2754 0 72.0625 10.7823 777 103.398 1175.86 432.179
2755 0 78.2265 13.576 1062 96.3352 1175.88 430.589
2756 0 79.1692 12.9722 1027 99.1675 1175.72 428.999
2757 0 83.2095 12.4625 1037 100.591 1175.5 428.614
2758 0 85.2176 12.6734 1080 99.7111 1175.2 427.611
2759 0 88.117 12.9827 1144 99.3549 1175.6 427.369
2760 0 89.0659 12.3055 1096 101.4 1175.81 425.808
2761 0 91.0797 11.0453 1006 102.93 1176.33 425.42
2762 0 96.0751 11.8969 1143 102.159 1175.92 423.597
2763 0 96.0751 11.7304 1127 136.872 1175.89 423.468
2764 0 101.149 12.4174 1256 102.741 1175.53 419.48
2765 0 101.053 10.9943 1111 106.499 1174.98 415.014
2766 1 60.0709 13.5507 814 96.317 1174.94 437.005
2767 0 62.041 12.0243 746 98.4745 1174.3 437.866
2768 0 64.0898 13.4655 863 89.0104 1174.79 439.783
2769 0 66.0795 12.6817 838 90.8484 1175.21 440.181
2770 0 67.0358 12.7096 852 91.3016 1175.71 439.042
2771 0 67.0417 11.7837 790 94.4772 1174.98 437.315
2772 0 67.0425 11.7537 788 122.123 1173.98 437.176
2773 0 74.1163 13.3034 986 90.859 1174.75 435.473
2774 0 76.0923 12.3403 939 93.426 1174.77 434.34
2775 0 76.0923 12.2877 935 134.494 1174.79 434.31
2776 0 81.1236 12.9679 1052 95.115 1174.14 433.586
2777 0 84.0433 13.2789 1116 94.4498 1174.82 434.116
2778 0 86.1319 13.5258 1165 95.4944 1174.83 429.844
2779 0 89.0911 13.4581 1199 96.8382 1174.48 430.18
2780 0 89.2007 11.8497 1057 102.226 1174.37 427.119
2781 0 96.177 14.4941 1394 99.6341 1174.21 427.07
2782 0 99.1532 13.9884 1387 100.706 1174.03 424.983
2783 0 104.153 15.0068 1563 97.3231 1173.65 423.974
2784 1 55.1204 12.8446 708 96.8559 1173.6 448.294
2785 0 60.0364 12.8589 772 98.8614 1172.98 442.662
2786 0 61.0481 13.4648 822 93.0888 1174.22 443.404
2787 0 62.0844 12.6602 786 94.2646 1173.93 441.824
2788 0 63.0482 13.228 834 94.5683 1174.1 439.681
2789 0 66.077 12.3038 813 95.9164 1174.11 439.389
2790 0 68.1172 14.0787 959 93.2336 1174.64 437.388
2791 0 67.117 11.4278 767 99.5306 1174.08 437.265
2792 0 74.0876 12.9711 961 95.1374 1174.45 436.73
2793 0 74.0565 12.9091 956 96.3253 1174.29 434.38
2794 0 77.1408 12.8466 991 96.3582 1174.63 434.663
2795 0 81.0746 14.6162 1185 93.297 1174.61 434.235
2796 0 81.0862 12.9615 1051 97.4719 1175.17 432.859
2797 0 85.0756 14.0698 1197 96.2022 1174.3 430.629
2798 0 89.0495 13.6553 1216 95.8906 1174.63 432.164
2799 0 90.076 13.1556 1185 98.8245 1174.51 427.186
2800 0 93.0964 12.9113 1202 99.1747 1174.9 427.517
2801 0 96.2099 12.2233 1176 99.631 1173.99 429.816
2802 0 100.071 13.3706 1338 98.7025 1173.94 425.901
2803 0 103.164 13.338 1376 99.883 1174.03 427.616
2804 0 107.174 12.9602 1389 102.008 1174.56 424.096
2805 0 109.114 12.9406 1412 103.269 1174.63 421.574
2806 0 114.257 13.4259 1534 101.693 1174.37 412.173
2807 0 115.158 11.9315 1374 108.407 1174.13 407.56
2808 0 121.179 12.8982 1563 106.537 1174.15 405.985
2809 1 68.1075 13.141 895 105.364 1174.44 432.059
2810 0 69.1434 12.9297 894 101.831 1174.36 433.485
2811 0 70.1165 12.1227 850 101.681 1174.38 433.912
2812 0 75.1369 13.2691 997 98.2187 1173.53 436.834
2813 0 76.1184 13.7286 1045 98.9244 1173.82 434.353
2814 0 78.1137 13.5316 1057 100.207 1174.24 433.909
2815 0 82.0877 13.7901 1132 99.7986 1174.27 432.232
2816 0 83.0731 12.3506 1026 102.922 1172.98 432.309
2817 0 88.1062 13.8696 1222 99.8134 1173.47 429.944
2818 0 90.162 11.8897 1072 104.049 1173.29 429.174
2819 0 92.1067 13.5386 1247 101.422 1172.53 427.317
2820 0 97.1195 13.6224 1323 100.258 1172.49 426.789
2821 0 98.11 12.3739 1214 103.231 1173.62 423.768
2822 0 104.158 13.518 1408 99.9581 1173.07 424.32
2823 0 108.112 14.5405 1572 96.6603 1174.21 425.629
2824 1 59.0617 12.0383 711 102.245 1173.43 440.346
2825 0 63.0322 11.8035 744 100.849 1173.06 441.476
2826 0 64.0898 12.4981 801 99.8702 1173.74 440.288
2827 0 65.1078 11.7497 765 101.742 1174.23 440.603
2828 0 66.1163 11.9184 788 103.794 1173.52 435.825
2829 0 71.0841 12.5344 891 101.32 1173.83 436.473
2830 0 72.0705 12.2103 880 102.253 1173.2 436.278
2831 0 74.0188 11.9294 883 103.892 1173.4 433.615
2832 0 78.0983 13.1373 1026 101.144 1173.5 432.411
2833 0 81.1092 13.8702 1125 100.08 1172.97 430.453
2834 0 85.0673 14.7178 1252 98.254 1173.89 430.46
2835 0 89.0745 13.2473 1180 101.148 1173.4 430.395
2836 0 92.0929 14.3768 1324 100.397 1173.03 428.961
2837 0 95.1213 14.4342 1373 101.05 1173.15 426.639
2838 0 98.1187 14.8799 1460 101.559 1173.11 423.888
2839 0 103.165 14.4526 1491 102.05 1172.4 424.18
2840 0 104.121 15.4436 1608 101.008 1172.65 421.053
2841 0 109.089 14.4744 1579 102.322 1172.98 419.622
2842 0 110.21 12.9208 1424 107.083 1173.79 418.636
2843 1 62.0713 11.9379 741 102.866 1173.55 443.003
2844 0 63.0245 12.8204 808 103.902 1173.05 442.382
2845 0 65.0589 15.2631 993 98.568 1173.34 440.9
2846 0 69.0754 14.4045 995 99.9146 1172.79 438.863
2847 0 72.0362 14.0346 1011 99.9842 1173.57 437.52
2848 0 73.0733 14.5333 1062 99.646 1173.96 437.837
2849 0 76.0343 15.1379 1151 99.5552 1174.01 435.772
2850 0 78.1094 14.0828 1100 103.804 1173.26 433.265
2851 0 81.0856 13.8249 1121 105.518 1172.84 432.084
2852 0 86.0538 14.8976 1282 102.348 1173.81 433.512
2853 0 86.0941 13.3575 1150 107.417 1172.95 431.012
2854 0 89.1458 13.9434 1243 106.004 1172.93 431.312
2855 0 94.2427 14.7704 1392 104.256 1172.32 429.287
2856 0 94.1621 15.091 1421 105.106 1172.6 426.658
2857 0 97.1979 13.4777 1310 109.847 1172.31 428.198
2858 0 101.218 14.375 1455 108.165 1172.57 423.746
2859 0 105.141 15.1225 1590 105.647 1172.73 423.065
2860 0 108.189 13.3377 1443 109.623 1172.26 423.475
2861 0 112.29 14.0351 1576 109.599 1172.64 419.442
2862 0 115.213 13.8352 1594 111.348 1172.47 416.418
2863 0 118.272 14.8133 1752 109.344 1172.15 415.544
2864 0 123.353 14.9814 1848 108.691 1172.6 414.841
2865 0 126.151 14.2448 1797 111.088 1171.39 413.988
2866 1 69.1886 13.297 920 106.268 1171.92 440.999
2867 0 70.1113 12.4374 872 108.359 1171.72 440.506
2868 0 72.1151 13.3675 964 108.634 1171.88 437.027
2869 0 75.0946 13.7693 1034 108.58 1173.04 437.397
2870 0 79.1452 14.4671 1145 106.997 1172.15 434.985
2871 0 80.1196 14.5657 1167 108.752 1171.78 432.129
2872 0 82.1058 13.7262 1127 110.429 1171.69 432.03
2873 0 85.1368 13.9305 1186 110.309 1171.62 430.938
2874 0 87.1424 13.1738 1148 112.365 1172.22 428.825
2875 0 90.1768 14.6823 1324 110.011 1172.33 428.29
2876 0 94.0704 14.3722 1352 112.453 1172.46 426.161
2877 0 94.1592 13.902 1309 114.879 1172.39 425.161
2878 0 101.169 15.4494 1563 110.301 1172.7 423.765
2879 0 103.137 13.9717 1441 114.897 1172.26 422.93
2880 0 105.126 15.1152 1589 112.804 1172.67 420.365
2881 0 105.132 13.3736 1406 119.269 1172.38 415.568
2882 0 112.227 15.2726 1714 113.651 1172.7 414.421
2883 0 117.165 16.3017 1910 110.504 1172.59 412.109
2884 0 121.232 14.6578 1777 114.277 1172.51 413.008
2885 0 124.23 14.9562 1858 115.221 1173.03 407.882
2886 0 129.213 15.4242 1993 112.562 1173.31 410.663
2887 0 131.21 13.8328 1815 118.653 1172.66 403.983
2888 0 136.156 14.0207 1909 118.824 1173 401.989
2889 0 144.173 15.0722 2173 113.75 1173.07 401.698
2890 0 147.25 14.2139 2093 118.777 1173.52 397.406
2891 0 152.226 15.3719 2340 115.857 1173.26 395.971
2892 0 156.192 14.924 2331 117.704 1172.83 392.07
2893 0 162.202 15.2649 2476 116.9 1173.14 389.854
2894 0 166.241 15.4896 2575 117.726 1172.73 385.645
2895 0 169.182 13.7189 2321 122.713 1172.58 383.293
2896 0 176.201 14.4324 2543 121.226 1172.78 380.096
2897 0 183.323 15.0281 2755 120.001 1172.57 378.783
2898 0 188.469 15.0953 2845 119.825 1172.5 375.397
2899 0 192.448 13.7648 2649 124.444 1172.85 370.416
2900 0 202.43 15.5412 3146 119.102 1172.8 366.167
2901 0 207.497 15.4412 3204 120.96 1172.12 361.876
2902 0 215.387 15.2284 3280 120.383 1173.16 357.304
2903 0 225.469 16.326 3681 116.919 1173.19 358.058
2904 0 223.325 13.4199 2997 125.644 1172.46 358.053
2905 0 224.31 12.291 2757 126.939 1172.41 361.651
2906 1 313.382 9.44534 2960 127.184 1172.21 356.762
2907 0 312.443 9.8258 3070 128.491 1172.44 349.322
2908 0 312.442 10.7828 3369 131.168 1172.95 337.053
2909 1 272.536 15.7227 4285 121.606 1173.22 327.959
2910 0 313.245 25.8839 8108 92.0566 1173.51 298.971
2911 1 73.2514 10.0066 733 105.585 1172.92 430.76
2912 0 74.3012 10.6593 792 106.461 1172.5 429.092
2913 0 78.2021 12.4933 977 102.186 1172.88 429.172
2914 0 81.3589 11.3325 922 105.136 1172.59 428.859
2915 0 82.318 11.3584 935 104.287 1173.21 425.063
2916 0 84.325 10.9339 922 104.367 1173.43 425.682
2917 0 88.2669 11.4539 1011 103.218 1172.81 423.357
2918 0 92.4283 11.0464 1021 104.304 1172.7 422.005
2919 0 92.467 11.323 1047 105.075 1173.45 418.637
2920 0 94.2773 11.8056 1113 105.819 1172.66 418.802
2921 0 98.4364 11.5303 1135 105.682 1172.44 419.183
2922 0 101.465 10.5653 1072 107.878 1172.86 416.312
2923 0 103.248 10.6443 1099 109.336 1172.47 412.409
2924 0 109.488 10.7227 1174 108.414 1172.87 412.17
2925 1 143.846 17.6995 2546 80.8833 1172.97 390.705
2926 0 139.499 16.8603 2352 85.3278 1173.55 390.326
2927 0 142.9 13.254 1894 95.3194 1173.06 395.135
2928 0 139.608 16.2669 2271 89.0771 1172.94 385.512
2929 0 138.466 15.5345 2151 93.2459 1172.78 389.903
2930 0 135.233 12.6818 1715 104.065 1172.29 399.969
2931 0 139.338 12.5091 1743 105.242 1172.32 395.248
2932 0 143.263 11.5173 1650 108.753 1172.01 389.848
2933 0 149.297 12.9474 1933 105.111 1172.35 394.02
2934 0 154.264 12.6147 1946 107.747 1172 391.4
2935 1 92.1933 10.9986 1014 104.254 1171.76 422.117
2936 0 95.1875 12.0919 1151 103.268 1171.89 421.269
2937 0 98.1654 12.6419 1241 102.512 1171.5 419.892
2938 0 100.18 11.7688 1179 104.463 1171.87 417.852
2939 0 104.298 12.5985 1314 102.248 1172.57 415.825
2940 0 107.209 13.7302 1472 100.315 1171.47 415.531
2941 0 109.15 11.782 1286 104.67 1171.58 414.271
2942 0 114.18 12.9707 1481 102.564 1171.84 411.211
2943 0 116.206 10.3351 1201 108.402 1171.27 407.988
2944 0 120.183 11.3244 1361 102.909 1172.09 413.788
2945 0 124.226 11.6723 1450 103.81 1172.92 408.039
2946 0 128.172 12.1087 1552 105.123 1172.31 404.872
2947 0 131.181 12.1054 1588 104.543 1172.61 406.981
2948 0 135.13 11.8626 1603 106.346 1172.44 402.724
2949 0 139.124 11.5724 1610 107.066 1173.22 401.77
2950 0 141.211 12.7257 1797 104.874 1172.87 400.752
2951 0 146.15 12.7062 1857 105.974 1172.94 396.095
2952 0 147.216 11.5748 1704 108.83 1173.23 397.506
2953 0 151.217 11.1033 1679 111.716 1172.29 388.977
2954 0 156.162 12.5383 1958 108.801 1171.79 391.978
2955 0 159.248 11.4601 1825 112.751 1171.61 388.777
2956 0 164.431 11.7192 1927 111.881 1172.28 389.268
2957 0 171.443 12.8789 2208 109.754 1172.78 385.245
2958 0 176.452 11.7823 2079 113.642 1172.23 380.508
2959 0 179.31 11.2933 2025 114.343 1172.14 382.321
2960 0 186.366 12.6472 2357 111.459 1172.45 380.277
2961 0 190.381 12.1283 2309 114.024 1172.22 375.286
2962 1 205.455 21.1384 4343 91.9367 1172.21 361.376
2963 0 207.531 13.5739 2817 110.436 1172.48 371.13
2964 0 210.501 12.9501 2726 113.129 1171.88 367.848
2965 0 215.398 13.3242 2870 112.746 1172.2 363.905
2966 0 220.588 12.2309 2698 115.244 1171.81 364.936
2967 0 226.325 13.0211 2947 114.885 1172.13 352.231
2968 0 233.335 12.2228 2852 116.729 1171.78 356.989
2969 0 240.512 12.9807 3122 115.605 1171.65 351.273
2970 1 256.514 16.8957 4334 103.783 1173.19 333.187
2971 0 257.514 14.5507 3747 111.293 1172.79 338.52
2972 0 265.647 14.4251 3832 111.541 1172.9 341.657
2973 0 275.544 17.3983 4794 104.745 1172.55 328.887
2974 0 278.743 12.499 3484 117.962 1172.58 329.381
2975 0 288.582 15.3994 4444 110.788 1172.23 323.829
2976 0 298.696 16.3343 4879 109.578 1172.46 320.454
2977 0 310.754 15.5814 4842 112.094 1172.54 316.252
2978 0 320.141 17.0206 5449 108.781 1172.93 311.003
2979 0 329.953 15.7053 5182 111.997 1172.36 306.289
2980 0 340.831 16.5742 5649 111.597 1172.09 295.097
2981 0 352.858 16.9388 5977 110.303 1171.8 292.569
2982 0 366.066 16.7101 6117 110.86 1172.06 283.795
2983 0 375.986 16.0671 6041 113.089 1172.28 279.73
2984 1 199.592 12.736 2542 115.66 1172.53 371.539
2985 0 205.754 16.3642 3367 108.73 1172.41 366.222
2986 0 212.094 14.635 3104 114.721 1171.96 356.087
2987 0 216.599 13.8505 3000 116.61 1171.73 363.234
2988 0 222.74 14.6584 3265 114.009 1171.75 365.041
2989 0 230.497 16.998 3918 107.643 1172.36 356.394
2990 0 235.477 15.9548 3757 110.3 1172.08 352.788
2991 0 246.458 17.1835 4235 105.936 1172.41 348.653
2992 1 185.202 12.4458 2305 119.627 1172.26 380.226
2993 0 191.504 13.0859 2506 120.39 1171.35 372.713
2994 0 200.323 13.8726 2779 118.625 1172.13 366.251
2995 0 206.348 15.3721 3172 115.094 1172.41 367.755
2996 0 212.433 14.188 3014 119.179 1172.21 362.237
2997 0 219.488 14.4473 3171 118.832 1172.4 356.697
2998 0 226.45 13.3583 3025 122.299 1171.75 356.598
2999 0 235.42 13.4356 3163 121.155 1171.24 356.725
3000 0 242.422 13.5673 3289 121.752 1171.16 349.821
3001 0 251.414 14.0565 3534 120.557 1171.3 346.46
3002 0 251.613 12.1019 3045 124.903 1171.24 348.47
3003 0 251.613 10.079 2536 127.023 1172.15 355.556
3004 1 69.1853 10.826 749 109.204 1171.85 437.968
3005 0 71.1378 12.525 891 106.871 1171.65 436.368
3006 0 74.152 11.6113 861 110.194 1171.99 431.592
3007 0 75.1593 13.1587 989 104.097 1173.03 430.242
3008 0 77.1774 13.2422 1022 103.182 1172.67 430.108
3009 0 79.1906 11.7943 934 106.412 1172.28 429.408
3010 0 78.2411 10.8511 849 112.014 1171.83 426.941
3011 0 85.0941 13.3734 1138 103.503 1172.49 424.511
3012 0 85.1696 11.9644 1019 107.569 1171.86 424.696
3013 0 90.2262 13.178 1189 103.992 1172.87 425.569
3014 0 92.237 12.7172 1173 107.672 1172.91 421.92
3015 0 95.1669 13.6812 1302 106.247 1172.5 421.87
3016 0 98.2744 13.0248 1280 107.854 1172.2 421.974
3017 0 99.2025 13.4271 1332 108.968 1172.55 417.941
3018 0 102.267 13.4061 1371 108.855 1173.11 419.424
3019 0 108.289 14.4428 1564 106.402 1173.13 414.184
3020 0 111.261 15.4141 1715 103.999 1172.9 414.644
3021 0 115.208 14.808 1706 105.944 1171.99 410.915
3022 0 115.238 14.8562 1712 107.383 1172.56 407.252
3023 0 119.239 13.7791 1643 110.085 1172.39 407.232
3024 0 125.256 14.7857 1852 107.77 1172.1 404.381
3025 0 127.328 13.7911 1756 110.44 1171.45 408.972
3026 0 129.199 13.4521 1738 113.259 1172.33 402.032
3027 0 134.243 13.6395 1831 112.365 1172.4 402.475
3028 0 138.216 13.175 1821 113.925 1172.51 403.977
3029 0 142.381 13.3234 1897 115.053 1171.73 397.555
3030 0 146.245 13.5731 1985 114.55 1171.91 394.186
3031 0 151.307 13.3173 2015 114.351 1171.52 397.389
3032 0 156.334 14.4946 2266 112.637 1170.94 393.226
3033 0 161.364 13.6896 2209 114.686 1171.77 393.787
3034 0 164.156 12.9755 2130 117.844 1171.89 389.766
3035 0 170.274 13.8953 2366 115.969 1172.09 387.248
3036 0 176.212 14.6472 2581 114.694 1171.71 385.536
3037 0 181.329 13.9636 2532 118.462 1171.47 379.154
3038 0 186.272 15.3807 2865 114.126 1172.57 374.62
3039 0 192.441 15.1215 2910 115.35 1171.87 377.014
3040 0 198.23 13.5953 2695 119.805 1171.75 374.073
3041 0 205.357 13.7516 2824 120.286 1171.99 370.465
3042 0 212.266 15.2026 3227 117.478 1171.83 364.035
3043 0 219.372 15.2207 3339 117.115 1172.18 361.142
3044 0 227.397 15.7346 3578 116.203 1172.56 356.389
3045 0 234.277 15.1316 3545 118.246 1172.47 352.05
3046 0 240.33 14.3095 3439 115.286 1172.74 347.365
3047 0 249.12 16.1488 4023 113.642 1172.77 344.643
3048 1 189.131 13.8369 2617 123.656 1172.53 374.134
3049 0 190.177 13.9817 2659 112.629 1173.21 369.739
3050 0 191.164 12.9941 2484 124.905 1173.99 365.975
3051 0 194.266 14.4338 2804 124.452 1173.55 370.521
3052 0 198.235 15.4614 3065 119.696 1173.03 369.293
3053 0 203.336 13.7064 2787 123.416 1172.03 364.927
3054 0 210.244 14.0076 2945 120.658 1173.31 362.039
3055 0 219.391 14.3944 3158 116.513 1173.22 359.78
3056 0 228.367 14.7219 3362 113.483 1173.46 353.858
3057 0 231.43 13.3734 3095 116.104 1172.91 348.896
3058 0 242.446 13.5453 3284 115.175 1172.72 341.374
3059 0 251.286 14.5293 3651 111.645 1173.21 338.429
3060 0 258.59 13.8405 3579 113.351 1172.91 333.06
3061 0 266.45 13.6311 3632 113.866 1173.11 332.614
3062 0 271.487 15.323 4160 110.261 1172.99 322.807
3063 1 198.345 11.9489 2370 112.257 1172.58 371.249
3064 0 204.37 12.3355 2521 111.958 1172.59 366.179
3065 0 209.579 12.4345 2606 112.158 1172.43 362.875
3066 0 215.375 12.5827 2710 113.039 1172.79 360.125
3067 0 224.437 13.4381 3016 112.426 1171.79 355.534
3068 0 232.351 14.1639 3291 111.909 1172.62 351.863
3069 0 236.471 12.5512 2968 117.376 1173.58 349.047
3070 0 241.451 13.0171 3143 118.545 1172.85 345.187
3071 0 251.372 12.6387 3177 120.278 1172.29 339.949
3072 1 264.708 17.4985 4632 107.416 1172.81 324.318
3073 0 267.443 15.0574 4027 116.211 1172.41 324.665
3074 0 272.511 13.027 3550 123.915 1173 325.697
3075 0 281.587 15.4659 4355 116.529 1172.67 325.166
3076 0 288.639 15.3063 4418 118.686 1172.87 317.956
3077 0 298.514 15.9356 4757 118.13 1172.49 318.462
3078 0 308.784 15.8428 4892 119.525 1172.07 309.051
3079 0 317.411 15.3114 4860 122.015 1172.43 303.712
3080 0 328.651 16.7108 5492 118.504 1172.43 295.198
3081 0 336.555 15.7508 5301 122.599 1172.22 291.405
3082 0 346.823 15.0653 5225 125.979 1172.49 287.578
3083 0 359.634 16.7615 6028 121.985 1172.5 280.405
3084 0 372.665 16.3605 6097 125.013 1172.68 271.892
3085 0 384.646 18.8719 7259 118.979 1172.74 263.39
3086 0 376.591 7.70332 2901 139.582 1172.95 318.709
3087 1 182.351 10.732 1957 127.323 1172.27 371.553
3088 1 57.1435 8.9949 514 103.049 1174.02 439.023
3089 0 58.0531 10.1631 590 100.336 1173.97 438.715
3090 0 59.0939 9.93335 587 108.184 1173.83 437.049
3091 0 62.0433 10.4604 649 105.626 1174.36 436.867
3092 0 65.0707 9.51273 619 108.614 1174.56 436.782
3093 0 67.0413 10.6203 712 107.074 1174.28 435.111
3094 0 70.0423 11.4074 799 104.909 1174.43 432.846
3095 0 71.147 9.79662 697 108.743 1173.87 432.314
3096 0 72.1513 10.1731 734 109.346 1173.96 428.861
3097 0 74.0616 11.0584 819 107.855 1174.46 428.117
3098 0 74.1369 9.80618 727 111.923 1173.91 424.624
3099 0 77.1572 10.7054 826 109.205 1174.04 425.962
3100 0 80.0586 9.99268 800 110.728 1174.11 423.11
3101 0 83.0564 11.3899 946 107.311 1174.47 422.411
3102 0 85.0628 11.0271 938 107.978 1173.65 422.229
3103 0 88.0836 11.0804 976 108.117 1174.42 420.548
3104 0 91.1016 8.64968 788 106.675 1173.78 421.415
3105 0 91.0801 10.5951 965 102.217 1174.49 422.587
3106 0 92.0736 11.2519 1036 101.485 1174.43 422.901
3107 0 94.1131 10.5511 993 105.293 1173.78 417.422
3108 0 97.1212 10.8112 1050 104.058 1173.49 420.689
3109 0 101.112 9.72192 983 104.673 1173.99 418.786
3110 0 102.079 8.17992 835 108.194 1173.4 413.352
3111 0 107.153 7.82993 839 107.163 1172.82 416.141
3112 1 56.0999 9.34048 524 96.6164 1174.11 439.447
3113 0 56.097 9.78661 549 96.3242 1173.49 436.616
3114 0 58.1143 9.2232 536 98.7332 1173.35 436.784
3115 0 60.063 9.25695 556 99.8687 1172.78 436.604
3116 0 61.0175 8.35826 510 100.843 1172.73 434.698
3117 0 60.1567 7.61345 458 102.915 1172.19 434.869
3118 0 63.0541 7.66009 483 101.832 1171.75 434.919
3119 0 65.092 8.68003 565 101.419 1172.48 433.375
3120 0 72.0516 5.74588 414 105.157 1172.2 434.973
3121 0 72.0921 6.50557 469 105.431 1172.54 432.292
3122 0 72.0824 9.05907 653 98.5819 1172.42 428.536
3123 0 74.1411 10.7228 795 95.2465 1172.84 429.669
3124 0 76.0731 10.411 792 95.6907 1172.76 430.568
3125 0 80.1264 11.5817 928 93.8491 1173.15 429.004
3126 0 81.1393 10.3033 836 96.6148 1173.57 427.721
3127 0 84.1979 10.8079 910 95.211 1173.59 426.964
3128 0 87.1142 11.6399 1014 93.7554 1172.88 425.533
3129 0 91.0788 12.879 1173 91.6138 1172.64 423.471
3130 0 92.1384 11.7323 1081 94.0167 1172.6 424.073
3131 0 94.1378 11.1326 1048 97.0754 1173.18 418.623
3132 0 99.1588 10.821 1073 95.713 1173.77 419.214
3133 1 50.1119 10.5364 528 91.2576 1173.89 443.366
3134 0 52.0848 12.7868 666 88.7252 1173.56 444.042
3135 0 55.0872 13.1065 722 88.9072 1173.45 443.587
3136 0 54.1124 12.2523 663 91.8899 1174.27 441.16
3137 0 57.0648 12.5121 714 91.2969 1174.97 440.056
3138 0 57.0454 12.8494 733 88.4161 1174.51 438.447
3139 0 58.0623 11.5738 672 89.6637 1174.3 440.098
3140 0 62.0151 13.142 815 86.6675 1174.3 438.688
3141 0 65.0476 12.3756 805 87.8261 1174.35 437.378
3142 0 66.025 12.1924 805 89.0323 1174.14 439.323
3143 0 68.1347 12.7542 869 88.5362 1174.76 434.281
3144 0 70.0883 11.5426 809 91.2608 1174.66 434.745
3145 0 70.0616 10.4051 729 95.0123 1173.76 432.112
3146 0 72.1262 12.3534 891 92.5724 1174.3 432.04
3147 0 74.0339 12.3592 915 92.7126 1173.74 433.353
3148 0 77.0927 12.6601 976 92.292 1173.91 430.596
3149 0 78.0444 11.9932 936 94.8429 1174.74 430.64
3150 0 81.0628 13.2737 1076 92.4284 1174.3 428.623
3151 0 85.0855 13.9977 1191 91.5147 1174 428.079
3152 0 87.0873 11.7354 1022 100.325 1173.28 428.44
3153 0 86.0765 11.6408 1002 102.924 1173.74 426.336
3154 0 90.1729 12.6535 1141 101.469 1173.9 423.975
3155 0 90.0804 13.3991 1207 100.638 1172.95 425.244
3156 0 89.1173 11.3222 1009 106.87 1173.93 425.952
3157 0 99.0631 12.7192 1260 104.124 1174.21 420.276
3158 0 102.067 12.2566 1251 105.208 1173.63 417.431
3159 0 107.184 13.6495 1463 100.967 1173.46 418.211
3160 0 109.112 12.3451 1347 102.982 1173.03 415.79
3161 0 115.288 13.6441 1573 101.912 1173.1 412.917
3162 1 61.0652 11.4795 701 101.542 1173.42 439.728
3163 0 66.1398 12.9574 857 98.5169 1173.34 438.194
3164 0 69.1912 13.889 961 97.4298 1173.88 438.427
3165 0 70.0935 12.5547 880 102.385 1173.4 437.019
3166 0 71.1023 12.7281 905 103.804 1173.61 433.008
3167 0 74.1567 13.5794 1007 101.588 1172.74 434.308
3168 0 76.1493 13.7099 1044 100.954 1173.27 432.849
3169 0 78.06 12.042 940 104.576 1173.19 434.479
3170 0 81.084 12.6412 1025 104.373 1173.13 432.388
3171 0 85.0481 14.1684 1205 101.786 1172.27 428.479
3172 0 86.1094 13.1693 1134 105.321 1171.93 428.825
3173 0 89.1032 13.3553 1190 105.356 1172.3 429.03
3174 0 92.1096 14.1679 1305 105.696 1172.66 426.907
3175 0 96.1796 14.0986 1356 105.218 1172.36 428.525
3176 0 100.132 14.1413 1416 107.302 1171.38 424.458
3177 0 101.065 13.5359 1368 109.298 1172.26 422.51
3178 1 54.1316 12.4881 676 105.72 1172.14 447.638
3179 0 55.0435 11.718 645 105.732 1172.4 444.992
3180 0 54.045 12.1195 655 109.571 1172.63 444.027
3181 0 58.0595 13.0728 759 107.289 1172.83 442.088
3182 0 60.0457 13.4231 806 103.074 1172.26 442.445
3183 0 62.1107 13.331 828 103.08 1172.2 441.045
3184 0 64.0722 12.3923 794 103.363 1172.7 442.088
3185 0 65.0237 10.7653 700 108.246 1173.04 439.247
3186 0 70.0958 13.9238 976 100.318 1172.5 436.216
3187 0 70.0958 13.9809 980 140.518 1172.5 436.226
3188 0 73.0338 13.8429 1011 101.098 1172.63 435.438
3189 0 75.0843 12.5459 942 104.929 1172.76 433.327
3190 0 77.0496 13.6016 1048 102.696 1172.68 432.594
3191 0 81.0304 13.6739 1108 101.908 1173.03 431.593
3192 0 82.0847 12.9135 1060 104.569 1172.11 430.337
3193 0 85.1497 12.9771 1105 106.252 1172.18 426.113
3194 0 89.114 13.0731 1165 106.819 1172.05 425.657
3195 0 92.1089 13.2018 1216 107.016 1171.79 424.12
3196 0 95.1042 13.4905 1283 108.528 1171.97 420.761
3197 0 98.0546 12.2789 1204 110.353 1172.2 423.197
3198 0 102.16 13.841 1414 107.835 1171.52 419.197
3199 1 55.0411 11.3915 627 103.944 1172.14 442.842
3200 0 57.1388 13.5285 773 102.962 1172.06 444.008
3201 0 57.0946 12.1553 694 104.091 1171.57 440.918
3202 0 61.1139 11.9122 728 103.451 1171.38 440.137
3203 0 62.0513 11.8934 738 103.306 1172.04 440.766
3204 0 62.1175 13.2169 821 102.782 1171.67 439.069
3205 0 66.1092 11.4205 755 105.554 1172.02 436.93
3206 0 68.1634 11.2377 766 106.119 1171.34 436.992
3207 0 70.1012 12.753 894 104.002 1170.97 435.792
3208 0 71.0912 11.1969 796 107.766 1171.67 433.936
3209 0 76.067 12.1603 925 105.848 1171.2 431.912
3210 0 79.1264 13.0803 1035 103.709 1171.76 431.38
3211 0 82.1346 12.5282 1029 106.122 1171.98 430.039
3212 0 86.1935 12.8896 1111 105.435 1171.12 428.34
3213 0 88.0566 13.162 1159 106.334 1171.08 426.67
3214 0 89.1559 13.4259 1197 107.562 1170.64 424.788
3215 0 90.1391 11.693 1054 112.497 1171.28 421.927
3216 0 96.1066 14.8481 1427 104.611 1171.57 422.416
3217 0 98.149 13.2554 1301 107.889 1171 420.736
3218 0 103.198 12.6747 1308 108.902 1170.87 418.654
3219 0 108.229 14.266 1544 105.4 1171.21 417.421
3220 0 108.323 11.8903 1288 111.062 1171.62 416.101
3221 0 113.298 12.4627 1412 109.992 1171.95 413.291
3222 1 63.0612 11.1955 706 106.115 1171.74 438.749
3223 0 67.0768 11.2856 757 104.963 1171.57 438.018
3224 0 68.1496 12.8834 878 102.904 1171.58 436.027
3225 0 70.0577 11.933 836 105.402 1172.92 435.959
3226 0 74.0852 13.2145 979 102.755 1172.43 433.613
3227 0 77.1303 14.1967 1095 100.661 1172.06 431.687
3228 0 80.1148 13.3434 1069 101.971 1172.62 432.862
3229 0 79.0796 12.6075 997 105.785 1172.04 429.461
3230 0 84.215 12.8956 1086 104.129 1172.87 430.887
3231 0 86.1244 13.1206 1130 106.016 1173.12 425.558
3232 0 89.2091 12.9247 1153 106.775 1172.78 422.763
3233 0 93.2216 13.0871 1220 105.775 1172.48 425.251
3234 0 98.0902 12.9167 1267 106.269 1172.77 423.576
3235 0 100.229 12.9604 1299 107.742 1171.72 419.667
3236 0 102.122 12.2892 1255 109.041 1171.99 421.475
3237 1 54.1869 12.0324 652 105.813 1171.11 444.652
3238 0 56.1152 11.7793 661 107.584 1171.8 444.172
3239 0 58.0806 11.8973 691 108.184 1171.8 443.276
3240 0 59.1078 13.1116 775 106.36 1171.7 441.459
3241 0 59.053 10.1942 602 106.023 1171.9 439.507
3242 0 62.0749 11.4056 708 102.828 1171.35 438.932
3243 0 64.0319 11.588 742 104.64 1171.75 437.046
3244 0 68.147 12.1649 829 104.723 1171.94 437.402
3245 0 68.1047 11.4383 779 107.607 1171.92 434.417
3246 0 72.1698 12.1796 879 105.619 1172.18 435.105
3247 0 73.0496 11.0199 805 109.297 1171.8 434.215
3248 0 75.0591 12.2437 919 107.264 1171.75 432.804
3249 0 79.1157 11.9951 949 108.204 1172.01 430.734
3250 0 83.082 12.5659 1044 107.904 1172.67 430.133
3251 0 83.0714 12.1703 1011 109.405 1172.18 430.141
3252 0 88.0669 12.57 1107 107.798 1172.11 427.818
3253 0 90.1171 12.1509 1095 110.384 1171.71 426.132
3254 0 95.1126 14.1411 1345 106.761 1172.14 422.887
3255 1 51.0764 12.0212 614 104.583 1171.89 445.871
3256 0 54.0465 11.7491 635 109.454 1171.94 442.924
3257 0 57.0916 12.9091 737 110.265 1172.19 443.427
3258 0 56.0395 12.5626 704 105.729 1172.6 440.767
3259 0 58.0744 11.227 652 109.534 1172.41 440.206
3260 0 60.0186 13.2459 795 105.019 1172.39 438.686
3261 0 60.0334 13.3426 801 105.598 1173 438.176
3262 0 64.0533 12.193 781 106.423 1172.26 437.9
3263 0 66.1049 12.223 808 107.292 1172.32 436.723
3264 0 67.0691 13.5681 910 105.43 1172.5 434.537
3265 0 69.07 12.8276 886 107.073 1172.11 434.707
3266 0 73.0415 13.376 977 105.975 1172.03 431.141
3267 0 76.0303 12.8107 974 106.873 1171.94 431.567
3268 0 76.0429 12.3614 940 109.288 1172.06 429.266
3269 0 81.139 12.4108 1007 107.923 1172.79 426.791
3270 0 82.0666 12.234 1004 108.674 1172.21 427.752
3271 0 86.1105 13.0065 1120 106.806 1173.22 428.388
3272 0 89.1047 13.8825 1237 107.023 1172.56 424.209
3273 0 92.0794 13.8793 1278 108.963 1173.02 422.646
3274 0 98.1756 13.4249 1318 112.91 1173.19 422.001
3275 1 46.0526 10.4011 479 120.305 1172.66 446.626
3276 0 52.0231 13.8784 722 109.996 1172.74 444.08
3277 0 54.0395 14.2673 771 109.113 1173.23 443.639
3278 0 52.051 12.7375 663 106.211 1172.62 440.21
3279 0 55.0559 13.0231 717 105.446 1172.18 439.909
3280 0 57.0168 11.8562 676 107.999 1172.83 438.386
3281 0 59.0512 13.3105 786 104.508 1172.74 438.081
3282 0 62.023 11.9633 742 106.458 1172.63 439.063
3283 0 64.0341 13.0712 837 104.937 1173.38 437.706
3284 0 67.0252 12.9951 871 105.021 1172.71 435.03
3285 0 68.0677 12.2378 833 105.974 1172.39 436.707
3286 0 70.0888 12.5127 877 106.943 1172.94 433.237
3287 0 72.0654 12.9188 931 106.472 1173.13 433.464
3288 0 76.0585 13.8052 1050 104.162 1173.74 433.415
3289 0 77.0333 12.7348 981 108.84 1172.89 429.199
3290 0 81.119 13.5727 1101 106.039 1172.08 428.263
3291 0 84.1713 13.4963 1136 105.744 1172.49 427.254
3292 0 84.0345 12.3878 1041 109.286 1172.98 425.037
3293 0 84.0345 12.3878 1041 150.34 1171.98 424.92
3294 0 93.0776 12.6561 1178 107.515 1172.65 422.989
3295 1 49.0439 12.3971 608 105.755 1172.39 444.669
3296 0 50.0891 10.9605 549 109.326 1172.86 444.546
3297 0 53.0704 13.6234 723 105.397 1173.17 442.313
3298 0 53.0555 13.288 705 99.9504 1172.7 442.044
3299 0 55.1569 11.9115 657 103.088 1173.24 440.72
3300 0 57.0438 11.7454 670 105.545 1173.47 440.415
3301 0 57.067 12.3889 707 104.436 1173.17 437.461
3302 0 62.0355 12.0093 745 103.419 1173.44 438.134
3303 0 65.054 13.6809 890 98.9326 1173.84 436.79
3304 0 66.0782 11.9101 787 102.216 1174.2 438.618
3305 0 70.1079 13.1939 925 99.4714 1173.77 435.55
3306 0 71.0497 13.1879 937 100.091 1173.66 431.628
3307 0 71.0501 12.3293 876 102.563 1173.54 431.906
3308 0 75.1103 12.7945 961 101.71 1172.98 431.518
3309 0 78.0572 13.6695 1067 99.4864 1173.25 427.95
3310 0 81.0509 12.3873 1004 102.797 1173.71 427.625
3311 0 83.1161 12.7893 1063 102.955 1173.22 423.849
3312 0 88.159 13.1127 1156 101.642 1172.77 424.285
3313 0 89.1588 12.1917 1087 106.231 1173.43 422.12
3314 1 47.0979 11.8264 557 106.305 1174.93 443.578
3315 0 51.0825 12.7245 650 103.454 1174.33 443.708
3316 0 49.0256 9.95398 488 103.959 1173.95 443.518
3317 0 52.0265 9.97568 519 104.676 1173.23 442.41
3318 0 52.0125 11.1512 580 103.972 1173.57 441.126
3319 0 55.0565 10.8616 598 103.477 1173.05 440.154
3320 0 57.0441 10.7461 613 104.003 1173.03 439.9
3321 0 61.0492 11.892 726 99.8898 1173.73 438.174
3322 0 62.0784 11.9043 739 100.25 1173.88 438.292
3323 0 63.0343 11.1527 703 102.512 1172.88 436.862
3324 0 66.0364 11.6754 771 102.508 1173.27 435.246
3325 0 66.0556 10.8545 717 104.633 1172.76 432.821
3326 0 72.0584 12.5176 902 100.412 1172.64 432.451
3327 0 75.0748 12.7606 958 99.739 1172.51 431.858
3328 0 78.0648 11.6826 912 102.909 1173.26 429.475
3329 0 81.1465 13.3709 1085 100.785 1172.73 429.149
3330 0 83.0593 11.8951 988 104.439 1172.71 427.441
3331 0 87.0903 12.5157 1090 103.677 1171.61 425.465
3332 0 89.1252 12.0056 1070 105.66 1172.31 424.963
3333 0 94.0904 13.2426 1246 104.58 1173.16 423.213
3334 0 99.1188 13.5292 1341 103.953 1173.24 422.91
3335 0 99.1106 13.5102 1339 106.249 1172.48 421.839
3336 1 51.0767 12.2365 625 109.272 1173.1 441.077
3337 0 52.0514 12.2379 637 109.593 1172.99 444.011
3338 0 53.0596 10.7992 573 112.08 1172.54 444.52
3339 0 54.1212 11.9177 645 110.591 1172.64 442.823
3340 0 57.065 12.144 693 110.69 1171.83 442.084
3341 0 57.1112 13.2724 758 110.299 1172.98 438.95
3342 0 58.0511 12.2134 709 113.801 1173.56 439.381
3343 0 58.1304 11.5086 669 117.079 1173.06 437.939
3344 0 63.0611 12.1945 769 115.395 1172.73 436.797
3345 0 67.1926 12.3228 828 113.568 1173.09 437.525
3346 0 68.0824 13.7921 939 111.379 1173.19 436.265
3347 0 72.0733 12.1127 873 116.23 1173.77 433.55
3348 0 74.0552 13.7735 1020 112.531 1172.51 432.513
3349 0 74.1946 12.8581 954 115.752 1173.15 428.67
3350 0 77.0977 11.6605 899 116.944 1172.74 431.819
3351 0 80.1134 12.5572 1006 116.367 1173.62 430.825
3352 0 83.0683 12.9412 1075 116.463 1173.29 427.644
3353 0 86.1362 12.8401 1106 117.794 1173.17 426.625
3354 0 89.1691 13.1548 1173 117.708 1173.03 425.153
3355 0 93.0808 12.3226 1147 120.027 1172.89 424.508
3356 0 95.1758 11.7572 1119 121.906 1173.02 423.468
3357 0 97.1805 12.2041 1186 122.013 1173.05 422.663
3358 0 98.3294 12.6412 1243 121.071 1173.43 421.975
3359 0 103.164 13.6869 1412 120.476 1172.54 416.806
3360 1 52.1252 11.3573 592 120.753 1172.57 443.938
3361 0 56.0743 12.1268 680 117.072 1172.29 443.559
3362 0 59.0563 13.0045 768 111.846 1172.4 442.353
3363 0 60.0788 12.6001 757 113.692 1172 440.785
3364 0 62.0633 12.3745 768 114.047 1172.71 439.055
3365 0 64.0357 12.493 800 114.293 1172.65 439.176
3366 0 64.0427 11.6016 743 117.857 1172.13 436.555
3367 0 69.0381 12.6742 875 114.65 1172.11 436.215
3368 0 69.0953 11.5637 799 117.374 1172.25 437.607
3369 0 75.2817 12.7787 962 114.744 1172.34 433.376
3370 0 76.1599 12.802 975 116.096 1171.48 432.487
3371 0 78.1116 12.751 996 117.478 1171.65 431.561
3372 0 82.1289 13.7101 1126 114.418 1172.82 429.69
3373 0 83.1062 12.8149 1065 117.332 1172.73 428.22
3374 0 87.0731 13.6667 1190 115.658 1172.23 425.756
3375 0 87.1058 13.9141 1212 117.378 1172.58 424.347
3376 0 91.2458 13.0088 1187 120.175 1172.47 423.508
3377 0 93.0601 13.3785 1245 119.794 1172.65 422.056
3378 0 96.1214 13.7951 1326 119.299 1172.84 418.977
3379 0 101.132 14.3575 1452 116.539 1172.63 419.818
3380 0 101.066 12.5859 1272 122.756 1172.83 417.174
3381 0 106.102 13.7038 1454 120.208 1172.19 415.413
3382 0 111.155 13.9355 1549 120.362 1172.42 412.369
3383 1 59.0348 11.7727 695 113.66 1172.1 439.814
3384 0 62.0815 13.0957 813 112.216 1172.22 440.277
3385 0 62.0399 12.1051 751 114.831 1172.97 439.744
3386 0 65.0598 12.4347 809 114.714 1172.43 436.842
3387 0 67.1538 12.8809 865 114.135 1172.92 435.768
3388 0 72.0467 13.2414 954 111.884 1172.84 436.375
3389 0 73.0979 13.1194 959 112.83 1172.61 434.374
3390 0 76.0617 14.1596 1077 111.556 1172.72 432.512
3391 0 76.0606 13.4235 1021 115.66 1172.02 430.249
3392 0 79.0766 12.1781 963 117.961 1172.89 432.404
3393 0 83.1114 13.4759 1120 115.65 1172.72 429.641
3394 0 87.102 13.5129 1177 116.117 1173.1 428.553
3395 0 90.1062 13.7504 1239 115.458 1173.22 428.185
3396 0 93.2808 14.2473 1329 115.739 1172.95 424.491
3397 1 47.0722 13.0438 614 116.829 1173.28 446.736
3398 0 49.0603 13.1063 643 113.855 1172.14 446.509
3399 0 50.0576 12.7853 640 116.07 1172.78 444.573
3400 0 51.032 11.483 586 118.998 1173.27 443.925
3401 0 54.1198 12.1582 658 116.503 1173.15 442.985
3402 0 55.0264 12.8665 708 115.578 1172.87 441.171
3403 0 56.0216 13.2627 743 115.019 1172.67 441.533
3404 0 59.0843 12.846 759 116.022 1173.66 439.856
3405 0 59.0687 12.6971 750 110.22 1172.82 439.127
3406 0 62.036 13.6211 845 106.691 1172.57 439.863
3407 0 62.0389 13.4915 837 108.566 1172.86 437.565
3408 0 65.028 12.0256 782 111.982 1172.11 436.627
3409 0 68.0695 13.6919 932 108.872 1172.49 434.853
3410 0 69.0675 11.9159 823 113.315 1172.47 435.389
3411 0 74.0864 12.9579 960 111.353 1172.8 432.845
3412 0 73.1783 12.4764 913 114.683 1172.78 430.072
3413 0 79.0736 12.7982 1012 111.75 1172.7 431.122
3414 0 81.0656 12.3234 999 113.958 1172.61 429.378
3415 0 84.0606 12.6337 1062 112.315 1173.2 428.839
3416 0 86.1526 12.6868 1093 114.129 1173.09 425.141
3417 0 88.1257 11.9942 1057 117.587 1172.06 423.448
3418 1 47.017 10.6557 501 117.942 1172.43 445.735
3419 0 50.0616 11.2062 561 116.907 1172.51 443.638
3420 0 51.0467 11.7931 602 116.311 1172.61 442.885
3421 0 53.0444 12.367 656 118.421 1172.75 443.399
3422 0 55.0234 15.2844 841 108.161 1172.85 440.772
3423 0 57.0569 12.4262 709 114.704 1172.73 440.69
3424 0 56.0519 13.6481 765 112.962 1172.41 440.396
3425 0 62.0767 14.5304 902 108.103 1172.74 439.882
3426 0 62.0871 13.5294 840 111.896 1172.77 438.57
3427 0 64.0255 14.1975 909 110.04 1172.67 436.405
3428 0 66.0822 13.4681 890 111.287 1172.88 436.597
3429 0 69.0388 15.1074 1043 107.332 1172.86 434.781
3430 0 72.0567 14.447 1041 108.652 1172.39 433.484
3431 0 73.0645 15.411 1126 107.724 1172.74 430.925
3432 0 77.0897 13.8151 1065 111.105 1173.31 431.731
3433 0 77.1152 14.5108 1119 111.113 1173.01 429.232
3434 0 80.1573 13.3986 1074 114.863 1172.53 427.029
3435 0 82.0539 13.8446 1136 114.206 1172.7 425.511
3436 0 84.1004 13.4839 1134 115.469 1172.74 423.781
3437 0 87.1101 14.0397 1223 114.263 1173.18 423.974
3438 0 91.1515 14.7337 1343 112.965 1173.34 420.422
3439 0 96.1619 14.2884 1374 111.913 1173.13 422.119
3440 0 99.0916 14.0476 1392 111.717 1172.49 421.213
3441 0 105.054 13.098 1376 112.933 1172.69 419.964
3442 0 108.183 13.5788 1469 112.739 1172.89 416.156
3443 0 111.175 13.6631 1519 111.798 1172.89 411.698
3444 1 59.0757 12.4247 734 107.928 1172.47 436.503
3445 0 63.0454 13.07 824 107.852 1172.31 434.545
3446 0 65.0926 13.0122 847 106.702 1172.9 429.724
3447 0 66.0686 13.6071 899 102.038 1172.22 431.326
3448 0 70.0397 14.7773 1035 96.8618 1172.43 434.824
3449 0 70.0709 12.4588 873 103.05 1172.45 432.312
3450 0 73.0979 13.092 957 101.621 1172.07 428.87
3451 0 75.0619 12.563 943 102.477 1172.07 430.327
3452 0 78.0574 11.6709 911 104.292 1172.76 427.703
3453 0 81.0783 15.0102 1217 98.1742 1173.02 425.746
3454 0 82.0416 13.3347 1094 102.817 1172.62 422.954
3455 0 88.1273 13.7188 1209 100.854 1171.81 425.239
3456 0 90.1005 13.263 1195 103.005 1171.78 423.521
3457 0 91.1754 13.6879 1248 104.22 1172.48 421.042
3458 0 94.1276 12.8761 1212 106.136 1172.11 418.059
3459 0 99.0913 13.3917 1327 105.583 1172.39 417.806
3460 0 101.071 13.3866 1353 106.885 1171.01 418.341
3461 0 105.174 14.1195 1485 106.914 1171.48 416.194
3462 0 107.135 12.6943 1360 110.779 1171.79 410.238
3463 0 113.092 12.8568 1454 110.448 1171.62 412.379
3464 0 116.086 12.5252 1454 112.334 1171.45 409.906
3465 0 116.07 11.5878 1345 116.866 1171.17 401.865
3466 0 125.134 13.074 1636 112.581 1171.03 403.446
3467 0 130.111 13.3501 1737 111.938 1170.67 404.344
3468 0 132.151 12.5387 1657 115.778 1170.8 399.17
3469 0 136.083 13.0582 1777 114.372 1169.95 400.291
3470 0 141.222 12.4343 1756 115.387 1171.18 396.428
3471 0 146.138 12.4266 1816 116.148 1171.45 393.006
3472 0 151.221 12.4057 1876 115.545 1171.14 392.389
3473 0 156.104 12.0368 1879 117.375 1171.58 385.924
3474 0 162.226 13.1237 2129 114.713 1171.83 383.525
3475 0 167.166 11.7009 1956 119.055 1171.37 379.515
3476 0 172.224 11.938 2056 118.726 1170.86 377.339
3477 0 178.18 12.8409 2288 117.312 1171.25 372.935
3478 0 187.208 12.0775 2261 118.518 1171.88 372.215
3479 0 189.305 12.7096 2406 118.943 1171.68 366.249
3480 0 196.262 12.7789 2508 119.603 1171.51 362.092
3481 0 202.313 11.2202 2270 123.042 1171.61 365.244
3482 0 208.175 12.6 2623 120.758 1172.17 357.428
3483 0 216.36 11.3561 2457 123.554 1171.78 354.982
3484 0 224.364 12.3015 2760 121.978 1171.62 354.371
3485 0 235.266 15.1743 3570 114.717 1172.09 335.423
3486 1 325.479 9.62887 3134 131.71 1171.76 322.795
3487 1 266.483 18.7629 5000 102.563 1171.43 318.166
3488 1 54.0544 11.6179 628 95.3439 1171.57 443.28
3489 0 56.0905 11.5884 650 100.011 1170.98 442.412
3490 0 57.0702 11.7574 671 95.8495 1172.19 439.088
3491 0 59.0984 10.5925 626 98.7891 1171.54 437.963
3492 0 62.1406 11.5705 719 97.3463 1171.88 437.453
3493 0 62.0981 11.0793 688 99.3735 1172.15 434.157
3494 0 65.0355 11.3323 737 104.149 1171.17 433.502
3495 0 68.1518 11.313 771 98.4812 1172.38 434.362
3496 0 70.057 12.1758 853 96.2954 1172.23 431.285
3497 0 75.1057 14.18 1065 91.6019 1172.17 428.911
3498 0 75.1393 14.2003 1067 112.8 1174.18 428.864
3499 0 76.1087 10.0777 767 108.46 1171.38 429.935
3500 0 79.1861 11.6308 921 104.656 1171.56 429.987
3501 0 80.0988 11.2486 901 106.818 1171.88 428.872
3502 0 82.1137 10.7899 886 108.308 1171.85 424.252
3503 0 87.1347 11.0404 962 106.328 1171.73 423.053
3504 0 90.158 12.0011 1082 102.587 1171.15 421.305
3505 0 92.0917 10.7393 989 107.568 1171.03 418.825
3506 0 95.1106 11.3131 1076 105.995 1172.04 417.094
3507 0 97.2494 11.599 1128 104.787 1171.85 417.155
3508 0 103.126 11.1417 1149 104.922 1171.86 407.359
3509 0 108.188 11.3969 1233 105.201 1171.26 411.899
3510 0 110.098 11.6351 1281 111.286 1170.71 414.47
3511 0 113.398 10.9173 1238 115.168 1171.61 412.414
3512 1 60.0969 11.8975 715 101.018 1171.2 436.028
3513 0 62.0229 10.9476 679 103.563 1172.51 434.642
3514 0 61.0319 12.1084 739 102.907 1172.23 434.122
3515 0 65.1573 12.5082 815 102.11 1171.49 433.296
3516 0 68.037 11.8612 807 104.116 1171.99 432.872
3517 0 72.0202 11.7189 844 103.727 1172.57 432.188
3518 0 73.0331 12.3779 904 102.287 1172.47 432.533
3519 0 75.1322 13.5495 1018 101.474 1173 430.626
3520 0 76.1173 14.1098 1074 100.967 1172.18 430.12
3521 0 76.1418 11.9514 910 107.416 1172.26 427.29
3522 0 80.0386 14.1432 1132 103.863 1173.31 427.718
3523 0 82.0316 13.6045 1116 106.038 1172.43 425.469
3524 0 85.1281 14.9187 1270 104.247 1172.11 422.554
3525 0 86.073 13.384 1152 108.344 1172.63 423.649
3526 0 90.1465 14.3544 1294 106.012 1172.22 423.06
3527 0 93.0725 14.3866 1339 106.616 1172.14 417.037
3528 0 95.161 13.8187 1315 109.068 1172.89 414.408
3529 0 98.1692 12.7433 1251 111.802 1173 413.01
3530 0 101.168 13.4233 1358 110.185 1172.89 415.097
3531 0 103.119 12.8299 1323 112.481 1173.29 411.949
3532 0 105.178 12.455 1310 113.892 1172.91 411.911
3533 0 111.115 14.4355 1604 108.271 1172.22 410.271
3534 0 116.351 13.3991 1559 109.285 1172.11 410.414
3535 0 115.142 12.9058 1486 112.251 1172.55 410.797
3536 1 63.1517 12.4937 789 107.29 1172.56 434.886
3537 0 66.107 11.4057 754 108.996 1171.65 437.484
3538 0 67.073 11.1968 751 104.895 1172.13 434.498
3539 0 71.0937 12.9547 921 100.623 1172.76 433.701
3540 0 72.0733 13.1533 948 101.238 1172.67 431.047
3541 0 75.0545 11.9247 895 104.288 1172.77 428.853
3542 0 77.0299 12.3458 951 103.614 1172.82 427.367
3543 0 79.0889 10.5577 835 106.322 1172.52 428.509
3544 0 83.1102 12.1044 1006 103.901 1172.8 425.719
3545 0 85.1231 13.1574 1120 102.45 1172.71 423.073
3546 0 88.1221 12.6643 1116 103.086 1172.23 423.246
3547 0 89.0397 13.0054 1158 103.36 1172.34 422.105
3548 0 92.1524 12.794 1179 106.527 1172.22 421.183
3549 0 95.1858 11.6299 1107 112.244 1172.26 420.78
3550 0 99.1011 13.0372 1292 108.84 1172.25 414.663
3551 0 101.062 12.6358 1277 110.109 1172.23 416.5
3552 0 106.105 11.3661 1206 111.335 1172.83 415.505
3553 0 111.096 13.0788 1453 107.358 1173.02 411.717
3554 1 59.0694 10.8686 642 102.861 1172.94 436.592
3555 0 61.0547 12.2185 746 100.529 1173.36 438.69
3556 0 62.0111 10.998 682 99.129 1172.69 437.125
3557 0 65.072 11.6794 760 99.2145 1172.24 435.75
3558 0 67.0601 10.841 727 100.773 1173.27 434.154
3559 0 70.0539 11.9479 837 99.356 1173.44 431.519
3560 0 70.0672 10.5898 742 103.427 1173.33 429.075
3561 0 74.1197 12.2505 908 100.069 1173.18 428.135
3562 0 78.1614 12.0648 943 100.744 1173.19 427.225
3563 0 80.0449 11.3561 909 101.337 1173.94 426.744
3564 0 82.089 11.6946 960 101.306 1174.55 423.746
3565 0 87.1117 12.4208 1082 100.189 1174.76 420.825
3566 0 89.1123 12.1195 1080 100.926 1174.03 422.756
3567 0 93.0964 12.4817 1162 100.749 1173.22 420.897
3568 0 95.1215 11.1436 1060 102.949 1173.13 420.16
3569 0 97.1553 11.2603 1094 102.917 1174.04 419.392
3570 0 102.131 11.4656 1171 104.138 1173.44 415.071
3571 0 107.165 11.7669 1261 102.637 1173.26 413.29
3572 0 111.082 12.1352 1348 100.716 1172.55 413.136
3573 0 114.159 11.9307 1362 101.721 1172.66 412.993
3574 1 60.041 9.84327 591 99.2961 1172.09 438.286
3575 0 64.07 11.862 760 95.5447 1173.08 436.464
3576 0 66.0481 10.7649 711 97.0942 1172.59 438.477
3577 0 68.0613 12.5181 852 95.0951 1172.53 436.239
3578 0 69.1701 11.5801 801 98.8976 1172.29 433.332
3579 0 69.1701 11.6813 808 133.377 1171.27 433.137
3580 0 74.0879 12.0667 894 98.802 1172.49 430.337
3581 0 77.1216 12.7591 984 98.5904 1171.81 427.528
3582 0 79.1265 12.638 1000 99.569 1172.44 427.442
3583 0 81.0653 13.2732 1076 99.6162 1172.38 426.488
3584 0 83.1762 13.3452 1110 99.5532 1171.46 423.375
3585 0 85.1384 10.8412 923 103.878 1172.79 423.943
3586 0 90.2025 11.319 1021 102.761 1172.78 423.982
3587 0 92.107 11.5301 1062 104.133 1172.36 421.508
3588 0 95.1901 11.829 1126 104.208 1171.48 419.023
3589 0 99.1732 11.243 1115 104.578 1171.96 419.571
3590 0 101.096 11.1379 1126 105.078 1172.09 418.529
3591 0 104.226 11.7725 1227 105.194 1172.32 415.305
3592 0 109.305 11.8292 1293 104.792 1172.41 414.8
3593 0 111.194 12.2488 1362 105.219 1172.19 410.645
3594 0 115.191 10.9036 1256 107.03 1172.24 412.893
3595 0 120.18 12.448 1496 104.915 1172.39 409.235
3596 1 62.1361 11.4909 714 99.3235 1173.3 439.637
3597 0 62.0422 10.8958 676 105.854 1172.71 436.28
3598 0 64.1356 14.2666 915 95.6831 1173.71 434.866
3599 0 66.0266 13.0553 862 99.5684 1173.78 432.693
3600 0 68.0532 12.6813 863 100.847 1173.49 431.52
3601 0 71.043 12.9781 922 100.02 1174.35 432.687
3602 0 73.138 13.7685 1007 99.858 1173.33 432.393
3603 1 155.334 14.2274 2210 106.705 1173.76 388.809
3604 1 75.0958 13.4761 1012 104.535 1173.83 429.809
3605 0 79.1529 14.1498 1120 104.679 1174.19 427.374
3606 0 80.1031 14.9807 1200 104.196 1174.14 425.592
3607 0 83.1055 14.0183 1165 106.276 1174.4 425.097
3608 0 85.066 14.8943 1267 105.855 1174.23 422.759
3609 0 87.2624 14.1642 1236 108.096 1174.89 416.167
3610 0 87.1622 13.3659 1165 112.732 1174.45 413.397
3611 0 92.1458 14.2926 1317 109.045 1173.91 414.375
3612 0 96.1526 14.1442 1360 109.992 1173.81 411.032
3613 0 99.1264 15.566 1543 101.336 1174.1 410.553
3614 0 101.056 13.8636 1401 104.569 1174.08 409.162
3615 1 54.2118 10.0163 543 102.948 1173.93 437.464
3616 0 57.1338 12.0769 690 101.764 1173.2 438.532
3617 0 59.0568 12.7504 753 96.4422 1173.7 437.676
3618 0 61.026 12.2571 748 94.5575 1173.54 437.207
3619 0 64.0643 12.784 819 93.3712 1173.98 436.625
3620 0 65.0388 12.1158 788 95.0723 1173.44 434.956
3621 0 66.1121 10.815 715 96.751 1174.21 435.442
3623 0 69.0468 12.716 878 93.4499 1173.87 432.598
3624 0 70.1392 11.7908 827 96.8343 1174.37 431.914
3625 0 73.0673 14.0692 1028 95.0019 1173.86 431.215
3626 0 75.0458 12.5257 940 98.5181 1173.94 428.727
3627 0 76.0575 11.2546 856 101.25 1174.01 425.494
3628 0 79.1027 11.9971 949 99.4721 1174.39 427.043
3629 0 86.2179 13.0251 1123 98.0534 1174.19 422.215
3630 0 87.1169 10.4917 914 103.018 1174.43 423.544
3631 0 92.2281 14.3774 1326 95.2262 1174.09 420.643
3632 0 95.1863 10.947 1042 101.38 1173.88 421.569
3633 0 99.1499 13.8578 1374 95.7205 1173.69 418.191
3634 1 52.0312 10.2631 534 92.8801 1174.06 441.448
3635 0 53.0265 11.862 629 89.8506 1174 442.165
3636 0 54.0418 11.4726 620 91.6435 1173.62 438.774
3637 0 59.0854 12.9304 764 88.2945 1173.27 437.171
3638 0 60.1131 11.678 702 90.896 1173.81 437.189
3639 0 62.0462 13.2482 822 88.3796 1173.2 437.088
3640 0 62.0991 10.7409 667 92.8246 1173.44 436.855
3641 0 66.1651 12.4839 826 89.0993 1173.7 435.685
3642 0 65.1045 11.8118 769 91.2991 1172.64 435.336
3643 0 70.2298 12.1316 852 90.0869 1172.86 433.944
3644 0 71.0935 12.3077 875 89.352 1173.84 434.377
3645 0 70.0631 11.8036 827 92.7219 1173.73 431.38
3646 0 70.0792 11.8295 829 130.99 1173.7 431.245
3647 0 75.097 11.7981 886 94.0598 1172.71 432
3648 0 79.0313 11.5144 910 94.644 1172.77 429.243
3649 0 79.0977 11.8588 938 94.4819 1172.76 425.698
3650 0 82.1113 12.2882 1009 93.4678 1172.71 428.76
3651 0 88.2909 11.0544 976 95.2592 1173.63 424.517
3652 0 89.0964 11.5605 1030 95.1155 1173.29 424.621
3653 0 92.16 10.2431 944 97.1398 1172.82 422.72
3654 0 96.1538 12.3656 1189 93.5913 1173.15 419.653
3655 0 101.155 12.0311 1217 93.88 1173.04 419.417
3656 1 53.0607 10.5163 558 91.7258 1173.29 443.405
3657 0 54.0252 11.4391 618 92.3657 1173.01 442.848
3658 0 55.0423 11.3549 625 93.0272 1173.56 442.275
3659 0 53.0522 10.9515 581 93.654 1173.26 439.317
3660 0 60.0202 12.9956 780 88.7282 1173.19 438.006
3661 0 61.0519 11.0725 676 92.2678 1172.48 438.614
3662 0 66.0568 12.2016 806 90.0558 1172.19 437.811
3663 0 66.0568 12.2622 810 122.542 1172.2 437.804
3664 0 69.0664 12.6835 876 90.6598 1172.3 436.989
3665 0 72.07 11.8635 855 92.5228 1171.81 434.347
3666 0 75.1552 11.4297 859 93.4645 1171.29 434.234
3667 0 77.0914 12.8678 992 94.3226 1171.77 431.632
3668 0 79.1415 12.5851 996 94.5562 1171.22 432.155
3669 0 83.1199 12.5 1039 95.0144 1172.18 430.913
3670 0 86.0213 12.741 1096 95.6697 1171.93 427.852
3671 0 88.0729 12.5237 1103 95.9873 1172.11 426.974
3672 0 92.1579 11.795 1087 98.0396 1171.97 425.021
3673 0 96.0748 11.9698 1150 97.7817 1172.16 423.97
3674 0 99.1521 12.6271 1252 96.7772 1171.36 421.938
3675 0 104.133 12.897 1343 97.5547 1171.75 418.861
3676 0 108.065 12.3352 1333 99.0345 1172.09 416.751
3677 1 58.1314 12.3857 720 95.1847 1171.24 443.29
3678 0 61.1128 13.1724 805 94.3963 1171.58 443.834
3679 0 63.102 12.8364 810 92.7469 1170.74 441.135
3680 0 63.0543 12.9571 817 94.3207 1170.93 440.257
3681 0 65.1494 13.5381 882 93.8912 1170.92 438.458
3682 0 66.0518 11.6726 771 98.3645 1171.3 437.346
3683 0 69.0594 12.4241 858 96.2902 1171.2 438.759
3684 0 72.0812 14.4004 1038 93.1146 1170.96 435.727
3685 0 74.1207 13.7209 1017 94.5379 1171.25 436.232
3686 0 78.1346 12.888 1007 96.5293 1170.75 433.802
3687 0 80.2045 13.5529 1087 95.7406 1171.14 432.664
3688 0 83.1271 13.5215 1124 96.105 1171.1 433.168
3689 0 84.0535 12.1589 1022 98.8816 1170.96 432.696
3690 0 89.096 12.3575 1101 97.9282 1170.38 430.615
3691 0 90.074 12.1123 1091 100.314 1170.16 424.938
3692 1 49.0769 10.29 505 99.9406 1171.54 448.695
3693 0 52.0281 12.4164 646 98.5619 1171.2 448.933
3694 0 55.03 12.684 698 96.5315 1171.43 446.709
3695 0 57.07 13.2995 759 93.3452 1171.5 445.568
3696 0 56.0232 13.2267 741 94.7908 1171.33 445.88
3697 0 59.0455 12.719 751 95.2836 1170.75 444.903
3698 0 62.0651 14.4687 898 91.7339 1171.69 444.229
3699 0 62.0278 12.8168 795 95.0818 1171.59 442.308
3700 0 63.0942 12.7112 802 95.2706 1171.59 439.65
3701 0 65.0186 11.9812 779 96.0257 1171.25 441.791
3702 0 68.0724 13.471 917 93.2083 1171.24 438.838
3703 0 71.0819 12.5348 891 94.1033 1171.11 437.718
3704 0 71.0409 12.2042 867 96.3045 1171.37 435.666
3705 0 74.0683 11.8404 877 95.6568 1170.69 435.677
3706 0 75.1452 11.6175 873 96.6873 1171.78 431.832
3707 0 77.0513 10.0712 776 100.615 1172 433.232
3708 0 84.112 13.1254 1104 94.6495 1171 429.33
3709 0 87.0823 11.9312 1039 96.3936 1171.75 428.61
3710 0 86.0504 11.3538 977 98.2211 1171.41 428.033
3711 0 93.1037 13.7159 1277 94.5638 1170.53 425.155
3712 0 95.0962 12.093 1150 96.6426 1170.54 425.307
3713 0 96.1655 11.8962 1144 97.6949 1170.74 423.426
3714 1 52.1188 10.8982 568 98.4665 1171.11 446.329
3715 0 53.0976 11.2999 600 99.1417 1171.53 443.618
3716 0 56.0426 13.2399 742 95.6321 1170.79 443.129
3717 0 56.0563 13.5578 760 95.7461 1171.13 443.197
3718 0 59.117 13.6171 805 96.6807 1171.09 440.694
3719 0 63.0835 14.7582 931 93.7701 1170.66 438.451
3720 0 65.0504 13.6663 889 95.3757 1170.99 438.978
3721 0 66.1372 13.0184 861 98.3484 1170.96 437.373
3722 0 68.0901 11.7051 797 99.1619 1170.68 437.378
3723 0 73.1373 12.9346 946 97.9588 1171.25 435.646
3724 0 74.1017 12.9147 957 98.5726 1170.33 434.318
3725 0 76.0433 12.7822 972 99.1595 1171.34 430.485
3726 0 80.0627 14.4387 1156 97.013 1171.7 430.542
3727 0 82.104 12.7156 1044 102.522 1171.18 427.279
3728 0 87.0632 12.623 1099 102.704 1171.63 428.368
3729 0 85.0663 11.3794 968 108.497 1171.95 423.962
3730 0 92.1299 13.6872 1261 103.573 1171.76 422.868
3731 0 95.0676 11.76 1118 107.428 1171.7 421.699
3732 0 99.1295 13.4067 1329 104.448 1171.57 419.313
3733 1 53.0472 12.7622 677 103.256 1172.4 441.739
3734 0 57.0311 12.9403 738 103.703 1171.9 439.767
3735 0 58.1551 12.9137 751 102.698 1172.52 436.893
3736 0 60.0349 12.8758 773 101.102 1172.7 437.664
3737 0 62.0431 12.0078 745 102.686 1172.65 435.256
3738 0 63.0597 11.9728 755 101.948 1172.84 436.836
3739 0 65.0629 13.7559 895 98.7966 1172.68 434.289
3740 0 70.1157 13.6489 957 98.8046 1172.48 426.098
3741 0 73.1089 13.7056 1002 99.7066 1172.8 425.52
3742 0 77.0712 14.2595 1099 99.1137 1172.38 422.444
3743 0 75.083 12.2531 920 104.707 1172.43 421.147
3744 0 82.1455 14.0482 1154 100.611 1171.94 421.977
3745 0 82.2688 14.2946 1176 101.976 1173.19 421.12
3746 0 86.0682 13.5823 1169 102.984 1172.3 421.008
3747 0 86.0584 12.3056 1059 106.972 1172.14 419.602
3748 0 91.0718 14.2745 1300 102.872 1172.07 417.011
3749 0 94.2405 14.6964 1385 101.335 1172.75 418.346
3750 0 97.1303 14.8975 1447 101.802 1172.66 416.596
3751 0 102.096 15.7401 1607 101.367 1172.16 413.983
3752 0 104.261 13.9745 1457 105.358 1172.56 414.316
3753 0 106.159 14.7986 1571 104.325 1172.27 411.916
3754 0 111.159 14.4658 1608 104.236 1172.53 411.558
3755 0 114.371 14.1732 1621 104.701 1172.61 407.046
3756 0 118.12 12.9952 1535 106.888 1172.9 407.981
3757 1 62.0699 11.4871 713 102.846 1173.29 435.495
3758 0 67.0926 13.3249 894 102.01 1172.69 434.13
3759 0 66.0513 12.7779 844 102.829 1172.65 431.109
3760 0 71.0534 12.9621 921 102.378 1172.95 430.645
3761 0 71.0717 12.5507 892 104.962 1173.86 428.463
3762 0 77.0844 13.1933 1017 102.643 1173.65 428.017
3763 0 77.0903 12.8291 989 104.383 1172.86 426.399
3764 0 80.1036 12.9457 1037 104.164 1172.93 426.979
3765 0 82.1638 13.5339 1112 104.659 1173.22 424.461
3766 0 85.0938 14.913 1269 102.186 1173.09 424.899
3767 0 88.153 13.59 1198 106.141 1172.78 420.221
3768 0 92.1248 14.9688 1379 103.074 1173.89 419.723
3769 0 92.1233 13.2214 1218 107.856 1174.07 417.711
3770 0 97.062 14.1456 1373 106.052 1173.34 416.65
3771 0 101.079 13.7615 1391 106.37 1173.97 415.127
3772 0 101.079 13.811 1396 132.75 1172.97 415.104
3773 0 107.161 13.2324 1418 107.205 1174.48 412.027
3774 0 110.158 13.8165 1522 106.407 1173.79 411.545
3775 0 115.182 14.82 1707 104.438 1174.19 409.691
3776 0 119.172 14.3994 1716 105.524 1173.87 405.696
3777 0 122.167 12.1882 1489 110.574 1173.06 406.649
3778 0 128.129 13.9469 1787 108.703 1173.41 396.477
3779 1 73.0345 10.8031 789 105.474 1173.71 433.555
3780 0 74.0615 12.5031 926 102.575 1174.82 430.509
3781 0 76.0531 12.6491 962 101.913 1174.14 431.641
3782 0 79.0957 12.9463 1024 102.195 1174.28 427.875
3783 0 83.1445 12.8932 1072 102.7 1173.81 427.832
3784 0 84.0878 12.6415 1063 103.911 1174.13 424.192
3785 0 90.1527 13.2442 1194 101.481 1174.37 424.759
3786 0 91.0838 12.2854 1119 108.022 1174.56 423.626
3787 0 93.1441 11.96 1114 108.841 1174.58 422.643
3788 0 96.1283 12.0776 1161 106.865 1174.4 424.157
3789 0 101.174 12.7898 1294 107.981 1174.06 415.347
3790 0 104.077 12.4331 1294 109.136 1173.65 414.154
3791 0 111.097 12.6556 1406 106.781 1173.2 416.962
3792 1 58.0871 12.4468 723 104.111 1172.78 439.555
3793 0 60.1146 12.9419 778 101.177 1173.01 436.375
3794 0 62.0712 12.0507 748 100.38 1173.56 436.733
3795 0 64.1145 12.4465 798 100.711 1173.51 433.734
3796 0 66.0552 11.4147 754 103.176 1173.97 433.15
3797 0 69.158 13.3607 924 99.3496 1173.34 433.534
3798 0 71.068 12.6217 897 101.799 1173.04 429.566
3799 0 73.1026 13.611 995 100.21 1173.58 429.873
3800 0 75.2086 12.5252 942 103.411 1173.37 429.196
3801 0 76.0932 12.8921 981 104.232 1173.34 427.793
3802 0 79.0883 12.8843 1019 105.012 1173.29 426.222
3803 0 80.0784 11.8759 951 110.049 1172.61 424.69
3804 0 86.0897 12.2198 1052 109.239 1173.39 424.807
3805 0 88.18 13.2343 1167 109.418 1172.84 422.953
3806 0 91.2234 13.7026 1250 111.381 1173.74 421.924
3807 0 96.3235 15.5518 1498 108.491 1173.29 421.665
3808 0 98.2068 14.5815 1432 111.537 1172.95 418.542
3809 0 101.203 13.2308 1339 114.158 1173.22 419.043
3810 0 108.319 15.2697 1654 108.666 1172.78 414.449
3811 0 109.186 12.5473 1370 117.327 1173.44 413.99
3812 1 59.0511 11.3969 673 113.942 1173.46 440.311
3813 0 62.0382 12.7502 791 111.764 1173.7 436.468
3814 0 63.1184 12.2944 776 107.082 1173.85 435.031
3815 0 66.1021 13.7666 910 104.367 1173.13 436.544
3816 0 70.1107 12.9509 908 105.157 1174.69 434.756
3817 0 68.0545 12.9602 882 106.587 1174.21 434.295
3818 0 74.0474 13.2618 982 105.022 1173.24 433.031
3819 0 75.0885 11.7461 882 110.469 1172.95 430.502
3820 0 80.0696 13.0636 1046 106.868 1173 428.898
3821 0 82.0856 13.0961 1075 105.27 1173.41 430.985
3822 0 84.1168 13.8736 1167 104.148 1173.81 428.045
3823 0 88.1944 12.2003 1076 106.644 1173.54 427.852
3824 0 91.0598 13.7712 1254 102.862 1173.7 425.537
3825 0 93.1678 12.9122 1203 105.136 1173.72 425.554
3826 0 98.1387 13.3586 1311 102.641 1173.85 425.989
3827 0 102.15 14.42 1473 100.889 1173.73 422.475
3828 0 100.09 12.4088 1242 105.975 1173.69 420.386
3829 0 107.191 12.8929 1382 102.762 1174.26 421.244
3830 1 54.0308 11.4009 616 107.977 1173.6 437.062
3831 0 58.0862 12.4987 726 106.236 1173.79 433.997
3832 0 61.0834 16.0764 982 98.1986 1173.19 430.895
3833 0 62.0821 13.5627 842 100.74 1173.32 429.962
3834 0 65.0492 13.5897 884 100.075 1173.22 432.633
3835 0 63.0456 13.7202 865 101.675 1172.54 432.203
3836 0 67.0502 12.8262 860 104.129 1172.1 430.526
3837 0 70.0607 14.0878 987 101.702 1173.06 431.552
3838 0 73.0333 14.7193 1075 100.855 1172.86 428.788
3839 0 75.1425 14.559 1094 102.264 1172.11 429.289
3840 0 76.1534 14.2607 1086 103.123 1172.54 430.789
3841 0 81.0918 15.1927 1232 100.506 1172.46 429.892
3842 0 85.0443 14.6041 1242 101.597 1172.18 429.42
3843 0 86.0837 14.0909 1213 103.856 1172.08 425.745
3844 0 88.0697 15.1584 1335 101.994 1172.33 427.103
3845 0 91.1049 14.9059 1358 102.397 1172.91 425.539
3846 0 96.0991 14.3394 1378 102.75 1173.1 424.499
3847 0 96.0935 14.923 1434 102.968 1172.16 421.378
3848 0 102.125 15.5887 1592 100.038 1172.58 419.476
3849 0 104.251 13.6977 1428 103.553 1172.82 418.803
3850 0 108.144 14.6102 1580 101.565 1173.18 418.809
3851 0 110.167 13.7518 1515 103.945 1173.43 415.748
3852 0 115.128 15.2874 1760 99.4432 1173.06 415.148
3853 0 119.179 15.8418 1888 97.1721 1172.86 410.517
3854 0 124.209 14.3226 1779 99.0635 1172.38 412.437
3855 0 129.33 14.8148 1916 97.5569 1172.98 409.248
3856 0 135.237 14.1456 1913 97.9498 1172.2 408.29
3857 0 137.279 15.0934 2072 95.9706 1172.67 405.989
3858 1 74.1692 14.2377 1056 98.3873 1173.2 434.34
3859 0 78.0611 13.8994 1085 99.5051 1172.3 433.391
3860 0 80.3146 14.4183 1158 98.2763 1172.79 431.661
3861 0 82.0671 13.9032 1141 100.025 1173.28 428.299
3862 0 84.1406 15.1889 1278 97.8787 1172.84 428.836
3863 0 88.0988 13.9956 1233 100.131 1173.21 428.255
3864 0 93.1294 15.4838 1442 96.7503 1172.69 425.741
3865 0 93.2014 14.1736 1321 100.544 1173.39 423.837
3866 0 96.0742 13.6249 1309 102.311 1172.68 421.915
3867 0 99.198 12.7422 1264 104.593 1172.35 422.831
3868 0 103.149 13.7858 1422 102.804 1172.68 421.268
3869 0 105.134 12.8788 1354 105.126 1172.47 420.743
3870 0 109.337 13.8105 1510 103.288 1172.49 419.425
3871 0 114.119 13.407 1530 104.259 1172.55 416.76
3872 0 118.38 13.8452 1639 103.346 1173.06 413.204
3873 0 124.152 15.183 1885 99.6504 1173.39 410.356
3874 0 129.264 14.4046 1862 100.581 1172.67 406.446
3875 0 134.25 14.0336 1884 101.31 1172.97 406.31
3876 1 71.0801 14.8002 1052 104.033 1171.96 435.002
3877 0 74.1625 14.266 1058 105.18 1173.15 434.672
3878 0 75.3564 14.3982 1085 103.049 1172.98 433.868
3879 0 77.1157 16.0279 1236 100.364 1172.61 433.847
3880 0 80.1835 14.6414 1174 103.953 1172.62 431.493
3881 0 83.1688 15.9916 1330 102.086 1172.79 429.774
3882 0 86.0978 15.9702 1375 101.108 1172.75 429.239
3883 0 89.1786 16.181 1443 101.497 1172.51 424.877
3884 0 94.0833 15.837 1490 101.737 1172.21 425.816
3885 0 97.1425 14.3398 1393 105.515 1173.14 425.389
3886 0 98.2317 14.252 1400 106.892 1172.6 424.396
3887 0 101.161 15.332 1551 105.55 1171.84 421.032
3888 0 107.378 15.8319 1700 103.072 1172.94 419.457
3889 0 110.264 15.3994 1698 104.346 1173.63 418.651
3890 0 113.179 16.7169 1892 101.91 1172.44 414.89
3891 0 117.239 14.5173 1702 105.818 1172.3 415.193
3892 1 63.1291 13.8288 873 106.433 1172.8 439.774
3893 0 65.1507 14.1058 919 107.103 1173.11 438.875
3894 0 67.1417 14.8194 995 105.719 1173.16 438.235
3895 0 71.1313 14.6209 1040 105.171 1172.1 436.849
3896 0 71.1193 14.8202 1054 106.005 1172.3 437.424
3897 0 74.1611 15.2641 1132 105.684 1171.99 433.607
3898 0 77.1436 14.661 1131 106.533 1172.21 432.576
3899 0 79.0509 15.5596 1230 104.974 1171.56 431.146
3900 0 82.3244 14.127 1163 108.009 1172.14 430.944
3901 0 84.1628 14.6502 1233 108.388 1172.82 427.461
3902 0 88.1198 14.8888 1312 106.739 1172.77 427.285
3903 0 90.2171 14.975 1351 105.905 1172.65 427.383
3904 0 92.1636 15.0819 1390 106.711 1173.07 424.814
3905 0 96.2561 15.0328 1447 106.527 1172.54 422.344
3906 0 101.224 14.8778 1506 106.032 1172.29 422.592
3907 0 102.197 14.9319 1526 106.956 1172.45 420.17
3908 1 56.1222 12.9717 728 107.462 1172.4 445.302
3909 0 58.1626 12.6026 733 109.774 1173.13 443.056
3910 0 60.1161 13.5405 814 107.216 1172.91 440.963
3911 0 63.036 15.4991 977 100.795 1172.32 441.49
3912 0 65.0675 15.0613 980 102.42 1172.23 439.569
3913 0 65.045 14.0518 914 105.167 1172.93 440.395
3914 0 68.1899 13.961 952 104.804 1171.7 438.881
3915 0 71.1547 14.8409 1056 104.345 1171.82 436.266
3916 0 74.118 13.6674 1013 106.256 1171.91 436.149
3917 0 76.1077 13.9408 1061 105.773 1171.81 433.66
3918 0 78.0258 15.3667 1199 103.016 1171.07 434.091
3919 0 81.0374 15.6718 1270 102.385 1171.23 432.52
3920 0 84.1601 14.7457 1241 105.444 1171.55 430.552
3921 0 86.0979 15.343 1321 104.721 1171.36 430.108
3922 0 89.1024 15.5215 1383 104.377 1170.81 429.239
3923 0 92.1303 15.5649 1434 104.503 1171.25 425.868
3924 0 94.0753 15.1687 1427 105.73 1171.17 424.983
3925 0 96.114 14.7637 1419 108.424 1171.52 424.667
3926 0 101.098 15.302 1547 108.087 1171.1 420.798
3927 0 102.197 14.2764 1459 111.992 1170.15 418.919
3928 0 106.119 15.379 1632 109.657 1171.03 417.752
3929 0 111.141 14.4771 1609 110.419 1171.06 417.986
3930 0 114.135 14.7633 1685 110.015 1170.72 415.178
3931 1 65.0572 12.9271 841 112.185 1170.83 437.944
3932 0 67.1908 12.5315 842 111.34 1170.74 437.31
3933 0 69.1303 13.7132 948 109.101 1170.74 435.969
3934 0 72.109 13.8956 1002 108.183 1171 434.791
3935 0 75.095 14.1954 1066 108.017 1171.09 433.986
3936 0 76.0698 14.2895 1087 109.121 1171 431.122
3937 0 79.1006 14.3994 1139 108.513 1170.33 431.795
3938 0 81.1039 12.5395 1017 113.541 1170.79 428.789
3939 0 86.1356 13.8154 1190 108.587 1170.48 429.894
3940 0 91.1662 14.3694 1310 107.103 1170.79 426.515
3941 0 93.2026 15.3429 1430 105.482 1171.05 425.515
3942 0 98.094 16.158 1585 103.733 1170.61 423.574
3943 0 97.0838 14.8944 1446 107.88 1170.56 422.716
3944 0 101.102 14.5299 1469 109.674 1170.92 417.895
3945 0 104.159 15.3227 1596 107.608 1170.81 419.259
