time division length width area intensity CMx CMy
0 0 35.0175 11.8798 416 137.01 1339.11 485.582
1 0 34.0319 11.4011 388 139.593 1339.38 484.595
2 0 36.0275 12.2129 440 135.609 1340.27 483.895
3 0 38.0569 13.1119 499 134.591 1340.76 484.044
4 0 39.0879 12.8428 502 139.064 1338.81 482.347
5 0 39.0879 12.8428 502 164.183 1337.81 482.347
6 0 39.0635 12.8253 501 138.002 1339.31 483.004
7 0 43.1243 12.9625 559 134.415 1339.46 482.331
8 0 41.1136 12.7209 523 136.585 1339.32 482.675
9 0 43.121 12.7084 548 135.106 1339.38 481.693
10 0 45.0664 12.1376 547 135.704 1338.6 481.051
11 0 46.1125 12.7948 590 132.186 1339.4 481.958
12 0 48.1785 12.8273 618 131.259 1338.75 481.476
13 0 49.0842 13.5889 667 127.783 1338.14 480.852
14 0 51.0333 12.7368 650 130.432 1338.79 480.538
15 0 51.0278 12.7578 651 129.995 1339.11 479.522
16 0 53.1128 14.4221 766 124.547 1338.52 479.346
17 0 55.1034 13.7741 759 125.739 1338.32 478.804
18 0 56.0399 12.7231 713 127.712 1337.89 480.196
19 0 55.0517 12.9333 712 127.414 1338.52 477.889
20 0 59.0881 14.013 828 121.758 1337.78 478.22
21 0 58.0635 13.1408 763 126.102 1337.78 476.723
22 0 63.095 14.9457 943 117.532 1337.62 478.135
23 0 65.0802 13.9674 909 119.038 1337.69 476.912
24 0 66.0621 14.7891 977 116.965 1336.58 475.146
25 0 68.0458 13.8142 940 118.69 1336.54 474.74
26 0 70.0589 14.3023 1002 115.285 1337.18 474.909
27 0 73.1061 13.7335 1004 115.345 1337.33 472.394
28 0 75.0959 12.8902 968 117.378 1336.31 470.228
29 0 78.0696 12.2455 956 117.543 1336.57 470.594
30 0 82.0515 13.0528 1071 114.939 1335.87 468.788
31 0 82.0858 12.7184 1044 115.817 1335.7 466.245
32 0 85.1099 12.7952 1089 114.904 1335.37 465.117
33 0 89.1136 12.0969 1078 114.977 1336.32 466.335
34 0 92.1185 11.7023 1078 116.272 1335.68 463.882
35 1 50.0853 11.8598 594 111.949 1335.88 485.259
36 0 50.0903 12.3577 619 113.553 1335.2 481.766
37 0 52.0288 11.5513 601 112.003 1335.21 480.859
38 0 51.1018 12.2892 628 110.311 1335.54 481.994
39 0 52.0561 12.1984 635 113.14 1335.85 482.694
40 0 56.0622 12.8607 721 110.111 1335.35 480.699
41 0 58.0636 13.6058 790 109.835 1334.79 479.525
42 0 61.1114 14.1054 862 108.444 1334.77 479.437
43 0 64.0398 13.7102 878 108.448 1335.43 477.475
44 0 64.0372 13.8982 890 107.958 1335.53 477.738
45 0 65.1415 12.281 800 112.324 1335.02 476.882
46 0 68.0524 12.6373 860 111.838 1335.05 474.471
47 0 70.0471 13.1483 921 111.127 1335.58 471.899
48 0 74.0716 15.647 1159 105.855 1334.99 473.136
49 0 77.0414 14.317 1103 109.192 1334.33 469.47
50 0 80.1162 13.9423 1117 109.691 1334.32 469.893
51 0 82.0534 14.844 1218 107.782 1335.02 468.466
52 0 87.0378 13.5918 1183 109.793 1334.32 468.911
53 0 88.0388 14.0506 1237 108.711 1335.02 464.194
54 0 91.0624 14.5834 1328 108.363 1334.57 461.892
55 0 94.1458 13.7978 1299 109.163 1334.54 462.722
56 0 95.1109 12.8482 1222 108.939 1334.98 456.693
57 0 100.096 12.5979 1261 110.038 1333.6 455.435
58 0 101.135 14.0802 1424 107.034 1334.35 451.544
59 0 106.156 13.1411 1395 108.599 1335.06 452.616
60 0 111.136 12.4712 1386 108.854 1334.71 451.006
61 1 57.0498 10.6573 608 104.207 1335.02 474.91
62 0 59.0376 10.9083 644 103.188 1334.41 475.601
63 0 63.0474 12.0386 759 103.066 1333.69 474.415
64 0 68.1074 13.743 936 101.822 1334.65 477.511
65 0 69.0405 13.3545 922 103.037 1334.97 476.694
66 0 73.0923 13.996 1023 101.422 1334.23 475.393
67 0 76.1021 13.9418 1061 101.845 1334.4 473.651
68 0 77.0454 13.6932 1055 103.009 1334.45 471.355
69 0 80.0944 12.9098 1034 104.937 1333.76 469.346
70 0 86.0513 13.7476 1183 101.686 1334.3 469.922
71 0 89.0654 14.6858 1308 101.239 1334.18 466.914
72 0 90.3081 14.1626 1279 102.982 1333.85 464.917
73 0 93.171 13.0405 1215 106.091 1334.22 464.278
74 0 98.1414 14.3568 1409 102.894 1334.41 461.133
75 0 103.146 14.7655 1523 100.599 1333.84 460.128
76 1 47.0594 10.0086 471 97.172 1334.04 480.333
77 0 50.041 11.031 552 94.4185 1334.16 481.446
78 0 54.1046 12.9194 699 94.3476 1334.26 485.72
79 0 55.0992 12.2688 676 96.4719 1334.16 485.25
80 0 59.1571 13.1514 778 93.8509 1334.19 482.856
81 0 59.0948 12.5561 742 94.903 1333.99 483.887
82 0 62.069 13.3239 827 93.5441 1334.69 481.21
83 0 65.0653 13.3097 866 93.0185 1333.98 481.299
84 0 67.1106 13.5746 911 92.2602 1334.63 479.62
85 0 67.1288 12.9155 867 94.5536 1334.3 478.539
86 0 68.1219 12.9914 885 95.3062 1333.59 478.606
87 0 72.1296 12.6855 915 95.7454 1333.81 477.29
88 0 75.1127 12.4346 934 95.0557 1333.33 477.332
89 0 77.1387 11.9784 924 95.105 1332.9 475.201
90 0 80.1412 12.7026 1018 94.6189 1333.54 473.615
91 0 82.1454 11.5405 948 97.8122 1333.66 473.017
92 0 86.227 11.864 1023 97.2004 1332.41 470.841
93 1 44.0794 10.9121 481 92.1788 1332.22 492.665
94 0 47.109 13.1822 621 87.9243 1332.4 489.567
95 0 48.0989 11.019 530 94.0358 1332.47 490.042
96 0 47.0865 11.447 539 92.7328 1332.13 490.212
97 0 49.048 11.2951 554 93.4657 1332.51 489.845
98 0 51.074 11.9043 608 92.403 1332.2 486.574
99 0 52.0574 11.1608 581 94.4492 1332.51 486.759
100 0 53.0274 10.3154 547 94.7678 1331.77 488.205
101 0 56.0607 10.3281 579 95.095 1332.21 485.304
102 0 59.0347 12.6197 745 91.1839 1332.52 484.824
103 0 60.1081 10.8305 651 94.9309 1332.53 483.969
104 0 61.0604 10.7598 657 95.6408 1332.22 482.781
105 0 65.0565 12.2663 798 92.1717 1332.08 482.926
106 0 67.0841 11.6272 780 93.6577 1331.94 480.426
107 0 70.1097 13.6215 955 89.8722 1332.07 478.159
108 0 73.0958 12.9419 946 91.686 1332.15 477.586
109 0 73.0765 12.5622 918 93.0708 1331.67 478.842
110 0 77.0987 12.8537 991 92.774 1331.39 476.462
111 0 77.0444 11.8633 914 96.0667 1332.04 475.124
112 0 80.086 11.6999 937 96.047 1332.36 473.159
113 0 83.069 10.8103 898 98.2116 1332.09 473.982
114 0 87.0557 13.5431 1179 94.0857 1332.09 467.689
115 1 46.0259 10.6679 491 95.4603 1332.87 490.037
116 0 48.0486 12.1752 585 94.6171 1333.2 489.448
117 0 49.0282 11.5852 568 94.5246 1333.11 487.613
118 0 53.061 12.3631 656 90.6662 1333.36 488.912
119 0 52.0853 12.1531 633 93.0284 1331.77 488.242
120 0 54.0803 12.7403 689 91.6996 1332.04 486.601
121 0 56.067 12.3424 692 92.4436 1331.96 484.513
122 0 58.0949 13.2542 770 90.8247 1331.92 483.949
123 0 57.0704 11.1792 638 96.036 1332.48 484.235
124 0 61.0373 12.091 738 93.3144 1332.39 481.791
125 0 63.0566 12.4174 783 93.3167 1331.98 479.94
126 0 67.097 12.4745 837 92.9343 1331.27 479.888
127 0 67.0862 12.6404 848 94.1981 1331.52 476.476
128 0 70.0902 13.7252 962 91.9938 1331.87 477.274
129 0 72.0699 11.9329 860 95.2465 1332.09 475.295
130 0 76.0369 13.0858 995 92.5709 1332.06 473.875
131 0 76.0906 10.8686 827 97.6602 1331.77 473.751
132 0 81.2109 13.8528 1125 92.1289 1331.46 470.881
133 0 84.1082 12.2818 1033 93.4182 1331.84 471.356
134 1 43.0292 11.3179 487 92.7947 1330.39 489.667
135 0 45.0274 10.3715 467 94.0514 1330.95 491.672
136 0 49.1045 17.7784 873 58.1913 1331.16 490.365
137 0 47.0204 11.3568 534 90.867 1331.57 487.318
138 0 47.055 10.0946 475 94.2042 1331.71 488.512
139 0 50.072 10.6447 533 93.015 1330.89 489.062
140 0 52.0225 11.7641 612 91.2386 1331.67 487.807
141 0 52.0223 11.5912 603 92.3997 1331.79 486.245
142 0 55.0467 12.5348 690 90.7 1331.37 484.332
143 0 57.044 10.8162 617 92.457 1331.6 484.629
144 0 58.0398 11.0614 642 92.3645 1331.84 483.302
145 0 60.0643 12.2369 735 89.849 1332.32 481.884
146 0 60.0759 10.6033 637 92.8744 1332.44 481.29
147 0 63.0758 11.6526 735 91.8095 1331.39 478.965
148 0 67.1352 12.9291 868 88.5564 1332.22 479.145
149 0 68.0522 11.741 799 90.2979 1332.47 476.681
150 0 70.0392 11.4507 802 91.0025 1331.95 477.981
151 0 74.1357 11.6813 866 89.9492 1332.43 475.74
152 0 76.0469 11.2431 855 92.124 1331.94 474.227
153 0 79.1156 11.6159 919 91.654 1332.1 472.146
154 0 81.0595 10.9549 888 93.8559 1332.5 471.654
155 0 82.1116 9.69413 796 98.3279 1331.93 466.394
156 0 89.1787 11.718 1045 91.7665 1333.19 469.425
157 0 91.2611 11.3192 1033 101.664 1332.29 465.129
158 0 94.2194 11.9614 1127 96.3949 1332.72 463.649
159 1 47.1225 10.0164 472 91.7479 1333.03 487.011
160 0 52.1605 11.8672 619 86.5832 1332.93 485.703
161 0 54.1469 10.7116 580 88.5759 1333.88 485.352
162 0 53.1148 10.3549 550 90.0364 1333.03 482.607
163 0 55.144 10.1552 560 90.575 1332.75 484.275
164 0 58.0583 10.2139 593 89.4874 1332.73 482.395
165 0 60.099 10.6158 638 89.3135 1332.45 481.064
166 0 58.0664 10.488 609 90.4746 1332.04 480.146
167 0 62.1521 11.8258 735 88.5986 1332.2 478.076
168 0 67.0643 12.2122 819 86.0733 1332.23 478.74
169 0 67.1289 11.9323 801 87.6592 1332.15 475.944
170 0 69.078 10.2493 708 90.4068 1332.04 476.477
171 0 72.1026 11.5946 836 88.4773 1331.8 472.433
172 0 75.0789 11.8142 887 88.1736 1332.01 473.129
173 0 76.1367 12.3856 943 90.9046 1332.54 469.286
174 0 80.1083 10.5108 842 92.595 1332.3 472.268
175 0 84.0937 11.3683 956 89.9383 1332.35 472.246
176 1 45.0131 9.7305 438 86.3813 1332.57 491.71
177 0 44.1029 11.3371 500 87.05 1332.68 488.096
178 0 46.085 9.54758 440 90.3523 1332.54 488.677
179 0 46.1293 9.62513 444 93.259 1333.02 488.671
180 0 48.0872 11.5207 554 88.2365 1332.54 488.352
181 0 49.0419 12.7034 623 87.0144 1332.46 485.84
182 0 51.0261 11.5627 590 90.0746 1332.37 485.208
183 0 53.1697 11.7548 625 89.7184 1332.39 485.131
184 0 54.1057 12.0505 652 90.7699 1331.9 483.167
185 0 57.0545 11.9535 682 90.3035 1331.89 483.031
186 0 58.0694 12.3473 717 90.6402 1332.34 481.69
187 0 59.0804 11.0358 652 95.3374 1332.36 482.167
188 0 60.0533 10.4074 625 96.7872 1332.51 481.557
189 0 61.0708 11.9533 730 95.4082 1331.92 480.567
190 0 64.088 11.9523 766 95.0339 1331.98 481.719
191 0 65.09 11.3382 738 97.4715 1332.21 478.121
192 0 68.0957 11.5426 786 96.4707 1332.26 478.281
193 0 70.0478 11.535 808 96.6621 1332.41 476.797
194 0 74.0874 13.7 1015 92.6847 1332.56 475.628
195 0 76.2517 11.9866 914 96.3982 1332.83 473.92
196 0 78.0619 11.6062 906 97.6424 1332.86 471.012
197 0 82.0732 12.1355 996 96.6054 1333.03 470.145
198 0 85.0676 11.7318 998 98.7365 1332.93 468.752
199 0 88.0996 12.781 1126 97.0497 1332.34 465.698
200 0 91.0934 13.0745 1191 96.429 1332.5 466.492
201 0 91.1148 12.0507 1098 100.795 1332.38 465.002
202 0 95.0908 12.588 1197 100.098 1331.96 461.745
203 1 53.0524 10.5556 560 97.5964 1333.99 482.761
204 0 54.0563 11.377 615 96.4455 1333.32 480.844
205 0 55.1048 12.0861 666 97.2703 1332.55 481.114
206 0 58.0614 12.8312 745 94.6295 1331.77 480.799
207 0 62.0709 11.7607 730 98.737 1331.25 480.566
208 0 62.0334 11.9129 739 98.8944 1331.48 478.457
209 0 64.0542 11.6932 749 99.2523 1331.44 478.256
210 0 67.0798 12.3137 826 98.2288 1330.73 475.621
211 0 71.0408 13.64 969 95.2116 1331.48 474.385
212 0 71.0714 13.001 924 96.908 1331.3 474.948
213 0 74.1426 13.6898 1015 96.5202 1331.23 472.41
214 0 74.1016 11.6597 864 102.174 1331.85 470.935
215 0 79.0494 12.9666 1025 99.7249 1330.73 470.054
216 0 80.1638 12.1127 971 102.617 1331.59 468.684
217 0 87.1122 14.0049 1220 97.6688 1331.52 468.43
218 0 87.0613 12.9909 1131 100.195 1331.85 469.371
219 0 90.082 12.3221 1110 104.825 1330.8 465.312
220 0 95.1126 13.7311 1306 100.09 1330.96 464.992
221 0 98.0863 12.907 1266 100.468 1331.59 462.446
222 0 100.085 13.5684 1358 102.479 1331.45 460.507
223 1 54.0323 12.2149 660 100.205 1331.35 483.956
224 0 55.0245 11.6675 642 100.202 1332.57 484.109
225 0 55.0206 11.3412 624 99.9535 1331.75 482.894
226 0 58.1169 13.0771 760 93.9987 1331.68 481.172
227 0 58.0701 12.4849 725 96.7531 1332.3 481.052
228 0 61.0583 12.5781 768 96.0039 1332.23 480.499
229 0 61.0963 12.243 748 98.3783 1331.42 480.174
230 0 64.0882 13.2474 849 95.6726 1332.01 478.498
231 0 67.1461 13.7015 920 94.275 1331.54 477.076
232 0 67.1008 12.9805 871 97.1516 1331.2 477.059
233 0 69.1102 12.6609 875 98.6229 1331.81 475.011
234 0 72.1374 11.9217 860 99.1919 1332.5 474.394
235 0 73.0723 12.2345 894 100.823 1332.53 472.149
236 0 77.0777 12.7663 984 99.3364 1331.62 472.421
237 0 78.121 13.3255 1041 99.0576 1332.12 472.296
238 0 80.093 12.6103 1010 101.854 1332.16 469.625
239 0 84.1087 12.7811 1075 103.645 1331.62 468.127
240 0 86.1955 13.5042 1164 104.794 1331.36 466.167
241 0 89.1838 13.0517 1164 106.824 1331.56 465.508
242 0 91.086 12.7133 1158 108.566 1331.78 464.287
243 0 94.1073 12.1245 1141 109.55 1332.47 462.205
244 0 99.2067 13.3156 1321 106.058 1332.78 462.761
245 0 100.3 13.3599 1340 107.495 1332.09 461.298
246 0 104.14 13.6258 1419 107.398 1332.69 456.266
247 1 59.0687 11.749 694 104.843 1333.31 480.643
248 0 60.0501 11.2573 676 104.547 1332.97 480.595
249 0 62.1146 11.3017 702 99.1439 1333.54 479.083
250 0 65.1142 12.839 836 96.9725 1333.44 478.057
251 0 65.0668 11.9108 775 99.1884 1333.09 477.614
252 0 67.0697 10.9886 737 101.077 1332.94 477.951
253 0 70.129 11.65 817 99.8886 1333.38 476.797
254 0 72.1027 12.4267 896 98.7846 1332.65 472.683
255 0 74.1276 11.5207 854 100.451 1333.39 472.717
256 0 77.0567 10.6156 818 103.099 1333.28 471.094
257 0 79.0799 11.5706 915 100.728 1333.13 473.833
258 0 82.0596 12.1132 994 100.915 1332.81 469.154
259 0 85.2347 11.9552 1019 101.219 1332.95 469.67
260 0 88.1113 11.6444 1026 101.424 1332.96 469.314
261 0 89.0701 10.1269 902 104.195 1332.91 467.191
262 0 95.1018 11.3668 1081 100.655 1333 465.619
263 0 96.0838 12.0312 1156 102.037 1333.09 461.889
264 1 51.0208 9.97633 509 102.454 1332.21 486.613
265 0 52.0614 11.4672 597 99.9682 1333.27 483.368
266 0 54.0768 11.6131 628 96.6513 1331.51 482.497
267 0 54.0488 11.3786 615 98.4228 1334.23 483.228
268 0 55.1333 10.6106 585 100.368 1332.91 482.537
269 0 59.1238 11.4336 676 97.2101 1333.64 481.327
270 0 60.0736 11.5026 691 98.4038 1333.49 480.285
271 0 59.0381 9.65479 570 102.568 1333.1 479.311
272 0 63.0902 11.333 715 98.9399 1333.88 478.456
273 0 65.0981 12.5042 814 96.1683 1333.86 477.947
274 0 67.1028 11.4004 765 97.5176 1333.37 478.503
275 0 68.0905 10.912 743 100.198 1333.56 474.747
276 0 68.0916 10.9118 743 129.754 1333.58 474.774
277 0 74.0924 12.8218 950 97.1463 1333.02 472.908
278 0 78.0407 12.6216 985 75.2558 1332.82 471.775
279 0 78.062 12.362 965 99.7586 1332.71 468.54
280 0 81.0542 11.7082 949 101.101 1332.67 469.269
281 0 83.0581 11.5341 958 102.164 1332.31 467.875
282 0 86.125 11.6691 1005 102.416 1331.84 466.216
283 0 86.1193 11.3447 977 103.267 1332.99 467.192
284 0 91.2171 11.2589 1027 103.283 1332.38 466.608
285 0 95.0826 11.4953 1093 103.295 1332.8 463.012
286 0 97.1914 11.4722 1115 104.302 1332.06 461.175
287 0 100.192 12.6957 1272 100.819 1332.55 460.891
288 0 105.112 11.5686 1216 103.141 1332.21 458.113
289 0 108.154 11.5576 1250 103.495 1331.25 457.518
290 1 59.1221 10.842 641 102.095 1332.5 481.128
291 0 59.1221 11.5016 680 143.156 1333.46 481.874
292 0 64.1218 12.9909 833 96.5858 1332.25 479.527
293 0 66.0608 12.1403 802 95.3217 1332.99 479.081
294 0 67.0727 11.2863 757 96.9564 1332.6 477.933
295 0 68.0902 11.8226 805 97.7466 1332.36 475.283
296 0 73.0498 12.5668 918 95.2516 1332.4 475.72
297 0 71.0546 11.9204 847 98.686 1332.53 474.205
298 0 78.1453 12.6559 989 95.5632 1332.86 473.112
299 0 79.0456 12.7015 1004 96.6733 1332.45 472.186
300 0 81.1767 12.6514 1027 97.742 1332.18 470.619
301 0 84.0986 13.6506 1148 97.1098 1332.22 469.051
302 0 87.1999 12.8899 1124 100.446 1332.85 468.381
303 0 91.1386 13.474 1228 98.5049 1332.73 467.604
304 0 94.2115 13.0133 1226 101.954 1332.79 464.963
305 0 97.2109 13.2495 1288 101.558 1333.15 463.875
306 0 100.365 12.8232 1287 103.676 1332.72 459.651
307 0 102.363 12.1039 1239 105.504 1332.6 458.118
308 1 57.3463 12.1019 694 99.4222 1332.08 480.924
309 0 55.1988 11.1234 614 103.344 1332.47 481.073
310 0 58.1463 12.6061 733 100.321 1332.17 479.13
311 0 61.0506 13.6772 835 90.9617 1333.95 481.023
312 0 63.0449 12.9432 816 93.0417 1333.58 479.985
313 0 63.0807 11.953 754 96.7546 1333.69 480.261
314 0 64.0723 12.0489 772 97.0181 1333.44 480.014
315 0 66.0964 12.2851 812 97.5665 1332.63 478.43
316 0 68.0805 11.8683 808 98.5631 1333.08 477.64
317 0 70.1248 12.3637 867 97.4994 1332.75 475.836
318 0 72.0499 11.1312 802 100.98 1332.24 473.338
319 0 78.0899 12.1911 952 97.9223 1332.95 474.137
320 0 78.0876 12.8702 1005 97.9612 1332.7 471.136
321 0 82.0725 13.415 1101 96.5976 1332.48 469.817
322 0 85.1367 14.1889 1208 95.7417 1332.68 469.803
323 0 85.127 13.5562 1154 139.352 1332.7 469.059
324 0 89.0509 13.0712 1164 98.5979 1332.48 468.096
325 0 91.1237 11.2265 1023 103.038 1332.99 464.561
326 1 50.0404 12.2501 613 97.0587 1332.95 486.511
327 0 50.0568 11.6867 585 98.2256 1333.65 485.335
328 0 53.0377 11.4447 607 96.3031 1332.63 487.109
329 0 54.0631 12.9663 701 93.0114 1332.3 486.538
330 0 53.0618 11.9483 634 97.2713 1332.14 487.172
331 0 54.1067 11.4773 621 99.5346 1332.15 483.855
332 0 58.0664 12.1929 708 97.0565 1331.48 484.756
333 0 60.1272 13.3051 800 94.98 1331.61 481.558
334 0 61.0536 12.7757 780 94.9885 1331.94 483.549
335 0 61.0381 12.3202 752 98.1383 1331.44 480.908
336 0 61.0381 12.271 749 140.214 1330.45 480.844
337 0 61.0381 12.2219 746 139.92 1329.44 480.874
338 0 69.1576 13.6644 945 95.2529 1332.38 477.22
339 0 71.1105 14.4564 1028 94.1031 1332.69 478.15
340 0 74.0858 14.0648 1042 95.7466 1332.52 475.441
341 0 74.0438 13.1544 974 99.7669 1332.22 473.385
342 0 78.1609 15.1866 1187 94.888 1332.67 473.037
343 0 80.0888 13.8097 1106 98.2197 1332.42 472.216
344 0 82.0782 13.5115 1109 99.0622 1332.12 472.608
345 0 86.1585 14.4617 1246 95.76 1333.38 471.059
346 0 87.1378 13.5532 1181 98.359 1333.54 468.362
347 1 47.191 11.4005 538 97.8792 1333.14 489.658
348 0 51.1698 12.7224 651 87.8249 1335.02 488.734
349 0 51.0154 12.2708 626 90.393 1333.21 487.657
350 0 50.0169 12.6757 634 91.489 1333.36 485.465
351 0 51.1044 9.86217 504 97.7659 1332.17 486.53
352 0 54.0668 11.4858 621 92.8792 1333.25 486.784
353 0 54.0668 11.5598 625 127.376 1334.27 486.84
354 0 55.1511 11.6407 642 94.5654 1331.89 483.389
355 0 58.0636 12.2969 714 92.5266 1331.69 482.574
356 0 62.0671 12.7282 790 89.4342 1332.45 483.351
357 0 64.2137 12.7076 816 89.462 1332.15 482.838
358 0 65.096 11.291 735 93.2272 1332.15 480.478
359 0 67.1274 12.3794 831 90.7798 1332.77 479.569
360 0 70.0478 11.3066 792 92.7614 1332.98 476.923
361 0 72.1023 12.3852 893 90.9048 1332.66 476.975
362 0 73.0498 13.0459 953 89.6852 1331.93 478.277
363 0 78.0965 12.3949 968 91.5486 1332.24 473.524
364 0 80.1192 12.0945 969 93.2766 1332.15 471.735
365 0 83.1308 12.5224 1041 93.4861 1331.53 470.643
366 0 86.0708 12.6524 1089 93.4582 1332.14 471.005
367 1 49.0172 11.139 546 94.1429 1331.9 488.509
368 0 49.0732 12.8176 629 91.0556 1332.03 487.134
369 0 51.0264 11.6214 593 92.7336 1333.14 487.941
370 0 50.0274 9.43483 472 97.0953 1333.11 489.71
371 0 51.0285 11.5426 589 94.7453 1332.69 487.98
372 0 55.0733 12.0022 661 93.0817 1331.86 485.817
373 0 57.1306 10.5898 605 95.076 1333.04 485.924
374 0 58.0304 11.5112 668 93.3443 1333.02 485.265
375 0 60.0812 11.5677 695 94.2878 1333.3 482.957
376 0 60.044 11.6581 700 94.4429 1333.06 483.784
377 0 60.0672 11.5038 691 93.5904 1333.45 483.191
378 0 63.0944 12.1564 767 92.1812 1333.17 479.949
379 0 66.0697 12.9257 854 90.0386 1332.54 481.589
380 0 69.0581 11.9609 826 92.7942 1331.88 477.892
381 0 71.1339 12.5538 893 91.4513 1332.13 477.384
382 0 74.1022 12.9686 961 90.3611 1332.24 477.085
383 0 75.101 12.6363 949 92.334 1333.23 473.558
384 0 78.0558 11.2099 875 94.5154 1333.09 474
385 0 82.1724 11.8166 971 93.9217 1331.89 473.043
386 0 83.0804 10.0385 834 97.5468 1332.91 470.793
387 0 86.0929 12.382 1066 93.6482 1332.77 470.385
388 0 89.1323 11.5671 1031 95.0165 1332.81 469.396
389 0 91.0489 10.7964 983 97.6216 1332.3 465.355
390 1 53.0442 10.5572 560 95.8357 1331.79 485.204
391 0 56.0601 12.5579 704 91.9205 1332.3 485.874
392 0 56.069 10.7011 600 94.7667 1331.95 485.403
393 0 55.0192 10.9416 602 94.4967 1333.25 485.698
394 0 58.0318 10.6838 620 94.7645 1333.22 484.056
395 0 62.13 11.3633 706 93.1445 1333.07 482.262
396 0 65.0548 11.2059 729 92.9684 1333.11 481.679
397 0 65.0194 10.4738 681 94.3686 1332.71 480.562
398 0 68.0398 11.7725 801 92.7166 1332.29 476.742
399 0 72.0364 12.2299 881 90.63 1333.56 477.578
400 0 73.0666 12.2628 896 91.2444 1333.96 477.171
401 0 77.0366 11.488 885 92.9763 1333.33 474.481
402 0 79.1065 11.7057 926 94.1156 1333.43 473.734
403 0 81.0598 11.51 933 95.0322 1332.91 472.531
404 1 46.0148 9.93158 457 96.1729 1331.79 490.359
405 0 47.0373 12.033 566 92.1608 1333.2 488.415
406 0 48.0494 12.2582 589 94.0526 1331.78 489.29
407 0 51.1206 11.913 609 94.8407 1331.25 488.86
408 0 51.0738 11.5519 590 97.5339 1331.38 486.858
409 0 51.0593 12.1036 618 97.2961 1331.49 485.832
410 0 55.0618 13.4576 741 93.1903 1331.55 486.865
411 0 57.1566 11.5647 661 97.525 1331.47 485.726
412 0 57.0345 12.4661 711 97.8931 1331.18 482.94
413 0 56.039 10.5819 593 102.771 1331.86 481.973
414 0 59.2085 12.7853 757 94.2074 1332.06 484.207
415 0 59.2309 12.7298 754 128.386 1332.05 484.198
416 0 60.0596 11.5385 693 97.1472 1332.73 482.804
417 0 64.1243 12.6785 813 94.0763 1332.93 481.966
418 0 65.1319 11.8836 774 95.9819 1333.03 480.717
419 0 67.1869 11.4308 768 96.6784 1332.65 478.565
420 0 69.1013 12.0113 830 95.5602 1332.56 479.5
421 0 70.2218 11.6203 816 98.685 1332.68 475.018
422 0 73.1197 11.9804 876 95.8699 1333.11 477.076
423 0 77.0735 13.2471 1021 93.4858 1333.11 473.299
424 0 78.1192 13.3386 1042 94.3647 1332.8 474.074
425 0 82.1373 12.1869 1001 96.6214 1332.49 472.284
426 0 82.1413 11.1393 915 97.882 1332.81 471.951
427 0 87.2402 12.6776 1106 95.9105 1332.16 469.042
428 1 46.103 9.28356 428 90.1565 1333.56 492.636
429 0 49.0223 12.0761 592 84.3412 1333.94 488.76
430 0 48.0607 10.6948 514 88.0934 1333.26 488.825
431 0 50.0737 12.4616 624 83.6875 1333.96 487.296
432 0 51.065 11.0839 566 87.258 1333.49 487.917
433 0 52.1031 9.73072 507 90.6351 1333.74 489.146
434 0 55.1127 9.29006 512 92.0117 1333.84 488.416
435 0 54.0525 10.4898 567 90.4603 1333.97 486.762
436 0 57.0788 11.1775 638 89.7179 1334.07 484.766
437 0 60.1642 12.1667 732 87.3388 1333.01 484.141
438 0 62.1671 12.1769 757 87.7464 1333.18 482.679
439 0 63.0403 10.5012 662 89.2221 1334.24 482.979
440 0 65.0932 12.2286 796 86.9573 1334.06 480.876
441 0 65.0531 11.652 758 88.8259 1333.59 479.044
442 0 67.1074 11.5635 776 88.8634 1332.81 479.419
443 0 70.0846 11.5575 810 88.0617 1333.46 477.822
444 0 72.0494 11.9085 858 88.8881 1332.8 474.614
445 0 76.3083 11.7025 893 89.2016 1333.47 473.359
446 0 79.0729 11.8498 937 88.8762 1334.03 474.41
447 0 79.0729 11.951 945 136.45 1335.03 474.306
448 0 85.0778 11.2485 957 90.3647 1334.03 476.124
449 0 87.1056 11.7673 1025 90.6527 1333.83 472.824
450 0 88.1929 12.5407 1106 91.6203 1333.73 468.216
451 0 92.1735 12.5741 1159 90.786 1333.83 469.304
452 0 96.1222 11.5998 1115 93.4529 1333.22 467.37
453 0 99.1926 10.6157 1053 97.2023 1333.85 463.423
454 1 54.0528 10.8413 586 91.029 1334.59 487.654
455 0 54.0911 11.9428 646 88.322 1334.08 484.461
456 0 57.0349 12.8167 731 86.1532 1333.99 485.55
457 0 56.1633 10.3983 584 91.8202 1334.1 485.214
458 0 59.0646 11.7668 695 89.7151 1333.89 482.981
459 0 61.0958 11.2774 689 90.4485 1334.19 481.914
460 0 63.0742 11.542 728 89.7788 1334.1 483.587
461 0 66.1022 11.4217 755 89.6715 1334.33 479.901
462 0 68.0431 11.625 791 88.713 1333.86 478.702
463 0 72.1178 11.4258 824 88.7816 1333.57 477.212
464 0 76.0983 13.4563 1024 84.0654 1333.96 475.381
465 0 76.0792 11.12 846 89.8109 1333.68 473.863
466 0 79.1628 11.2427 890 90.8067 1333.14 472.629
467 0 83.0629 10.5823 879 91.6132 1332.52 471.688
468 0 86.1417 11.6784 1006 89.1392 1333.29 471.901
469 0 87.0693 11.5885 1009 91.1051 1332.61 467.91
470 1 46.0231 10.6685 491 87.5642 1333.17 491.206
471 0 46.0543 9.96651 459 90.2004 1333.08 490.856
472 0 48.0334 10.4511 502 91.512 1333.18 488.249
473 0 48.0334 10.805 519 122.408 1334.14 488.098
474 0 50.0308 10.8933 545 90.0257 1333.77 487.481
475 0 53.0872 11.7731 625 88.3184 1334.14 485.818
476 0 54.039 11.4732 620 91.5726 1332.71 487.632
477 0 54.0566 10.045 543 95.6796 1332.44 485.501
478 0 60.0714 12.1356 729 90.2551 1333.21 485.867
479 0 58.0186 9.58314 556 95.8004 1333.24 485.883
480 0 61.0432 11.369 694 93.2133 1332.88 484.199
481 0 62.0555 12.3116 764 92.0772 1332.97 484.174
482 0 64.1468 10.4136 668 96.5329 1332.58 483.008
483 0 66.0275 11.1166 734 95.015 1333.39 481.097
484 0 69.094 11.3324 783 92.8276 1333.36 482.8
485 0 72.0976 11.4844 828 93.5048 1333.29 479.658
486 0 76.0697 11.2528 856 94.3773 1332.7 477.252
487 0 77.1853 11.0643 854 94.7962 1332.75 474.708
488 0 80.1018 11.3231 907 93.8159 1332.33 476.265
489 0 84.1486 11.3609 956 93.7176 1333.3 472.414
490 0 87.0501 10.9592 954 95.3952 1333.11 471.507
491 0 88.2584 12.3388 1089 92.5354 1332.98 471.317
492 0 91.1198 11.5562 1053 94.5461 1333.21 468.104
493 1 48.0883 9.2954 447 94.6689 1333.69 489.347
494 0 51.0426 11.9116 608 90.25 1334 487.645
495 0 52.0175 12.0344 626 91.0304 1333.8 486.185
496 0 54.0427 11.713 633 91.1722 1333.15 487.807
497 0 55.0466 11.9898 660 91.2015 1333.55 485.408
498 0 56.0313 12.5287 702 90.547 1333.43 484.93
499 0 58.0555 11.2479 653 93.0536 1333.99 485.426
500 0 60.0366 12.3092 739 94.5102 1333.35 482.976
501 0 61.0678 12.0194 734 98.3297 1333.79 481.602
502 0 62.0962 11.9975 745 99.4027 1333.36 481.623
503 0 66.1011 12.5868 832 97.2704 1334 482.481
504 0 65.0521 11.2064 729 101.326 1333.95 481.151
505 0 67.0442 10.948 734 102.155 1334 481.535
506 0 70.0447 13.2772 930 98.3194 1332.66 477.155
507 0 73.034 12.0492 880 99.6364 1333.13 477.599
508 0 72.0248 12.4402 896 127.981 1334.15 477.892
509 0 77.0285 11.5282 888 101.887 1333.27 472.597
510 0 79.0688 13.2922 1051 98.2008 1333.43 473.945
511 0 82.0539 12.2602 1006 100.178 1333.34 470.905
512 0 86.1414 13.3617 1151 97.1833 1332.78 469.099
513 0 89.1161 13.1514 1172 99.0648 1332.81 466.695
514 0 91.1699 13.0635 1191 101.078 1333 465.912
515 0 95.1088 12.9851 1235 101.515 1332.45 463.899
516 0 95.1043 12.9752 1234 130.317 1331.46 463.887
517 0 101.197 13.9628 1413 99.1861 1333.23 464.13
518 0 104.045 13.5614 1411 99.5379 1333.22 460.042
519 1 56.0935 10.8034 606 102.109 1333.01 485.794
520 0 55.119 11.5024 634 102.964 1332.82 483.935
521 0 55.0339 10.6298 585 95.1094 1332.91 478.444
522 0 57.0727 11.8621 677 91.2659 1331.28 478.889
523 0 58.0395 10.9925 638 94.2649 1332.2 480.067
524 0 57.0563 10.919 623 95.2327 1331.95 477.748
525 0 59.0702 8.71844 515 99.1126 1332.29 475.445
526 0 64.0685 11.0195 706 91.966 1332.2 476.297
527 0 65.0707 10.7883 702 92.6667 1331.56 473.613
528 0 65.0678 11.2805 734 92.3488 1331.8 474.007
529 0 68.0798 12.7498 868 89.3064 1332.33 470.414
530 0 72.0335 11.9528 861 88.6283 1333.08 472.179
531 0 75.0488 10.8463 814 90.0405 1332.89 469.773
532 0 76.157 11.6601 888 89.2815 1333.01 467.32
533 0 77.0528 9.47402 730 93.0781 1332.91 466.473
534 0 80.0791 10.6645 854 91.8934 1332.56 464.941
535 0 85.2729 11.6801 996 91.3032 1332.58 464.346
536 0 86.1003 11.1382 959 90.4922 1332.71 465.97
537 0 87.0456 10.8334 943 89.3203 1332.46 464.151
538 0 91.0673 12.3206 1122 88.6105 1332.32 464.516
539 0 95.1342 11.1422 1060 90.2698 1331.83 462.929
540 0 97.1026 11.8431 1150 88.5583 1332.77 463.863
541 0 101.153 12.5256 1267 87.779 1332.5 460.723
542 0 104.112 11.113 1157 90.8081 1332.74 462.291
543 0 108.106 12.4137 1342 90.1841 1333 457.397
544 0 111.128 12.6521 1406 92.5171 1332.4 455.524
545 0 117.27 13.0298 1528 91.6976 1333.03 452.183
546 0 121.116 14.1105 1709 90.9391 1332.98 450.286
547 0 123.147 11.2955 1391 97.5802 1332.29 444.361
548 0 129.246 12.7122 1643 94.7845 1332.63 446.948
549 0 133.209 12.0112 1600 96.6619 1332.32 442.704
550 0 140.176 12.4843 1750 96.6571 1331.99 436.694
551 0 147.218 12.9807 1911 95.5866 1331.38 437.113
552 1 80.1144 9.88586 792 92.1111 1332.27 471.736
553 0 86.0868 13.1495 1132 87.0309 1332.25 467.857
554 0 88.1087 11.5199 1015 90.6581 1332.59 468.451
555 0 93.0998 11.8797 1106 89.9765 1332.72 466.451
556 0 95.1652 12.0317 1145 90.3389 1333.22 464.014
557 0 98.2317 11.4525 1125 91.7796 1332.79 464.431
558 0 101.251 12.8592 1302 90.7104 1333.02 460.457
559 0 104.191 11.8148 1231 92.9545 1333.28 459.233
560 0 108.172 11.7498 1271 92.1212 1333.92 459.768
561 0 112.205 11.4433 1284 93.2539 1333.95 458.723
562 0 115.184 11.295 1301 94.7994 1332.86 451.884
563 1 62.1938 11.8983 740 88.0527 1333.46 481.672
564 0 64.0638 10.5832 678 89.1622 1333.71 482.097
565 0 65.0858 11.5079 749 88.3057 1333.79 480.356
566 0 70.0969 12.6111 884 90.9706 1331.92 478.27
567 0 70.0647 12.4171 870 93.6103 1331.05 477.309
568 0 72.0979 13.9671 1007 91.7438 1331.88 475.705
569 0 76.0965 12.4579 948 94.9441 1331.48 475.734
570 0 81.1192 14.4109 1169 90.3071 1332.11 475.147
571 0 82.0576 13.6246 1118 93.7674 1332.08 474.417
572 0 83.1128 12.8259 1066 96.5206 1331.82 472.788
573 0 87.2059 14.2078 1239 94.7038 1332.37 470.797
574 0 88.0423 13.3913 1179 97.1645 1332.96 469.956
575 0 91.0935 13.3819 1219 99.1091 1332.34 470.683
576 0 94.149 12.8838 1213 100.973 1332.46 469.145
577 0 96.1703 14.5055 1395 99.091 1331.67 466.009
578 0 101.135 14.2285 1439 99.2425 1331.98 466.015
579 0 101.135 14.189 1435 150.547 1331.98 465.859
580 0 103.103 13.0161 1342 104.601 1332.43 464.203
581 0 110.087 14.4522 1591 102.549 1332.22 458.625
582 0 110.131 11.7496 1294 101.85 1333.48 460.9
583 0 115.142 13.2358 1524 99.7658 1333.04 458.589
584 0 118.194 12.0141 1420 102.752 1333.72 447.954
585 0 122.183 12.8087 1565 100.712 1333.37 449.155
586 1 65.0689 11.2957 735 91.9728 1333.41 479.064
587 0 68.0555 12.1812 829 90.1773 1333.67 478.241
588 0 70.0354 11.2086 785 90.9376 1332.34 478.36
589 0 72.0542 10.617 765 94.3621 1332.74 474.651
590 0 75.0444 11.4865 862 91.8689 1332.52 477.227
591 0 75.1033 10.4256 783 97.2784 1332.08 473.304
592 0 78.1482 10.7616 841 96.8668 1332.28 471.791
593 0 83.1909 12.5254 1042 94.5672 1332.66 470.046
594 0 86.0611 13.107 1128 93.3369 1332.56 469.242
595 0 89.1418 12.0931 1078 96.6132 1332.25 466.898
596 0 93.1204 12.167 1133 95.5966 1332.22 468.506
597 0 93.1538 12.9893 1210 99.7727 1332.11 467.321
598 0 97.1233 13.4674 1308 98.0176 1332.04 465.422
599 0 100.126 12.0448 1206 98.2803 1333.11 462.922
600 0 105.19 13.4708 1417 95.82 1332.92 462.887
601 0 104.048 12.3404 1284 100.384 1332.57 458.945
602 0 110.252 13.3965 1477 101.41 1331.89 456.731
603 0 113.073 12.293 1390 103.602 1331.84 455.404
604 0 118.202 12.8508 1519 101.829 1331.41 453.078
605 0 121.095 12.8659 1558 100.838 1332.56 452.32
606 1 62.1983 11.608 722 96.385 1333.03 480.665
607 0 68.0502 12.2997 837 93.6774 1332.39 480.523
608 0 70.1234 13.519 948 92.7215 1331.15 479.354
609 0 70.0974 10.8421 760 98.8974 1332.33 478.478
610 0 74.101 13.1712 976 94.6844 1331.91 476.904
611 0 79.133 12.5864 996 96.495 1332.18 476.036
612 0 79.0607 12.6232 998 97.7555 1331.89 474.397
613 0 79.0711 11.0407 873 101.326 1331.42 473.869
614 0 84.0772 12.2269 1028 98.7189 1333 471.99
615 0 86.1377 12.004 1034 99.6296 1332.88 471.321
616 0 88.1573 11.5929 1022 101.159 1332.48 468.592
617 0 92.0904 12.0317 1108 100.004 1332.85 467.301
618 0 94.0803 11.0438 1039 101.198 1332.47 468.166
619 0 97.2559 11.4132 1110 102.224 1332.42 462.898
620 0 101.067 11.3786 1150 101.514 1333.18 461.555
621 1 53.0438 11.745 623 91.9791 1333.99 487.493
622 0 54.0298 11.068 598 94.7492 1332.53 483.533
623 0 53.0639 10.591 562 99.4858 1331.92 486.473
624 0 57.1188 11.975 684 96.0322 1330.95 485.516
625 0 56.0789 8.89818 499 101.868 1331.08 486.663
626 0 61.0964 11.5391 705 95.8709 1331.65 485.4
627 0 60.1796 10.3025 620 100.356 1331.91 481.515
628 0 64.0968 11.2486 721 97.9223 1331.28 480.781
629 0 63.1085 10.9494 691 99.8654 1330.74 477.255
630 0 69.1491 11.5547 799 98.0763 1331.03 480.24
631 0 72.033 12.286 885 96.8271 1330.64 478.043
632 0 74.1054 12.1853 903 98.2946 1331.18 476.708
633 0 76.0552 13.3061 1012 96.5731 1331.11 474.15
634 0 79.1756 12.4786 988 98.3431 1330.9 472.108
635 0 81.0491 12.0791 979 99.2012 1331.27 473.705
636 0 85.0771 12.0714 1027 99.5131 1331.72 473.141
637 0 88.2341 12.6822 1119 99.8758 1331.53 470.698
638 0 91.0569 11.3775 1036 102.475 1330.73 467.386
639 1 48.0597 11.5481 555 98.0703 1331.7 489.668
640 0 52.0441 12.6239 657 93.6651 1331.97 488.24
641 0 49.0411 10.6034 520 97.2615 1333.02 488.335
642 0 51.1381 10.4423 534 97.236 1333.16 487.161
643 0 53.0582 10.8748 577 97.6048 1332.49 486.184
644 0 53.0846 10.0217 532 100.748 1333.05 485.224
645 0 57.058 10.3403 590 98.9322 1333.33 486.029
646 0 59.0992 10.9308 646 97.3235 1333.44 486.128
647 0 60.0658 11.4208 686 98.8294 1332.3 484.111
648 0 62.0642 11.8909 738 97.477 1333.13 484.477
649 0 66.0707 12.3958 819 96.7778 1332.68 481.872
650 0 67.0446 12.9317 867 96.3333 1332.54 480.663
651 0 70.0545 12.2762 860 97.0698 1332.27 481.329
652 0 73.0376 14.0339 1025 93.5795 1332.21 479.015
653 0 74.0802 13.9713 1035 95.0657 1332.86 478.781
654 0 76.0333 13.2968 1011 97.0979 1332.71 476.977
655 0 76.0592 13.0425 992 99.2681 1332.53 475.564
656 0 81.0582 14.138 1146 95.3394 1332.53 476.513
657 0 83.0807 13.8901 1154 97.2738 1332.47 475.542
658 0 85.1078 13.8648 1180 99.4864 1332.04 474.877
659 0 89.214 14.1121 1259 100.441 1332.42 471.877
660 0 92.0627 13.0237 1199 103.45 1332.26 469.552
661 0 94.103 12.9539 1219 105.944 1332.81 469.154
662 0 98.0249 13.976 1370 104.572 1332.43 468.199
663 1 53.0575 12.0247 638 105.439 1332.76 489.597
664 0 56.0683 12.6096 707 100.82 1332.75 489.109
665 0 58.1637 13.101 762 100.49 1331.74 485.27
666 0 56.0882 13.7106 769 97.7607 1331.39 485.847
667 0 60.0965 14.1439 850 95.9094 1330.61 485.46
668 0 62.083 14.1263 877 96.5781 1330.5 485.203
669 0 64.0901 13.247 849 98.2968 1331.17 484.537
670 0 63.1013 12.7731 806 101.711 1330.72 483.145
671 0 67.1187 14.005 940 97.4819 1331.28 484.145
672 0 68.0491 13.3874 911 99.82 1330.96 483.041
673 0 70.0507 14.2754 1000 98.614 1330.83 480.747
674 0 71.0513 13.8773 986 100.356 1330.95 479.724
675 0 74.0718 14.4589 1071 98.4995 1331.8 476.765
676 0 77.1145 15.4316 1190 96.5882 1330.98 476.791
677 0 79.0637 15.2156 1203 97.4098 1331.12 476.936
678 0 80.0801 12.8746 1031 103.043 1331.69 474.758
679 0 84.1 13.7574 1157 101.114 1331.68 474.756
680 0 86.0684 14.6395 1260 100.069 1331.79 472.077
681 0 88.0359 15.2665 1344 99.747 1331.48 469.881
682 0 91.0631 14.0672 1281 103.076 1330.86 470.358
683 0 94.105 14.25 1341 101.919 1331.43 468.846
684 0 99.1148 13.6307 1351 102.719 1331.89 465.802
685 1 52.0924 11.3452 591 105.888 1332.48 487.391
686 0 55.0727 11.8571 653 102.923 1332.04 485.767
687 0 52.0366 11.9147 620 101.5 1332.69 482.044
688 0 56.1108 12.0832 678 106.088 1331.97 485.317
689 0 61.0516 13.2838 811 101.581 1332.38 484.439
690 0 62.1763 13.9603 868 96.8882 1333.43 484.895
691 0 62.0893 13.7222 852 98.8826 1332.78 484.032
692 0 64.0446 13.6467 874 99.8638 1332.53 482.91
693 0 67.0854 14.176 951 97.9916 1333.29 480.436
694 0 68.1558 13.2784 905 100.25 1333.48 480.438
695 0 72.1715 15.4078 1112 95.3004 1333.28 477.856
696 0 73.1134 14.0877 1030 99.1379 1332.99 476.242
697 0 74.0476 12.8701 953 101.746 1333.57 475.843
698 0 78.076 12.7568 996 102.562 1332.88 472.372
699 0 79.0869 13.0616 1033 100.065 1333.57 473.594
700 0 80.1368 11.3805 912 102.877 1331.99 467.145
701 0 83.2124 12.7505 1061 100.558 1332.33 466.652
702 0 87.1072 12.2722 1069 102.093 1331.88 466.732
703 0 88.1921 12.3367 1088 103.647 1331.78 464.041
704 1 46.1047 9.13139 421 103.304 1331.72 482.596
705 0 50.1151 10.9149 547 98.4205 1332.26 482.96
706 0 52.1148 12.4917 651 95.3733 1331.38 484.032
707 0 53.0746 11.8513 629 97.3895 1331.95 483.124
708 0 57.0709 13.7373 784 95.5064 1331.13 486.955
709 0 57.0257 12.5908 718 98.649 1330.75 486.611
710 0 62.0249 12.0435 747 98.241 1330.98 484.637
711 0 63.0344 14.0876 888 94.5642 1331.4 481.411
712 0 67.0512 13.3331 894 95.4083 1330.88 482.154
713 0 68.0867 13.145 895 97.0626 1330.99 480.693
714 0 69.1658 13.5182 935 96.0973 1331.28 480.168
715 0 71.0888 15.0797 1072 93.7798 1330.82 477.35
716 0 74.1342 12.9225 958 97.8163 1330.69 477.15
717 0 75.0977 13.6089 1022 97.6262 1331.76 476.391
718 0 81.1114 13.1054 1063 96.3631 1332.24 474.559
719 0 83.0786 13.2886 1104 97.1658 1332.34 473.6
720 0 86.1487 12.9079 1112 98.3723 1332 472.482
721 0 90.0727 14.0331 1264 95.7627 1332.11 470.24
722 0 91.1186 13.4111 1222 99.5597 1332.35 469.693
723 0 93.0646 13.8613 1290 99.6822 1332.63 466.193
724 0 98.1287 13.7065 1345 101.217 1332.36 465.525
725 1 53.0286 11.2581 597 98.7554 1332.17 488.219
726 0 54.0196 12.514 676 98.7041 1331.99 489.5
727 0 58.1954 12.3206 717 104.158 1331.16 487.187
728 0 58.0994 12.2032 709 105.788 1331.19 485.893
729 0 60.1333 12.6885 763 104.11 1331.86 485.516
730 0 62.1168 12.9755 806 102.51 1333.02 485.109
731 0 63.015 12.5526 791 105.025 1332.51 484.174
732 0 66.0389 13.7646 909 101.406 1332.7 483.518
733 0 68.1961 14.121 963 101.765 1332.46 480.093
734 0 69.2087 13.6688 946 103.191 1332.55 479.243
735 0 69.107 11.8078 816 108.828 1332.39 478.707
736 0 73.1443 13.6169 996 105.466 1331.84 477.702
737 0 75.0805 13.2524 995 105.587 1332.31 478.394
738 0 75.1651 12.4393 935 108.925 1332.22 476.07
739 0 78.145 13.7181 1072 105.934 1332.74 476.018
740 0 81.1631 13.0355 1058 109.119 1332.24 474.653
741 0 84.1708 13.9478 1174 108.085 1332.72 472.269
742 0 88.1088 14.1303 1245 107.153 1332.38 472.664
743 0 89.2068 13.7433 1226 109.756 1331.77 469.312
744 0 93.2376 13.353 1245 111.157 1332.22 469.258
745 1 48.0529 9.6144 462 108.532 1333.32 490.682
746 0 48.1119 11.4109 549 101.745 1331.52 492.417
747 0 52.1057 12.3595 644 101.258 1330.66 490.602
748 0 51.0431 12.5384 640 102.397 1330.92 489.48
749 0 53.0245 11.5418 612 103.475 1331.8 488.098
750 0 55.0377 12.5005 688 100.496 1332.06 488.183
751 0 55.0284 10.7581 592 105.142 1332.24 488.765
752 0 56.0815 9.96763 559 106.476 1331.16 489.182
753 0 61.0618 12.8395 784 99.7474 1331.93 486.575
754 0 62.0641 12.1326 753 101.078 1331.67 487.329
755 0 65.1509 11.9876 781 102.9 1330.58 482.346
756 0 65.054 11.698 761 101.367 1331.42 483.603
757 0 68.0462 12.0506 820 99.8207 1331.66 482.457
758 0 70.1292 11.6072 814 100.29 1331.28 481.066
759 0 71.1782 11.5906 825 99.7891 1331.74 480.921
760 0 76.0564 12.4776 949 93.765 1331.57 476.092
761 0 79.1587 12.4812 988 95.6559 1332.13 475.393
762 0 82.099 12.2291 1004 96.3396 1331.98 474.921
763 1 41.0763 11.1013 456 96.818 1332.26 494.987
764 0 43.0316 10.6433 458 98.9454 1332.23 494.277
765 0 44.1069 11.6082 512 97.8008 1332.47 492.801
766 0 46.0484 11.3793 524 98.8187 1331.68 492.403
767 0 43.0179 11.4603 493 100.817 1331.94 491.333
768 0 47.126 10.7159 505 100.323 1331.61 492.19
769 0 49.037 11.7258 575 99.1061 1331.56 490.828
770 0 50.1283 11.5105 577 99.1092 1331.7 489.697
771 0 52.0382 11.6261 605 99.8992 1331.63 489.602
772 0 54.0805 12.1486 657 97.9589 1332.37 486.123
773 0 56.1066 13.3674 750 96 1331.87 487.331
774 0 56.0628 11.1125 623 99.671 1332.19 488.064
775 0 59.0355 11.3322 669 98.8729 1331.95 484.063
776 0 60.132 11.0756 666 99.8528 1331.89 483.368
777 0 63.0965 12.3462 779 97.43 1332.05 482.784
778 0 67.1199 13.7813 925 93.2584 1332.43 481.44
779 0 68.0783 12.706 865 96.2717 1332.84 480.01
780 0 73.1114 12.6109 922 95.9599 1332.57 479.469
781 0 74.0613 12.4626 923 97.428 1333.01 478.862
782 0 75.0332 12.9543 972 97.6656 1332.46 477.613
783 0 77.0865 12.0644 930 100.288 1332.37 474.696
784 0 79.0222 12.5661 993 100.515 1332.66 473.059
785 0 80.0258 11.7587 941 124.33 1333.62 473.845
786 0 88.1126 13.8005 1216 98.8454 1332.25 472.283
787 0 88.2039 12.7092 1121 103.022 1331.06 470.583
788 1 48.1128 10.9326 526 104.608 1331.1 490.85
789 0 49.0647 11.3524 557 102.232 1332.7 490.702
790 0 52.0157 12.5539 653 100.576 1331.91 489.593
791 0 53.0702 12.5117 664 101.729 1331.81 488.783
792 0 53.0441 13.2908 705 99.427 1330.98 488.22
793 0 55.0556 12.8234 706 100.22 1331.33 486.948
794 0 57.0854 12.0871 690 101.614 1331.23 486.648
795 0 61.0646 12.4786 762 99.5407 1331.79 485.982
796 0 60.1412 13.3187 801 100.032 1331.35 483.753
797 0 62.0609 13.1484 816 100.297 1331.33 481.527
798 0 64.0462 12.9438 829 100.715 1331.49 481.719
799 0 68.0708 14.2058 967 98.3795 1331.39 480.397
800 0 68.0484 14.1076 960 100.009 1331.66 480.191
801 0 70.0534 13.1614 922 102.575 1331.7 478.368
802 0 73.0665 13.344 975 102.865 1331.3 478.303
803 0 74.0801 12.9185 957 104.978 1330.91 476.404
804 0 77.0631 12.9634 999 105.087 1331.89 475.046
805 0 78.1008 13.649 1066 104.091 1331.64 472.996
806 0 82.2135 13.7933 1134 105.19 1331.42 472.264
807 0 84.0895 12.1894 1025 110.436 1331.37 471.23
808 0 86.1236 12.8536 1107 109.13 1330.74 471.653
809 0 89.1071 12.5018 1114 111.509 1331.42 468.199
810 0 92.0666 12.9797 1195 108.965 1330.95 469.557
811 0 94.0575 12.5243 1178 111.103 1332.13 465.965
812 0 98.0731 12.9393 1269 110.733 1331.45 464.777
813 1 51.076 10.9641 560 106.011 1330.96 489.464
814 0 53.0164 11.5247 611 107.786 1330.71 487.884
815 0 56.0708 12.4842 700 102.989 1330.8 487.554
816 0 58.0528 12.0408 699 103.492 1331.5 485.538
817 0 60.0683 12.9353 777 102.512 1330.84 482.78
818 0 62.0468 12.6679 786 103.664 1331.55 482.66
819 0 65.057 13.3114 866 102.762 1331.43 482.299
820 0 68.0188 12.8641 875 103.777 1331.6 481.957
821 0 69.0717 13.3774 924 104.784 1331 479.977
822 0 72.053 12.9627 934 105.549 1332.25 479.771
823 0 75.0572 13.0034 976 105.989 1331.79 478.156
824 0 76.0731 12.5143 952 108.415 1331.41 476.812
825 0 81.0956 14.2424 1155 104.558 1331.72 475.043
826 0 84.1021 14.0425 1181 105.319 1331.87 474.6
827 0 86.0623 14.1409 1217 104.062 1331.57 475.029
828 0 86.0496 12.8066 1102 109.699 1331.89 470.842
829 0 91.113 11.9412 1088 110.312 1331.66 470.014
830 0 95.0648 13.0122 1237 106.272 1330.87 469.959
831 0 102.058 16.2163 1655 97.5813 1330.31 464.267
832 1 53.0937 12.4874 663 103.344 1331.22 487.822
833 0 56.1752 11.0191 619 106.745 1332.12 485.49
834 0 59.2444 12.7776 757 103.978 1331.9 483.921
835 0 60.1699 12.714 765 106.055 1331.36 485.448
836 0 60.0668 12.4528 748 106.652 1331.47 483.735
837 0 64.0625 13.5493 868 102.796 1331.22 482.457
838 0 66.1253 11.5689 765 108.583 1331.19 478.324
839 0 66.2088 12.0377 797 107.535 1331.02 480.408
840 0 68.1691 11.7355 800 106.932 1331.34 480.784
841 0 72.0942 12.0814 871 104.051 1331.02 477.23
842 0 74.0818 12.2027 904 103.975 1331.26 475.543
843 0 79.1481 12.9883 1028 100.158 1331.12 476.303
844 0 79.1004 12.0227 951 97.8749 1330.79 469.957
845 0 82.0533 11.6022 952 101.287 1331.62 471.189
846 0 85.2467 11.7541 1002 100.57 1331.09 470.767
847 0 88.1762 13.3256 1175 97.4519 1330.8 469.982
848 0 91.2004 12.2806 1120 99.4616 1331.23 466.828
849 0 96.1778 13.1735 1267 97.397 1330.47 465.354
850 0 99.1126 12.6725 1256 98.41 1331.92 463.332
851 1 53.2722 11.3192 603 92.1857 1332.23 484.216
852 0 53.1368 10.8964 579 92.2781 1331.76 485.511
853 0 57.0275 11.9241 680 89.5221 1331.97 486.581
854 0 58.0406 12.8358 745 87.8081 1332.15 484.672
855 0 60.1654 11.967 720 88.6292 1331.89 483.424
856 0 62.131 11.4275 710 89.1662 1332.64 482.938
857 0 65.1653 11.9235 777 87.7104 1332.73 481.333
858 0 66.0648 10.8227 715 90.0056 1332.57 482.081
859 0 68.1101 10.7767 734 89.8501 1332.08 480.653
860 0 70.0932 12.0982 848 88.1627 1332.02 479.71
861 0 72.0912 11.638 839 89.1728 1332.13 478.372
862 0 75.1087 12.6483 950 87.2179 1332.45 476.676
863 0 77.0594 12.0946 932 88.3326 1331.55 475.989
864 0 79.1646 11.1161 880 87.6625 1331.76 471.144
865 0 83.0908 10.6269 883 87.0747 1332.11 470.95
866 0 85.1179 11.5722 985 86.0964 1332.1 467.045
867 0 87.1129 10.825 943 86.7868 1332.08 463.178
868 0 92.1881 10.8257 998 87.3116 1331.05 465.043
869 0 94.0656 11.2687 1060 87.4302 1331.68 462.312
870 0 98.0698 11.2165 1100 88.7573 1330.99 454.866
871 0 100.076 9.65264 966 89.705 1331.07 461.137
872 0 105.157 11.6873 1229 88.4727 1331.85 457.258
873 0 110.118 12.4412 1370 94.5263 1332.13 457.563
874 0 112.253 12.0976 1358 90.7887 1331.46 455.03
875 1 60.056 10.9731 659 88.1153 1331.81 480.859
876 0 64.1861 13.1804 846 84.5709 1331.35 480.288
877 0 63.1524 9.54833 603 86.466 1331.26 477.338
878 0 67.1324 11.3805 764 84.2173 1331.47 480.606
879 0 69.1329 12.2518 847 83.0484 1331.34 480.105
880 0 71.057 11.54 820 85.0756 1331.4 476.391
881 0 74.1134 10.9562 812 85.6281 1331.64 478.489
882 0 76.1795 13.4682 1026 82.8314 1331.2 476.438
883 0 78.1432 11.5301 901 86.8635 1331.22 475.136
884 0 81.0728 11.1135 901 87.8047 1331.86 474.099
885 0 83.2485 11.1353 927 89.1025 1331.47 468.409
886 0 87.0718 12.2083 1063 87.937 1331.87 467.725
887 0 91.1376 12.0916 1102 88.2777 1331.14 467.114
888 0 93.0986 12.6103 1174 88.132 1331.18 466.409
889 0 96.1497 12.5533 1207 89.6587 1331.34 461.785
890 0 99.1342 12.3166 1221 91.0835 1330.73 462.101
891 0 103.195 11.735 1211 92.5648 1331.31 458.668
892 0 105.145 10.9278 1149 95.5074 1331.02 460.322
893 0 110.209 13.0026 1433 94.2491 1331.1 457.371
894 0 114.223 12.8958 1473 94.8187 1330.8 455.823
895 0 119.141 12.3467 1471 96.397 1331.44 452.764
896 0 122.398 12.0019 1469 97.8325 1331.43 449.415
897 0 126.468 12.7384 1611 97.4575 1331.06 445.047
898 1 69.1638 10.1354 701 93.7703 1331.6 474.397
899 0 71.2075 10.6309 757 91.2484 1331.82 479.959
900 0 74.1957 12.1436 901 91.4406 1331.38 476.827
901 0 78.2128 13.4249 1050 88.0657 1331.89 478.215
902 0 81.2046 13.6199 1106 89.1302 1331.95 473.882
903 0 82.2182 11.8465 974 92.9754 1332.03 475.23
904 0 86.1242 13.5386 1166 91.4237 1331.36 471.878
905 0 88.1471 12.4111 1094 94.2678 1331.63 472.3
906 0 91.097 12.0641 1099 96.3803 1331.77 470.166
907 0 94.3553 13.6823 1291 94.3106 1331.46 468.279
908 0 95.1774 12.7446 1213 98.6694 1331.42 466.231
909 0 100.087 13.0486 1306 97.8132 1331.87 465.94
910 0 101.136 12.6266 1277 101.933 1331.87 464.01
911 0 105.076 13.476 1416 100.706 1331.72 462.555
912 0 109.247 12.0186 1313 103.73 1331.64 462.38
913 0 112.206 12.2453 1374 103.726 1331.44 459.787
914 0 115.172 13.519 1557 100.972 1331.65 460.533
915 0 117.188 13.2948 1558 103.761 1331.19 454.846
916 0 121.376 13.0751 1587 105.04 1331.06 455.655
917 0 124.216 13.1706 1636 105.083 1331.3 452.495
918 0 127.475 12.6849 1617 107.118 1330.83 451.573
919 0 130.397 13.2978 1734 107.189 1331.02 445.895
920 0 136.583 13.6547 1865 105.796 1331.13 443.383
921 0 140.357 12.8173 1799 108.783 1331.06 442.24
922 0 142.296 12.5654 1788 110.266 1331.27 441.257
923 0 149.293 12.9611 1935 111.093 1331.3 438.043
924 0 152.359 12.8512 1958 113.29 1330.4 434.888
925 0 159.441 13.309 2122 110.018 1331.19 430.715
926 1 89.3175 10.0204 895 107.667 1330.65 466.746
927 0 94.4079 11.7257 1107 105.173 1330.48 464.785
928 0 96.1985 11.6114 1117 108.944 1330.69 462.241
929 0 101.445 12.6177 1280 106.397 1330.8 460.22
930 0 102.512 11.423 1171 109.353 1330.93 459.172
931 0 107.356 12.1465 1304 107.929 1330.9 457.791
932 0 109.456 11.0912 1214 111.601 1331.34 454.393
933 0 114.529 11.9097 1364 108.954 1330.75 454.28
934 0 117.445 11.5458 1356 109.743 1331.47 451.299
935 0 123.414 12.5674 1551 107.07 1331.28 450.102
936 0 125.337 11.5608 1449 110.767 1331.35 447.095
937 0 131.501 13.2167 1738 103.406 1330.52 445.852
938 1 74.2778 11.1204 826 98.3487 1330.46 475.794
939 0 76.4812 11.1138 850 101.588 1330.12 474.556
940 0 77.2643 10.4447 807 104.053 1330.2 472.656
941 0 82.283 11.8736 977 100.794 1330.19 469.346
942 0 84.4174 12.2013 1030 99.8602 1330.37 470.024
943 0 87.3822 11.7644 1028 101.352 1330.36 468.001
944 0 89.2484 11.4064 1018 102.395 1330.6 468.322
945 0 93.2821 12.4997 1166 100.249 1330.72 466.366
946 0 92.322 11.8282 1092 103.25 1330.26 463.289
947 0 94.4102 11.6301 1098 104.156 1331.02 462.716
948 0 99.2752 13.2762 1318 101.421 1330.56 463.047
949 0 103.33 13.3843 1383 102.498 1330.23 459.305
950 0 103.38 11.9559 1236 106.761 1330.42 460.431
951 0 109.327 12.769 1396 105.516 1330.74 456.52
952 0 111.348 11.7919 1313 108.922 1329.85 455.971
953 0 116.34 13.2542 1542 106.402 1329.94 452.402
954 0 121.313 14.2607 1730 104.301 1330.62 452.253
955 0 124.313 12.8225 1594 108.961 1331.01 449.982
956 1 60.1338 9.59526 577 105.539 1330.4 480.865
957 0 64.0927 12.1387 778 99.5758 1330.51 481.946
958 0 66.1391 11.5212 762 101.175 1331 480.608
959 0 67.0625 11.5564 775 101.574 1330.24 482.108
960 0 70.0825 12.3569 866 101.137 1330.11 480.372
961 0 70.0591 11.0906 777 103.55 1330.29 479.754
962 0 74.1631 12.486 926 101.08 1330.7 477.758
963 0 78.1084 13.9294 1088 98.898 1330.45 476.429
964 0 80.1583 12.3381 989 102.245 1331 475.335
965 0 81.1244 11.92 967 103.59 1330.43 472.937
966 0 84.1201 11.4955 967 104.012 1330.7 473.027
967 0 88.1577 11.2979 996 103.877 1330.81 471.398
968 0 92.1423 11.797 1087 103.191 1330.82 469.956
969 0 93.1021 11.6753 1087 103.661 1330.14 466.965
970 0 96.3367 12.3006 1185 102.508 1330.84 464.046
971 1 53.193 11.1669 594 98.3586 1329.87 485.705
972 0 54.1273 12.2119 661 95.9773 1330.4 488.8
973 0 57.0679 12.4238 709 95.8025 1331.11 484.712
974 0 58.2383 11.6933 681 95.0573 1332.53 482.671
975 0 59.1194 12.1449 718 94.4819 1331.98 485.365
976 0 64.1454 13.1264 842 92.38 1332.14 483.722
977 0 63.2623 11.7447 743 95.9139 1332.93 481.148
978 0 66.1539 11.7302 776 97.7964 1331.88 482.006
979 0 66.303 11.8245 784 98.0778 1332 481.057
980 0 70.1379 13.1313 921 96.5147 1331.72 480.468
981 0 71.137 12.4548 886 99.2393 1331.84 479.714
982 0 73.0832 11.6032 848 103.245 1331.93 479.403
983 0 76.2599 12.5623 958 102.539 1331.94 478.243
984 0 78.2048 11.5722 905 105.376 1332.48 474.801
985 0 81.3475 11.9364 971 104.24 1331.66 474.086
986 0 83.262 10.6771 889 107.469 1332.41 470.549
987 1 44.2183 11.1492 493 99.4158 1332.93 492.223
988 0 44.2028 11.4699 507 102.233 1332.68 493.684
989 0 47.2759 11.5704 547 108.843 1332.57 491.799
990 0 49.1254 12.3969 609 111.136 1332.17 489.261
991 0 48.2256 12.0061 579 114.965 1331.76 486.098
992 0 51.1238 13.6727 699 108.791 1331.47 488
993 0 53.1432 11.1397 592 103.91 1332.48 491.284
994 0 53.0704 13.1524 698 102.751 1331.59 488.759
995 0 55.0962 11.8701 654 105.047 1331.74 488.543
996 0 55.1438 12.0413 664 104.986 1332.05 487.822
997 0 59.0576 12.4455 735 103.031 1332.38 487.382
998 0 59.0715 12.0193 710 104.703 1331.46 486.51
999 0 62.1054 12.3661 768 103.421 1331.91 485.427
1000 0 64.0601 12.66 811 102.6 1332.15 482.673
1001 0 66.0317 12.9332 854 102.655 1331.43 481.611
1002 0 70.0824 13.0275 913 101.77 1331.02 481.013
1003 0 71.0664 12.3687 879 104.025 1332.41 479.71
1004 0 72.097 12.6635 913 103.968 1331.97 478.312
1005 1 38.0876 11.5261 439 102.79 1332.1 495.41
1006 0 39.1446 11.6236 455 104.33 1331.62 494.308
1007 0 39.0535 11.5227 450 105.669 1331.93 494.882
1008 0 44.2909 13.163 583 101.34 1331.11 493.039
1009 0 43.1133 12.27 529 105.223 1331.98 492.975
1010 0 45.0822 13.2425 597 103.432 1331.75 492.347
1011 0 45.0151 12.4625 561 108.421 1330.91 493.055
1012 0 47.0642 13.5559 638 108.545 1331.13 491.35
1013 0 50.0757 13.2799 665 112.056 1330.93 490.376
1014 0 51.1173 14.1831 725 110.76 1329.72 489.069
1015 0 52.05 14.1595 737 112.844 1330.7 486.978
1016 0 54.0306 14.2882 772 112.36 1330.54 485.579
1017 0 55.2122 13.7107 757 112.543 1330.66 487.141
1018 0 59.1621 14.3166 847 109.858 1331.39 484.766
1019 0 59.1227 14.5291 859 110.611 1331.42 483.065
1020 0 63.171 15.4343 975 107.086 1330.96 481.676
1021 0 64.2351 15.381 988 107.491 1330.69 482.442
1022 0 63.1362 13.067 825 114.899 1330.92 480.292
1023 0 67.1744 13.7404 923 113.178 1330.88 479.061
1024 0 70.185 13.9916 982 112.76 1331.12 478.519
1025 0 73.3104 14.7319 1080 109.853 1331.85 477.82
1026 0 76.3165 15.0426 1148 110.595 1330.54 475.586
1027 0 77.1558 14.2309 1098 113.445 1331.22 474.977
1028 0 81.2073 14.0628 1142 113.756 1330.24 475.112
1029 0 83.4582 14.6061 1219 113.007 1330.72 471.063
1030 0 86.1883 15.1761 1308 111.549 1330.88 471.337
1031 0 89.1964 14.967 1335 113.216 1331.25 470.184
1032 1 47.0615 12.6643 596 113.631 1331.58 489.916
1033 0 46.1619 13.6476 630 115.354 1331.25 487.484
1034 0 49.1175 13.7426 675 113.197 1331.26 488.683
1035 0 49.1933 12.6846 624 116.814 1331.02 487.901
1036 0 53.0558 13.0429 692 114.598 1330.76 487.107
1037 0 52.1676 13.3991 699 115.536 1331.62 484.76
1038 0 56.1188 14.1664 795 111.955 1331.77 484.179
1039 0 57.0814 13.5596 774 115.076 1331.09 483.05
1040 0 61.075 13.0823 799 114.173 1330.99 482.544
1041 0 63.1686 15.3399 969 108.755 1331.77 481.392
1042 0 65.1849 15.2643 995 110.068 1330.2 479.634
1043 0 66.1482 14.2559 943 112.699 1331.33 478.15
1044 0 69.125 14.8571 1027 110.365 1331.29 478.208
1045 0 70.1261 14.2886 1002 112.813 1331.38 475.205
1046 0 73.3182 14.8667 1090 111.105 1330.98 474.768
1047 0 75.1678 15.0064 1128 111.288 1331.07 472.687
1048 0 80.1488 15.6459 1254 108.223 1330.93 472.404
1049 0 81.2797 14.3086 1163 113.312 1330.7 469.719
1050 0 85.1426 13.8121 1176 113.567 1331.47 469.195
1051 0 84.1109 13.2801 1117 116.363 1331.03 467.501
1052 0 90.2058 13.8905 1253 114.283 1330.3 466.689
1053 0 93.1136 13.4459 1252 115.047 1330.71 466.327
1054 0 96.1173 13.3171 1280 115.347 1330.83 464.034
1055 1 51.0567 12.966 662 108.902 1331.11 487.432
1056 0 53.104 12.5603 667 109.642 1330.85 486.243
1057 0 54.0625 11.5052 622 106.887 1331.5 482.174
1058 0 55.0974 11.9606 659 107.086 1331.95 482.273
1059 0 58.0381 12.3023 714 107.412 1331.83 485.29
1060 0 58.1432 13.3464 776 106.095 1331.57 484.265
1061 0 63.128 12.641 798 108.041 1331.24 481.343
1062 0 64.2036 12.8498 825 106.905 1331.05 482.388
1063 0 65.1337 13.2036 860 108.944 1331.27 479.817
1064 0 69.2647 13.7444 952 106.697 1331.64 478.575
1065 0 73.2502 14.4163 1056 106.265 1331.56 475.856
1066 0 75.1885 13.792 1037 111.34 1332.13 475.756
1067 0 79.2238 13.5944 1077 113.426 1331.92 473.208
1068 0 82.2034 14.1478 1163 110.598 1331.75 470.298
1069 0 83.2855 14.2402 1186 114.932 1331.91 469.948
1070 0 86.0946 13.9962 1205 116.524 1331.38 467.673
1071 0 87.1181 13.8203 1204 118.931 1331.51 466.275
1072 1 44.1457 11.2129 495 113.982 1331.55 491.057
1073 0 46.3056 12.2879 569 110.566 1331.24 489.935
1074 0 48.2055 11.3265 546 113.407 1331.26 489.881
1075 0 50.0985 11.5772 580 115.129 1330.8 490.312
1076 0 52.0376 11.8953 619 108.113 1331.28 490.548
1077 0 54.0144 11.9227 644 110.539 1330.74 489.898
1078 0 55.0417 12.645 696 111.861 1331.4 486.704
1079 0 58.0442 13.0246 756 110.951 1331.71 486.882
1080 0 58.0265 12.0118 697 114.713 1331.08 487.621
1081 0 59.0373 11.4334 675 116.514 1332.01 485.505
1082 0 62.234 12.5173 779 114.236 1331.77 482.411
1083 0 65.1763 12.5046 815 114.669 1331.28 481.214
1084 0 67.0916 11.7451 788 116.881 1331.11 478.916
1085 0 70.3973 11.8186 832 115.136 1331.63 479.761
1086 0 70.224 12.8019 899 113.617 1331.48 480.188
1087 0 74.3164 13.5502 1007 113.215 1331.18 475.855
1088 0 76.1978 12.6513 964 116.008 1331.7 474.996
1089 0 80.2429 14.3938 1155 111.283 1331.34 474.293
1090 0 82.2387 12.6096 1037 116.561 1332.07 471.382
1091 0 83.3309 13.6204 1135 115.624 1331.9 469.448
1092 0 88.3409 13.2328 1169 115.99 1332.06 467.922
1093 0 88.3409 13.2102 1167 156.836 1331.06 467.985
1094 0 93.3673 13.3559 1247 116.442 1330.58 465.998
1095 0 98.2279 13.9064 1366 114.51 1329.96 463.048
1096 0 100.296 14.0284 1407 113.841 1331.2 460.826
1097 1 49.3575 11.6294 574 110.502 1331.61 486.274
1098 0 51.2269 12.2982 630 109.421 1331.35 485.789
1099 0 54.0861 12.2582 663 109.501 1332.2 488.339
1100 0 54.2434 12.149 659 111.07 1332.08 486.156
1101 0 55.2015 11.5939 640 113.439 1332.02 482.614
1102 0 58.1137 12.9402 752 109.767 1331.77 481.533
1103 0 61.2735 12.7951 784 109.284 1331.75 481.741
1104 0 64.2888 13.5638 872 106.525 1331.56 481.01
1105 0 64.2877 12.7863 822 108.794 1331.88 480.895
1106 0 64.3893 12.5021 805 110.712 1331.81 477.657
1107 0 70.3141 14.4068 1013 103.979 1332.66 476.696
1108 0 72.2499 13.135 949 107.804 1331.61 474.947
1109 0 75.287 13.3091 1002 106.617 1331.94 474.547
1110 0 77.3364 12.7107 983 107.596 1331.53 474.373
1111 0 81.3082 13.1106 1066 106.921 1331.29 471.289
1112 0 83.3499 13.4133 1118 106.326 1331.86 469.719
1113 0 86.1847 12.8677 1109 108.133 1331.81 467.136
1114 0 89.3365 12.2011 1090 109.352 1331.84 467.24
1115 1 49.3589 11.9938 592 100.507 1332.47 488.333
1116 0 49.3589 11.8925 587 132.257 1332.47 488.211
1117 0 50.3123 11.0112 554 105.309 1330.95 489.023
1118 0 51.3483 11.3344 582 105.366 1331.12 488.11
1119 0 53.0699 11.8146 627 104.943 1332.03 485.38
1120 0 55.219 11.4272 631 104.857 1331.32 485.678
1121 0 58.257 12.2904 716 103.561 1331.9 484.405
1122 0 60.3919 12.7832 772 102.332 1331.68 483.737
1123 0 60.2549 11.8662 715 105.124 1330.96 483
1124 0 62.3769 10.9816 685 106.072 1331.47 483.936
1125 0 66.272 12.3431 818 104.182 1332.12 478.463
1126 0 68.193 11.0862 756 105.437 1332.53 480.37
1127 0 69.2502 11.4801 795 105.166 1331.87 480.13
1128 0 72.2835 10.8185 782 106.258 1331.35 478.939
1129 0 74.3471 10.7603 800 106.672 1331.45 477.174
1130 0 78.2225 10.9687 858 105.737 1331.58 476.261
1131 0 79.3118 11.4863 911 106.387 1331.09 473.318
1132 0 84.1805 11.9505 1006 104.311 1330.77 473.258
1133 0 87.1975 12.1334 1058 103.694 1331.2 471.401
1134 0 91.285 11.1409 1017 106.397 1330.48 468.503
1135 1 46.1515 10.8989 503 99.5606 1331.14 492.511
1136 0 47.2136 10.1242 478 106.695 1330.32 488.964
1137 0 48.1318 11.884 572 100.435 1330.72 484.115
1138 0 50.0367 11.0519 553 99.6763 1330.9 487.929
1139 0 52.0424 10.5683 550 100.745 1330.38 486.955
1140 0 54.1168 10.8654 588 100.633 1330.6 486.451
1141 0 54.081 9.74464 527 103.879 1330.75 486.607
1142 0 58.0935 11.9979 697 99.0158 1331.38 484.703
1143 0 61.3551 11.2786 692 99.8685 1330.84 481.733
1144 0 63.3819 12.827 813 97.7392 1331.15 476.504
1145 0 65.4212 11.8769 777 99.2754 1330.76 475.909
1146 0 68.2097 12.6228 861 96.446 1330.42 478.055
1147 0 70.3986 11.1934 788 99.9911 1330.74 473.89
1148 0 75.2881 12.8307 966 96.2236 1330.43 474.487
1149 0 76.4337 11.8142 903 99.0786 1330.31 473.311
1150 0 81.2623 12.6258 1026 97.5058 1329.73 471.049
1151 0 82.3534 11.3292 933 101.451 1330.18 469.305
1152 1 46.2666 11.5418 534 91.4401 1330.52 489.588
1153 0 46.0607 11.7236 540 93.0333 1330.49 489.293
1154 0 47.0583 10.8164 509 95.0806 1329.85 490.228
1155 0 48.0733 11.8153 568 95.0141 1329.88 488.826
1156 0 49.1444 11.0287 542 96.7325 1330.28 490.293
1157 0 50.0722 12.3622 619 97.1276 1329.86 488.889
1158 0 53.2707 11.9766 638 95.8198 1329.84 488.892
1159 0 55.2408 11.5856 640 99.5391 1330.59 482.105
1160 0 55.2601 12.0159 664 99.6099 1331.27 482.185
1161 0 59.2125 12.2272 724 99.5967 1330.18 481.684
1162 0 60.3535 12.5096 755 99.9219 1330.22 481.507
1163 0 59.2682 11.1021 658 104.391 1330.35 479.845
1164 0 62.33 11.0059 686 105.171 1329.84 477.641
1165 0 63.3322 11.7634 745 103.203 1330.82 477.734
1166 0 67.4311 12.7093 857 101.266 1330.79 476.546
1167 0 70.2213 12.3894 870 100.808 1330.69 477.393
1168 0 71.3236 12.4223 886 102.835 1330.85 473.226
1169 0 74.3668 12.5997 937 101.996 1330.57 473.64
1170 0 75.3801 11.515 868 105.119 1330.42 473.982
1171 0 79.3272 12.6186 1001 102.347 1331.1 471.805
1172 0 81.3762 13.7755 1121 101.096 1330.66 469.219
1173 0 83.2911 13.783 1148 102.129 1330.57 467.989
1174 0 85.3007 11.7936 1006 106.705 1330.55 467.895
1175 0 89.339 12.6596 1131 104.246 1330.09 467.222
1176 0 90.3736 11.718 1059 108.069 1329.34 466.616
1177 0 91.3021 11.8617 1083 107.81 1330.54 464.386
1178 0 93.2426 11.0572 1031 111.17 1330.22 461.049
1179 1 47.1263 11.3949 537 98.6574 1330.04 486.596
1180 0 47.0321 11.6729 549 100.319 1329.65 488.978
1181 0 50.069 10.865 544 100.528 1330.46 487.717
1182 0 52.0179 13.4185 698 98.3668 1330.24 484.189
1183 0 53.1453 11.3086 601 100.982 1330.08 485.905
1184 0 55.3834 10.9238 605 100.683 1330.79 482.532
1185 0 59.1655 12.1355 718 98.6421 1330.74 480.173
1186 0 57.2733 12.0824 692 100.962 1330.69 477.847
1187 0 61.4332 11.8014 725 100.239 1330.5 478.578
1188 0 62.2642 11.3388 706 102.013 1330.71 477.11
1189 0 64.3681 12.5217 806 100.23 1330.79 475.352
1190 0 65.3678 12.4067 811 139.493 1330.8 475.385
1191 0 68.2151 11.9475 815 103.066 1330.58 474.636
1192 0 68.2727 13.241 904 102.566 1331.13 471.931
1193 0 71.2804 13.6503 973 101.51 1331.34 469.862
1194 0 74.3027 12.4895 928 103.609 1331.81 473.109
1195 0 80.2987 13.9106 1117 100.877 1331.2 468.567
1196 0 81.3197 13.9696 1136 102.768 1330.7 468.629
1197 0 84.1791 13.6138 1146 104.834 1330.61 465.758
1198 0 84.1658 12.915 1087 107.806 1330.43 465.889
1199 0 86.248 13.0902 1129 108.273 1330.77 464.115
1200 0 89.3095 13.9739 1248 107.643 1330.48 463.643
1201 0 93.1486 12.9793 1209 109.079 1330.77 464.427
1202 0 98.2892 15.2509 1499 105.272 1330.65 462.628
1203 0 101.23 13.3854 1355 110.35 1330.06 461.878
1204 1 52.0693 11.5807 603 102.323 1328.83 483.96
1205 0 52.0476 11.2974 588 103.531 1329.24 483.289
1206 0 54.0212 12.273 663 105.069 1330.52 484.345
1207 0 54.0107 10.9423 591 103.125 1329.54 486.425
1208 0 55.0391 11.2829 621 101.903 1329.72 484.261
1209 0 58.0929 11.7742 684 100.3 1329.23 485.294
1210 0 58.0477 11.5595 671 103.714 1328.92 483.994
1211 0 60.0967 11.6812 702 102.443 1329.09 482.913
1212 0 63.0555 12.0846 762 100.188 1329.46 482.168
1213 0 64.1708 11.2512 722 103.652 1329.58 480.943
1214 0 68.1161 11.4217 778 105.264 1329.34 479.882
1215 0 69.0323 13.7182 947 103.259 1329.32 479.005
1216 0 71.1333 11.7385 835 106.491 1328.77 477.95
1217 0 74.0986 12.2944 911 103.991 1329.74 475.873
1218 0 77.0706 13.3125 1026 101.965 1329.36 473.584
1219 0 79.1546 13.0504 1033 102.441 1329.83 471.386
1220 0 84.0708 13.2507 1114 99.7316 1329.32 468.213
1221 0 84.0383 11.8636 997 100.776 1329.67 467.385
1222 1 43.0698 9.40335 405 93.5728 1329.67 486.807
1223 0 43.0698 9.49622 409 125.054 1329.64 486.866
1224 0 46.1208 9.47512 437 99.46 1329.87 490.327
1225 0 49.073 10.9836 539 95.1874 1329.45 490.317
1226 0 51.0441 9.54077 487 97.3265 1329.87 488.22
1227 0 53.0969 11.2059 595 94.3513 1329.53 486.403
1228 0 53.1506 8.56058 455 95.6022 1329.95 488.437
1229 0 55.084 9.9666 549 95.6922 1329.69 484.464
1230 0 57.0736 10.8106 617 94.1475 1330.47 482.664
1231 0 60.0492 9.85859 592 93.1588 1330.44 483.671
1232 0 64.1426 11.568 742 89.7574 1329.42 480.755
1233 0 61.1482 11.8074 722 94.2701 1328.84 479.963
1234 0 64.1724 12.6534 812 91.7475 1330 481.57
1235 0 62.1356 11.1208 691 97.6382 1329.43 479.718
1236 0 65.1804 12.0128 783 93.9617 1328.96 479.93
1237 1 34.133 9.84385 336 93.3929 1328.74 498.271
1238 0 33.2329 10.2609 341 91.6305 1331.63 494.686
1239 0 33.0275 10.6578 352 91.0881 1332.05 494.926
1240 0 35.0321 10.1621 356 92.5506 1329.14 497.393
1241 0 34.0211 8.78867 299 96.5385 1329.75 496.418
1242 0 37.0416 10.2857 381 92.6299 1330.49 495.937
1243 0 35.0183 8.96675 314 96.9936 1330.16 495.557
1244 0 38.0308 7.5728 288 96.7361 1330.02 495.951
1245 0 39.0149 8.48394 331 95.2115 1330.44 495.502
1246 0 39.0381 9.50353 371 93.7547 1330.24 494.935
1247 0 43.0495 10.848 467 92.2741 1330.17 492.236
1248 0 44.0982 10.8848 480 91.5667 1330.32 491.392
1249 0 44.066 9.89425 436 93.3234 1330.37 490.507
1250 0 45.0102 9.93107 447 93.5794 1329.88 489.608
1251 0 46.0608 9.29206 428 95.1869 1329.81 488.72
1252 0 49.0655 9.68094 475 93.1579 1330.11 490.145
1253 0 49.2485 11.4318 563 91.6909 1330.71 486.7
1254 0 51.104 10.4884 536 92.7724 1331.27 487.396
1255 0 51.1284 10.3074 527 94.0266 1331.26 486.503
1256 0 52.0667 9.14212 476 95.374 1330.69 486.248
1257 0 54.1609 9.84105 533 94.5891 1330.01 483.818
1258 0 57.1707 11.212 641 94.1201 1330.3 483.378
1259 0 61.1244 13.1535 804 88.1119 1330.22 484.964
1260 0 62.1257 11.5089 715 92.021 1330.2 480.993
1261 1 33.0099 9.78493 323 96.1393 1330.41 496.557
1262 0 35.0179 10.4804 367 94.4932 1330.64 495.294
1263 0 34.0169 10.6712 363 95.8264 1331.26 494.744
1264 0 37.012 12.3203 456 93.6316 1330.89 493.678
1265 0 39.0165 12.4306 485 95.4268 1330.98 492.948
1266 0 39.0283 13.0418 509 95.0923 1330.61 492.766
1267 0 39.0245 11.9668 467 101.086 1330.75 493.893
1268 0 39.0273 14.8101 578 96.3702 1331.04 493.244
1269 0 39.0464 12.6772 495 103.731 1330.82 493.325
1270 0 42.036 13.203 555 101.627 1330.84 494.209
1271 0 43.0949 12.4609 537 105.663 1331.06 492.315
1272 0 44.0404 13.6693 602 104.364 1331.22 492.646
1273 0 44.0751 13.3862 590 108.736 1331.31 491.875
1274 0 47.0394 13.0316 613 105.891 1331.87 491.268
1275 0 47.0663 12.7267 599 106.653 1331.6 491.239
1276 0 48.0248 12.5768 604 108.313 1331.55 488.545
1277 0 47.0874 12.5724 592 110.946 1329.9 488.059
1278 0 47.0874 12.5724 592 148.436 1328.91 488.019
1279 0 52.0535 13.2748 691 108.819 1330.23 487.502
1280 0 54.0437 13.1005 708 109.136 1330.57 487.024
1281 0 54.148 14.7374 798 106.345 1330.46 484.599
1282 0 58.1695 13.4263 781 109.11 1330.95 483.366
1283 0 59.1301 13.5802 803 108.701 1331.68 484.082
1284 0 60.1354 13.7357 826 109.639 1331.66 482.78
1285 0 63.0334 14.5478 917 108.007 1330.88 481.592
1286 0 65.1126 12.9622 844 111.725 1330.83 480.847
1287 0 67.055 15.3754 1031 106.841 1330.3 478.513
1288 0 70.0627 14.173 993 108.661 1330.84 479.328
1289 0 72.1209 14.1152 1018 109.825 1330.35 477.082
1290 0 74.2429 15.4897 1150 107.963 1331.12 475.726
1291 0 73.0976 15.9786 1168 110.93 1330.74 476.185
1292 0 76.1278 14.1998 1081 115.664 1330.09 476.126
1293 0 81.0821 14.6641 1189 112.494 1331.12 475.049
1294 1 42.0444 11.6781 491 112.405 1330.4 493.497
1295 0 41.0114 10.7287 440 103.752 1331.29 489.577
1296 0 41.0172 10.1909 418 105.888 1330.65 489.022
1297 0 43.0499 11.4286 492 100.264 1330.14 488.579
1298 0 44.0621 12.1193 534 100.33 1329.25 488.148
1299 0 47.0305 10.6101 499 101.373 1329.73 488.148
1300 0 49.0423 10.9905 539 100.915 1329.46 489.972
1301 0 49.0489 12.4366 610 104.649 1331.12 488.226
1302 0 51.1784 12.5248 641 102.802 1331.28 488.945
1303 0 54.0567 12.4314 672 103.124 1330.89 488.082
1304 0 56.0579 11.9876 672 103.961 1331.07 486.637
1305 0 57.099 11.6114 663 104.811 1331.58 485.158
1306 0 59.0483 12.2612 724 104.438 1331.09 483.767
1307 0 60.0915 13.0301 783 102.99 1330.66 482.553
1308 0 62.2008 12.8937 802 103.004 1330.6 480.276
1309 0 67.0527 14.0188 940 99.1596 1330.48 482.054
1310 0 68.0542 12.299 837 104.361 1330.04 481.811
1311 0 68.0889 12.748 868 104.16 1330.78 478.31
1312 0 70.0256 12.4098 869 104.323 1330.37 478.503
1313 0 71.1082 12.2771 873 104.574 1330.94 476.608
1314 0 74.0702 11.6511 863 105.28 1330.65 475.88
1315 0 79.1247 12.2718 971 102.915 1330.72 474.735
1316 0 80.0889 12.0616 966 104.081 1331.14 473.973
1317 0 84.1834 12.2589 1032 101.831 1330.83 475.379
1318 0 86.1297 12.4812 1075 102.493 1330.36 472.818
1319 0 89.1316 12.5208 1116 103.487 1329.74 468.664
1320 1 48.129 10.2433 493 102.856 1330.74 491.643
1321 0 48.0609 11.8808 571 104.56 1330.04 487.595
1322 0 53.1433 12.7015 675 109.167 1329.01 487
1323 0 55.1232 13.7329 757 106.865 1330.3 485.408
1324 0 56.2401 12.5711 707 111.559 1330.06 483.856
1325 0 57.0767 12.4394 710 112.093 1329.91 485.082
1326 0 61.2034 12.2052 747 110.983 1330.3 485.169
1327 0 63.1025 12.1231 765 112.855 1329.33 483.544
1328 0 64.0966 13.1988 846 111.197 1329.52 481.031
1329 0 65.1677 12.8898 840 111.926 1329.94 479.74
1330 0 68.089 13.8202 941 110.442 1330.34 477.333
1331 0 73.1616 13.6684 1000 109.451 1329.91 478.6
1332 0 74.1001 11.5789 858 113.181 1330.7 478.804
1333 0 75.1157 12.2078 917 114.76 1329.61 476.662
1334 0 80.0984 12.3099 986 114.003 1330.02 474.817
1335 0 81.1509 11.2876 916 116.627 1329.38 472.308
1336 0 86.0938 12.9626 1116 112.002 1329.25 470.073
1337 0 88.116 12.5176 1103 113.724 1329.84 468.892
1338 1 46.0264 10.5374 485 108.633 1330.46 490.664
1339 0 48.0528 12.1533 584 103.825 1329.71 490.228
1340 0 50.0824 12.14 608 102.847 1330.12 489.084
1341 0 52.0565 13.0243 678 100.181 1330.02 488.804
1342 0 52.0294 12.5122 651 102.495 1330.27 488.02
1343 0 54.0364 13.1948 713 101.339 1330.35 487.264
1344 0 55.0847 11.9816 660 106.253 1329.24 485.932
1345 0 58.1127 13.1125 762 105.072 1330.28 485.887
1346 0 58.0747 10.9514 636 110.3 1330.51 485.209
1347 0 60.131 12.4062 746 105.826 1330.14 484.57
1348 0 64.092 12.3416 791 104.298 1330.59 482.415
1349 0 67.1239 13.7656 924 100.527 1329.47 482.219
1350 0 67.1001 11.684 784 105.536 1329.43 481.315
1351 0 72.1608 12.9849 937 101.846 1329.74 480.034
1352 0 73.1263 12.2665 897 104.009 1329.33 478.445
1353 0 77.0864 13.0892 1009 102.229 1329.17 475.492
1354 0 80.1407 13.5636 1087 99.6569 1330.26 476.775
1355 0 83.082 12.3974 1030 102.403 1329.61 474.114
1356 0 83.2274 12.2316 1018 103.781 1329.24 470.693
1357 0 88.1893 11.8835 1048 103.257 1329.76 472.124
1358 0 90.2448 12.9093 1165 101.877 1330.29 470.385
1359 1 49.208 10.6284 523 100.771 1329.05 489.572
1360 0 48.2085 11.4918 554 90.9061 1329.09 484.106
1361 0 48.1857 10.5426 508 91.2323 1329.53 483.362
1362 0 51.0633 10.7514 549 87.428 1328.88 485.781
1363 0 53.098 10.1322 538 88.632 1329.13 485.212
1364 0 50.086 9.82311 492 90.8638 1329.4 484.752
1365 0 54.0921 10.1494 549 89.5282 1329.43 483.526
1366 0 56.1036 10.2846 577 90.6135 1329.55 481.773
1367 0 60.0694 11.7531 706 93.4618 1330.59 486.164
1368 0 59.0442 11.2628 665 95.8617 1330.67 485.368
1369 0 63.15 12.3991 783 93.59 1330.21 483.266
1370 0 65.0943 13.4574 876 90.8596 1330.78 483.485
1371 0 67.1377 12.4967 839 94.0083 1330.8 480.503
1372 0 70.0978 12.4398 872 93.344 1330.38 480.169
1373 0 69.1681 11.7684 814 96.0307 1330.9 479.663
1374 0 73.0871 12.8887 942 93.2951 1330.62 477.761
1375 0 77.1126 13.9925 1079 90.9101 1330.29 477.195
1376 0 79.1775 12.3646 979 93.8805 1330.4 474.242
1377 0 85.1253 13.5565 1154 90.0485 1330.92 474.915
1378 1 44.1772 11.4086 504 95.2242 1330.67 493.415
1379 0 46.0579 11.7895 543 94.8287 1330.6 493.234
1380 0 47.0509 12.9859 611 92.8167 1330.76 489.391
1381 0 49.0413 13.3561 655 92.7114 1330.38 488.467
1382 0 50.0813 13.2584 664 91.8901 1331.48 487.422
1383 0 50.092 12.8763 645 92.8124 1330.78 487.682
1384 0 53.1031 13.1066 696 91.8405 1330.57 485.876
1385 0 52.1158 11.9733 624 95.25 1331.49 487.098
1386 0 57.1176 11.275 644 142.082 1332.48 486.203
1387 0 55.1141 12.0477 664 95.0241 1330.82 483.998
1388 0 59.1342 13.4778 797 90.5797 1332.32 483.833
1389 0 61.0727 13.0336 796 92.3593 1331.78 482.412
1390 0 63.2313 13.1106 829 91.1834 1331.78 483.65
1391 0 64.1066 13.6179 873 91.315 1330.83 480.357
1392 0 67.0648 15.7758 1058 86.5879 1331.1 480.182
1393 0 67.1042 12.9202 867 93.2676 1331.12 478.988
1394 0 71.0904 13.9681 993 91.0232 1331.01 477.585
1395 0 74.1705 14.1296 1048 90.7023 1330.67 477.564
1396 0 77.2429 13.8912 1073 90.2013 1330.89 476.832
1397 0 79.0627 13.4956 1067 92.1256 1330.5 471.073
1398 1 41.031 10.7967 443 94.2483 1331.23 491.772
1399 0 40.0596 9.93518 398 92.9447 1330.26 489.822
1400 0 40.0258 10.5182 421 93.6722 1330.03 487.181
1401 0 42.1472 12.0767 509 91.7014 1329 486.495
1402 0 44.1344 9.44841 417 85.7506 1330.31 487.101
1403 0 45.0536 10.9203 492 84.4675 1330.19 485.829
1404 0 47.1079 11.2295 529 84.8998 1329.25 484.055
1405 0 47.0343 11.7786 554 84.7256 1328.63 484.112
1406 0 49.0259 11.4225 560 85.1821 1329.27 484.212
1407 0 51.0592 11.379 581 86.0723 1328.49 482.155
1408 0 53.0254 11.1267 590 86.3763 1329.1 480.21
1409 0 53.1033 9.75458 518 88.9981 1329.06 480.029
1410 0 56.0558 10.7393 602 88.0947 1328.72 479.864
1411 0 58.2532 10.4544 609 87.6535 1329.64 480.361
1412 0 59.0895 11.4572 677 86.9025 1329.17 479.383
1413 0 62.0302 11.7523 729 87.085 1328.86 477.217
1414 0 62.0945 10.5001 652 89.4218 1329.21 475.359
1415 0 65.0416 11.1775 727 88.4443 1329.24 472.243
1416 0 68.0755 12.9856 884 85.2794 1329.25 471.456
1417 0 72.1863 12.066 871 87.1848 1329.43 470.757
1418 0 72.0993 11.6506 840 88.2762 1329.34 470.939
1419 0 75.1061 12.3958 931 88.1439 1328.84 467.348
1420 0 79.1431 12.8122 1014 87.2229 1328.91 468.547
1421 0 80.0484 11.7179 938 91.3529 1328.88 463.969
1422 0 82.1139 12.1295 996 90.7671 1329.57 466.214
1423 0 84.1514 11.4674 965 92.8922 1329.69 460.883
1424 0 89.0592 12.239 1090 92.1661 1329.11 461.578
1425 0 92.1918 11.129 1026 96.463 1330.15 460.286
1426 1 47.0486 12.0088 565 91.9487 1331.11 481.927
1427 0 48.0584 10.841 521 94.144 1329.92 482.131
1428 0 51.0394 11.7948 602 91.0399 1331.7 481.108
1429 0 55.0554 12.9506 713 93.6424 1331.11 484.394
1430 0 53.0509 11.4041 605 94.486 1331.33 484.54
1431 0 56.0113 11.5512 647 94.034 1331.36 482.464
1432 0 59.0729 12.8485 759 91.224 1330.96 480.939
1433 0 61.0467 12.384 756 91.2963 1330.53 481.8
1434 0 64.0259 12.37 792 90.8321 1330.95 482.004
1435 0 66.0186 11.724 774 92.7119 1331.22 479.91
1436 0 65.1012 13.3331 868 91.1371 1330.87 475.891
1437 0 69.0538 12.9609 895 91.4536 1330.92 474.396
1438 0 70.0604 12.8746 902 92.6984 1330.77 475.55
1439 0 73.1077 12.2012 892 94.0448 1330.52 473.519
1440 0 76.0945 12.6947 966 93.0859 1330.73 470.781
1441 0 79.0462 13.4731 1065 92.1765 1330.34 469.74
1442 0 82.07 13.1717 1081 92.5495 1330.56 468.911
1443 0 83.0691 13.1698 1094 92.3748 1331.33 471.165
1444 0 88.1263 15.5913 1374 88.3435 1331.36 468.235
1445 0 90.0788 11.8008 1063 95.555 1330.76 469.012
1446 1 47.0471 11.2228 528 96.4773 1330.71 486.83
1447 0 50.128 12.6077 632 92.3956 1330.59 486.377
1448 0 51.0111 13.252 676 92.213 1330.15 484.713
1449 0 52.0638 13.6371 710 89.8028 1329.66 483.858
1450 0 53.0362 11.577 614 93.3274 1329.76 485.391
1451 0 53.047 12.4795 662 91.9834 1329.82 485.266
1452 0 58.0543 12.1783 707 90.2504 1329.8 484.777
1453 0 60.1086 11.9118 716 90.852 1330.47 482.851
1454 0 63.0509 13.7032 864 87.1539 1329.79 481.565
1455 0 63.0874 12.1102 764 90.8914 1329.52 480.618
1456 0 63.0877 11.3334 715 92.6545 1330.59 478.966
1457 0 67.0415 13.2754 890 89.4764 1330.82 478.075
1458 0 70.0557 12.2902 861 90.2172 1330.37 478.303
1459 0 71.0857 10.9867 781 93.1818 1329.82 479.986
1460 0 73.0861 11.4933 840 93.6179 1329.69 476.665
1461 0 77.0896 12.92 996 90.3735 1330.16 474.892
1462 0 81.066 14.0626 1140 88.2167 1330.29 473.256
1463 0 83.1004 12.7918 1063 91.5644 1330.3 471.535
1464 0 88.1271 14.8308 1307 87.1102 1329.72 470.855
1465 0 89.1532 13.5497 1208 90.6167 1329.24 468.047
1466 1 46.0465 12.596 580 92.8707 1328.75 489.509
1467 0 47.1211 13.0302 614 89.8892 1328.88 487.05
1468 0 49.0696 13.7152 673 90.7637 1330.2 489.38
1469 0 51.0264 13.15 671 85.3964 1329.87 484.629
1470 0 51.0389 12.6766 647 93.6569 1329.6 487.787
1471 0 54.1049 14.1762 767 89.6819 1330.5 483.012
1472 0 55.0841 13.4158 739 91.6292 1330.57 484.057
1473 0 55.1149 12.4104 684 93.9708 1330.33 484.551
1474 0 58.127 12.92 751 93.4181 1330.07 483.405
1475 0 61.0532 13.9387 851 90.7485 1329.4 482.566
1476 0 62.0394 14.249 884 91.0973 1329.63 479.662
1477 0 65.0843 13.5978 885 92.5345 1329.41 480.155
1478 0 65.0452 12.0532 784 95.6556 1329.88 480.464
1479 0 65.0452 12.0685 785 152.553 1329.88 480.424
1480 0 73.1342 13.7966 1009 91.1724 1330.07 476.138
1481 0 74.1713 13.2801 985 94.1137 1329.46 475.432
1482 0 77.3567 14.3491 1110 92.1532 1330.45 472.891
1483 0 79.2066 13.6352 1080 93.8806 1329.91 470.183
1484 0 84.4176 13.7412 1160 92.5845 1330.28 470.992
1485 0 88.2851 14.8836 1314 89.6225 1330.15 468.698
1486 0 90.2434 12.8763 1162 93.3391 1329.58 466.774
1487 1 47.1898 10.9346 516 95.5775 1329.61 485.975
1488 0 47.0858 11.872 559 94.5528 1329.19 487.54
1489 0 51.259 11.8808 609 94.2414 1329.47 487.059
1490 0 52.314 12.6926 664 95.3765 1329.42 485.057
1491 0 55.2175 13.8 762 93.7087 1330.35 483.202
1492 0 57.158 13.1565 752 97.117 1329.8 485.066
1493 0 59.0792 13.9812 826 95.2712 1329.88 484.939
1494 0 62.0451 14.5539 903 94.897 1329.73 483.389
1495 0 62.2028 13.9061 865 97.1306 1329.56 480.72
1496 0 64.0557 12.9887 832 99.3185 1329.47 480.88
1497 0 68.0611 14.1344 962 95.7599 1329.27 479.895
1498 0 69.1233 12.6296 873 100.235 1329.83 478.312
1499 0 73.0977 12.7911 935 99.2128 1329.55 477.321
1500 0 75.2975 13.4932 1016 98.0787 1328.83 477.064
1501 0 81.3205 16.7731 1364 90.0828 1329.08 471.733
1502 0 81.2168 13.1254 1066 99.4775 1329.05 471.8
1503 0 84.0314 12.4239 1044 92.8669 1328.78 469.649
1504 0 86.1466 13.0127 1121 93.0107 1329.26 468.462
1505 0 86.0928 14.6354 1260 91.4524 1328.54 469.172
1506 0 89.0962 13.6033 1212 91.3391 1328.8 468.833
1507 0 88.1557 13.4988 1190 96.6622 1328.71 468.923
1508 0 90.0739 13.0448 1175 98.1328 1329.21 465.192
1509 0 92.088 11.8908 1095 102.096 1328.75 466.04
1510 1 50.0116 11.3374 567 99.6614 1329.4 487.053
1511 0 52.0275 11.936 621 97.9968 1329.1 485.61
1512 0 54.0932 12.423 672 97.1399 1329.23 484.076
1513 0 55.0482 14.3692 791 92.182 1330.06 483.843
1514 0 55.0869 11.1097 612 100.286 1329.29 482.154
1515 0 58.0697 11.7789 684 98.9196 1329.52 480.262
1516 0 57.1131 11.8011 674 99.638 1329.39 479.567
1517 0 61.049 11.7774 719 99.0751 1329.47 478.969
1518 0 64.2511 11.4395 735 100.933 1329.17 477.192
1519 0 66.1073 12.4797 825 98.5612 1329.05 478.452
1520 0 67.2187 12.6007 847 100.887 1329.74 474.69
1521 0 67.1695 12.3866 832 103.427 1329.64 474.358
1522 0 71.1283 13.314 947 100.774 1329.55 475.191
1523 0 73.1708 12.0267 880 105.24 1328.88 471.326
1524 0 74.1687 13.2131 980 103.541 1329.01 473.01
1525 0 76.0826 11.6584 887 108.797 1329.49 470.192
1526 0 80.152 12.9005 1034 105.801 1329.38 469.687
1527 0 83.1316 12.6306 1050 108.302 1329.38 466.766
1528 0 88.1456 12.5134 1103 108.607 1328.39 465.673
1529 1 44.0502 10.5788 466 104.918 1328.29 488.242
1530 0 44.1514 9.62596 425 109.506 1328.02 486.518
1531 0 49.2407 12.2053 601 103.286 1328.26 485.734
1532 0 47.0999 9.80894 462 101.403 1329.21 485.807
1533 0 49.0432 10.8068 530 104.953 1328.49 482.987
1534 0 51.0524 10.5578 539 105.365 1328.37 484.427
1535 0 53.1159 10.1853 541 107.46 1327.22 483.471
1536 0 55.1248 11.7189 646 104.028 1327.52 483.13
1537 0 56.0583 12.2729 688 103.624 1327.06 481.85
1538 0 55.0818 10.3301 569 108.167 1327.37 483.33
1539 0 60.0747 11.0529 664 106.108 1328.12 480.892
1540 0 61.0419 11.6477 711 105.911 1328.02 481.2
1541 0 63.0212 12.0436 759 104.739 1327.86 480.013
1542 0 66.0569 13.0039 859 102.268 1327.68 479.146
1543 0 69.0146 12.7799 882 102.746 1327.46 477.899
1544 0 70.1476 12.8301 900 102.204 1328.18 478.377
1545 0 72.0557 12.5459 904 102.763 1328.02 475.477
1546 0 74.1291 12.087 896 104.427 1327.47 474.532
1547 0 75.1085 10.0521 755 108.318 1327.01 473.377
1548 0 78.1071 10.2936 804 107.34 1327.16 471.749
1549 0 83.3042 12.2443 1020 102.585 1327.45 471.074
1550 0 85.1126 12.6068 1073 102.23 1327.15 466.038
1551 0 88.0477 12.4592 1097 100.999 1327.69 467.491
1552 0 92.0809 12.7388 1173 101.422 1327.48 465.227
1553 1 49.0697 9.27253 455 96.0066 1327.08 489.952
1554 0 50.0518 10.629 532 96.297 1326.81 487.617
1555 0 51.1487 11.4763 587 98.0954 1326.63 487.245
1556 0 54.0661 12.0778 653 95.4273 1327.69 488.819
1557 0 55.0282 12.848 707 96.7666 1326.23 486.803
1558 0 55.0689 12.3482 680 98.2235 1326.49 485.579
1559 0 58.0237 13.3739 776 95.6095 1326.57 485.094
1560 0 61.072 12.1332 741 97.7382 1326.77 484.379
1561 0 62.0379 12.0249 746 98.5898 1327.1 482.551
1562 0 64.0715 12.767 818 97.4817 1326.45 482.785
1563 0 66.0637 12.5182 827 97.1463 1326.97 480.307
1564 0 69.0582 13.1483 908 96.3557 1326.57 479.573
1565 0 72.0672 13.0434 940 95.9383 1327.2 477.501
1566 0 72.0404 12.4375 896 98.9219 1326.86 476.887
1567 0 76.0372 13.4276 1021 96.1988 1327.15 476.102
1568 0 79.0293 13.5393 1070 95.7551 1327.01 476.23
1569 0 82.0698 12.5868 1033 98.7367 1326.23 475.007
1570 0 84.0641 12.8236 1078 99.0371 1326.28 472.54
1571 0 86.0586 13.2119 1137 98.0158 1328.36 470.252
1572 0 90.1272 13.2258 1192 98.6409 1327.47 470.415
1573 0 94.0734 14.4036 1355 95.2155 1327 467.633
1574 0 98.1455 12.4203 1219 97.3273 1327.03 466.038
1575 0 101.089 12.4742 1261 98.1895 1326.26 465.55
1576 1 53.0245 10.7309 569 102.473 1326.2 488.492
1577 0 55.0333 11.0297 607 102.753 1326.58 486.448
1578 0 59.1219 12.7871 756 98.8638 1325.46 484.041
1579 0 61.1048 12.4867 763 98.1009 1326.37 483.978
1580 0 60.1012 11.3808 684 98.3582 1326.39 482.883
1581 0 65.1183 12.7 827 94.0145 1327.08 480.882
1582 0 68.1022 12.4812 850 94.9012 1326.59 481.828
1583 0 69.0779 13.5644 937 94.222 1326.5 477.901
1584 0 73.1245 13.9625 1021 92.332 1326.38 476.615
1585 0 74.1619 13.4436 997 93.9579 1326.31 476.915
1586 0 78.0935 14.2393 1112 91.9281 1326.68 476.746
1587 0 81.1216 13.1284 1065 94.1972 1327.06 472.675
1588 0 82.081 11.7567 965 98.0497 1325.91 475.18
1589 0 85.2471 11.367 969 97.9897 1327.67 474.025
1590 0 88.1212 12.4147 1094 96.191 1327.54 472.103
1591 0 93.138 12.5191 1166 94.6029 1327.43 471.785
1592 0 94.1728 12.0735 1137 95.7318 1328.05 470.097
1593 1 51.0626 11.6132 593 96.0202 1329 488.965
1594 0 53.047 12.1213 643 93.4666 1326.45 488.098
1595 0 55.2388 12.1654 672 93.1101 1326.71 486.719
1596 0 56.0154 11.1398 624 94.4054 1327.75 488.715
1597 0 57.0246 12.3455 704 92.733 1328 485.56
1598 0 59.0651 12.41 733 93.6207 1326.44 484.54
1599 0 62.015 12.5453 778 92.4666 1327.23 484.23
1600 0 64.048 12.5063 801 92.633 1326.94 482.388
1601 0 67.1282 13.3625 897 90.301 1326.67 482.496
1602 0 67.0575 13.4362 901 91.4107 1326.53 481.27
1603 0 72.1199 13.1725 950 90.7779 1326.28 480.496
1604 0 74.0929 14.1579 1049 89.7607 1326.68 477.975
1605 0 77.0938 13.7236 1058 90.2807 1326.42 479.506
1606 0 78.0552 13.0933 1022 93.3552 1327.05 475.129
1607 0 80.1276 13.7281 1100 92.2218 1326.85 476.411
1608 0 83.102 13.4654 1119 92.8624 1327.53 474.14
1609 0 87.1119 13.695 1193 91.0461 1327.07 473.821
1610 0 89.0963 13.5359 1206 91.3474 1326.38 473.416
1611 0 91.0968 14.1937 1293 91.215 1326.93 469.279
1612 0 94.0621 13.6612 1285 91.3595 1327.07 468.866
1613 0 97.1094 13.1192 1274 88.8344 1326.77 466.333
1614 0 96.1136 12.6621 1217 141.817 1325.76 465.096
1615 0 102.188 13.9742 1428 88.6478 1327.32 460.581
1616 1 54.0947 11.369 615 87.9968 1326.72 485.206
1617 0 57.041 9.37922 535 89.6617 1326.67 485.407
1618 0 56.0526 10.0263 562 92.1459 1326.6 481.587
1619 0 60.1261 10.8106 650 88.2523 1326.92 483.092
1620 0 59.0381 10.6372 628 89.7373 1325.92 482.283
1621 0 60.1218 10.6783 642 90.2212 1327.02 480.05
1622 0 66.0338 12.3725 817 85.9106 1326.68 479.545
1623 0 64.0541 11.5371 739 94.9621 1326.19 481.091
1624 0 70.1622 10.547 740 95.3419 1325.59 481.026
1625 0 70.2515 12.256 861 92.77 1325.64 477.413
1626 0 74.0663 11.8407 877 92.1631 1325.66 479.209
1627 0 82.124 15.6105 1282 82.8768 1326.32 472.82
1628 0 80.0861 12.4741 999 89.6206 1326.02 477.409
1629 0 82.1044 11.6559 957 92.3647 1325.83 471.538
1630 0 84.0743 11.2163 943 93.1548 1326.03 472.625
1631 0 89.0792 11.8434 1055 90.8237 1325.87 472.996
1632 0 92.1038 12.6922 1169 90.6382 1325.85 466.796
1633 0 95.1478 11.6345 1107 92.2701 1325.79 466.477
1634 1 52.0562 11.1802 582 92.6735 1325.84 488.784
1635 0 54.1514 12.9821 703 89.9616 1325.6 487.317
1636 0 54.0528 11.7108 633 92.3823 1328.49 482.607
1637 0 57.0911 12.0509 688 90.9695 1327.81 484.519
1638 0 56.0424 12.1872 683 91.7204 1328.3 483.706
1639 0 59.0492 12.0069 709 91.5924 1327.9 483.158
1640 0 62.0695 13.2754 824 89.2112 1328.1 481.215
1641 0 64.0697 13.8911 890 88.109 1327.35 481.739
1642 0 67.1278 12.6773 851 89.3161 1327.68 480.246
1643 0 68.0382 11.7728 801 91.7815 1328.68 479.371
1644 0 71.1172 12.5849 895 90.419 1327.5 478.185
1645 0 73.155 11.6192 850 92.0565 1327.9 476.853
1646 0 75.0977 13.3693 1004 89.3187 1327.87 476.098
1647 0 78.1343 13.9631 1091 88.1622 1327.55 475.484
1648 0 80.1331 13.3278 1068 90.0702 1328.56 475.141
1649 0 80.1331 13.2654 1063 129.29 1329.53 475.042
1650 0 86.1386 13.6292 1174 90.2666 1327.31 471.354
1651 0 89.158 13.2798 1184 91.3556 1328.17 471.453
1652 0 91.2155 13.0789 1193 92.9187 1327.31 468.555
1653 0 95.1418 13.6638 1300 92.5738 1326.7 465.44
1654 0 98.1731 13.6392 1339 96.6789 1327.39 465.25
1655 0 101.168 13.0772 1323 94.8352 1326.84 463.092
1656 0 104.257 13.2173 1378 94.582 1327.09 461.274
1657 1 57.0568 11.0241 629 97.1526 1326.75 488.321
1658 0 59.0491 11.4142 674 98.1706 1327.35 482.245
1659 0 61.085 12.0652 737 96.2062 1326.37 483.331
1660 0 64.1028 13.104 840 91.556 1326.78 481.02
1661 0 66.0958 13.3594 883 91.6727 1326.15 480.527
1662 0 69.0591 14.3645 992 88.2903 1326.44 480.338
1663 0 71.0966 13.6856 973 89.5457 1325.8 478.235
1664 0 72.0834 13.0821 943 91.6076 1325.46 474.4
1665 0 74.1132 12.5619 931 93.4049 1326.03 474.397
1666 0 80.1633 14.2334 1141 88.773 1326.19 471.431
1667 0 81.2038 12.7827 1038 93.0202 1326.26 470.952
1668 0 84.1182 13.481 1134 91.4312 1326.06 469.728
1669 0 88.0852 13.4529 1185 90.8414 1326.22 469.268
1670 0 91.1438 13.7585 1254 91.1364 1325.98 465.522
1671 0 94.0837 13.5411 1274 91.9003 1324.93 464.642
1672 0 99.1518 13.8475 1373 90.284 1326.54 464.653
1673 1 52.0954 12.6307 658 93.503 1326.04 486.219
1674 0 55.105 13.5741 748 91.9144 1325.42 485.257
1675 0 53.1274 12.1971 648 95.0787 1326.16 484.826
1676 0 57.1008 12.189 696 93.7012 1326.68 483.428
1677 0 59.0739 12.2897 726 93.9669 1326.7 483.499
1678 0 60.1526 14.3136 861 90.4088 1326.57 481.181
1679 0 61.277 12.778 783 91.2299 1327.11 481.996
1680 0 63.1691 13.1393 830 90.6253 1327.06 482.546
1681 0 64.2661 12.7439 819 91.4689 1327.09 481.656
1682 0 66.1365 13.1848 872 90.8463 1327.06 481.125
1683 0 69.0292 12.3861 855 92.4187 1326.82 479.584
1684 0 70.0773 12.2722 860 91.9988 1327.57 481.279
1685 0 72.1152 12.688 915 93.2208 1326.22 476.998
1686 0 76.2175 12.8711 981 92.1458 1326.49 474.758
1687 0 80.1262 13.0544 1046 91.6625 1326.08 474.218
1688 0 85.1299 12.4516 1060 91.5 1326.58 473.573
1689 0 86.1047 13.2861 1144 90.4205 1326.72 472.289
1690 0 89.1039 12.2105 1088 93.1608 1326.99 469.268
1691 0 92.1786 11.7815 1086 93.6068 1326.55 470.593
1692 1 51.2283 11.4195 585 94.3726 1325.43 486.352
1693 0 53.0806 12.3774 657 92.9148 1325.12 485.443
1694 0 53.0874 12.0933 642 94.6745 1328.1 487.463
1695 0 55.0926 14.2124 783 90.3384 1328.81 485.949
1696 0 58.1262 13.8836 807 92.0112 1327.86 483.853
1697 0 59.1092 13.0606 772 93.7047 1327.59 482.83
1698 0 61.1022 12.4054 758 94.8918 1328.04 483.883
1699 0 63.226 12.4474 787 95.2681 1326.38 482.891
1700 0 66.0878 13.6788 904 91.9867 1327.31 481.313
1701 0 66.1077 12.5704 831 95.1252 1327.69 480.578
1702 0 71.1604 13.4906 960 92.9865 1327.52 478.134
1703 0 71.1588 13.7158 976 93.0646 1326.59 477.233
1704 0 75.1918 13.3924 1007 91.1202 1327.22 475.268
1705 0 76.1394 12.7923 974 93.1612 1327.23 474.695
1706 0 80.2109 13.7513 1103 90.9075 1327.68 472.244
1707 0 82.1331 13.6242 1119 91.9071 1327.98 470.372
1708 0 84.1233 11.9111 1002 94.5938 1327.87 472.938
1709 0 86.1139 12.9596 1116 94.5511 1327.13 469.09
1710 0 90.1757 12.6309 1139 95.3082 1327.12 468.869
1711 1 44.0734 10.8455 478 95.9623 1327.46 492.303
1712 0 46.23 12.1999 564 93.9504 1325.99 488.06
1713 0 46.1491 12.6113 582 89.1735 1325.64 488.569
1714 0 45.1395 10.8331 489 94.2658 1325.9 488.207
1715 0 48.097 11.7055 563 92.1652 1324.93 487.741
1716 0 50.1572 11.5038 577 93.0728 1325.25 488.709
1717 0 51.125 12.4401 636 92.2264 1325.47 488.047
1718 0 52.1047 12.5516 654 93.8792 1325.8 485.431
1719 0 55.1208 13.0804 721 91.8363 1325.21 486.021
1720 0 55.1603 12.8172 707 94.6096 1324.95 485.938
1721 0 57.1502 13.3158 761 93.2116 1325.41 485.505
1722 0 58.1964 13.4029 780 94.668 1325.44 483.294
1723 0 59.0911 14.0799 832 93.2067 1326.69 482.38
1724 0 59.2161 13.0201 771 96.2049 1325.72 483.054
1725 0 62.0985 13.6879 850 94.6329 1326.07 481.575
1726 0 64.1338 13.6278 874 95.1773 1325.53 481.291
1727 0 65.1037 13.3172 867 95.8824 1325.94 480.885
1728 0 67.2126 12.9291 869 97.6306 1326.18 478.099
1729 0 69.1097 12.6321 873 98.4536 1326.24 475.806
1730 0 73.2864 12.3215 903 98.1506 1326.49 477.365
1731 0 76.1363 12.1493 925 99.6908 1326.52 474.537
1732 0 77.0995 14.6434 1129 95.465 1326.1 473.02
1733 0 80.209 13.6394 1094 98.0064 1325.95 471.656
1734 0 80.1182 13.4801 1080 98.8787 1325.1 474.164
1735 0 84.0956 13.2112 1111 100.536 1325.7 462.666
1736 0 87.1621 14.7771 1288 97.6102 1325.7 458.737
1737 0 89.1308 12.9697 1156 102.173 1325.69 458.113
1738 0 93.1331 14.8712 1385 97.587 1325.82 458.336
1739 0 95.0933 13.5025 1284 100.484 1325.76 458.829
1740 0 97.0948 13.2345 1285 101.252 1326.09 459.816
1741 1 53.024 10.5613 560 104.761 1324.6 484.75
1742 0 57.0816 11.8252 675 102.273 1327.39 484.013
1743 0 59.1602 13.1507 778 99.18 1327.09 482.512
1744 0 62.2161 13.5495 843 98.1625 1326.63 481.841
1745 0 62.1881 11.4813 714 104.714 1326.94 479.604
1746 0 64.173 12.9338 830 100.802 1326.5 479.216
1747 0 66.1736 13.3588 884 99.6572 1326.73 479.621
1748 0 68.1575 12.3831 844 101.248 1326.85 477.937
1749 0 70.143 11.8187 829 103.159 1327.65 476.97
1750 0 73.137 11.663 853 102.981 1326.85 476.313
1751 0 73.1043 12.3385 902 103.439 1326.38 473.064
1752 0 78.1293 13.0809 1022 99.7886 1326.69 474.639
1753 0 83.1281 13.413 1115 98.6439 1326.48 473.011
1754 0 84.2083 13.241 1115 100.017 1326.95 469.792
1755 0 86.1133 12.9016 1111 100.653 1326.86 469.209
1756 0 89.121 13.9024 1239 97.912 1327.52 468.292
1757 0 90.1615 13.0876 1180 99.4534 1327.5 464.381
1758 0 94.1277 12.7274 1198 99.4674 1327.45 464.133
1759 1 51.0364 11.0509 564 98.0798 1328.43 486.305
1760 0 53.0523 11.1022 589 90.4397 1327.96 484.862
1761 0 54.0102 11.6089 627 90.8325 1327.47 484.64
1762 0 58.15 12.7773 743 86.0929 1328.21 486.896
1763 0 57.0547 11.5153 657 88.3379 1328.68 483.19
1764 0 59.0287 11.2827 666 89.7342 1327.91 482.938
1765 0 62.0653 11.5524 717 89.0056 1327.95 482.311
1766 0 64.0829 12.3902 794 88.5844 1327.72 481.743
1767 0 66.0829 12.2876 812 88.3608 1327.94 480.862
1768 0 70.0846 12.171 853 88.4127 1327.98 479.32
1769 0 71.1099 12.108 861 88.4123 1327.71 476.768
1770 0 74.0753 11.6368 862 85.0244 1327.01 472.903
1771 0 73.0404 10.8159 790 88.5152 1326.57 471.533
1772 0 78.1667 11.5011 899 86.8854 1326.12 471.773
1773 0 79.1203 11.3498 898 87.6002 1327.01 469.052
1774 0 83.1545 11.5809 963 87.5338 1326.53 464.639
1775 0 85.348 12.1737 1039 87.5582 1326.74 463.074
1776 0 90.1616 11.3796 1026 88.2183 1326.01 465.672
1777 0 92.1722 12.4766 1150 87.24 1325.97 461.768
1778 0 95.3946 13.051 1245 87.151 1325.86 460.478
1779 0 97.2678 11.5352 1122 90.0731 1325.94 462.597
1780 0 99.1514 12.1935 1209 91.1199 1325.68 462.184
1781 1 51.0462 8.91349 455 90.7714 1325.92 484.374
1782 0 54.1297 10.8258 586 87.0392 1326.87 484.068
1783 0 55.1401 10.8814 600 88.3033 1327.5 480.73
1784 0 57.1389 10.6232 607 88.0774 1327.7 481.059
1785 0 61.1659 10.9865 672 87.2262 1327.38 478.644
1786 0 62.1653 11.389 708 86.4449 1327.31 478.25
1787 0 64.1776 10.9384 702 87.4416 1327.34 477.319
1788 0 66.1414 12.2162 808 86.1559 1327.16 473.452
1789 0 70.1406 11.6908 820 86.1683 1326.56 474.116
1790 0 69.073 11.0463 763 86.7484 1327.06 468.911
1791 0 73.0868 11.7668 860 85.9407 1327.01 469.515
1792 0 74.1844 11.5388 856 87.4439 1326.35 467.842
1793 0 78.1283 12.3771 967 86.2544 1326.78 466.16
1794 0 80.1733 12.7973 1026 86.5205 1326.58 466.945
1795 0 83.1874 12.8024 1065 86.7906 1326.82 466.218
1796 0 83.1874 12.8024 1065 145.399 1326.82 466.213
1797 0 87.1279 12.2923 1071 89.1681 1327.63 464.492
1798 0 92.2158 12.3948 1143 89.3753 1327.1 461.624
1799 0 92.2213 13.1857 1216 89.7204 1327.55 457.609
1800 0 97.1366 13.6715 1328 89.131 1327.86 457.318
1801 0 98.1321 12.4934 1226 92.1305 1327.96 457.573
1802 0 102.125 12.24 1250 93.8032 1327.72 453.912
1803 0 107.13 12.8909 1381 93.5315 1327.8 452.763
1804 0 109.204 13.3054 1453 98.554 1327.1 454.353
1805 0 116.186 13.2976 1545 100.405 1327.74 452.921
1806 0 116.186 13.2287 1537 158.699 1327.75 452.871
1807 1 64.1942 13.2722 852 98.2817 1328.33 481.433
1808 0 68.1964 12.4493 849 98.967 1328.28 481.688
1809 0 67.2511 12.8474 864 100.411 1328.52 477.338
1810 0 71.1572 12.9994 925 99.1222 1328.42 477.512
1811 0 74.1745 12.8885 956 99.7573 1327.81 476.172
1812 0 75.2114 13.6017 1023 98.7351 1327.51 472.207
1813 0 79.1345 12.9905 1028 99.8385 1327.33 472.018
1814 0 82.1793 13.7383 1129 98.0266 1327.43 472.724
1815 0 84.28 13.7281 1157 99.0182 1327.02 470.605
1816 0 87.2666 13.029 1137 101.21 1327.03 468.719
1817 0 88.3172 12.7722 1128 102.244 1327.02 469.235
1818 0 91.333 14.6606 1339 98.8013 1327.28 464.724
1819 0 93.2866 12.6706 1182 103.696 1326.89 464.486
1820 0 98.169 13.4564 1321 101.669 1327.28 461.599
1821 0 100.241 13.4076 1344 102.141 1327.05 459.089
1822 0 103.199 13.0136 1343 103.08 1327.13 458.843
1823 1 56.027 8.90642 499 106.495 1328.6 480.605
1824 0 61.101 12.7657 780 98.7192 1328.68 478.753
1825 0 62.229 11.8594 738 102.306 1327.77 476.382
1826 0 64.1466 12.1129 777 100.746 1328.6 480.036
1827 0 65.2218 10.8093 705 105.418 1327.9 479.382
1828 0 66.1914 12.3581 818 103.131 1328.03 476.674
1829 0 71.1818 11.4496 815 103.014 1328.55 477.687
1830 0 75.1866 13.4864 1014 98.4448 1328.25 477.382
1831 0 75.2087 12.5251 942 103.559 1327.35 473.128
1832 0 76.1905 12.39 944 103.407 1327.91 474.207
1833 0 80.1942 12.8189 1028 103.286 1327.75 472.258
1834 0 82.1222 12.3231 1012 104.425 1327.48 471.938
1835 0 82.1222 12.3231 1012 162.563 1327.48 471.938
1836 0 89.2622 12.7041 1134 103.706 1327.86 469.572
1837 0 89.1328 13.1714 1174 104.422 1328.12 468.579
1838 0 94.1613 13.2432 1247 104.816 1327.46 465.917
1839 0 98.1375 13.6747 1342 103.706 1327.18 463.169
1840 1 52.0793 11.8665 618 104.102 1327.27 483.427
1841 0 51.0493 10.1666 519 107.356 1326.51 483.455
1842 0 55.0333 10.9388 602 105.869 1325.79 483.204
1843 0 57.0305 11.5552 659 105.426 1325.8 480.413
1844 0 59.1439 13.1882 780 102.031 1326.38 483.2
1845 0 60.1516 11.8534 713 106.68 1326.41 483.756
1846 0 64.2206 12.1301 779 104.325 1328.47 482.297
1847 0 65.1685 12.1071 789 104.883 1328.29 482.141
1848 0 68.1474 11.4017 777 106.079 1328.36 480.896
1849 0 68.1347 11.8735 809 105.96 1327.74 479.419
1850 0 72.2026 13.3375 963 102.156 1328.06 478.204
1851 0 75.1469 13.467 1012 100.969 1328.05 477.871
1852 0 78.1354 13.7198 1072 100.468 1328.08 475.191
1853 0 77.181 13.2157 1020 103.271 1328.36 473.654
1854 0 81.1021 14.0194 1137 100.325 1327.74 474.036
1855 0 82.1946 12.9814 1067 103.142 1327.71 471.903
1856 0 83.1534 12.964 1078 103.687 1328.05 471.468
1857 0 86.0549 12.2596 1055 104.717 1328.57 470.28
1858 0 90.0762 13.1888 1188 102.463 1328.08 467.589
1859 0 90.1462 12.2357 1103 104.979 1328.31 465.585
1860 0 96.3466 14.0949 1358 100.289 1327.81 464.256
1861 0 99.1386 13.5467 1343 101.532 1328.01 463.099
1862 1 52.0762 11.7712 613 96.4747 1328.36 487.408
1863 0 52.2388 10.4903 548 96.3704 1328.1 485.097
1864 0 55.0454 11.8266 651 93.2673 1328.37 483.316
1865 0 56.1088 11.5312 647 92.9011 1327.94 482.232
1866 0 60.0874 12.6982 763 89.9004 1328.69 482.575
1867 0 60.122 10.6118 638 94.1991 1328.51 484.244
1868 0 63.2162 12.9081 816 89.5846 1327.76 480.637
1869 0 66.0922 12.0892 799 90.0889 1328.35 482.19
1870 0 68.093 12.6151 859 89.7066 1328.2 480.097
1871 0 68.0705 11.7819 802 93.1883 1328.42 477.219
1872 0 70.149 11.9175 836 91.9522 1327.79 475.165
1873 0 71.0495 11.499 817 93.8115 1326.95 475.195
1874 0 75.129 12.3521 928 85.3524 1327.27 472.248
1875 0 77.1236 11.6955 902 87.0698 1326.97 468.939
1876 0 81.2394 11.8292 961 86.691 1327.37 468.758
1877 0 80.2034 10.9347 877 90.6556 1326.82 460.936
1878 0 84.2156 11.8743 1000 88.236 1327.91 465.137
1879 0 84.1611 11.4423 963 92.1371 1326.63 458.763
1880 0 87.3831 11.2836 986 91.7546 1326.73 458.487
1881 0 92.1848 12.9414 1193 88.8005 1327.41 457.479
1882 0 89.1719 12.1899 1087 95.3091 1327.03 451.604
1883 1 46.1223 9.23631 426 93.4437 1326.33 479.657
1884 0 48.2023 9.87504 476 91.8256 1326.64 477.702
1885 0 50.1992 11.9524 600 81.5767 1327.16 479.76
1886 0 51.191 10.7246 549 84.5027 1327.49 477.311
1887 0 52.0677 10.2367 533 86.2439 1327.03 478.681
1888 0 54.0741 10.763 582 85.2938 1327.72 477.256
1889 0 56.0578 10.0432 563 86.5346 1327.37 476.854
1890 0 58.0849 11.8447 688 84.1235 1327.72 474.222
1891 0 60.0932 10.6002 637 86.4207 1327.53 473.469
1892 0 61.088 11.1479 681 85.9266 1327.78 473.185
1893 0 64.1034 10.9355 701 86.0214 1327.75 469.093
1894 0 65.1133 10.044 654 88.5352 1327.65 471.391
1895 0 67.091 11.2683 756 85.7632 1327.65 470.705
1896 0 70.2556 11.2162 788 86.4683 1327.35 467.547
1897 0 73.2748 11.3818 834 85.4317 1327.78 468.956
1898 0 74.1712 11.2577 835 85.9305 1327.59 464.775
1899 0 75.2142 10.0513 756 88.9008 1327.02 462.783
1900 0 84.1722 13.3298 1122 87.852 1326.62 467.024
1901 0 87.0658 12.6801 1104 88.4982 1326.78 469.979
1902 1 46.0273 10.7979 497 93.4306 1326.17 490.157
1903 0 46.0593 9.81343 452 98.2412 1325.56 487.252
1904 0 49.0878 11.8767 583 93.4837 1326.56 487.302
1905 0 52.2989 12.3138 644 92.6071 1327.34 471.477
1906 0 54.1883 12.4566 675 92.7807 1328.27 474.951
1907 0 56.1027 13.2792 745 91.0711 1328.47 479.713
1908 0 58.1019 11.6864 679 93.0059 1326.28 485.585
1909 0 56.1388 11.0084 618 98.5858 1325.83 482.563
1910 0 60.2037 12.275 739 94.9242 1325.99 482.729
1911 0 59.1262 12.2112 722 97.6496 1325.9 480.823
1912 0 63.1803 12.5989 796 96.3907 1326.4 481.049
1913 0 64.2039 13.7842 885 94.7153 1326.39 480.402
1914 0 67.1672 13.5334 909 94.5292 1326.14 480.315
1915 0 68.1907 12.8023 873 97.5601 1325.76 478.495
1916 0 69.1695 12.332 853 99.9062 1325.83 475.939
1917 0 73.1875 12.7754 935 98.3519 1326.29 476.725
1918 0 75.19 11.584 871 101.796 1325.83 475.395
1919 0 78.0835 12.4866 975 100.128 1326.24 474.697
1920 0 82.2452 13.4111 1103 98.7752 1326.24 471.885
1921 1 45.1921 9.75834 441 99.0204 1326.43 491.776
1922 0 45.2967 11.3253 513 98.2651 1327.19 485.111
1923 0 47.0161 11.4642 539 89.0501 1328.67 489.141
1924 0 47.0892 12.5931 593 86.6037 1328.56 489.207
1925 0 49.087 12.3047 604 88.0695 1327.53 488.967
1926 0 49.0761 12.0629 592 88.3936 1328.22 489.978
1927 0 52.1221 12.1254 632 88.9209 1328.46 486.361
1928 0 53.05 12.4222 659 89.2276 1327.9 486.619
1929 0 52.0444 10.9522 570 93.2018 1328.33 485.2
1930 0 56.1093 11.4241 641 91.7644 1328.53 485.886
1931 0 57.059 11.1464 636 93.2217 1328.36 484.608
1932 0 59.0933 12.0149 710 94.4183 1327.84 482.718
1933 0 61.0663 11.9215 728 96.1016 1328.19 482.446
1934 0 61.0992 12.6188 771 95.2309 1327.86 481.135
1935 0 62.0892 11.9989 745 96.9181 1327.99 481.047
1936 0 64.0784 12.0634 773 97.1061 1328.03 480.999
1937 0 64.084 10.1585 651 102.949 1327.4 477.654
1938 0 69.117 11.864 820 99.7683 1327.7 476.856
1939 0 70.0712 11.5311 808 101.708 1327.67 478.915
1940 0 71.0844 13.5051 960 97.8562 1327.56 477.593
1941 0 74.0573 12.5038 926 100.567 1327.43 476.046
1942 0 78.0839 13.3446 1042 99.2015 1327.03 475.403
1943 0 80.1159 12.4569 998 102.199 1327.5 472.582
1944 0 81.1229 12.2284 992 104.048 1327.43 471.069
1945 1 43.0831 10.6306 458 103.116 1328.87 489.452
1946 0 45.0629 10.9625 494 103.368 1328.27 491.042
1947 0 47.1226 11.7778 555 102.537 1326.82 489.319
1948 0 48.0692 11.6291 559 104.909 1326.22 490.134
1949 0 49.0808 12.1229 595 105.012 1326.34 489.082
1950 0 48.1316 12.3827 596 105.921 1325.62 488.117
1951 0 52.0647 13.0991 682 103.523 1325.62 486.163
1952 0 53.1327 11.3489 603 108.837 1325.64 485.431
1953 0 56.1285 12.6495 710 105.051 1325.89 486.224
1954 0 56.1331 13.3255 748 104.501 1326.61 484.949
1955 0 59.086 13.1503 777 104.994 1326.2 482.876
1956 0 60.168 12.7144 765 106.308 1326.06 482.463
1957 0 59.1493 12.8319 759 132.532 1326.06 482.379
1958 0 63.0425 12.7533 804 108.396 1326.91 481.614
1959 0 69.1032 14.4422 998 100.889 1326.73 476.947
1960 0 71.0863 15.446 1098 99.827 1326.19 478.065
1961 0 70.1164 13.8627 972 106.077 1327.53 478.28
1962 0 72.049 13.0467 940 108.917 1327.47 478.561
1963 0 75.0497 12.7116 954 110.429 1327.04 476.784
1964 0 83.0688 17.8286 1481 94.4781 1328.48 468.248
1965 0 81.1072 14.8322 1203 104.737 1328.14 471.36
1966 0 85.0688 14.0239 1193 107.089 1328.1 473.856
1967 0 86.1736 13.6817 1179 109.232 1327.2 471.44
1968 0 89.0981 15.3539 1368 103.765 1328.43 467.518
1969 0 91.2289 13.0989 1195 115.921 1327.32 467.712
1970 0 95.1149 13.8569 1318 115.473 1328.23 466.332
1971 0 101.162 14.0666 1423 113.465 1327.47 465.667
1972 0 102.127 14.8443 1516 112.424 1327.62 462.017
1973 0 106.23 13.4238 1426 114.588 1327.58 462.05
1974 1 58.0361 12.3372 716 111.007 1326.95 484.615
1975 0 62.0479 12.6032 782 107.45 1327.53 482.867
1976 0 61.0764 12.9346 790 102.991 1328.3 483.925
1977 0 65.099 13.1492 856 101.827 1328.43 481.453
1978 0 65.1293 12.3293 803 105.192 1328.27 477.793
1979 0 68.0581 13.5766 924 102.531 1328 476.622
1980 0 72.0912 14.3429 1034 100.368 1327.56 475.399
1981 0 76.103 14.1519 1077 100.001 1328.82 474.441
1982 0 79.1771 13.4761 1067 101.995 1328.46 472.715
1983 0 79.0894 13.1117 1037 103.762 1328.66 470.163
1984 0 81.0711 14.5428 1179 100.941 1328.74 471.343
1985 0 85.0664 14.6709 1248 99.8782 1327.65 469.275
1986 0 88.141 15.2029 1340 98.6739 1328.47 468.673
1987 0 89.082 13.1676 1173 104.285 1328.69 465.676
1988 0 89.082 13.2125 1177 154.313 1328.72 465.709
1989 0 96.1008 13.5899 1306 102.479 1327.88 463.445
1990 0 98.059 12.8086 1256 104.651 1328.2 459.372
1991 0 101.056 12.8345 1297 103.807 1328.86 459.935
1992 0 105.126 13.1652 1384 103.022 1328.78 459.218
1993 1 60.1872 12.81 771 101.183 1327.28 481.977
1994 0 61.2504 12.1795 746 103.859 1327.22 480.43
1995 0 63.2097 13.3366 843 101.549 1327.12 478.178
1996 0 64.159 12.282 788 103.277 1328.05 478.424
1997 0 67.1958 12.1139 814 103.06 1327.71 477.612
1998 0 69.1431 11.44 791 103.042 1327.15 478.554
1999 0 71.1326 12.7087 904 101.809 1327.35 473.688
2000 0 74.2652 11.5936 861 103.87 1327.11 473.257
2001 0 76.1686 12.3148 938 101.984 1328.04 473.826
2002 0 79.1101 13.1589 1041 100.484 1327.69 472.012
2003 0 81.2259 12.0036 975 103.375 1327.53 469.542
2004 0 86.1882 12.4031 1069 101.862 1327.52 468.239
2005 0 85.1726 12.4571 1061 103.172 1326.97 467.462
2006 0 91.1911 13.0166 1187 100.735 1327.57 467.451
2007 0 94.1647 12.8604 1211 101.078 1327.9 466.502
2008 0 97.1938 12.6963 1234 101.562 1326.61 464.64
2009 1 50.0221 10.1955 510 98.1549 1328.31 487.6
2010 0 52.2138 11.3572 593 95.5363 1326.46 482.789
2011 0 55.0687 12.4027 683 92.9341 1326.54 482.955
2012 0 56.0816 12.9276 725 92.0097 1326.15 481.531
2013 0 55.1258 11.5735 638 95.5705 1326.61 481.635
2014 0 59.0776 12.1874 720 92.6667 1327.88 480.928
2015 0 58.0753 10.9685 637 96.6091 1328.03 482.892
2016 0 60.0803 11.418 686 95.3615 1327.98 479.141
2017 0 65.1008 12.5959 820 92.1915 1327.45 478.77
2018 0 66.0683 12.3811 818 93.0134 1328 479.013
2019 0 68.0611 12.0774 822 94.2908 1327.88 477.12
2020 0 70.0823 12.628 885 94.2023 1327.88 475.419
2021 0 72.0979 13.4817 972 92.856 1327.34 474.757
2022 0 77.1662 12.6739 978 93.728 1327.87 470.927
2023 0 78.0771 12.398 968 95.0826 1327.95 471.236
2024 0 81.1603 11.5204 935 96.8032 1328.18 471.718
2025 0 84.1592 12.4645 1049 95.8179 1328.01 471.448
2026 0 88.1303 13.4006 1181 93.0677 1328.62 468.812
2027 0 92.079 13.4233 1236 92.6335 1328.46 467.615
2028 0 94.2087 13.2472 1248 93.5473 1328.07 466.82
2029 1 50.1018 9.4807 475 104.598 1328.13 484.775
2030 0 54.0308 12.0302 650 97.1615 1328.52 486.08
2031 0 55.2258 12.5666 694 94.8473 1329 482.922
2032 0 59.0968 14.197 839 90.758 1328.14 480.402
2033 0 60.104 14.4416 868 90.727 1328.1 480.159
2034 0 62.1731 12.3365 767 93.5919 1328.56 480.883
2035 0 62.1223 12.8295 797 94.6788 1328.11 480.24
2036 0 62.0496 12.2321 759 97.5916 1327.03 479.892
2037 0 67.1544 12.9105 867 94.2976 1328.53 479.48
2038 0 69.1659 12.3616 855 96.1848 1328.5 476.627
2039 0 70.1618 13.3406 936 94.8034 1328.19 476.738
2040 0 73.1438 13.0565 955 94.6377 1328.26 474.913
2041 0 75.2028 12.7921 962 93.104 1327.88 474.678
2042 0 75.095 12.118 910 95.8516 1328.47 472.059
2043 0 79.1311 12.9658 1026 93.8041 1328.46 469.873
2044 0 84.131 12.9441 1089 93.0836 1328.59 469.196
2045 0 85.2932 14.0808 1201 91.2856 1327.71 468.805
2046 0 88.2416 13.735 1212 92.0074 1327.58 465.839
2047 0 91.1362 14.5716 1328 90.009 1328.65 464.946
2048 0 94.2217 12.4387 1172 94.6809 1327.87 462.727
2049 0 96.1656 12.5513 1207 95.0514 1328.13 462.926
2050 0 100.185 13.9741 1400 92.6986 1327.86 460.981
2051 0 102.197 13.6893 1399 94.198 1327.31 458.778
2052 1 55.2199 11.083 612 99.9412 1328.34 481.028
2053 0 53.0339 10.1822 540 95.9833 1328.77 475.62
2054 0 54.0616 10.0441 543 97.2247 1328.62 475.112
2055 0 57.0428 11.7631 671 94.079 1328.22 475.115
2056 0 58.0362 11.6824 678 95.6195 1327.83 473.594
2057 0 61.0747 10.6918 653 97.7366 1328.5 472.453
2058 0 61.0231 11.7497 717 96.8117 1328.22 472.1
2059 0 65.0453 11.1153 723 97.4315 1328.31 471.137
2060 0 64.066 11.2852 723 98.9115 1328.19 467.925
2061 0 70.0572 10.9767 769 97.2627 1328.34 470.995
2062 0 69.0272 10.3438 714 101.409 1328.39 466.618
2063 0 76.0639 12.621 960 96.0844 1327.92 465.08
2064 0 77.0536 12.2772 946 97.5285 1327.49 463.27
2065 0 78.0553 9.99291 780 101.31 1328.28 463.381
2066 0 81.0717 11.2246 910 98.9066 1328.54 462.589
2067 0 86.0695 9.87574 850 100.025 1327.15 459.445
2068 0 89.0585 9.45446 842 99.6033 1327.45 460.779
2069 1 49.0294 9.09658 446 87.5359 1326.64 482.11
2070 0 51.1526 11.1822 572 84.7955 1325.78 479.136
2071 0 49.0886 8.39299 412 89.4563 1326.93 480.226
2072 0 54.0742 11.4472 619 83.7609 1326.95 479.835
2073 0 54.0742 11.4842 621 111.308 1326.95 479.876
2074 0 53.0856 9.41876 500 88.978 1326.81 478.302
2075 0 57.1063 10.6118 606 87.868 1326.5 476.629
2076 0 57.0697 9.6023 548 89.3522 1326.97 478.796
2077 0 59.1002 9.50928 562 90.5818 1326.78 475.813
2078 0 62.1105 10.594 658 87.9711 1326.98 475.711
2079 0 63.2022 10.4901 663 88.9457 1326.77 474.998
2080 0 66.0504 12.2482 809 85.7911 1325.92 474.688
2081 0 70.0655 12.3456 865 91.0821 1327.41 473.864
2082 0 73.053 13.456 983 88.8067 1327.63 475.157
2083 0 75.0712 12.5214 940 90.7043 1326.79 473.328
2084 0 78.0687 12.822 1001 90.5025 1327.47 472.705
2085 0 79.1143 12.8295 1015 90.7852 1328.09 471.862
2086 0 83.1488 13.3375 1109 88.9324 1327.72 472.315
2087 0 85.0662 12.3433 1050 90.9533 1327.96 468.352
2088 1 48.0498 10.5724 508 92.6654 1328.87 487.785
2089 0 49.0124 10.4055 510 94.8686 1328.42 486.298
2090 0 50.0218 11.3351 567 91.9894 1328.58 485.7
2091 0 53.0663 10.3644 550 90.9964 1328.1 485.373
2092 0 53.1065 10.7143 569 91.935 1327.82 482.179
2093 0 54.0953 11.4982 622 90.9711 1327.61 483.486
2094 0 57.0687 10.7064 611 92.5221 1328.13 482.481
2095 0 58.0443 10.9399 635 92.6441 1328.24 482.091
2096 0 61.0974 12.6356 772 89.2578 1328.17 483.799
2097 0 61.0226 11.4384 698 92.755 1327.69 481.378
2098 0 62.0354 11.8158 733 92.3929 1328.28 479.828
2099 0 64.1039 10.327 662 95.1239 1327.73 479.606
2100 0 67.1031 10.9384 734 94.7834 1328.23 480.798
2101 0 66.1796 11.091 734 96.3515 1327.34 478.606
2102 0 72.0279 12.8145 923 91.974 1327.64 476.125
2103 0 73.0296 12.8989 942 92.8609 1327.21 475.623
2104 0 74.0625 13.3806 991 92.8375 1327.61 474.677
2105 0 77.0873 11.5972 894 97.2025 1327.65 474.991
2106 0 81.1049 13.2051 1071 95.2437 1326.55 474.43
2107 0 83.025 13.5742 1127 96.181 1327.17 471.267
2108 0 87.0645 13.7025 1193 96.2188 1327.61 469.624
2109 0 90.0931 13.6081 1226 97.5824 1326.39 470.322
2110 1 48.0648 11.7134 563 102.767 1327.14 488.785
2111 0 50.0425 12.1097 606 102.982 1326.54 489.073
2112 0 51.0451 12.2245 624 103.728 1326.32 487.389
2113 0 54.0828 12.2035 660 103.273 1326.64 487.182
2114 0 55.0596 13.0586 719 103.644 1326.31 484.757
2115 0 57.018 15.3986 878 102.616 1325.16 483.346
2116 0 59.033 13.9244 822 105.609 1326 483.156
2117 0 60.0427 13.3572 802 107.496 1326.09 483.648
2118 0 61.0563 14.069 859 108.645 1325.48 480.773
2119 0 61.0588 12.9384 790 111.98 1325.81 480.954
2120 0 64.0841 12.7021 814 112.666 1325.85 480.662
2121 0 66.0317 12.9029 852 113.249 1325.78 479.061
2122 0 69.1068 14.1809 980 110.521 1325.52 478.048
2123 0 69.056 12.4826 862 116.291 1325.66 477.377
2124 0 72.1974 13.7401 992 112.774 1326.16 477.703
2125 0 75.0848 14.6634 1101 111.259 1326.56 475.161
2126 0 77.1438 14.0387 1083 114.404 1326.26 473.491
2127 0 81.1725 14.5246 1179 112.282 1326.16 473.881
2128 0 83.1049 13.2363 1100 117.035 1325.82 471.871
2129 0 84.0787 14.4032 1211 115.273 1325.92 470.33
2130 0 88.1527 15.4618 1363 112.458 1326.36 467.194
2131 0 92.0643 14.3487 1321 115.167 1326.01 466.74
2132 0 95.1238 14.6651 1395 113.817 1326.32 467.732
2133 0 98.117 15.1248 1484 113.828 1326.2 462.788
2134 1 53.0859 12.1125 643 117.35 1325.99 485.028
2135 0 52.0742 11.1956 583 117.484 1326.29 484.208
2136 0 56.0554 11.7027 656 109.796 1326.42 482.032
2137 0 56.0831 13.0521 732 107.941 1327.27 480.866
2138 0 57.0271 12.6431 721 109.141 1326.89 479.165
2139 0 61.121 12.4834 763 108.326 1326.47 477.975
2140 0 61.0674 11.954 730 109.755 1327.35 476.927
2141 0 65.0442 11.669 759 109.08 1326.4 476.133
2142 0 68.0572 13.2829 904 104.666 1327.01 476.016
2143 0 68.0487 12.1384 826 108.35 1326.57 475.134
2144 0 72.0691 13.265 956 106.715 1325.83 471.773
2145 0 74.0684 12.448 922 108.966 1325.97 470.95
2146 0 76.1679 13.1814 1004 107.221 1326.27 471.1
2147 0 78.1621 13.5488 1059 106.756 1326.11 468.815
2148 0 80.1121 11.8709 951 110.707 1325.8 468.517
2149 0 86.159 13.4867 1162 106.665 1327.09 466.283
2150 0 90.2118 13.7343 1239 101.204 1327.12 468.499
2151 1 49.0487 11.2541 552 102.598 1326.68 488.424
2152 0 50.1337 11.2499 564 107.807 1326.7 486.851
2153 0 52.1445 12.5421 654 104.44 1327.04 486.229
2154 0 55.1411 12.8035 706 107.744 1326.39 485.112
2155 0 54.1337 12.894 698 109.063 1326.97 481.858
2156 0 56.1417 13.0562 733 108.585 1326.88 483.302
2157 0 60.127 13.2719 798 107.066 1327.19 481.159
2158 0 62.101 14.3476 891 103.323 1326.24 481.816
2159 0 63.0967 13.8201 872 105.774 1326 480.948
2160 0 65.1549 12.7082 828 106.675 1326.72 478.766
2161 0 67.1864 13.857 931 103.566 1326.98 478.28
2162 0 70.293 12.9743 912 105.008 1327.37 476.504
2163 0 72.0854 13.484 972 104.344 1326.62 474.873
2164 0 75.1293 12.9377 972 103.283 1326.43 477.513
2165 0 77.0859 13.4266 1035 104.3 1325.76 471.067
2166 0 80.1054 14.4809 1160 102.011 1326.04 469.925
2167 0 82.092 11.9622 982 106.259 1326 471.273
2168 0 86.0928 14.0778 1212 101.727 1326.98 469.004
2169 0 89.0661 13.5517 1207 102.157 1326.8 466.263
2170 0 93.0633 13.0234 1212 103.086 1326.8 464.726
2171 0 94.0955 13.9964 1317 100.786 1327.26 462.115
2172 0 97.1218 12.7778 1241 103.195 1327.29 458.868
2173 0 99.2272 11.4182 1133 101.827 1327.18 461.752
2174 0 101.153 12.229 1237 101.339 1326.81 459.111
2175 1 56.1584 10.8977 612 98.9118 1326.38 477.515
2176 0 56.0263 10.7271 601 99.5657 1326.62 477.777
2177 0 59.1968 11.4702 679 96.4315 1326.15 476.156
2178 0 60.114 10.9958 661 97.8502 1326.41 474.799
2179 0 62.0942 10.2586 637 98.5196 1327.37 474.733
2180 0 64.1467 10.211 655 98.6595 1326.53 472.853
2181 0 66.1269 11.6745 772 96.5065 1326.11 469.991
2182 0 70.1629 12.4995 877 94.1813 1326.37 468.672
2183 0 67.1439 10.4254 700 100.363 1326.28 465.031
2184 0 69.1547 11.1345 770 99.0896 1326.81 463.116
2185 0 77.1879 11.7506 907 96.269 1326.76 466.116
2186 0 79.0955 11.543 913 97.9014 1326.44 462.709
2187 0 80.0808 10.3645 830 101.471 1325.52 461.149
2188 0 88.1527 12.8867 1136 97.6805 1326.67 463.981
2189 0 91.1572 13.0215 1187 97.8071 1326.45 463.406
2190 0 96.1117 12.808 1231 99.2169 1326.13 461.731
2191 0 97.2084 12.5195 1217 99.9326 1326.79 458.856
2192 0 99.1734 12.1303 1203 101.08 1326.52 455.213
2193 1 53.0208 10.279 545 99.578 1326.92 483.809
2194 0 56.1989 10.8365 609 99.6223 1325.54 480.092
2195 0 53.1378 10.1058 537 96.5047 1326.14 477.425
2196 0 57.0281 9.08324 518 89.5232 1325.81 473.143
2197 0 60.0931 8.33707 501 96.8483 1327.34 478.727
2198 0 62.0493 10.4111 646 93.2663 1327.02 478.659
2199 0 63.1274 9.67884 611 94.9362 1327.42 478.121
2200 0 65.0541 9.8687 642 92.3536 1328.01 475.759
2201 0 68.0775 9.43044 642 89.3349 1326.76 472.216
2202 0 70.1361 10.4226 731 88.2996 1326.17 465.663
2203 0 72.1094 9.34691 674 90.5757 1326.92 466.742
2204 0 74.133 10.3328 766 89.4634 1326.61 465.445
2205 0 77.225 11.1104 858 88.4662 1326.72 465.774
2206 0 77.1693 10.4705 808 90.8156 1326.11 461.829
2207 0 75.0705 7.99249 600 96.0633 1326.28 460.783
2208 0 88.1923 11.577 1021 88.2556 1326.12 464.074
2209 0 88.1793 10.6147 936 90.9145 1326.62 463.398
2210 0 93.2164 11.3928 1062 90.1497 1326.82 462.376
2211 0 94.1813 11.4354 1077 91.4383 1326.69 459.202
2212 0 98.1933 11.8338 1162 91.6661 1326.71 456.095
2213 0 99.1057 9.89852 981 95.7187 1326.54 464.821
2214 0 103.069 11.7688 1213 92.7131 1326.62 463.303
2215 0 108.25 11.0578 1197 94.2414 1326.32 460.69
2216 0 113.09 12.7421 1441 92.0312 1325.99 456.063
2217 0 118.243 12.7872 1512 92.7249 1326.19 454.081
2218 0 120.214 11.7873 1417 94.0635 1325.66 450.286
2219 1 67.1578 9.17243 616 95.7873 1326.9 471.466
2220 0 70.2471 11.8297 831 92.911 1326.87 466.502
2221 0 73.1769 10.7411 786 89.5204 1326.78 470.968
2222 0 77.1093 11.6069 895 87.9285 1326.56 471.008
2223 0 77.2528 10.8605 839 91.1788 1326.18 467.794
2224 0 81.1879 11.3687 923 90.2687 1326.47 467.384
2225 0 81.1273 10.8225 878 93.4214 1326.65 463.86
2226 0 85.1776 11.7167 998 91.1222 1327.02 464.449
2227 0 89.1198 11.838 1055 91.5716 1326.48 463.777
2228 0 92.2411 11.3615 1048 91.9781 1326.36 464.575
2229 0 94.1539 11.0245 1038 93.8304 1325.83 461.849
2230 0 101.143 9.61017 972 96.4516 1325.19 459.92
2231 0 100.137 10.5456 1056 95.536 1325.65 459.054
2232 0 106.242 11.3327 1204 94.1852 1325.75 458.659
2233 0 109.267 11.7327 1282 92.9275 1326.01 460.947
2234 0 110.169 12.4626 1373 94.2666 1325.27 457.76
2235 0 114.077 12.5704 1434 93.7071 1325.69 454.789
2236 0 118.143 11.5115 1360 96.5044 1325.63 452.975
2237 0 121.207 12.0455 1460 95.2767 1325.46 449.557
2238 0 127.177 12.5259 1593 94.538 1325.57 448.937
2239 1 70.1266 12.8339 900 87.7611 1325.22 478.543
2240 0 73.0991 12.4215 908 87.7522 1324.98 478.214
2241 0 75.0978 11.3452 852 84.2899 1326.01 468.515
2242 0 77.0544 11.0182 849 85.5913 1325.78 465.33
2243 0 79.0867 11.0891 877 85.2463 1326.21 465.225
2244 0 82.2246 10.9821 903 85.0919 1326.08 465.751
2245 0 86.0934 11.2204 966 84.5145 1326.64 465.438
2246 0 88.1329 12.5379 1105 87.3701 1326.15 462.999
2247 0 87.0967 10.1267 882 88.3957 1325.95 460.205
2248 0 93.1107 12.4153 1156 83.1116 1325.66 460.013
2249 0 95.1484 11.1615 1062 86.2062 1325.83 457.956
2250 0 92.1155 11.225 1034 87.1799 1326.88 454.757
2251 0 99.16 10.9016 1081 87.4135 1326.38 454.633
2252 0 100.177 10.731 1075 89.1107 1325.98 451.561
2253 0 106.197 11.2998 1200 88.6625 1325.81 449.89
2254 0 108.112 13.0698 1413 85.8323 1325.77 443.292
2255 0 112.233 12.4028 1392 87.8139 1325.91 442.845
2256 0 114.139 10.8552 1239 92.8604 1326.6 448.695
2257 0 116.131 10.2556 1191 100.996 1325.92 456.034
2258 0 115.134 11.4388 1317 139.622 1325.94 453.361
2259 0 115.146 8.98859 1035 104.331 1325.78 450.539
2260 1 73.077 8.86736 648 94.0262 1326.59 467.978
2261 0 70.2045 9.01652 633 96.8483 1325.75 466.55
2262 0 79.1484 11.1942 886 83.5542 1326.29 468.924
2263 0 82.1342 12.1508 998 82.4469 1325.98 470.559
2264 0 84.0895 10.7267 902 86.0765 1326.07 471.703
2265 0 85.0843 10.8716 925 87.8768 1325.43 468.23
2266 0 88.0667 11.1847 985 86.8893 1325.4 469.065
2267 0 93.1634 12.3976 1155 85.413 1324.94 470.066
2268 0 96.1712 12.0826 1162 86.8804 1324.64 469.241
2269 0 96.1436 10.9836 1056 90.6184 1324.14 467.933
2270 0 103.101 13.3171 1373 86.1996 1323.76 467.133
2271 0 105.116 11.2732 1185 91.5848 1323.05 466.376
2272 0 105.116 11.3493 1193 133.68 1322.06 466.351
2273 0 112.245 11.7243 1316 91.5114 1322.64 460.998
2274 0 119.15 13.1934 1572 88.6323 1323.14 462.233
2275 0 121.226 12.8355 1556 91.0244 1322.92 456.97
2276 0 126.208 13.351 1685 91.6427 1321.66 456.216
2277 1 72.0572 10.1447 731 91.2709 1322.01 484.353
2278 0 75.1661 12.5855 946 92.9514 1321.24 484.817
2279 0 79.1434 13.4819 1067 90.493 1320.85 483.775
2280 0 80.1271 11.7813 944 93.8856 1320.26 481.814
2281 0 81.1349 11.487 932 94.6116 1320.53 478.843
2282 0 85.0886 11.5409 982 94.5438 1320.71 477.488
2283 0 90.075 12.8449 1157 91.4736 1320.54 477.328
2284 0 91.0956 11.7569 1071 95.2502 1320.48 474.937
2285 0 92.0581 11.4602 1055 96.3867 1320.21 472.247
2286 0 97.1379 11.3859 1106 96.7966 1320.09 470.115
2287 0 103.167 13.1922 1361 92.7906 1320.03 470.9
2288 0 105.191 12.9004 1357 93.8283 1319.37 469.941
2289 1 57.0944 8.72239 498 100.167 1318.88 495.088
2290 0 60.0968 11.8309 711 94.1913 1318.52 495.377
2291 0 64.0684 12.2369 784 94.2972 1319.16 493.457
2292 0 65.07 12.3867 806 91.4926 1319.22 492.617
2293 0 67.2208 12.2432 823 91.3742 1318.79 493.578
2294 0 67.5318 13.179 890 90.6112 1320.85 492.502
2295 0 71.221 12.3699 881 91.6708 1320.59 489.25
2296 0 75.1724 13.2628 997 82.7613 1320.83 490.699
2297 0 75.1344 10.4346 784 87.5395 1321.37 488.571
2298 0 79.0425 12.4363 983 83.5127 1321.32 486.808
2299 0 79.149 10.6887 846 86.3664 1321.74 483.903
2300 0 83.2074 12.0662 1004 83.9562 1321.4 481.645
2301 0 85.1694 11.0016 937 86.3202 1321.23 482.422
2302 0 88.2267 11.6065 1024 84.4277 1321.24 479.376
2303 0 91.1522 11.9032 1085 85.2912 1320.54 477.568
2304 0 93.1854 11.7508 1095 86.158 1321.53 476.996
2305 0 96.1954 9.9277 955 90.2188 1321.24 476.017
2306 0 100.22 11.2452 1127 88.5714 1321.33 475.535
2307 0 101.396 9.64536 978 93.5389 1320.32 471.981
2308 1 53.1416 7.75287 412 88.9418 1321.03 495.277
2309 0 56.1432 9.86762 554 82.4368 1320.43 496.249
2310 0 58.1779 9.4022 547 83.925 1319.37 490.433
2311 0 61.1295 11.3039 691 84.2055 1318.48 489.453
2312 0 63.121 11.2324 709 81.354 1319.21 493.416
2313 0 64.3117 11.4909 739 81.9432 1319.32 491.526
2314 0 65.2094 10.6733 696 84.0187 1319.78 488.67
2315 0 64.096 12.4345 797 82.133 1319.67 490.624
2316 0 68.1761 11.5436 787 83.2046 1321.39 487.141
2317 0 70.1946 11.9382 838 82.6026 1321.42 485.616
2318 0 74.3878 11.9912 892 82.6883 1321.06 483.927
2319 0 74.2218 11.3848 845 85.1527 1320.44 482.022
2320 0 78.2623 11.9342 934 84.3822 1321.13 482.5
2321 0 79.436 12.2992 977 85.1791 1320.84 479.707
2322 0 80.2175 12.3539 991 86.4612 1321.06 478.451
2323 0 83.2912 13.3027 1108 86.3881 1321.88 476.579
2324 0 87.302 13.0581 1140 87.1491 1322.04 476.109
2325 0 86.2068 11.31 975 92.5036 1321.6 475.7
2326 0 90.2554 12.8081 1156 92.5337 1321.32 475.888
2327 0 93.2133 11.9296 1112 95.3651 1321.54 474.817
2328 0 95.2929 13.2014 1258 95.2194 1321.4 471.782
2329 0 98.2958 11.8927 1169 98.16 1321.4 470.547
2330 0 101.176 12.246 1239 97.6069 1321.87 469.809
2331 0 103.385 12.8064 1324 98.3036 1321.7 468.646
2332 0 105.25 12.1045 1274 99.2418 1321.43 465.334
2333 0 108.238 12.2508 1326 98.1274 1322.28 466.878
2334 0 112.382 11.363 1277 100.862 1321.4 462.667
2335 1 63.2082 9.65064 610 95.5934 1321.82 487.048
2336 0 68.243 10.6091 724 92.6699 1321.73 486.688
2337 0 70.2875 12.6481 889 89.0742 1321.44 485.911
2338 0 69.0973 10.9556 757 93.5112 1321.95 482.999
2339 0 75.2237 11.951 899 90.0311 1322.24 481.144
2340 0 77.274 13.4974 1043 88.3595 1322.11 479.923
2341 0 78.2009 11.3937 891 93.6027 1322.08 476.464
2342 0 80.1515 12.7633 1023 91.4682 1322.11 474.755
2343 0 83.1553 12.158 1011 93.2542 1322.1 474.5
2344 0 86.2422 11.3517 979 95.3687 1321.33 471.32
2345 0 90.2952 12.5699 1135 92.3841 1321.64 468.343
2346 0 90.2798 10.113 913 98.3746 1321.66 466.171
2347 0 93.2058 10.4607 975 98.759 1322.02 461.483
2348 0 94.1554 9.77108 920 100.652 1321.57 460.109
2349 0 101.294 11.8467 1200 94.7967 1322.2 458.808
2350 0 101.298 11.402 1155 96.8277 1322.21 449.261
2351 0 106.151 10.8901 1156 96.3538 1321.9 450.786
2352 0 109.138 12.4705 1361 94.1352 1322.35 450.669
2353 1 60.0634 10.7386 645 89.4496 1322.36 474.136
2354 0 66.0848 12.3024 813 90.3948 1321.62 480.03
2355 0 67.0376 11.3817 763 98.7785 1321.44 477.48
2356 0 68.1316 13.3125 907 94.5182 1321.29 477.989
2357 0 71.1393 13.4665 958 95.0564 1321.83 467.164
2358 0 71.1543 12.6626 901 96.9878 1321.91 468.438
2359 0 76.0838 13.7743 1048 93.9399 1321.66 466.029
2360 0 77.0592 12.6786 977 96.7175 1322.27 467.366
2361 0 76.0654 12.016 914 100.334 1322.91 464.566
2362 0 82.1436 13.6347 1120 96.5705 1322.44 465.071
2363 0 83.1304 13.6172 1132 97.8357 1322.84 465.634
2364 0 86.0731 13.3143 1146 98.8866 1322.81 467.201
2365 0 87.0644 13.2086 1150 99.7774 1323.13 466.214
2366 0 92.1102 13.1907 1215 100.153 1322.51 464.569
2367 0 93.0621 15.033 1399 97.8292 1322.06 464.544
2368 0 96.1289 13.95 1341 99.9262 1322.35 461.186
2369 0 101.123 14.9323 1510 97.4649 1322.5 461.722
2370 0 102.086 15.6437 1597 97.0263 1322.97 459.576
2371 0 105.124 13.2511 1393 101.842 1323.4 458.426
2372 0 108.102 13.996 1513 100.408 1323.1 454.619
2373 0 110.058 12.6115 1388 103.39 1323.26 454.064
2374 0 114.048 12.3019 1403 103.046 1323.51 449.962
2375 1 65.1296 8.87461 578 99.09 1323.35 474.427
2376 0 64.1422 12.0669 774 92.655 1324.66 467.822
2377 0 70.047 11.2639 789 87.4943 1324.28 471.683
2378 0 73.0981 9.86346 721 90.2524 1323.77 469.239
2379 0 74.1235 11.3594 842 88.139 1324.51 467.179
2380 0 75.0901 10.4674 786 89.5114 1324.88 467.443
2381 0 81.0533 11.6837 947 87.2344 1324.82 466.05
2382 0 83.1163 11.9471 993 86.2367 1324.83 466.741
2383 0 87.1221 11.2601 981 87.2915 1324.62 466.325
2384 0 91.0836 12.0109 1094 85.9918 1325.57 464.415
2385 0 91.0803 10.6609 971 88.7878 1325.53 464.495
2386 0 94.1073 12.3051 1158 87.266 1325.6 459.297
2387 0 99.1257 11.6821 1158 87.9724 1324.86 461.042
2388 0 100.165 11.1117 1113 89.6873 1324.84 458.951
2389 0 102.178 11.4898 1174 90.1116 1324.94 455.345
2390 0 106.14 11.1739 1186 90.0961 1325.06 459.171
2391 0 110.262 12.8149 1413 87.9391 1324.67 454.432
2392 0 113.12 13.2514 1499 88.3776 1324.8 453.775
2393 0 117.187 12.4502 1459 90.3283 1324.6 452.143
2394 1 66.1137 9.27191 613 91.6378 1323.42 479.772
2395 0 66.0828 11.5915 766 91.0418 1323.52 481.402
2396 0 68.1147 11.0989 756 94.2315 1324.01 477.022
2397 0 72.0691 12.155 876 91.4886 1323.27 475.703
2398 0 73.0987 11.5187 842 93.747 1323.67 475.089
2399 0 77.153 12.8057 988 90.8077 1323.57 476.105
2400 0 78.0771 11.8729 927 93.7864 1323.06 474.519
2401 0 82.1703 12.8148 1053 92.2175 1323.31 471.207
2402 0 84.1164 13.196 1110 92.5369 1323.3 472.385
2403 0 83.0705 12.6278 1049 95.3489 1323.68 470.24
2404 0 86.1145 12.5066 1077 96.6351 1323.04 467.66
2405 0 90.1229 13.4261 1210 95.6157 1323.93 466.313
2406 0 93.1401 12.9697 1208 97.0232 1323.32 464.472
2407 0 94.1224 13.6206 1282 95.8253 1323.57 467.484
2408 0 99.1671 12.8571 1275 97.262 1324.06 463.145
2409 0 98.1498 12.8783 1264 98.3172 1325.06 461.373
2410 0 104.097 12.9975 1353 97.6593 1325.17 460.055
2411 0 103.211 11.9755 1236 102.264 1325.24 455.601
2412 0 107.307 11.7887 1265 102.247 1325.16 457.249
2413 0 109.293 12.2514 1339 102.581 1324.08 456.511
2414 0 113.3 13.0626 1480 101.419 1324.53 454.997
2415 0 116.252 11.1998 1302 105.342 1324.42 452.942
2416 0 122.193 12.5949 1539 102.406 1324.48 451.203
2417 0 127.286 11.9966 1527 104.549 1324.89 446.961
2418 1 73.2651 9.4861 695 104.06 1324.54 474.832
2419 0 77.1433 11.6018 895 98.9631 1325.36 474.193
2420 0 80.1895 12.7573 1023 98.1486 1325.51 470.484
2421 0 81.0916 12.2947 997 99.6861 1325.77 469.64
2422 0 83.117 12.5967 1047 100.153 1325.47 469.685
2423 0 87.1267 13.1303 1144 97.6495 1325.65 470.141
2424 0 90.2213 13.0346 1176 99.2823 1324.96 465.661
2425 0 92.2149 13.2083 1218 98.8292 1325.12 467.042
2426 0 96.2077 14.0425 1351 97.7846 1325.31 460.808
2427 0 99.2479 13.4915 1339 99.1352 1325.22 460.774
2428 0 102.355 13.5998 1392 99.0639 1325.61 458.967
2429 0 105.306 14.1112 1486 98.2752 1325.5 458.031
2430 0 107.354 13.395 1438 100.559 1325.19 456.077
2431 0 111.399 13.1599 1466 100.997 1325.54 452.994
2432 0 113.218 14.3882 1629 98.2719 1326.27 452.346
2433 0 117.308 13.9547 1637 98.529 1325.25 452.765
2434 0 121.358 13.8268 1678 100.148 1324.95 450.914
2435 0 125.271 11.3993 1428 102.047 1324.9 452.81
2436 1 69.0822 9.88678 683 91.3704 1323.48 479.179
2437 0 71.0525 9.42964 670 91.0836 1324.89 477.013
2438 0 73.0431 11.1167 812 90.9323 1325.67 475.495
2439 0 76.1079 10.4194 793 96.7944 1324.31 472.745
2440 0 80.0561 11.442 916 93.3057 1325.03 473.282
2441 0 80.1139 10.5725 847 95.4734 1325.5 471.941
2442 0 85.1586 10.8269 922 94.8785 1325.77 471.676
2443 0 85.1419 11.5924 987 94.8247 1325.98 469.163
2444 0 87.304 10.9961 960 98.0062 1325.97 466.329
2445 0 89.2278 11.4202 1019 97.1413 1325.66 464.838
2446 0 91.136 11.0165 1004 98.0667 1325.44 462.894
2447 0 94.1853 9.41761 887 99.5434 1325.68 463.362
2448 0 96.1553 10.7014 1029 97.7736 1325.66 459.415
2449 0 95.1199 9.78765 931 100.864 1326.06 457.929
2450 0 102.164 10.8648 1110 97.3441 1325.23 458.13
2451 0 103.173 10.4194 1075 99.2065 1324.93 455.543
2452 0 106.168 10.9449 1162 97.4802 1325.4 456.184
2453 0 108.19 8.71613 943 100.68 1325.99 454.758
2454 0 111.197 9.74847 1084 98.667 1325.64 450.163
2455 0 113.131 8.59184 972 100.021 1326.13 450.473
2456 0 116.21 9.32796 1084 100.602 1325.63 446.498
2457 0 119.213 10.4267 1243 98.9582 1325.41 444.881
2458 0 121.123 9.43668 1143 101.625 1325.12 440.849
2459 0 126.148 9.66323 1219 101.22 1325.03 439.853
2460 0 129.24 11.1885 1446 99.6715 1324.94 438.612
2461 0 133.224 8.36187 1114 103.31 1325.7 439.653
2462 0 142.12 10.1464 1442 99.9723 1325.51 435.189
2463 0 145.147 10.2655 1490 100.14 1325.44 430.985
2464 1 82.0982 9.73225 799 90.224 1326.07 465.305
2465 0 85.104 9.11826 776 91.2887 1327.18 464.322
2466 0 87.186 9.93278 866 98.9088 1326.18 460.935
2467 0 91.1899 11.2183 1023 95.393 1325.71 461.927
2468 0 95.1943 9.89555 942 97.7017 1326.47 462.019
2469 0 98.1294 11.6988 1148 95.1437 1326.18 460.676
2470 0 103.16 11.5936 1196 94.2575 1325.69 461.033
2471 0 103.21 10.9001 1125 96.0578 1326.12 458.655
2472 0 112.215 11.1928 1256 93.0032 1326.92 458.97
2473 0 111.176 12.5477 1395 93.2846 1325.87 452.396
2474 0 112.162 8.3629 938 98.8817 1326.42 452.171
2475 0 118.136 9.98848 1180 95.2627 1326.37 450.608
2476 0 120.151 10.4452 1255 91.537 1326.09 452.207
2477 0 117.193 7.21036 845 94.5006 1326.51 456.981
2478 1 128.264 7.80422 1001 96.7433 1326.64 440.736
2479 0 132.247 10.0191 1325 97.9298 1326.84 443.392
2480 0 136.244 10.6867 1456 96.5666 1325.48 445.402
2481 0 141.219 11.7053 1653 94.5747 1325.71 439.68
2482 0 146.143 10.4008 1520 96.371 1325.65 439.428
2483 0 151.213 11.2027 1694 95.7344 1325.61 435.672
2484 0 155.398 10.4506 1624 96.6539 1326.02 435.556
2485 0 156.226 9.40306 1469 99.5902 1326.71 428.304
2486 0 164.245 12.4143 2039 94.5606 1326.3 424.428
2487 0 171.315 11.0732 1897 95.8761 1326.68 426.508
2488 0 175.429 10.4373 1831 96.32 1326.21 426.875
2489 0 181.212 10.2476 1857 97.1836 1325.73 421.785
2490 0 185.345 9.98137 1850 97.9584 1325.74 420.258
2491 0 192.411 11.1428 2144 97.3256 1326.43 410.067
2492 1 150.398 10.7182 1612 94.2221 1325.97 434.318
2493 0 148.27 10.3797 1539 96.9461 1325.44 424.248
2494 1 60.0308 9.39518 564 87.7784 1326.35 478.817
2495 0 62.0354 10.0749 625 87.2192 1325.65 477.376
2496 0 62.131 11.009 684 88.3684 1325.92 475.781
2497 0 65.0417 10.8084 703 87.6942 1326.27 478.549
2498 0 67.0555 11.0058 738 88.0772 1326.36 475.875
2499 0 68.0541 10.1831 693 121.15 1327.38 476.407
2500 0 72.1714 13.1354 948 86.615 1325.95 471.534
2501 0 71.1356 10.8947 775 100.471 1326.12 472.44
2502 0 76.109 11.1682 850 100.581 1325.48 472.048
2503 0 83.1598 11.3276 942 101.031 1326.17 468.385
2504 0 81.0793 11.0756 898 102.385 1326.09 468.942
2505 0 81.1274 10.3911 843 105.745 1325.65 468.646
2506 0 80.1283 10.9075 874 107.803 1325.86 465.806
2507 0 87.1903 11.1595 973 105.942 1326.47 467.402
2508 0 89.1688 12.6165 1125 105.482 1326.44 464.724
2509 0 89.0701 11.9793 1067 108.17 1325.86 466.067
2510 0 95.1124 13.1949 1255 105.904 1326.29 463.765
2511 0 93.0951 11.0317 1027 114.338 1326.36 460.453
2512 0 99.1145 12.5814 1247 110.054 1326.77 460.774
2513 0 98.1606 12.3064 1208 112.406 1326.64 459.188
2514 0 104.125 13.263 1381 109.96 1327.23 458.412
2515 0 103.21 11.9465 1233 115.724 1326.79 452.546
2516 0 109.103 12.7586 1392 112.909 1327.91 453.02
2517 0 110.119 12.8861 1419 113.897 1327.56 454.102
2518 0 113.131 13.3827 1514 113.377 1327.41 453.001
2519 0 113.159 12.6459 1431 117.284 1327.93 450.344
2520 0 118.116 14.418 1703 111.938 1328.18 451.436
2521 0 123.262 13.6781 1686 113.397 1328.11 445.465
2522 0 124.165 12.7894 1588 116.923 1327.52 443.973
2523 1 72.0919 11.8044 851 100.691 1328.44 476.36
2524 0 74.1188 11.7514 871 101.792 1327.64 474.775
2525 0 75.067 11.3232 850 104.949 1326.38 471.208
2526 0 77.0662 11.3149 872 105.146 1327.26 469.875
2527 0 81.1191 12.081 980 102.44 1327.44 470.537
2528 0 83.0555 11.703 972 104.723 1326.85 467.522
2529 0 86.0796 12.2793 1057 103.717 1327.04 468.728
2530 0 88.1399 11.8448 1044 105.102 1326.81 467.594
2531 0 88.0542 11.3339 998 108.122 1326.91 463.638
2532 0 89.1124 10.1782 907 113.093 1326.2 460.84
2533 0 93.0846 10.4743 975 111.796 1327.81 462.18
2534 0 93.0778 11.0445 1028 110.493 1327.85 462.951
2535 0 97.1192 11.5528 1122 109.349 1327.24 462.588
2536 0 101.088 12.1379 1227 109.683 1326.59 457.702
2537 0 104.084 11.4138 1188 111.745 1327.03 457.463
2538 0 106.141 12.4175 1318 110.419 1327.12 455.241
2539 0 110.232 12.383 1365 110.697 1326.24 453.388
2540 0 112.102 11.8642 1330 113.264 1327.21 448.835
2541 0 118.215 12.7564 1508 110.184 1327.42 447.318
2542 0 121.132 12.1107 1467 110.157 1327.25 445.777
2543 1 68.154 11.0632 754 106.735 1327.53 472.7
2544 0 72.1118 12.5084 902 102.901 1328.24 472.558
2545 0 71.0467 11.1054 789 105.641 1328.19 471.7
2546 0 74.0823 12.3241 913 103.369 1327.75 471.007
2547 0 74.1232 10.4016 771 108.495 1328.03 470.883
2548 0 76.1218 9.97086 759 109.022 1328.73 470.988
2549 0 77.0459 10.6949 824 109.266 1328.55 468.551
2550 0 81.1248 12.1171 983 106.471 1327.79 466.157
2551 0 84.1213 11.0317 928 107.337 1328.01 469.414
2552 0 89.0868 11.6516 1038 106.989 1328.04 465.812
2553 0 90.0954 12.2537 1104 107.106 1328.15 463.545
2554 0 94.2512 12.8593 1212 106.407 1328.2 459.575
2555 0 95.1769 12.1353 1155 107.995 1327.9 461.545
2556 0 102.116 11.8982 1215 107.971 1328.32 457.472
2557 0 102.145 12.5214 1279 107.906 1327.84 457.07
2558 0 105.067 11.7734 1237 109.419 1328.34 457.664
2559 0 109.133 12.0128 1311 109.953 1327.94 452.272
2560 0 109.098 11.3935 1243 110.831 1328.46 456.123
2561 0 113.084 12.3449 1396 108.661 1328.1 454.273
2562 0 118.162 11.6958 1382 110.588 1327.22 452.072
2563 0 120.135 11.1458 1339 111.988 1327.41 450.412
2564 0 125.126 11.1727 1398 111.645 1327.73 449.834
2565 0 131.149 12.8632 1687 109.219 1328.24 443.727
2566 0 136.229 12.0019 1635 111.485 1327.25 439.461
2567 0 138.25 12.0579 1667 107.402 1327.84 440.488
2568 1 79.0311 10.654 842 103.679 1327.74 467.817
2569 0 82.0798 11.233 922 102.935 1327.51 467.584
2570 0 83.0606 11.2448 934 104.044 1327.39 463.731
2571 0 85.0764 9.52085 810 107.231 1328.04 463.063
2572 0 89.0677 10.8794 969 104.76 1328.09 463.393
2573 0 91.1313 10.9183 995 106.003 1327.91 460.955
2574 0 95.1521 11.1716 1063 105.349 1328.32 459.991
2575 0 96.1066 11.2167 1078 106.224 1328.44 460.73
2576 0 99.1077 11.5733 1147 104.782 1328.38 458.387
2577 0 102.083 11.2654 1150 107.69 1327.38 457.595
2578 0 109.145 12.882 1406 102.775 1327.88 457.145
2579 0 111.174 11.2527 1251 106.43 1327.54 455.559
2580 0 114.337 11.3699 1300 107.793 1327.82 450.261
2581 1 62.0774 11.4695 712 103.83 1327.75 473.395
2582 0 65.0693 11.9565 778 103.612 1327.78 474.413
2583 0 68.1016 13.1421 895 106.755 1327.96 475.313
2584 0 71.0816 12.4786 887 107.397 1328.31 475.22
2585 0 72.0916 12.6783 914 107.812 1327.89 472.428
2586 0 73.0459 12.8139 936 108.028 1327.95 472.9
2587 0 75.0738 12.8007 961 109.374 1328.18 468.86
2588 0 78.0904 11.8709 927 111.606 1328.37 468.803
2589 0 78.0597 11.8243 923 113.107 1328.44 469.016
2590 0 80.064 12.7023 1017 112.756 1327.3 467.39
2591 0 83.168 13.3345 1109 111.246 1327.6 465.407
2592 0 86.1852 11.9394 1029 112.743 1327.25 467.845
2593 0 89.0758 12.0572 1074 111.928 1327.16 466.466
2594 0 90.2035 13.1037 1182 110.494 1327.78 464.578
2595 0 94.1164 12.7077 1196 112.144 1327.59 463.565
2596 0 97.1445 13.2174 1284 110.863 1327.46 461.994
2597 0 99.1528 13.5548 1344 111.652 1327.59 457.579
2598 0 99.1521 12.3951 1229 114.787 1327.82 458.284
2599 0 102.229 12.6872 1297 115.326 1327.73 454.654
2600 0 107.215 12.4889 1339 115.919 1328.58 454.526
2601 0 109.353 14.1377 1546 110.953 1328.65 454.97
2602 0 110.1 12.1798 1341 118.131 1327.81 452.342
2603 0 111.187 13.2659 1475 116.666 1327.88 450.113
2604 0 118.251 12.6679 1498 116.527 1327.38 448.723
2605 0 120.218 12.4358 1495 115.654 1327.71 447.574
2606 1 71.1634 9.71005 691 110.313 1327.41 472.418
2607 0 73.2858 9.67445 709 109.227 1328.33 473.399
2608 0 75.2527 11.5212 867 108.57 1328.87 469.602
2609 0 78.2607 12.9439 1013 106.292 1327.72 470.971
2610 0 78.2607 12.8545 1006 130.106 1325.73 470.851
2611 0 84.2712 11.1545 940 115.605 1327.96 468.331
2612 0 87.2365 11.8758 1036 114.714 1327.61 465.699
2613 0 87.1747 12.5151 1091 115.17 1328.01 462.06
2614 0 93.1852 12.8776 1200 112.928 1328.12 464.768
2615 0 94.268 11.8386 1116 117.303 1328.52 460.958
2616 0 98.2583 12.4366 1222 114.696 1328.87 463.482
2617 0 100.203 12.9237 1295 116.013 1328.13 458.669
2618 0 101.24 11.5863 1173 119.7 1327.54 457.569
2619 1 57.3228 10.7636 617 109.682 1328 482.005
2620 0 59.079 11.4423 676 108.044 1328.04 480.351
2621 0 60.2195 12.0227 724 106.818 1327.57 481.619
2622 0 62.358 10.9369 682 118.431 1326.96 479.768
2623 0 65.1067 10.9973 716 116.881 1327.16 479.818
2624 0 66.1388 11.0223 729 117.258 1327.09 478.66
2625 0 69.158 11.8858 822 114.325 1327.03 478.05
2626 0 70.046 11.778 825 113.592 1327.2 477.476
2627 0 74.2174 11.6684 866 112.876 1327.18 475.835
2628 0 76.1019 12.1153 922 112.568 1326.62 474.216
2629 0 77.145 11.5886 894 113.868 1326.87 474.254
2630 0 82.1562 13.2796 1091 110.335 1326.78 471.616
2631 0 83.2156 12.2453 1019 113.642 1327.04 470.905
2632 0 86.1377 11.7138 1009 114.919 1326.83 471.057
2633 0 87.2195 11.8666 1035 116.329 1325.9 469.929
2634 0 87.3474 12.5934 1100 117.564 1325.95 463.6
2635 0 93.2396 12.5483 1170 115.965 1325.73 466.073
2636 0 96.1877 12.9538 1246 116.332 1326.42 463.836
2637 0 98.2111 11.6382 1143 119.828 1326.23 462.899
2638 0 103.188 12.0945 1248 118.599 1325.91 463.501
2639 0 107.235 13.4285 1440 115.582 1325.79 461.849
2640 0 107.264 12.679 1360 119.595 1325.47 456.424
2641 1 60.0387 10.1934 612 111.681 1326.15 484.77
2642 0 62.0629 10.3605 643 113.686 1326.38 481.431
2643 0 63.052 11.1971 706 113.698 1325.65 480.734
2644 0 67.0825 11.0461 741 114.507 1325.65 476.861
2645 0 70.0879 12.042 844 112.32 1325.3 476.936
2646 0 71.0361 10.9803 780 113.933 1324.95 478.099
2647 0 74.0897 10.2039 756 115.934 1324.81 477.111
2648 0 79.0734 11.8245 935 113.104 1325.07 473.73
2649 0 79.0721 9.8897 782 117.421 1325.33 474.06
2650 0 79.1122 10.2639 812 118.425 1324.93 471.91
2651 0 80.1254 10.858 870 117.307 1325.05 472.531
2652 0 89.2109 10.9067 973 117.159 1325.41 467.349
2653 0 92.2103 12.2329 1128 114.582 1324.37 468.218
2654 0 92.1541 11.9148 1098 117.159 1325.1 462.912
2655 0 98.1505 12.002 1178 114.554 1325.3 465.906
2656 1 181.316 12.0397 2183 125.745 1324.3 423.735
2657 0 189.318 12.6771 2400 123.468 1325.17 419.175
2658 0 195.432 12.9355 2528 123.987 1324.74 413.602
2659 0 200.459 11.7381 2353 127.324 1325.34 410.015
2660 1 113.1 9.6198 1088 119.294 1325.59 455.352
2661 0 117.171 9.85739 1155 118.481 1324.63 453.887
2662 0 120.132 12.5778 1511 118.103 1324.79 453.533
2663 0 125.194 12.7243 1593 116.165 1324.92 453.478
2664 0 129.167 11.9458 1543 118.106 1323.97 450.09
2665 0 131.27 11.6021 1523 117.874 1324.18 449.215
2666 0 138.17 11.6668 1612 117.057 1324.37 445.44
2667 0 140.201 12.5035 1753 115.058 1324.34 441.157
2668 0 145.173 10.4427 1516 117.329 1324.75 444.488
2669 0 148.2 10.135 1502 117.621 1324.47 441.184
2670 1 86.1113 11.0555 952 108.023 1325.11 467.916
2671 0 88.137 10.5404 929 108.332 1324.74 467.153
2672 0 90.1108 9.84344 887 108.428 1325.74 467.431
2673 0 94.2468 10.4195 982 105.649 1325.35 466.144
2674 0 94.2605 10.4285 983 131.736 1324.34 466.414
2675 0 95.1682 10.2765 978 106.87 1324.92 463.799
2676 0 103.164 11.7579 1213 103.947 1324.99 460.249
2677 0 106.141 11.5978 1231 103.873 1325.64 457.043
2678 0 111.314 11.7685 1310 102.811 1325.75 457.186
2679 0 112.363 9.69178 1089 106.595 1325.39 457.86
2680 0 117.306 11.0736 1299 104.756 1325.53 454.602
2681 1 64.1191 8.95209 574 102.89 1325.34 479.772
2682 0 69.1175 12.2545 847 99.7261 1326.08 477.266
2683 0 73.1253 11.6649 853 98.6764 1326.06 475.717
2684 0 72.164 10.878 785 105.54 1325.75 474.595
2685 0 75.153 11.4966 864 105.267 1325.73 470.618
2686 0 79.1788 11.8719 940 103.665 1325.65 471.987
2687 0 79.1655 11.3181 896 105.597 1325.39 472.769
2688 0 84.2296 11.3974 960 105.431 1325.35 471.207
2689 0 84.1188 12.4586 1048 105.138 1325.22 466.915
2690 0 88.1652 11.6599 1028 106.792 1325.51 468.077
2691 0 90.2035 12.9374 1167 106.135 1325.92 466.268
2692 0 94.1986 13.928 1312 103.415 1325.68 464.765
2693 0 96.0955 12.6125 1212 107.597 1325.36 465.38
2694 0 99.216 13.0826 1298 107.691 1325.55 463.542
2695 0 102.241 12.8911 1318 108.796 1325.41 463.958
2696 0 104.143 13.2222 1377 110.125 1325.06 461.849
2697 0 104.196 13.2251 1378 112.525 1325.44 456.374
2698 0 107.216 12.5634 1347 114.727 1325.87 459.117
2699 0 111.238 12.8193 1426 113.936 1325.85 456.888
2700 0 116.258 12.4981 1453 114.24 1325.82 456.599
2701 0 119.308 13.746 1640 113.935 1325.81 455.968
2702 0 121.215 12.8119 1553 116.039 1325.85 451.279
2703 0 124.347 13.4301 1670 115.935 1325.76 448.173
2704 1 69.2553 11.1905 775 114.241 1327.22 477.09
2705 0 71.1767 12.8694 916 110.556 1326.27 475.171
2706 0 71.1463 11.8207 841 114.004 1325.69 473.937
2707 0 77.1463 13.0272 1005 108.716 1325.98 471.495
2708 0 76.1572 12.2116 930 112.981 1325.85 470.847
2709 0 79.1852 12.8686 1019 110.902 1326.62 471.522
2710 0 79.1325 11.4997 910 115.67 1326.67 469.493
2711 0 82.1058 11.5704 950 116.097 1326.85 469.022
2712 0 87.2708 12.6503 1104 112.232 1326.69 465.731
2713 0 89.0881 11.5504 1029 115.064 1326.89 463.953
2714 0 91.1643 11.5835 1056 115.344 1327.23 462.604
2715 0 95.1704 11.0644 1053 116.273 1326.87 465.359
2716 0 97.1354 14.1555 1375 110.196 1327.13 462.759
2717 0 100.147 13.0408 1306 113.864 1326.92 461.253
2718 0 102.081 12.1473 1240 117.073 1326.97 458.156
2719 0 108.415 17.0272 1846 103.192 1327.61 452.109
2720 0 106.115 11.7891 1251 119.631 1326.3 452.13
2721 0 110.24 12.5998 1389 117.97 1326.74 450.337
2722 0 115.225 12.8271 1478 117.077 1326.2 450.61
2723 0 118.156 14.1846 1676 114.564 1326.95 448.804
2724 0 120.195 12.2384 1471 121.808 1325.55 443.741
2725 0 126.222 13.5079 1705 118.711 1325.47 440.758
2726 0 131.165 14.2569 1870 117.403 1326.15 440.761
2727 1 75.0415 10.9939 825 120.422 1325.54 466.272
2728 0 81.1364 11.6347 944 118.94 1323.99 468.426
2729 0 81.1163 11.6006 941 120.278 1324.16 467.905
2730 0 84.1525 11.396 959 121.33 1324.67 464.547
2731 0 88.1085 12.9953 1145 116.847 1325.13 462.984
2732 0 89.0705 13.6409 1215 115.722 1325.34 461.74
2733 0 92.0796 13.2494 1220 115.801 1324.52 461.043
2734 0 94.0664 11.7258 1103 118.097 1324.95 460.563
2735 0 94.1355 10.3787 977 122.036 1324.99 458.843
2736 0 99.1426 11.7104 1161 118.456 1324.52 456.96
2737 0 102.16 12.5392 1281 117.062 1324.68 456.304
2738 0 103.25 11.6029 1198 120.42 1324.88 455.825
2739 0 108.125 12.2359 1323 117.63 1324.79 455.565
2740 0 111.169 12.4765 1387 117.192 1325.92 453.662
2741 0 112.151 12.2781 1377 118.906 1325.11 450.053
2742 0 114.087 11.6227 1326 120.505 1325.5 448.697
2743 0 119.16 12.2944 1465 117.967 1325.66 448.777
2744 0 121.147 12.0349 1458 119.042 1325.91 445.734
2745 0 122.222 12.2318 1495 119.347 1325.99 439.074
2746 0 128.153 13.6556 1750 115.263 1325.78 433.579
2747 0 132.161 12.9539 1712 116.656 1325.59 433.577
2748 0 137.304 12.7236 1747 116.385 1325.78 432.487
2749 0 141.204 13.0591 1844 115.416 1325.94 431.46
2750 1 84.1047 12.211 1027 109.965 1326.19 460.87
2751 0 82.1375 10.9207 897 113.232 1326.99 455.865
2752 0 86.196 12.6108 1087 108.717 1327 451.533
2753 0 92.0855 12.3907 1141 106.396 1326.18 458.741
2754 0 94.1314 12.7163 1197 106.217 1326.4 460.088
2755 0 97.1507 12.177 1183 108.13 1326.5 455.484
2756 0 98.1674 12.4991 1227 108.271 1326.48 455.064
2757 0 98.1263 11.0368 1083 112.559 1326.3 453.632
2758 0 102.211 12.4057 1268 109.358 1326.02 450.235
2759 0 101.154 11.3589 1149 112.859 1326.42 447.979
2760 0 108.243 12.5181 1355 108.553 1326.75 447.534
2761 0 110.309 11.903 1313 110.395 1327.34 445.209
2762 0 114.318 12.7539 1458 108.253 1327.04 445.591
2763 0 114.325 12.7006 1452 134.563 1328.03 445.461
2764 0 121.307 11.7141 1421 110.591 1326.81 440.534
2765 0 128.51 14.2012 1825 104.241 1326.67 438.428
2766 0 134.372 12.8077 1721 106.911 1326.79 435.871
2767 0 138.345 12.8664 1780 104.872 1326.14 430.808
2768 1 77.1348 10.8511 837 107.429 1325.81 463.005
2769 0 81.1815 10.7906 876 106.194 1326.2 464.888
2770 0 86.3716 12.9556 1119 100.29 1326.95 459.906
2771 0 86.2802 11.9031 1027 104.315 1326.14 455.401
2772 0 87.2993 12.4056 1083 140.852 1325.24 456.572
2773 0 94.3334 13.3463 1259 98.4972 1326.26 460.098
2774 0 95.2854 12.4258 1184 101.679 1326.25 457.531
2775 0 95.2854 12.5098 1192 140.68 1326.26 457.559
2776 0 99.2976 14.1091 1401 99.0671 1325.75 455.425
2777 0 98.3276 12.8957 1268 102.412 1326.25 450.961
2778 0 108.36 13.8889 1505 97.3163 1326.41 451.131
2779 0 109.453 13.9512 1527 97.8199 1325.84 449.924
2780 0 111.369 12.508 1393 100.718 1325.82 447.77
2781 0 112.359 13.2788 1492 99.7212 1325.56 444.043
2782 0 116.214 12.8298 1491 100.782 1325.32 439.761
2783 0 115.349 11.0361 1273 105.483 1324.9 437.665
2784 0 126.389 13.6484 1725 99.4591 1325.32 435.254
2785 1 69.2758 10.1334 702 102.991 1324.7 462.507
2786 0 67.2216 9.38687 631 100.396 1325.61 460.634
2787 0 73.2094 10.8183 792 95.1376 1325.67 459.966
2788 0 75.2286 11.4717 863 94.9293 1325.67 463.724
2789 0 78.2298 10.6993 837 98.2366 1325.56 462.151
2790 0 85.2438 12.8455 1095 93.0794 1326.17 461.076
2791 0 86.2744 13.1209 1132 93.7094 1325.67 461.433
2792 0 88.2597 12.4972 1103 96.1151 1325.84 457.976
2793 0 91.1857 13.3683 1219 94.936 1325.89 459.322
2794 0 94.2393 13.1792 1242 95.4332 1326.22 457.036
2795 0 98.3054 12.8986 1268 99.1782 1326.1 454.939
2796 0 99.3686 13.6864 1360 98.1448 1326.57 453.659
2797 0 102.359 12.8371 1314 99.7344 1325.8 454.462
2798 0 99.1678 12.1612 1206 102.935 1326.19 451.195
2799 0 103.313 12.5154 1293 103.28 1326.09 446.927
2800 0 108.279 11.9691 1296 103.349 1326.47 448.914
2801 0 109.206 13.415 1465 102.076 1325.64 441.036
2802 0 116.185 15.0536 1749 97.3162 1325.55 444.731
2803 0 119.29 13.354 1593 101.092 1325.44 441.35
2804 0 118.314 12.695 1502 103.23 1326 440.927
2805 1 67.1553 10.1705 683 101.362 1326.3 463.16
2806 0 63.1795 9.9241 627 103.855 1326.09 460.113
2807 0 75.3076 11.6854 880 96.15 1326.04 464.877
2808 0 78.1551 11.5411 902 93.9202 1326.44 464.59
2809 0 84.2066 11.1036 935 94.0545 1326.78 465.154
2810 0 85.0784 11.7186 997 94.6389 1326.66 463.235
2811 0 86.3216 10.5883 914 97.5328 1326.53 459.62
2812 0 88.1258 11.9034 1049 94.714 1326.05 460.545
2813 0 90.1628 11.9451 1077 95.8282 1325.98 453.198
2814 0 89.2221 12.9116 1152 95.059 1326.27 454.119
2815 0 95.2918 12.4565 1187 95.0817 1326.55 455.872
2816 0 97.1128 12.9437 1257 94.9562 1325.32 451.025
2817 0 96.1814 12.5388 1206 96.772 1326.01 450.723
2818 0 102.237 13.0481 1334 95.5982 1325.66 448.791
2819 0 103.128 13.0712 1348 96.3828 1324.91 448.631
2820 0 103.177 13.3072 1373 96.8427 1324.79 440.857
2821 0 106.287 13.2189 1405 96.8456 1325.49 441.09
2822 0 112.19 13.6643 1533 95.2414 1324.95 438.154
2823 0 114.175 13.8034 1576 94.828 1326 436.872
2824 0 121.163 14.2205 1723 94.2716 1325.17 435.627
2825 0 115.117 10.902 1255 102.731 1324.55 430.649
2826 0 129.197 13.3517 1725 96.3003 1325.29 430.688
2827 0 128.181 14.3859 1844 95.0889 1325.74 428.857
2828 0 137.259 14.061 1930 95.2212 1325.16 429.057
2829 0 142.25 14.5589 2071 95.0584 1325.26 420.511
2830 1 78.0597 12.3239 962 92.7287 1325.67 456.88
2831 0 80.0553 9.89316 792 96.8068 1326.24 458.42
2832 0 84.1218 9.68834 815 98.4442 1326.19 454.091
2833 0 87.1006 12.1009 1054 94.1879 1325.86 449.261
2834 0 91.0761 11.7155 1067 93.8828 1326.62 452.862
2835 0 94.1504 11.0886 1044 96.2414 1326.05 446.131
2836 0 94.0896 11.1489 1049 97.0724 1325.71 445.6
2837 0 103.165 11.4573 1182 94.1684 1325.71 446.425
2838 0 103.1 10.0485 1036 98.0367 1324.95 449.2
2839 0 108.189 11.7202 1268 94.9519 1324.02 445.97
2840 0 109.146 12.9001 1408 92.4013 1324.62 444.616
2841 0 110.127 11.5775 1275 94.2627 1324.39 436.891
2842 0 114.142 13.6585 1559 90.5196 1325.48 441.36
2843 0 119.371 14.4843 1729 88.7629 1324.93 436.356
2844 0 125.099 13.5893 1700 90.3412 1324.66 432.324
2845 0 123.131 11.9791 1475 94.2108 1324.76 429.961
2846 0 131.187 12.9204 1695 91.7681 1324.43 427.406
2847 1 70.14 8.58283 602 94.7309 1324.67 455.289
2848 0 79.3208 8.98881 713 92.2609 1325.22 456.436
2849 0 82.1984 10.9613 901 87.9123 1325.23 456.848
2850 0 87.2849 10.4485 912 89.5285 1324.38 457.572
2851 0 91.3019 10.4598 955 90.1571 1324.03 455.05
2852 0 92.1672 12.1301 1118 88.3488 1324.97 453.41
2853 0 90.1807 12.3751 1116 90.6192 1324.05 448.875
2854 0 94.1508 11.7684 1108 92.1462 1323.98 447.478
2855 0 99.1996 12.3287 1223 90.4489 1323.8 450.546
2856 0 100.152 12.9503 1297 91.185 1324.09 444.61
2857 0 100.172 11.3505 1137 95.825 1323.82 442.555
2858 0 107.202 11.5763 1241 94.2546 1323.97 444.491
2859 0 112.121 10.9525 1228 96.9707 1323.52 436.489
2860 0 115.116 10.7804 1241 98.4464 1322.99 435.346
2861 0 121.133 12.5812 1524 95.1037 1323.62 442.192
2862 0 125.099 10.8714 1360 99.1456 1323.49 436.796
2863 0 132.256 13.9276 1842 91.4995 1322.91 440.995
2864 0 134.101 12.1401 1628 96.5276 1323.75 434.292
2865 0 137.145 12.6144 1730 97.333 1322.58 432.795
2866 0 147.187 13.9143 2048 91.3477 1323.18 435.881
2867 0 151.135 13.1208 1983 94.8835 1323.1 427.396
2868 0 155.229 12.2206 1897 95.7918 1324.38 422.612
2869 1 91.0833 9.67246 881 97.6379 1325.74 451.459
2870 0 95.0874 10.8006 1027 95.5706 1325.48 450.829
2871 0 98.0998 12.0693 1184 93.6444 1325.09 451.488
2872 0 102.103 12.1838 1244 93.0563 1324.98 452.697
2873 0 105.114 12.6339 1328 94.4375 1324.85 446.511
2874 0 104.083 10.4436 1087 101.008 1325.39 444.394
2875 0 108.104 12.5712 1359 95.9647 1325.37 447.558
2876 0 115.126 12.6123 1452 92.0138 1325.41 448.871
2877 0 115.115 11.2931 1300 97.02 1325.22 443.61
2878 0 124.182 15.4934 1924 86.4553 1325.41 436.016
2879 0 124.118 14.5345 1804 91.041 1324.93 436.096
2880 0 124.181 11.6926 1452 100.24 1325.43 438.424
2881 0 123.143 11.8074 1454 101.274 1323.95 434.292
2882 0 131.234 12.2758 1611 99.198 1324.15 436.341
2883 0 136.14 11.4 1552 101.88 1324.02 434.43
2884 0 134.204 11.3409 1522 103.321 1323.98 431.947
2885 0 142.119 13.2283 1880 98.6984 1324.53 429.955
2886 0 147.143 12.634 1859 100.103 1324.88 427.054
2887 0 149.102 12.9777 1935 101.257 1324.35 423.978
2888 0 153.168 12.8748 1972 102.258 1324.78 421.334
2889 0 154.118 13.6324 2101 100.034 1324.59 416.513
2890 0 159.075 10.4479 1662 108.379 1325.22 418.257
2891 0 158.125 10.6182 1679 109.079 1324.8 419.949
2892 1 103.077 11.5254 1188 95.5614 1324.61 448.484
2893 0 107.228 10.1653 1090 97.4211 1325.16 445.15
2894 0 107.15 10.6767 1144 94.7299 1324.54 443.846
2895 0 115.368 12.6899 1464 89.9174 1324.31 447.087
2896 0 116.174 10.5876 1230 96.6057 1324.72 438.967
2897 0 118.113 10.5492 1246 99.1685 1324.5 435.759
2898 0 123.124 11.0539 1361 98.8501 1324.22 433.982
2899 0 126.202 11.8065 1490 98.5289 1324.57 438.524
2900 0 130.253 11.5545 1505 100.032 1324.32 437.536
2901 0 133.218 10.8093 1440 104.901 1323.7 431.265
2902 0 140.216 14.499 2033 98.9818 1324.76 433.742
2903 0 143.151 14.9981 2147 99.2739 1325.23 432.274
2904 0 144.166 12.1734 1755 108.586 1324.53 424.124
2905 0 141.134 12.2862 1734 105.55 1324.9 424.369
2906 1 152.273 13.4232 2044 106.189 1324.76 419.641
2907 0 156.097 12.5755 1963 108.773 1324.88 415.847
2908 0 157.107 13.3539 2098 107.696 1324.99 415.804
2909 0 161.137 13.2496 2135 108.85 1325.1 411.05
2910 0 163.146 13.2151 2156 109.937 1324.94 406.262
2911 1 97.1721 9.51919 925 106.168 1325.03 446.251
2912 0 102.218 9.49934 971 107.119 1324.34 444.472
2913 0 105.215 10.968 1154 99.6378 1324.7 444.969
2914 0 112.213 11.4069 1280 96.0406 1324.54 444.44
2915 0 109.183 9.31463 1017 102.574 1325.05 439.979
2916 0 120.2 10.9484 1316 97.2097 1325.31 443.068
2917 0 117.25 11.0618 1297 99.67 1325.05 437.163
2918 0 123.362 11.2109 1383 99.5944 1324.85 435.916
2919 0 129.324 12.2715 1587 96.3163 1325.62 439.13
2920 0 128.222 11.4879 1473 101.147 1324.77 435.487
2921 0 137.403 12.5179 1720 100.401 1324.4 427.877
2922 0 139.361 12.7654 1779 102.356 1324.79 427.66
2923 0 141.351 10.9727 1551 109.85 1324.38 428.466
2924 0 140.291 12.4313 1744 107.489 1324.71 419.691
2925 0 147.298 12.5324 1846 105.853 1324.3 421.367
2926 0 153.203 11.8013 1808 108.697 1325.03 411.841
2927 0 158.325 12.8407 2033 107.538 1325.04 410.442
2928 1 86.1035 9.92992 855 108.099 1324.79 444.393
2929 0 94.3143 12.1403 1145 100.613 1325.3 450.675
2930 0 93.1806 9.76598 910 107.01 1325.22 435.569
2931 0 100.133 12.5434 1256 99.8989 1325.2 436.615
2932 0 103.216 11.2871 1165 102.659 1324.95 436.112
2933 0 105.167 11.8288 1244 102.851 1325.67 433.69
2934 0 105.154 11.9444 1256 104.048 1325.2 432.86
2935 0 110.282 11.8786 1310 103.728 1324.99 427.402
2936 0 115.08 13.382 1540 99.4494 1325.31 439.742
2937 0 115.123 11.1967 1289 104.544 1324.9 436.936
2938 0 122.067 11.5429 1409 102.769 1325.29 434.241
2939 0 131.124 12.5682 1648 100.068 1325.94 437.63
2940 0 136.143 13.8751 1889 97.7745 1324.82 436.343
2941 0 139.188 12.7812 1779 99.9741 1325.15 430.662
2942 0 143.137 12.5614 1798 100.191 1325.23 431.967
2943 0 151.183 14.0955 2131 97.4514 1324.34 425.561
2944 0 154.197 13.1844 2033 99.154 1324.92 428.218
2945 0 160.187 13.1097 2100 99.7143 1324.66 422.747
2946 0 165.346 12.7793 2113 100.177 1324.14 422.519
2947 0 170.254 12.9924 2212 98.6763 1324.2 416.484
2948 0 173.204 11.5875 2007 102.195 1323.71 414.202
2949 0 179.211 13.1465 2356 97.9325 1324.3 415.383
2950 1 105.161 12.3239 1296 95.2631 1323.93 446.737
2951 0 110.214 10.8516 1196 97.7851 1324 446.849
2952 0 116.239 11.6398 1353 95.7657 1324.13 448.089
2953 0 116.179 12.0848 1404 96.3568 1323.9 442.496
2954 0 118.361 12.2506 1450 96.4855 1323.48 441.22
2955 0 122.299 11.1203 1360 98.689 1323.24 440.312
2956 0 124.372 12.4707 1551 96.4655 1323.81 434.462
2957 0 128.36 11.1406 1430 98.9224 1324.2 433.161
2958 0 133.328 12.158 1621 97.5164 1323.71 431.948
2959 0 140.255 12.1778 1708 92.4977 1323.99 435.036
2960 0 144.43 11.2511 1625 96.3311 1324.2 427.705
2961 1 83.2059 10.6723 888 93.1115 1324.1 464.287
2962 0 84.1455 10.2917 866 94.4469 1323.92 466.829
2963 0 83.0967 10.8669 903 95.7342 1323.52 457.564
2964 0 90.2177 12.492 1127 93.5146 1322.77 456.473
2965 0 92.1287 13.1772 1214 93.196 1323.33 455.418
2966 0 96.2576 13.1522 1266 93.1722 1322.83 455.657
2967 0 97.2658 12.9233 1257 94.8091 1323.12 454.152
2968 0 100.206 14.4102 1444 92.7853 1322.89 454.406
2969 0 101.148 14.6518 1482 93.4912 1322.93 455.554
2970 0 105.243 14.8419 1562 92.235 1323.89 454.873
2971 0 104.174 12.8727 1341 97.2394 1323.5 453.54
2972 0 108.177 13.783 1491 95.9423 1323.82 453.679
2973 0 111.158 14.3939 1600 94.16 1323.53 455.219
2974 0 112.19 12.7552 1431 99.4333 1323.65 451.201
2975 0 117.245 13.007 1525 99.823 1323.3 449.475
2976 0 118.111 12.556 1483 101.14 1323.59 446.962
2977 0 120.135 12.1863 1464 103.047 1323.69 443.482
2978 0 126.165 13.1494 1659 100.143 1324.2 442.028
2979 0 129.343 11.9296 1543 102.904 1323.98 439.583
2980 1 75.199 9.25544 696 102.573 1324.34 463.586
2981 0 77.213 10.9826 848 99.9882 1324.46 463.133
2982 0 82.0435 11.2257 921 98.9457 1325.7 459.833
2983 0 81.1689 11.667 947 99.3728 1325.72 456.699
2984 0 86.1441 11.028 950 99.3084 1325.84 459.036
2985 0 88.0702 11.4908 1012 97.2787 1325.62 458.787
2986 0 90.0632 11.8361 1066 98.1398 1325.14 453.8
2987 0 93.1499 12.335 1149 97.55 1324.8 453.001
2988 0 95.1534 11.4237 1087 98.8243 1324.75 452.846
2989 0 98.107 12.1296 1190 97.5748 1325.4 451.634
2990 0 98.0599 13.2776 1302 96.2565 1324.81 450.631
2991 0 100.082 11.7904 1180 99.7034 1324.99 444.653
2992 0 106.076 12.5759 1334 96.8141 1324.88 445.19
2993 0 110.121 13.1673 1450 95.7972 1324.09 443.166
2994 0 112.054 11.7443 1316 96.1573 1324.68 441.512
2995 0 116.171 11.9651 1390 100.532 1324.3 447.356
2996 0 123.126 12.9136 1590 96.4887 1324.16 428.345
2997 0 126.21 12.4079 1566 94.099 1324.31 431.734
2998 1 72.0812 10.7518 775 87.2723 1323.27 462.506
2999 0 77.1682 11.9479 922 93.3362 1324.22 465.766
3000 0 80.2137 12.5914 1010 92.7426 1324.63 461.208
3001 0 83.1063 13.1157 1090 91.0532 1324.96 461.748
3002 0 85.0665 13.0016 1106 91.4729 1324.9 461.821
3003 0 87.0937 14.5246 1265 88.9715 1325.67 457.534
3004 0 90.1218 14.2474 1284 90.1051 1325.19 459.069
3005 0 94.125 13.6946 1289 90.4903 1325.03 455.154
3006 0 94.0973 12.7421 1199 92.4112 1324.84 454.494
3007 0 97.1593 13.0404 1267 91.974 1325.48 453.692
3008 0 99.0906 12.8367 1272 92.7076 1325.37 452.07
3009 0 102.107 13.3683 1365 91.8747 1324.84 448.05
3010 0 104.165 12.845 1338 93.4051 1324.52 449.335
3011 0 109.169 13.0349 1423 92.4294 1324.93 446.077
3012 0 111.199 14.6853 1633 90.4311 1324.42 444.482
3013 0 114.144 13.8246 1578 92.4379 1325.32 443.093
3014 0 118.219 15.6997 1856 88.8324 1325.4 442.925
3015 0 122.197 14.9268 1824 92.546 1324.76 437.968
3016 0 124.32 14.8005 1840 96.5571 1324.35 434.841
3017 0 129.227 15.1981 1964 94.4542 1324.76 436.26
3018 0 132.206 14.1824 1875 97.7696 1325.16 429.917
3019 0 135.21 13.3274 1802 98.5588 1324.54 434.174
3020 1 78.1372 10.3024 805 94.1963 1324.85 437.421
3021 0 81.1032 10.8627 881 93.6549 1323.96 427.504
3022 0 83.0413 11.9338 991 89.6196 1324.15 429.855
3023 0 86.0577 11.4458 985 90.5472 1323.72 433.988
3024 0 86.1453 10.4591 901 92.0855 1323.72 437.089
3025 0 90.0529 11.893 1071 90.7218 1323.04 438.472
3026 0 94.1676 12.722 1198 88.5209 1323.81 441.396
3027 0 97.1045 13.3773 1299 88.3811 1324.05 443.711
3028 0 99.1075 12.3906 1228 91.1042 1324.27 446.092
3029 0 103.305 12.4293 1284 91.4946 1323.46 440.446
3030 0 105.141 11.651 1225 94.3004 1323.73 435.174
3031 0 108.189 13.4487 1455 91.6419 1323.3 437.966
3032 0 109.189 11.8418 1293 96.1972 1322.89 434.346
3033 0 113.171 13.0245 1474 95.3474 1323.87 430.849
3034 0 117.149 14.1188 1654 94.942 1323.94 427.552
3035 0 123.146 13.1227 1616 96.3472 1324.31 431.326
3036 0 126.151 13.8485 1747 96.2032 1324.06 432.69
3037 0 128.166 12.3511 1583 100.582 1323.82 435.898
3038 0 134.331 14.5089 1949 95.3669 1324.98 439.076
3039 1 74.0994 12.1728 902 95.2838 1324.86 466.425
3040 0 77.0997 12.8794 993 94.6596 1323.48 458.415
3041 0 80.1886 13.4558 1079 94.0306 1323.74 463.889
3042 0 81.0847 12.8878 1045 93.9378 1323.15 458.808
3043 0 83.0881 12.3724 1028 95.0029 1323.61 457.63
3044 0 85.0955 13.432 1143 92.4681 1323.99 459.467
3045 0 88.1154 12.8241 1130 94.5637 1323.85 457.451
3046 0 90.0771 13.7549 1239 89.8765 1324.24 458.648
3047 0 91.0721 13.0885 1192 94.3993 1324.27 462.852
3048 0 93.1692 12.8476 1197 96.8338 1324.01 467.318
3049 0 93.1592 12.6665 1180 90.0686 1324.76 466.092
3050 0 95.1069 12.0391 1145 97.5712 1325.51 462.986
3051 0 94.0845 13.6048 1280 96.3172 1324.89 466.145
3052 0 96.1467 12.9386 1244 99.5137 1324.44 459.81
3053 0 97.099 12.8735 1250 98.6656 1324.58 462.451
3054 0 99.1481 13.0814 1297 97.6554 1325.9 462.289
3055 0 103.247 13.4919 1393 96.1062 1325.75 462.918
3056 0 104.105 12.862 1339 97.9507 1325.93 459.431
3057 0 106.098 11.1218 1180 100.488 1325.35 457.014
3058 0 111.096 11.6566 1295 98.9344 1325.18 452.954
3059 0 119.197 12.4332 1482 94.4946 1325.6 453.873
3060 0 122.151 12.8283 1567 94.8526 1325.37 450.502
3061 0 126.293 13.6825 1728 93.6788 1325.51 447.247
3062 0 130.332 13.082 1705 95.6194 1325.47 445.815
3063 0 133.257 13.5077 1800 96.1806 1324.69 445.426
3064 1 76.3642 11.2749 861 95.417 1325.09 475.728
3065 0 77.0875 12.0772 931 97.2503 1324.78 471.639
3066 0 79.3072 12.647 1003 95.7248 1324.95 470.647
3067 0 83.1628 13.1309 1092 95.6209 1323.96 472.349
3068 0 83.2109 13.7482 1144 97.3601 1324.71 468.573
3069 0 86.2431 14.2504 1229 97.45 1325.7 466.564
3070 0 87.3276 12.997 1135 102.111 1324.85 467.645
3071 0 89.4223 13.1958 1180 103.658 1324.34 465.942
3072 0 91.4561 12.5306 1146 107.367 1324.7 457.687
3073 0 94.2925 13.3309 1257 107.197 1324.39 459.309
3074 0 95.4206 13.7497 1312 107.927 1324.93 458.982
3075 0 100.368 14.5066 1456 106.486 1324.55 453.188
3076 0 101.289 14.3845 1457 108.577 1324.75 453.609
3077 0 102.38 12.7271 1303 114.994 1324.45 452.388
3078 0 105.422 14.1431 1491 111.746 1324.21 454.691
3079 0 108.434 12.3024 1334 117.66 1324.49 448.62
3080 0 110.2 12.2233 1347 119.215 1324.36 441.975
3081 0 115.286 13.0892 1509 117.923 1324.1 440.548
3082 0 117.212 12.712 1490 118.421 1324.5 448.638
3083 0 120.317 13.0406 1569 119.888 1324.37 445.124
3084 0 124.399 13.3361 1659 119.043 1324.43 444.994
3085 1 69.1943 13.108 907 114.727 1324.45 471.786
3086 0 69.1836 11.4044 789 121.48 1325.04 466.105
3087 0 72.1546 13.3325 962 117.186 1324.21 460.184
3088 0 73.2439 13.7076 1004 117.335 1324.69 461.732
3089 0 76.1591 12.7496 971 119.15 1324.94 462.805
3090 0 76.1153 11.8373 901 122.599 1324.34 460.678
3091 0 77.1141 12.4491 960 120.143 1324.9 460.373
3092 0 80.0721 13.6127 1090 118.534 1325.25 458.042
3093 0 83.0859 13.3597 1110 113.987 1325.54 459.976
3094 0 85.0366 13.2884 1130 114.256 1325.73 460.353
3095 0 85.0663 13.4954 1148 115.682 1325.36 458.279
3096 0 90.1856 12.7737 1152 118.947 1325.08 459.843
3097 0 92.0633 12.3067 1133 120.444 1325.8 457.608
3098 0 94.0813 12.7018 1195 119.076 1325.26 456.28
3099 0 96.1444 12.3876 1191 119.961 1325.39 456.496
3100 0 100.119 13.2942 1331 118.175 1325.31 451.915
3101 0 103.099 14.6946 1515 114.129 1325.81 450.052
3102 0 101.076 13.0595 1320 120.685 1325.02 447.355
3103 0 105.104 12.597 1324 119.963 1325.76 446.94
3104 0 112.135 13.8226 1550 115.769 1325.67 445.986
3105 0 115.111 13.5521 1560 116.297 1326.21 446.228
3106 0 120.22 15.039 1808 111.691 1326.08 444.155
3107 0 124.122 14.0426 1743 115.691 1325.29 438.907
3108 0 127.115 14.6403 1861 114.301 1325.14 439.872
3109 0 130.079 14.1145 1836 116.337 1325.4 434.072
3110 0 138.109 14.7347 2035 113.752 1324.95 433.97
3111 0 139.214 14.4813 2016 115.839 1324.35 432.021
3112 0 146.111 15.5566 2273 112.114 1325.57 428.364
3113 0 150.125 15.3206 2300 112.705 1325.21 425.755
3114 0 155.159 14.3723 2230 116.113 1324.62 423.949
3115 0 159.191 15.3212 2439 115.059 1324.66 420.107
3116 1 95.1071 12.3124 1171 115.427 1324.85 455.717
3117 0 94.086 12.3823 1165 117.11 1324.47 453.513
3118 0 95.0924 13.9864 1330 113.441 1323.93 452.143
3119 0 96.08 12.7498 1225 116.655 1324.74 452.149
3120 0 102.122 12.7593 1303 115.673 1324.38 450.591
3121 0 103.097 14.0741 1451 111.471 1324.78 448.151
3122 0 106.092 13.2904 1410 114.113 1324.14 446.16
3123 0 112.165 14.3538 1610 109.838 1324.56 441.881
3124 0 113.191 13.5435 1533 112.971 1324.48 441.892
3125 0 117.145 12.8985 1511 114.528 1324.86 438.405
3126 0 121.167 13.4855 1634 113.528 1325.27 437.359
3127 0 125.146 13.5841 1700 113.951 1325.36 436.769
3128 0 129.119 13.7006 1769 114.541 1324.56 433.708
3129 0 131.26 13.6142 1787 114.819 1324.39 432.054
3130 0 137.168 14.7702 2026 111.33 1324.45 429.255
3131 0 142.233 13.2389 1883 114.275 1325.02 426.63
3132 0 147.188 13.2144 1945 114.769 1324.92 422.252
3133 0 151.222 12.961 1960 115.397 1325.32 421.147
3134 0 157.198 12.1503 1910 116.403 1325.32 420.351
3135 1 87.1232 9.09057 792 109.683 1325.8 453.525
3136 0 89.2123 11.1532 995 103.998 1325.71 455.221
3137 0 92.1025 10.8792 1002 104.398 1326.35 452.065
3138 0 99.138 12.0741 1197 100.616 1326.16 452.42
3139 0 99.24 11.1649 1108 104.334 1326.38 451.258
3140 0 103.212 10.5802 1092 106.015 1326.19 450.521
3141 0 108.18 10.6582 1153 106.73 1326.32 447.43
3142 0 111.129 10.7803 1198 107.153 1325.94 443.772
3143 0 116.196 11.8851 1381 102.783 1326.57 447.384
3144 0 118.276 11.0166 1303 106.955 1326.48 440.78
3145 0 123.305 12.9029 1591 103.952 1325.5 438.367
3146 0 127.261 11.8418 1507 107.562 1326 436.547
3147 0 136.32 13.7764 1878 103.19 1325.42 439.709
3148 0 138.277 11.4914 1589 109.242 1325.32 439.051
3149 0 143.27 12.5986 1805 106.508 1326.28 439.247
3150 0 150.315 11.9483 1796 108.463 1325.71 434.105
3151 0 153.327 12.8419 1969 107.227 1325.32 433.012
3152 1 89.1219 10.8503 967 104.293 1325.3 465.649
3153 0 93.0985 12.4277 1157 101.642 1325.29 462.666
3154 0 93.0766 12.4199 1156 102.712 1325.78 456.336
3155 0 99.2693 12.4208 1233 102.885 1324.93 454.916
3156 0 100.132 12.2239 1224 104.475 1325.63 453.147
3157 0 105.093 11.4375 1202 106.55 1325.98 454.882
3158 0 107.078 12.3275 1320 105.624 1325.74 452.674
3159 0 111.154 11.8304 1315 106.927 1325.52 451.725
3160 0 112.151 10.6374 1193 110.44 1325.23 447.954
3161 0 116.176 11.4137 1326 108.595 1325.39 447.881
3162 0 118.188 11.3379 1340 108.165 1325.25 452.58
3163 0 122.129 11.4306 1396 107.036 1325.23 456.492
3164 0 126.196 12.4964 1577 105.762 1325.67 451.614
3165 0 129.173 12.1465 1569 108.139 1325.18 447.783
3166 0 133.115 13.1766 1754 105.384 1325.36 448.471
3167 0 136.172 11.8086 1608 108.391 1325.13 447.593
3168 0 143.131 13.3165 1906 103.926 1325.47 443.87
3169 0 147.18 12.4609 1834 106.262 1325.35 439.889
3170 0 151.13 11.8706 1794 107.678 1325.25 439.323
3171 1 89.1453 12.0926 1078 101.909 1325.06 468.564
3172 0 91.1158 12.6542 1153 101.411 1324.93 467.066
3173 0 93.11 12.9202 1203 101.238 1325.14 465.621
3174 0 97.1082 13.3562 1297 100.358 1325.22 460.758
3175 0 102.057 13.2671 1354 99.3929 1325.03 462.405
3176 0 103.115 13.0049 1341 100.957 1324.06 457.758
3177 0 107.144 12.3852 1327 100.815 1324.84 458.913
3178 0 109.129 12.4165 1355 100.853 1324.82 457.199
3179 0 111.183 12.2501 1362 102.014 1324.81 451.268
3180 0 115.087 13.1118 1509 99.4241 1324.7 453.579
3181 0 119.098 12.7374 1517 96.2788 1324.73 448.666
3182 0 122.14 13.1324 1604 96.5243 1324.37 448.49
3183 0 124.134 13.3001 1651 101.645 1324.22 450.42
3184 0 130.145 13.8385 1801 105.193 1324.5 443.633
3185 0 132.186 11.9226 1576 109.286 1324.9 441.623
3186 0 139.198 14.4829 2016 102.651 1324.31 440.539
3187 0 139.198 14.5045 2019 139.052 1324.3 440.356
3188 1 82.0938 11.9741 983 99.9125 1323.6 473.626
3189 0 81.1658 9.73316 790 98.6835 1324.74 463.976
3190 0 87.2392 10.0414 876 97.8493 1324.57 458.55
3191 0 92.1374 12.4814 1150 90.1948 1323.99 461.1
3192 0 93.1772 12.6426 1178 90.8599 1323.19 457.668
3193 0 95.127 11.8999 1132 92.5353 1323.12 460.876
3194 0 99.1738 12.9873 1288 90.2943 1323.41 459.089
3195 0 101.194 13.0443 1320 90.4947 1323.13 455.936
3196 0 105.333 12.8925 1358 90.8645 1323.35 453.818
3197 0 107.26 12.782 1371 91.4931 1323.44 451.829
3198 0 112.302 13.6685 1535 90.5238 1322.75 452.163
3199 0 114.337 12.6818 1450 92.5462 1323.12 452.748
3200 0 117.336 13.2696 1557 92.6423 1323.19 452.96
3201 0 119.198 12.5338 1494 97.0683 1322.67 446.681
3202 0 123.477 13.6463 1685 96.3674 1322.66 439.138
3203 0 127.38 13.6285 1736 95.9188 1323.39 444.173
3204 0 129.251 13.3306 1723 97.8323 1322.99 441.435
3205 0 129.448 11.7653 1523 100.182 1323.36 443.924
3206 0 139.264 12.6809 1766 99.1359 1322.74 438.433
3207 0 145.493 12.5848 1831 100.178 1322.33 436.66
3208 0 149.415 14.7576 2205 96.4345 1323.18 433.601
3209 0 155.442 14.1918 2206 98.5517 1322.53 426.912
3210 1 87.2096 10.297 898 92.863 1323.53 468.229
3211 0 88.2092 11.5521 1019 91.736 1323.64 466.977
3212 0 92.3064 13.1302 1212 90.3589 1322.67 463.365
3213 0 93.1624 11.8395 1103 93.6065 1322.34 464.095
3214 0 96.2386 12.0326 1158 93.8411 1321.96 463.916
3215 0 99.1969 11.3915 1130 96.6106 1322.37 458.952
3216 0 102.183 12.7321 1301 94.8509 1323.22 458.485
3217 0 104.246 12.2499 1277 95.7345 1322.59 458.676
3218 0 112.341 15.0168 1687 89.5584 1322.39 451.438
3219 0 112.151 14.0079 1571 92.585 1322.81 451.367
3220 0 114.234 13.3848 1529 95.3584 1323.21 451.069
3221 0 117.164 13.7414 1610 94.9162 1323.35 451.462
3222 0 120.183 12.4726 1499 98.0127 1322.76 448.417
3223 0 123.228 12.0914 1490 98.8644 1323.27 449.168
3224 0 128.19 15.0948 1935 93.2331 1323.01 445.294
3225 0 130.222 13.4309 1749 97.1784 1324.33 445.164
3226 0 134.291 12.9644 1741 97.3952 1323.63 441.433
3227 0 143.161 16.471 2358 89.8113 1323.27 436.293
3228 0 145.289 15.1147 2196 93.908 1323.95 433.104
3229 0 147.211 13.2191 1946 98.816 1323 436.586
3230 0 153.17 13.7951 2113 97.5987 1323.51 433.466
3231 0 157.246 13.7046 2155 98.8882 1323.79 429.652
3232 0 162.288 13.741 2230 99.5314 1323.38 429.605
3233 1 98.1645 11.4909 1128 94.1587 1323.23 464.597
3234 0 100.129 12.5039 1252 95.6797 1323.52 465.025
3235 0 101.13 12.4889 1263 96.791 1322.6 459.448
3236 0 104.106 12.4488 1296 97.3873 1322.85 460.886
3237 0 107.132 11.8452 1269 100.057 1322.44 456.068
3238 0 110.071 12.7372 1402 99.2796 1323.04 455.242
3239 0 113.135 12.4453 1408 100.328 1322.8 454.219
3240 0 114.12 11.6194 1326 103.044 1322.94 453.495
3241 0 120.192 13.0208 1565 100.767 1322.67 452.497
3242 0 122.17 12.7937 1563 102.646 1322.14 449.244
3243 0 126.144 13.0248 1643 103.27 1322.45 448.789
3244 0 130.192 12.7888 1665 106.47 1322.6 445.751
3245 0 133.253 12.2999 1639 107.946 1322.56 443.04
3246 0 139.188 13.2554 1845 106.602 1322.91 440.553
3247 0 141.194 13.7188 1937 107.068 1322.41 439.83
3248 0 147.134 14.4698 2129 105.621 1322.35 438.39
3249 0 149.147 13.537 2019 110.102 1322.47 431.941
3250 0 154.235 13.4146 2069 112.897 1323.22 431.103
3251 0 159.363 14.9909 2389 109.566 1322.73 431.833
3252 0 165.168 13.4772 2226 113.529 1322.68 428.998
3253 0 168.178 15.2398 2563 110.879 1322.49 429.297
3254 0 175.19 14.3388 2512 114.59 1322.82 420.984
3255 0 181.209 14.0942 2554 115.324 1322.58 420.067
3256 0 181.165 14.3847 2606 117.165 1322.72 417.084
3257 0 188.247 15.7506 2965 113.62 1323.17 415.047
3258 0 193.246 14.1478 2734 118.501 1323.22 409.249
3259 0 201.262 14.7917 2977 117.029 1322.95 408.922
3260 0 206.118 16.3013 3360 114.651 1323 407.011
3261 0 214.184 15.4774 3315 116.265 1323.6 404.717
3262 0 218.211 14.5547 3176 119.252 1322.86 397.854
3263 1 55.0746 10.3496 570 101.133 1322.31 484.204
3264 0 57.0751 11.1958 639 100.773 1322.86 482.069
3265 0 58.0948 12.0665 701 100.27 1322.75 482.907
3266 0 60.0546 11.9558 718 101.256 1322.79 482.24
3267 0 61.0573 11.9887 732 101.896 1322.77 479.88
3268 0 62.1219 11.3165 703 103.58 1322.8 480.279
3269 0 66.1174 13.1433 869 99.1646 1323.54 476.997
3270 0 68.052 12.2847 836 101.685 1322.94 475.944
3271 0 69.0561 10.7159 740 103.554 1323.97 479.855
3272 0 72.0799 11.4318 824 103.739 1323.29 475.25
3273 0 74.0768 11.5286 854 103.714 1323.78 474.617
3274 0 76.155 14.3392 1092 97.0394 1324.81 474.677
3275 0 77.2002 11.7746 909 103.784 1323.7 469.992
3276 0 80.1413 11.7667 943 103.827 1323.79 469.63
3277 0 79.1527 11.8758 940 104.455 1324.52 472.661
3278 0 84.1394 11.2789 949 106.442 1324.11 468.792
3279 0 85.1118 11.4438 974 106.131 1323.84 466.296
3280 0 87.113 11.5367 1005 105.239 1324.25 466.992
3281 0 90.1592 11.5795 1044 107.312 1324.09 463.87
3282 0 88.1513 10.2211 901 111.332 1324.07 459.694
3283 0 97.1093 12.0895 1174 105.976 1325.03 463.976
3284 0 98.1682 12.01 1179 107.518 1324.53 461.868
3285 0 104.168 12.3358 1285 107.208 1324.08 457.344
3286 0 104.184 11.1726 1164 108.344 1324.93 456.45
3287 0 110.161 13.0355 1436 106.116 1324.76 454.063
3288 0 112.156 11.2076 1257 110.359 1325.47 453.53
3289 0 116.185 11.8604 1378 109.192 1324.97 454.478
3290 1 69.0832 11.146 770 104.77 1325.15 476.99
3291 0 69.0433 11.3117 781 97.5519 1324.74 476.982
3292 0 75.1409 14.1334 1062 90.5612 1325.76 475.948
3293 0 75.1409 14.1468 1063 139.958 1325.77 476.163
3294 0 79.1626 13.2133 1046 93.6128 1325.67 474.436
3295 0 78.1071 12.5597 981 96.213 1325.22 470.916
3296 0 80.1307 11.4438 917 98.5114 1325.7 471.928
3297 0 83.1749 12.9727 1079 95.3892 1325.73 472.664
3298 0 82.1229 10.9105 896 101.36 1325.33 470.677
3299 0 87.1183 13.3037 1159 97.541 1325.81 470.996
3300 0 87.0588 12.3939 1079 103.7 1325.84 469.499
3301 0 90.0831 12.4996 1126 104.274 1325.56 467.618
3302 0 92.1238 12.1576 1120 105.897 1325.68 467.156
3303 0 96.2112 12.5453 1207 104.873 1326.11 465.213
3304 0 99.2647 13.3582 1326 103.443 1326.32 465.341
3305 0 101.292 13.6437 1382 104.687 1325.73 460.582
3306 0 105.095 13.4355 1412 105.416 1325.63 460.956
3307 0 107.085 13.1577 1409 106.279 1325.63 461.95
3308 0 111.197 13.4446 1495 107.342 1324.96 458.791
3309 0 112.158 12.4735 1399 109.979 1325.22 457.924
3310 0 117.24 13.707 1607 108.523 1325.58 454.875
3311 1 66.1946 12.3122 815 106.75 1325.62 477.883
3312 0 67.0783 12.0754 810 107.314 1324.58 480.223
3313 0 69.1158 12.414 858 106.509 1325.36 478.818
3314 0 71.0468 12.3018 874 106.976 1326.81 475.34
3315 0 74.1076 13.3859 992 103.401 1326.61 475.008
3316 0 77.1085 12.9817 1001 104.71 1326.34 473.18
3317 0 77.0884 12.7775 985 105.99 1325.69 473.609
3318 0 79.0803 12.7339 1007 106.029 1326.1 473.374
3319 0 82.1427 13.0261 1070 104.427 1325.37 473.307
3320 0 87.1061 13.7304 1196 103.87 1325.5 469.228
3321 0 88.1216 12.6643 1116 106.188 1325.99 467.32
3322 0 91.133 13.7382 1252 104.165 1326.21 465.815
3323 0 93.1355 13.1529 1225 106.153 1325.11 466.202
3324 0 97.1186 12.5002 1214 108.189 1325.61 463.95
3325 0 97.1351 11.9421 1160 111.009 1325.05 460.065
3326 0 102.199 14.3935 1471 104.825 1324.79 459.787
3327 0 105.129 12.8319 1349 109.365 1324.72 459.438
3328 0 107.136 13.4128 1437 108.711 1325.29 457.923
3329 0 109.152 13.3666 1459 109.688 1324.86 457.219
3330 0 114.174 13.0239 1487 110.319 1324.88 455.404
3331 0 116.279 13.2441 1540 112.341 1323.58 452.451
3332 0 119.163 13.2004 1573 112.432 1324.32 451.284
3333 0 120.268 14.1018 1696 112.976 1325.06 449.107
3334 0 125.216 13.4168 1680 114.692 1324.68 446.848
3335 0 129.252 14.2589 1843 112.813 1324.05 442.33
3336 0 133.233 13.5177 1801 114.55 1324.7 444.712
3337 0 138.304 14.5476 2012 113.217 1324.52 444.512
3338 0 143.311 13.558 1943 120.729 1324.23 436.422
3339 0 148.277 14.2976 2120 117.844 1324.14 435.573
3340 1 82.1503 10.8338 890 116.487 1323.24 470.14
3341 0 87.132 11.3621 990 115.548 1323.98 465.287
3342 0 90.1608 13.1765 1188 112.619 1324.91 467.053
3343 0 90.1402 12.2587 1105 116.506 1324.69 458.204
3344 0 90.1143 10.7752 971 121.929 1323.87 453.792
3345 0 97.1582 12.2995 1195 117.726 1324.41 455.506
3346 0 99.1722 12.6548 1255 118.527 1324.42 454.486
3347 0 101.155 12.8417 1299 119.469 1324.91 454.699
3348 0 103.106 13.4328 1385 119.281 1323.89 455.353
3349 0 106.161 12.9331 1373 121.842 1324.46 449.913
3350 0 112.155 13.8024 1548 120.437 1324.23 448.505
3351 0 113.178 13.7305 1554 121.977 1325.27 445.985
3352 0 118.118 13.9775 1651 121.102 1324.89 446.014
3353 0 120.281 14.1335 1700 121.7 1325.04 444.458
3354 0 124.303 14.5209 1805 121.476 1324.85 444.372
3355 0 126.301 14.8772 1879 121.294 1324.62 444.881
3356 0 131.242 14.4085 1891 122.409 1324.74 443.389
3357 0 133.326 13.9433 1859 123.301 1324.81 445.613
3358 0 138.167 13.5416 1871 125.142 1325.36 441.359
3359 0 144.308 15.0511 2172 122.41 1324.2 438.72
3360 0 148.15 13.7226 2033 126.576 1324.19 436.749
3361 0 153.294 15.0691 2310 123.256 1323.97 431.57
3362 0 156.2 14.4366 2255 125.467 1324.02 428.118
3363 0 163.245 14.6896 2398 123.774 1323.68 428.168
3364 0 169.368 15.3335 2597 121.348 1324.32 427.278
3365 0 172.225 15.1371 2607 123.458 1324.19 420.274
3366 1 99.0657 12.4564 1234 121.766 1323.82 460.095
3367 0 101.071 12.7831 1292 121.444 1323.56 457.692
3368 0 103.22 12.1682 1256 125.179 1323.48 457.225
3369 0 108.51 14.3765 1560 118.889 1323.67 455.085
3370 0 111.316 13.8884 1546 122.216 1322.81 452.21
3371 0 114.345 14.2551 1630 122.703 1322.79 448.639
3372 0 118.298 13.1955 1561 123.256 1323.97 449.097
3373 0 124.317 13.9482 1734 120.362 1323.84 448.36
3374 0 128.214 13.7816 1767 121.255 1323.17 442.963
3375 0 131.124 12.9496 1698 122.286 1323.57 443.565
3376 0 136.41 13.2101 1802 117.481 1323.68 440.35
3377 0 143.215 13.7485 1969 114.67 1323.96 438.454
3378 0 147.224 13.15 1936 115.741 1324.09 435.249
3379 0 152.112 12.3133 1873 117.423 1323.78 433.171
3380 1 88.1582 13.3397 1176 111.318 1323.93 468.673
3381 0 91.185 14.1032 1286 109.92 1323.61 463.68
3382 0 94.2402 13.9007 1310 109.721 1323.95 462.711
3383 0 96.3331 13.2872 1280 111.966 1323.75 462.466
3384 0 97.1943 14.4556 1405 109.866 1323.9 461.971
3385 0 101.219 14.4439 1462 109.797 1324.63 458.235
3386 0 102.227 12.482 1276 115.343 1323.92 457.111
3387 0 107.396 13.6411 1465 112.034 1324.51 455.796
3388 0 108.254 12.443 1347 114.344 1324.4 455.05
3389 0 112.189 12.5235 1405 114.759 1324.01 453.28
3390 0 116.219 12.5281 1456 114.249 1324.1 454.78
3391 0 120.291 13.1348 1580 113.825 1323.8 450.958
3392 0 124.292 13.1062 1629 114.951 1323.84 446.354
3393 0 129.285 13.3194 1722 114.132 1323.65 444.248
3394 0 134.314 12.9697 1742 114.72 1324.03 440.276
3395 0 138.313 12.6669 1752 117.571 1324.2 437.084
3396 1 76.0718 11.5943 882 116.276 1323.92 463.094
3397 0 80.104 12.5462 1005 113.7 1323.87 462.302
3398 0 86.2352 14.53 1253 105.77 1324.41 468.022
3399 0 87.219 14.8362 1294 106.077 1324.46 464.839
3400 0 89.1572 13.4706 1201 109.951 1324.61 463.58
3401 0 91.1932 13.6852 1248 109.94 1324.94 460.381
3402 0 95.1442 13.6635 1300 110.618 1324.51 460.275
3403 0 98.1576 14.3341 1407 110.335 1324.2 456.37
3404 0 100.134 14.7902 1481 110.574 1325.16 448.878
3405 0 103.119 14.7596 1522 111.171 1324.66 453.152
3406 0 105.17 12.9599 1363 117.36 1324.14 451.394
3407 0 109.143 15.3285 1673 110.898 1324.64 450.213
3408 0 112.169 16.1899 1816 109.614 1323.91 449.625
3409 0 115.11 15.7154 1809 111.014 1324.1 447.103
3410 0 118.217 15.1924 1796 112.254 1324.35 449.249
3411 0 121.194 15.6774 1900 112.126 1324.16 448.954
3412 0 123.138 13.8706 1708 118.33 1324.03 447.024
3413 0 127.222 14.29 1818 117.083 1323.76 443.462
3414 0 134.212 15.7363 2112 111.583 1323.64 440.065
3415 0 138.292 16.3929 2267 109.909 1324.39 438.198
3416 0 142.304 15.1015 2149 113.797 1324.35 434.696
3417 0 147.322 14.1934 2091 116.772 1323.38 434.739
3418 0 151.201 14.6163 2210 117.005 1323.8 429.769
3419 1 84.07 11.5142 968 116.13 1324.47 465.091
3420 0 88.3319 12.804 1131 113.892 1324.48 462.665
3421 0 90.2291 13.4103 1210 111.619 1324.66 462.355
3422 0 92.2755 12.2676 1132 112.853 1324.2 458.131
3423 0 94.1009 12.1784 1146 113.705 1324.01 456.887
3424 0 99.2576 12.7446 1265 109.645 1323.82 460.589
3425 0 101.439 12.993 1318 112.907 1324.1 453.368
3426 0 105.212 12.1849 1282 114.484 1324.18 453.997
3427 0 109.165 14.1803 1548 109.574 1324.19 453.163
3428 0 112.244 13.2301 1485 111.856 1324.36 451.158
3429 0 116.219 14.6878 1707 108.442 1324.42 451.703
3430 0 120.397 14.394 1733 108.799 1323.9 447.407
3431 0 124.443 13.1787 1640 111.952 1324.21 444.852
3432 0 127.346 12.4621 1587 113.757 1324.71 442.648
3433 0 134.276 13.5244 1816 110.677 1324.53 444.498
3434 0 138.331 13.7424 1901 112.025 1324.06 438.132
3435 0 145.195 15.097 2192 107.994 1324.25 437.935
3436 0 148.268 13.5835 2014 111.678 1324.39 437.082
3437 0 154.251 13.3937 2066 111.845 1325.02 434.326
3438 0 157.244 13.4822 2120 113.421 1325.05 433.153
3439 0 162.185 14.4588 2345 111.69 1324.75 430.071
3440 0 169.258 16.1588 2735 108.037 1324.23 427.61
3441 0 174.355 15.1874 2648 109.746 1324.26 422.737
3442 0 181.264 15.2264 2760 109.841 1324.44 420.891
3443 0 187.372 15.5627 2916 108.584 1324.57 419.002
3444 0 192.396 14.5897 2807 111.753 1324.14 415.45
3445 0 199.313 14.0483 2800 113.486 1324.1 413.018
3446 0 208.602 15.0526 3140 110.925 1324.37 406.768
3447 0 212.282 14.6644 3113 112.221 1323.19 405.091
3448 0 220.395 14.9641 3298 110.307 1323.44 405.833
3449 0 228.376 14.1915 3241 107.377 1323.63 403.314
3450 1 177.236 12.9601 2297 111.183 1323.55 425.732
3451 0 184.33 15.0166 2768 107.093 1323.51 421.888
3452 0 189.42 13.7525 2605 110.119 1324.04 416.34
3453 0 196.358 15.0592 2957 106.915 1324.34 415.635
3454 0 203.299 14.5893 2966 108.723 1323.87 411.289
3455 0 210.384 14.2787 3004 109.333 1323.07 409.833
3456 0 220.37 14.5301 3202 108.969 1323.08 403.779
3457 0 227.262 14.3227 3255 108.999 1323.85 402.999
3458 0 232.332 13.8638 3221 111.389 1323.47 400.034
3459 1 176.253 15.3926 2713 108.635 1323.74 423.581
3460 0 181.469 16.0303 2909 108.514 1322.37 419.005
3461 0 186.37 13.7147 2556 114.941 1322.77 417.549
3462 0 192.444 13.4948 2597 115.484 1323 415.689
3463 0 198.4 14.4153 2860 115.298 1322.73 407.649
3464 0 205.468 14.8344 3048 114.646 1322.52 403.123
3465 0 211.307 13.5017 2853 117.165 1322.11 399.875
3466 0 220.315 14.6835 3235 112.742 1322.01 401.204
3467 0 225.414 15.2564 3439 112.6 1321.84 396.96
3468 0 235.482 15.5808 3669 111.922 1322.02 392.207
3469 0 242.394 14.0515 3406 114.376 1321.24 384.306
3470 0 252.366 15.0892 3808 111.211 1322.43 380.57
3471 1 59.069 12.6801 749 95.9746 1323.74 480.765
3472 0 62.2458 13.9447 868 93.0818 1322.87 477.749
3473 0 62.3371 12.1276 756 99.59 1322.98 475.856
3474 0 62.2805 11.5124 717 101.879 1323.57 475.93
3475 0 64.3236 11.4732 738 103.553 1323.11 474.915
3476 0 67.2824 13.0049 875 100.849 1322.6 473.678
3477 0 69.1936 12.689 878 101.105 1322.94 473.846
3478 0 74.1614 15.3989 1142 94.704 1323.56 470.803
3479 0 75.2991 12.9085 972 100.175 1323.33 473.651
3480 0 76.2841 13.004 992 102.134 1323.19 470.983
3481 0 76.3244 12.2897 938 105.294 1323.29 468.484
3482 1 87.3926 16.443 1437 91.6708 1323.75 461.748
3483 0 89.3023 16.7521 1496 92.0983 1323.28 460.195
3484 0 86.3938 13.6815 1182 103.693 1323.21 465.562
3485 0 87.3478 14.448 1262 103.948 1323.62 462.535
3486 0 88.4062 13.0421 1153 107.179 1323.34 465.099
3487 0 92.4674 13.1073 1212 105.87 1323.1 465.046
3488 0 93.2847 11.6525 1087 110.935 1323.16 459.877
3489 0 96.3377 11.9579 1152 110.944 1322.47 461.845
3490 0 98.4156 12.7114 1251 110.776 1323.34 458.329
3491 1 111.412 18.6874 2082 93.3141 1322.45 449.441
3492 0 108.444 14.9478 1621 105.439 1322.57 455.097
3493 0 109.385 13.2284 1447 111.594 1323.04 453.03
3494 1 122.477 18.6565 2285 96.3322 1322.7 445.645
3495 0 123.467 18.426 2275 99.4782 1322.96 443.968
3496 1 70.1036 12.8096 898 110.401 1323.29 473.656
3497 0 68.0865 13.145 895 112.726 1323.44 472.204
3498 0 72.1651 13.9818 1009 110.562 1323.35 471.612
3499 0 76.2367 15.0059 1144 107.19 1323.47 469.596
3500 0 80.286 16.1921 1300 104.108 1323.68 469.692
3501 0 78.1515 14.3951 1125 111.211 1323.93 468.476
3502 0 80.2297 15.7672 1265 109.225 1323.96 466.046
3503 0 80.1562 14.1349 1133 114.496 1323.76 467.986
3504 0 84.2112 13.573 1143 114.909 1323.04 468.828
3505 0 87.1831 14.2 1238 115.242 1323.13 465.117
3506 0 87.2122 13.9086 1213 117.138 1324.15 464.12
3507 0 90.2668 13.2828 1199 119.166 1323.78 461.77
3508 0 96.1897 15.2927 1471 113.89 1323.31 460.791
3509 0 95.1943 13.068 1244 122.366 1322.83 458.145
3510 0 101.168 15.2816 1546 116.649 1322.48 456.281
3511 0 104.186 14.9732 1560 117.847 1323.29 455.271
3512 0 104.303 15.1673 1582 119.861 1322.53 450
3513 0 109.181 14.1142 1541 121.659 1323.66 450.918
3514 0 113.332 16.1384 1829 116.475 1323.28 450.002
3515 0 115.277 14.5389 1676 121.587 1323.21 448.448
3516 0 119.252 15.1528 1807 121.164 1323.38 449.181
3517 0 122.194 14.1415 1728 124.893 1323.95 446.334
3518 0 127.305 15.5454 1979 120.863 1323.86 444.835
3519 0 129.291 15.8171 2045 120.947 1324.4 439.761
3520 0 132.1 14.1559 1870 123.395 1324.04 443.383
3521 0 138.24 15.0969 2087 120.396 1324.23 440.831
3522 0 144.26 16.2762 2348 117.13 1324.84 439.368
3523 0 149.237 15.6462 2335 118.658 1323.88 438.068
3524 0 154.241 14.5551 2245 120.702 1323.93 433.808
3525 1 90.1595 12.7219 1147 118.704 1324.57 463.398
3526 0 93.1263 12.5636 1170 119.696 1323.71 461.303
3527 0 93.1859 11.2893 1052 123.512 1323.58 458.913
3528 0 100.107 12.9861 1300 117.142 1324.75 460.347
3529 0 102.12 14.6494 1496 113.206 1324.83 456.759
3530 0 105.111 14.1089 1483 114.946 1324.64 455.844
3531 0 106.073 12.8779 1366 118.935 1324.93 452.074
3532 0 110.124 12.2226 1346 120.079 1324.63 450.544
3533 0 115.145 11.6462 1341 120.217 1323.89 449.553
3534 0 120.161 13.6566 1641 114.841 1323.83 450.338
3535 0 122.154 13.0983 1600 116.151 1324.24 446.409
3536 0 130.14 14.2078 1849 112.425 1324.08 444.619
3537 0 133.163 14.5311 1935 112.059 1323.91 443.067
3538 0 135.11 14.2476 1925 113.417 1323.89 440.426
3539 0 141.151 12.731 1797 116.551 1324.28 437.51
3540 0 151.245 17.2304 2606 104.632 1323.99 427.738
3541 0 154.194 14.9422 2304 111.033 1324.11 425.499
3542 0 156.181 13.2026 2062 114.213 1324.21 429.564
3543 1 96.1575 11.5332 1109 105.793 1324.21 461.942
3544 0 97.131 11.6441 1131 106.646 1324.51 457.852
3545 0 99.1945 11.4422 1135 109.109 1324.57 457.752
3546 0 105.196 12.9473 1362 105.402 1324.23 453.611
3547 0 108.16 12.2134 1321 106.132 1324.42 453.191
3548 0 111.195 12.1138 1347 109.44 1324.43 450.46
3549 0 115.301 13.1569 1517 109.657 1324.22 448.941
3550 0 120.227 12.3433 1484 111.079 1323.87 448.453
3551 1 14.0003 1.07141 15 96.6667 1325.73 498.4
3552 0 17.003 5.88131 100 86.84 1326.26 499.18
3553 0 14.0075 2.92701 41 89.7805 1326.44 499.829
3554 0 11.0002 1.27271 14 94.3571 1326.71 497.429
3555 0 11.0005 2.09081 23 91.4783 1326.96 500.13
3556 0 15.0018 3.66623 55 89.8545 1325.95 497.909
3557 0 12.0112 3.49673 42 89.119 1325.36 496.333
3558 0 12.0009 1.49988 18 91 1325.94 496.5
3559 0 14.0453 2.77673 39 87.0256 1326.41 499.641
3560 0 13.0042 1.99936 26 88.0769 1325.92 495.962
3561 0 15.0058 3.46532 52 90.8846 1325.71 498.25
3562 1 100.206 11.7158 1174 108.024 1324.35 450.046
3563 0 102.175 10.8343 1107 103.939 1325.13 443.908
3564 0 106.182 10.8682 1154 105.3 1325.81 443.172
3565 0 109.195 12.5647 1372 103.825 1325.97 444.496
3566 0 109.148 13.0282 1422 104.214 1325.38 443.501
3567 0 118.219 12.5107 1479 105.135 1324.83 439.472
3568 0 123.185 12.7694 1573 104.406 1324.87 437.004
3569 0 125.19 12.8046 1603 104.579 1325.63 437.608
3570 0 126.205 11.9963 1514 109.331 1325.19 434.315
3571 0 126.334 11.3351 1432 112.474 1324.91 431.978
3572 0 128.092 11.398 1460 112.451 1324.47 432.487
3573 0 136.165 11.6844 1591 111.816 1324.71 428.302
3574 0 136.134 10.7909 1469 116.596 1323.65 422.8
3575 0 142.246 11.9862 1705 113.641 1324.68 424.563
3576 0 150.279 12.8362 1929 111.465 1324.2 425.547
3577 0 152.255 12.9191 1967 111.996 1324.42 426.236
3578 0 157.263 13.0991 2060 112.478 1324.08 426.401
3579 0 158.342 12.2646 1942 116.716 1324.67 416.414
3580 0 162.233 12.9258 2097 114.282 1324.32 412.584
3581 0 169.167 12.8926 2181 115.264 1323.73 413.102
3582 0 170.149 12.4479 2118 118.458 1324.65 407.173
3583 0 177.236 13.0786 2318 116.075 1324.64 410.329
3584 0 183.313 12.3559 2265 118.968 1323.37 405.731
3585 0 190.255 12.2152 2324 120.095 1324.68 399.139
3586 0 195.318 13.9157 2718 116.224 1324.52 393.068
3587 0 204.242 13.67 2792 117.027 1324.14 390.283
3588 1 31.0403 2.31957 72 89.2361 1323.32 487.861
3589 0 34.0252 6.20129 211 85.2085 1323.85 485.716
3590 0 38.0402 5.4679 208 87.6971 1323.5 487.5
3591 0 39.091 8.31394 325 88.7969 1323.95 488.751
3592 0 39.0448 6.53096 255 90.3686 1323.57 490.365
3593 0 39.0418 6.53146 255 89.7569 1322.91 490.267
3594 0 40.0334 7.21898 289 87.1903 1322.06 492.218
3595 0 39.0223 7.79042 304 89.273 1322.19 487.549
3596 0 41.0364 8.79708 361 86.8144 1323.3 488.288
3597 0 40.009 7.9982 320 84.9219 1326.09 489.25
3598 0 40.0101 5.42364 217 89.6037 1326.69 489.041
3599 0 41.0391 7.74872 318 85.4906 1325.96 489.396
3600 0 42.0298 8.87466 373 84.4558 1325.99 485.917
3601 0 44.0265 8.15418 359 84.532 1326.17 488.618
3602 0 42.0265 6.44832 271 88.1624 1324.44 487.889
3603 0 43.0102 6.20783 267 90.2959 1325.22 486.255
3604 0 43.0503 5.22645 225 90.5156 1324.72 487.52
3605 0 41.0789 7.30301 300 90.2133 1324.4 483.413
3606 0 44.0411 9.7409 429 86.5548 1324.35 484.569
3607 0 46.0573 8.51113 392 88.1097 1323.9 483.423
3608 0 44.0205 8.0417 354 89.4294 1323.26 484.051
3609 0 44.0256 8.3815 369 89.168 1323.91 484.778
3610 0 47.0892 8.13351 383 88.9582 1323.51 482.961
3611 0 46.059 7.3167 337 88.184 1323.04 487.184
3612 0 45.1122 6.82742 308 92.0195 1322.94 482.172
3613 0 48.082 10.0453 483 81.9151 1323.66 482.698
3614 0 48.1497 8.59818 414 84.5797 1324.53 484.949
3615 0 45.0424 7.19323 324 77.5185 1324.98 480.549
3616 0 46.1102 6.39771 295 76.6983 1324.51 479.597
3617 0 49.116 9.42666 463 70.838 1326.13 480.272
3618 1 22.0056 3.77177 83 75.8916 1324.46 467.036
3619 0 30.1244 2.75524 83 78.2048 1325.23 466.843
3620 1 48.115 7.39894 356 74.6348 1325.68 473.399
3621 0 53.0925 9.15383 486 80.144 1326.99 481.177
3622 0 53.0584 9.00894 478 80.1841 1327.34 476.981
