time division length width area intensity CMx CMy
0 0 31.0071 12.2875 381 153.205 1263.27 486.48
1 0 31.0057 12.0623 374 155.112 1263.55 486.23
2 0 33.0084 11.2699 372 156.753 1264.38 485.747
3 0 35.0257 11.7057 410 151.485 1264.29 486.173
4 0 35.0221 11.3928 399 154.123 1263.36 485.459
5 0 35.0252 11.4204 400 163.922 1262.35 485.378
6 0 38.0409 12.2763 467 147.418 1263.79 485.55
7 0 37.043 11.4732 425 151.496 1264.14 486.064
8 0 40.0299 12.9903 520 144.663 1263.96 485.177
9 0 39.0103 11.4841 448 152.373 1263.95 484.768
10 0 40.022 12.718 509 146.344 1262.93 484.912
11 0 41.0296 12.5519 515 148.35 1264.03 483.783
12 0 42.0078 12.8547 540 147.552 1263.05 483.393
13 0 43.0198 12.2734 528 148.691 1262.76 483.127
14 0 45.0306 12.3028 554 147.408 1262.49 484.191
15 0 46.011 13.1708 606 144.016 1262.87 483.264
16 0 46.0238 13.0584 601 145.05 1262.3 482.706
17 0 48.0621 12.8584 618 143.448 1262.54 482.586
18 0 49.0151 12.7308 624 144.279 1262 482.521
19 0 51.029 13.3258 680 140.35 1262.37 481.694
20 0 53.0144 13.6944 726 136.397 1261.65 480.828
21 0 54.063 13.0403 705 138.191 1261.73 481.311
22 0 53.0213 13.2588 703 139.245 1261.5 480.846
23 0 58.0849 13.1704 765 135.458 1261.66 481.273
24 0 59.0205 13.741 811 132.952 1260.65 479.763
25 0 62.0698 13.7104 851 132.555 1260.5 478.128
26 0 64.0277 12.4634 798 135.845 1261.1 478.707
27 0 64.1076 12.8066 821 135.132 1261.43 477.42
28 0 68.0416 12.6981 864 134.631 1260.47 475.132
29 0 73.1438 13.7811 1008 129.024 1260.81 475.24
30 1 36.0752 10.783 389 136.183 1260.31 492.72
31 0 37.0187 12.7503 472 132.352 1260.1 490.5
32 0 41.0513 13.9338 572 129.267 1259.74 488.976
33 0 41.0361 13.086 537 134.788 1260.83 488.873
34 0 40.022 12.2932 492 130.36 1259.6 489.386
35 0 42.1105 12.396 522 129.657 1260.27 489.09
36 0 44.0305 12.0598 531 128.834 1259.86 488.377
37 0 46.0167 13.0387 600 125.627 1259.87 487.412
38 0 47.0183 13.08 615 127.203 1259.4 486.553
39 0 49.0414 12.52 614 127.824 1260.05 486.508
40 0 49.0572 12.0675 592 129.698 1259.55 486.191
41 0 51.0306 13.5409 691 125.365 1259.07 484.81
42 0 52.0146 13.6885 712 125.917 1259.12 484.277
43 0 55.064 12.7307 701 126.397 1259.85 484.472
44 0 58.0349 12.458 723 125.939 1259.86 483.358
45 0 58.0278 12.4423 722 128.079 1259.37 481.335
46 0 59.0822 12.7957 756 127.217 1259.4 480.745
47 0 64.1108 13.3051 853 124.134 1259.81 479.884
48 0 66.0727 14.3327 947 122.285 1259.42 478.782
49 0 66.045 12.5975 832 127.109 1258.44 476.814
50 0 70.0389 12.6073 883 125.968 1258.55 477.131
51 0 73.0363 12.1994 891 125.982 1259.27 475.559
52 0 75.073 13.0673 981 123.267 1258.65 472.361
53 0 79.0289 13.1091 1036 120.578 1259.34 471.782
54 0 82.0456 12.5296 1028 121.462 1258.98 471.319
55 1 41.0091 11.6559 478 121.067 1258.87 489.5
56 0 43.0096 11.8113 508 120.173 1258.93 489.197
57 0 45.015 12.9068 581 115.812 1257.46 488.17
58 0 43.0274 11.086 477 122.015 1258.47 488.247
59 0 46.0235 11.5376 531 119.339 1259.27 487.91
60 0 47.0428 11.5639 544 118.463 1259.08 486.164
61 0 49.0114 11.4871 563 116.705 1259.28 487.496
62 0 51.0452 12.4987 638 115.539 1258.63 484.721
63 0 54.0343 11.3632 614 117.114 1258.01 484.878
64 0 53.024 12.9753 688 113.821 1258.61 484.454
65 0 56.0459 11.3835 638 119.516 1258.91 484.024
66 0 57.1324 12.1997 697 117.03 1258.19 483.803
67 0 59.0231 11.8936 702 118.252 1258.43 481.027
68 0 63.1167 13.1344 829 113.788 1258.44 479.368
69 0 64.0345 13.3834 857 114.478 1257.73 477.252
70 0 67.0896 12.6398 848 115.738 1258.03 477.281
71 0 70.0572 12.5326 878 115.753 1258.34 475.449
72 0 72.1026 13.1341 947 115.806 1257.3 472.896
73 0 76.0761 11.9748 911 117.906 1258.21 474.144
74 0 79.1054 12.3885 980 118.341 1258.59 472.312
75 0 82.1121 12.3855 1017 115.923 1258.05 470.187
76 0 84.1224 12.3273 1037 115.277 1257.94 467.839
77 1 46.1296 9.25652 427 109.283 1258.28 485.049
78 0 45.1054 10.2205 461 109.694 1258.12 482.664
79 0 51.1844 12.0544 617 110.707 1258.35 485.321
80 0 51.056 11.4776 586 109.258 1258.66 485.952
81 0 50.0109 11.3175 566 110.39 1258.39 485.555
82 0 53.1083 11.919 633 110.894 1259.66 484.055
83 0 53.0493 12.5355 665 110.955 1259.17 483.636
84 0 58.0509 13.2125 767 107.33 1259.69 484.952
85 0 60.0996 12.9618 779 108.662 1259.37 483.014
86 0 62.0435 13.3294 827 107.724 1258.54 482.042
87 0 63.0943 13.7889 870 107.661 1258.76 480.234
88 0 65.0728 13.1238 854 109.139 1258.28 480.679
89 0 68.0426 12.9625 882 109.514 1258.05 476.954
90 0 71.0647 13.8888 987 107.274 1258.26 477.835
91 0 74.1292 13.8542 1027 107.964 1258.46 477.529
92 0 76.1007 14.4677 1101 106.894 1257.39 475.945
93 0 77.1998 13.8083 1066 109.718 1257.89 472.92
94 0 80.132 13.4528 1078 110.864 1257.88 473.3
95 0 83.075 14.4809 1203 109.277 1257.52 468.505
96 0 87.0741 14.0685 1225 109.975 1257 468.242
97 0 90.1464 15.1531 1366 107.862 1257.39 467.688
98 0 93.0657 15.6771 1459 106.807 1256.85 463.378
99 0 95.099 13.7961 1312 112.12 1257.55 462.646
100 0 99.1274 15.3338 1520 108.666 1256.71 462.662
101 0 100.089 14.1675 1418 110.877 1257.12 459.606
102 0 106.231 14.4025 1530 110.227 1257.44 457.884
103 0 107.221 13.5794 1456 111.858 1257.45 454.536
104 1 55.0542 11.1163 612 112.142 1257.75 483.301
105 0 57.0973 11.927 681 110.869 1257.82 482.815
106 0 60.0698 11.8529 712 102.902 1256.68 485.449
107 0 62.0223 12.1085 751 102.875 1256.81 483.855
108 0 62.0509 11.4261 709 105.601 1256.84 482.495
109 0 67.0517 12.4978 838 101.928 1256.26 483.458
110 0 67.086 12.5212 840 103.643 1256.14 479.456
111 0 71.0367 14.0632 999 99.7417 1256.87 479.102
112 0 72.0706 12.9873 936 110.338 1256.8 478.403
113 0 76.0843 11.6055 883 113.422 1256.71 477.788
114 0 78.0465 13.2485 1034 109.78 1256.65 475.078
115 0 82.0969 12.8385 1054 111.038 1256.58 474.144
116 0 85.0484 12.7104 1081 110.821 1257.05 471.152
117 0 86.0861 12.4875 1075 112.159 1257.31 471.652
118 0 89.0826 13.437 1197 111.302 1257.6 468.058
119 0 95.0371 13.4474 1278 109.617 1257.04 469.117
120 0 98.1218 11.924 1170 111.901 1257.22 468.182
121 0 99.0484 12.0143 1190 113.167 1256.95 464.719
122 0 102.21 13.1004 1339 110.016 1256.75 462.049
123 1 55.0208 10.7777 593 109.02 1257.7 486.723
124 0 56.0153 10.2294 573 109.668 1257.57 487.817
125 0 58.0711 11.5376 670 108.681 1257.48 482.364
126 0 60.0567 12.5548 754 106.141 1255.27 484.355
127 0 63.1725 13.6452 862 103.037 1255.41 483.335
128 0 66.1027 12.2537 810 107.517 1255.76 482.19
129 0 65.0846 12.9063 840 107.758 1256.05 480.226
130 0 70.0694 14.1288 990 109.584 1255.87 478.415
131 0 68.0491 11.8738 808 116.332 1256.37 477.334
132 0 73.1181 13.5261 989 112.399 1256.3 475.088
133 0 76.182 12.9164 984 113.482 1256.76 475.75
134 0 77.1706 12.3493 953 116.107 1255.76 473.687
135 0 80.113 13.2688 1063 114.377 1256.3 471.404
136 0 86.3368 14.9531 1291 77.3695 1256.31 471.182
137 0 86.1461 13.0708 1126 113.207 1256.75 467.835
138 0 89.1287 12.5998 1123 112.695 1257.12 468.934
139 0 94.18 13.7609 1296 111.268 1256.16 465.482
140 0 96.1897 12.1531 1169 110.293 1256.64 467.474
141 1 52.105 10.4788 546 113.789 1256.95 486.786
142 0 53.1259 11.3504 603 112.308 1255.98 485.353
143 0 55.0513 11.789 649 104.014 1257.06 485.364
144 0 58.0713 11.0209 640 114.327 1256.01 484.612
145 0 59.0707 11.2408 664 113.586 1256.62 484.797
146 0 61.1297 12.5307 766 112.098 1257.9 481.866
147 0 62.1571 11.9214 741 113.56 1256.71 482.318
148 0 66.159 13.4827 892 109.102 1257.4 480.109
149 0 65.1721 11.3699 741 113.872 1257.71 480.092
150 0 68.2337 12.3839 845 111.644 1256.97 477.698
151 0 70.1395 12.0046 842 111.267 1257.14 477.257
152 0 72.1718 11.3895 822 112.164 1257.08 477.69
153 0 72.1718 11.3341 818 150.967 1256.08 477.708
154 0 75.1367 11.8318 889 110.108 1257.55 474.827
155 0 80.1684 12.7107 1019 108.012 1256.9 472.598
156 0 81.2213 11.2901 917 110.656 1257.62 472.565
157 0 85.2502 10.8621 926 110.613 1256.93 470.902
158 0 86.1336 10.1935 878 112.767 1257.03 470.679
159 0 90.2295 11.1715 1008 111.578 1256.63 466.331
160 0 92.2738 11.5309 1064 111.072 1256.58 464.627
161 1 49.1702 10.5145 517 106.259 1257.92 487.65
162 0 51.0949 10.4511 534 108.852 1256.09 487.073
163 0 51.0912 10.8238 553 100.458 1257.16 486.465
164 0 55.1606 11.4937 634 97.9953 1257.2 485.5
165 0 56.0628 11.4514 642 98.9782 1257.02 484.173
166 0 59.1127 11.8756 702 97.302 1256.58 483.58
167 0 58.1393 11.1285 647 100.037 1256.72 482.807
168 0 61.1053 10.3919 635 101.28 1256.69 480.299
169 0 62.0983 10.9343 679 100.518 1256.67 478.664
170 0 65.1756 11.9677 780 105.603 1256.33 477.974
171 0 67.1294 13.2282 888 103.259 1256.23 476.991
172 0 69.161 12.3769 856 104.311 1256.54 477.564
173 0 72.1984 12.341 891 105.189 1257.23 475.021
174 0 74.262 12.604 936 103.458 1256.8 476.299
175 0 74.1971 12.7229 944 100.858 1256.98 475.531
176 0 77.1224 12.1365 936 102.921 1256.57 474.81
177 0 80.099 11.9852 960 105.715 1256.49 468.904
178 0 83.1197 12.1993 1014 105.984 1256.41 470.257
179 0 86.1808 12.8915 1111 106.401 1256.84 465.797
180 0 90.2555 12.0547 1088 108.498 1256.2 468.808
181 0 93.1812 12.3952 1155 109.22 1255.9 463.142
182 0 96.3389 12.8089 1234 108.622 1255.55 461.752
183 0 98.4457 11.3159 1114 112.639 1255.6 458.2
184 0 102.255 12.0483 1232 112.12 1255.05 454.64
185 1 55.2412 10.0106 553 107.448 1255.3 482.412
186 0 56.1143 9.83707 552 107.321 1256.24 483.739
187 0 57.1366 11.0087 629 104.742 1257.92 483.394
188 0 61.027 12.7321 777 108.366 1258.09 483.181
189 0 61.0728 12.4278 759 102.776 1255.45 482.132
190 0 62.0714 10.8585 674 106.424 1255.57 480.552
191 0 65.0936 11.9828 780 102.468 1255.53 481.782
192 0 67.0703 11.5401 774 103.425 1255.61 478.864
193 0 69.0486 11.9771 827 102.511 1255.87 477.443
194 0 71.1551 11.3836 810 103.544 1256.18 476.933
195 0 75.0917 11.8788 892 101.74 1256.66 476.828
196 0 76.0695 11.713 891 102.75 1256.6 474.605
197 0 78.1183 12.5835 983 101.367 1256.89 473.262
198 0 80.0956 11.8234 947 102.883 1256.72 474.212
199 0 83.1362 11.427 950 102.936 1256.55 473.568
200 0 86.0795 11.4081 982 104.302 1256.36 471.138
201 0 86.0622 10.3065 887 106.875 1256.37 469.894
202 0 93.1015 12.1265 1129 102.911 1256.02 468.05
203 0 96.1314 12.098 1163 103.042 1256.84 464.871
204 1 48.0215 10.2662 493 106.093 1255.7 488.347
205 0 50.0218 11.2351 562 106.037 1256.31 487.057
206 0 56.0297 12.6362 708 104.667 1257.1 485.295
207 0 52.0703 11.1388 580 104.493 1255.43 486.784
208 0 54.0284 10.439 564 105.34 1255.98 484.291
209 0 59.071 11.3592 671 100.264 1255.69 485.879
210 0 60.0651 13.0359 783 97.7854 1255.15 482.789
211 0 59.0976 12.2171 722 101.391 1255.93 482.048
212 0 63.1055 13.8974 877 96.4595 1255.81 480.615
213 0 63.0403 11.6909 737 102.685 1255.86 480.825
214 0 65.0468 11.5917 754 101.552 1256.48 482.752
215 0 68.0567 12.7688 869 100.029 1255.72 478.724
216 0 69.0814 12.7675 882 101.402 1256.3 477.001
217 0 69.0335 11.3713 785 105.144 1256.1 478.176
218 0 72.0882 11.7217 845 104.222 1256.58 476.073
219 0 77.0727 12.339 951 102.394 1255.57 475.662
220 0 81.087 14.4289 1170 97.4957 1255.96 474.776
221 0 81.1054 12.9708 1052 102.494 1256.92 473.088
222 0 85.2203 14.1281 1204 100.399 1256.62 470.897
223 0 87.1094 13.7643 1199 101.687 1256.6 469.834
224 0 90.1547 14.2089 1281 102.706 1256.97 468.126
225 0 92.0923 13.367 1231 104.593 1257.09 466.777
226 0 95.1126 13.9414 1326 102.818 1257.12 467.216
227 0 98.0432 14.0958 1382 104.233 1256.99 464.105
228 0 101.104 13.7582 1391 104.848 1256.91 463.477
229 0 102.105 12.4871 1275 108.672 1257.11 463.364
230 0 107.108 14.4526 1548 103.307 1257.52 460.152
231 0 111.196 14.2901 1589 103.087 1257.05 458.383
232 0 115.123 14.3325 1650 103.084 1256.64 455.786
233 0 120.118 14.2693 1714 104.577 1256.99 453.944
234 0 125.117 13.3874 1675 108.121 1257.81 453.096
235 0 125.217 13.5045 1691 108.193 1257.6 449.327
236 1 65.1193 11.4098 743 101.32 1256.43 479.536
237 0 65.1018 11.0135 717 103.767 1256.91 480.464
238 0 70.1193 12.9066 905 101.472 1256.84 478.285
239 0 73.1209 13.6486 998 99.3627 1256.27 478.279
240 0 71.0738 12.9584 921 103.339 1256.08 476.333
241 0 77.1048 13.8513 1068 100.253 1256.11 475.655
242 0 78.2005 14.6035 1142 99.6086 1255.76 475.398
243 0 80.149 14.9596 1199 99.9224 1256.09 473.696
244 0 82.1057 14.0063 1150 102.384 1256.28 472.037
245 0 85.1302 13.0271 1109 110.298 1255.8 471.286
246 0 87.1844 12.4219 1083 111.147 1256.11 470.263
247 0 92.1226 13.4929 1243 105.558 1256.72 469.821
248 0 92.215 12.9046 1190 108.677 1256.07 467.486
249 0 97.2276 13.2678 1290 108.106 1256.48 464.442
250 0 101.116 13.0444 1319 106.875 1256.44 462.94
251 0 103.141 11.8382 1221 110.563 1256.61 462.786
252 1 55.025 11.8673 653 105.874 1256.4 484.332
253 0 58.0504 12.403 720 104.168 1255.98 482.443
254 0 56.1641 11.9827 673 104.421 1256.93 482.404
255 0 60.1228 12.541 754 102.048 1257.66 480.577
256 0 62.0675 12.422 771 101.59 1257.28 482.04
257 0 64.1614 12.1257 778 102.392 1257.16 480.467
258 0 68.124 13.6222 928 98.5366 1257.05 476.874
259 0 69.0239 13.2853 917 99.5376 1257.11 476.074
260 0 73.076 13.4381 982 99.0611 1257.06 475.292
261 0 75.0854 11.9464 897 102.275 1257.22 475.101
262 0 77.0273 12.7617 983 101.261 1257.23 473.482
263 0 80.0732 12.7383 1020 102.444 1257.1 472.294
264 0 82.129 12.2369 1005 100.296 1256.66 469.806
265 0 83.1754 12.2993 1023 102.253 1256.68 464.94
266 0 88.0933 13.7808 1214 99.3534 1256.46 467.743
267 0 90.1517 11.8245 1066 103.588 1257.36 467.228
268 0 94.2645 12.7195 1199 103.794 1256.59 462.645
269 1 51.0831 10.7863 551 103.16 1256.39 485.347
270 0 51.1225 11.58 592 104.889 1255.96 480.644
271 0 54.2798 12.2882 667 103.234 1256.35 478.838
272 0 56.0957 12.0865 678 99.8791 1257.97 483.164
273 0 58.0588 12.2462 711 99.0267 1257.74 483.335
274 0 57.113 11.2759 644 102.284 1257.24 482.107
275 0 61.0695 11.8881 726 100.262 1257.6 481.285
276 0 61.0695 11.839 723 133.373 1257.59 481.369
277 0 63.163 11.5732 731 101.632 1257.33 480.847
278 0 69.146 14.1874 981 76.5719 1256.92 477.295
279 0 70.0976 13.5383 949 98.7787 1256.95 475.453
280 0 71.2365 12.6059 898 100.405 1256.9 474.816
281 0 73.2563 11.7396 860 102.384 1256.59 475.401
282 0 77.13 12.6929 979 100.696 1256.29 471.791
283 0 80.2021 13.7902 1106 98.9774 1257.21 471.722
284 0 80.2265 11.2182 900 108.313 1256.67 469.77
285 0 85.2113 12.6744 1080 104.986 1257.06 468.118
286 0 87.3142 12.9418 1130 105.121 1256.35 466.019
287 0 88.119 13.2548 1168 105.914 1256.97 463.295
288 0 93.1983 12.4573 1161 106.067 1256.64 464.269
289 0 97.2766 12.3051 1197 106.591 1255.84 461.884
290 1 51.27 10.8836 558 103.228 1256.62 484.14
291 0 53.1728 10.8138 575 104.002 1255.86 482.683
292 0 53.0956 10.9802 583 106.257 1256.35 484.729
293 0 54.1678 12.0736 654 104.786 1256.89 484.209
294 0 54.0836 11.4452 619 107.672 1256.56 483.59
295 0 55.1413 11.9511 659 107.41 1256.52 481.604
296 0 59.1741 12.1168 717 107.234 1256.39 482.4
297 0 60.1657 12.798 770 106.734 1256.53 480.505
298 0 63.1445 12.2893 776 106.78 1256.73 479.811
299 0 65.1026 11.8275 770 108.638 1256.41 479.083
300 0 66.2179 13.0629 865 108.955 1255.85 476.087
301 0 72.1432 14.2494 1028 104.846 1255.86 475.394
302 0 75.1667 13.8226 1039 105.316 1256.39 475.84
303 0 74.1912 13.6404 1012 107.579 1256.12 474.301
304 0 76.2143 13.2783 1012 109.342 1256.34 473.095
305 0 78.3419 12.7773 1001 111.321 1256.68 471.484
306 0 80.3188 13.3593 1073 110.349 1256.88 470.154
307 0 83.3279 11.9288 994 108.362 1256.93 467.424
308 0 86.2358 12.9992 1121 107.258 1256.82 467.013
309 0 89.2736 13.8003 1232 107.616 1256.85 464.232
310 0 92.296 12.7741 1179 110.381 1256.36 465.397
311 0 95.2464 12.6199 1202 109.993 1256.91 463.695
312 1 51.2164 11.0902 568 108.639 1256.18 483.921
313 0 53.3245 12.4896 666 104.982 1255.99 484.737
314 0 53.2755 12.0318 641 108.81 1255.97 483.404
315 0 55.0538 12.4242 684 105.142 1256.12 484.651
316 0 57.1887 12.3976 709 105.714 1257.08 483.072
317 0 57.1148 11.7132 669 108.801 1256.72 483.454
318 0 61.0834 12.6385 772 106.351 1256.37 482.92
319 0 63.1324 13.3529 843 105.565 1257.29 480.432
320 0 67.1444 13.955 937 104.176 1257.19 478.894
321 0 66.0777 12.0313 795 110.18 1256.24 479.345
322 0 71.1502 14.5326 1034 104.022 1256.92 477.803
323 0 71.1502 14.4764 1030 149.858 1256.9 477.82
324 0 74.1069 13.9933 1037 106.83 1256.5 475.096
325 0 76.1166 14.1888 1080 106.597 1257.22 474.349
326 0 79.1177 12.829 1015 110.097 1256.8 473.563
327 0 82.084 13.1938 1083 109.868 1257.13 472.162
328 0 86.0872 14.4969 1248 106.664 1256.95 472.09
329 0 87.173 14.5802 1271 108.523 1257.28 468.17
330 0 89.1286 14.1593 1262 109.41 1257.4 467.995
331 0 93.1158 13.8752 1292 110.306 1257.13 466.083
332 0 96.2596 13.7441 1323 110.312 1256.2 462.813
333 1 52.3868 11.0333 578 109.277 1255.43 483.471
334 0 52.0588 11.487 598 101.288 1256 487.689
335 0 53.0307 10.8616 576 102.632 1255.53 489.102
336 0 53.0307 10.9559 581 149.138 1254.56 489.219
337 0 53.0331 10.9366 580 148.781 1253.55 489.186
338 0 56.061 11.8442 664 101.381 1256.49 484.027
339 0 59.0701 12.6629 748 98.8262 1256.95 483.906
340 0 62.0873 11.5966 720 100.7 1256.78 482.764
341 0 63.0693 10.8928 687 101.485 1256.58 482.39
342 0 66.1504 11.8669 785 96.9172 1257.05 479.233
343 0 66.0685 11.8967 786 99.0534 1257.15 480.426
344 0 69.0206 12.7788 882 97.6463 1256.83 478.901
345 0 72.0678 13.4596 970 95.2144 1258.01 477.45
346 0 73.0962 10.5614 772 100.421 1257.58 478.073
347 0 76.1154 13.243 1008 95.9127 1256.62 474.118
348 0 80.186 12.259 983 96.9674 1258.03 475.79
349 0 81.1203 10.5646 857 101.133 1257.09 472.218
350 0 85.1372 12.1216 1032 97.8895 1257.47 470.978
351 0 86.1048 11.277 971 100.939 1256.96 469.124
352 1 43.068 10.6344 458 96.9716 1257.52 489.862
353 0 43.068 10.6808 460 121.211 1257.5 489.852
354 0 45.0876 11.0895 500 97.644 1255.98 490.044
355 0 48.074 12.8552 618 97.5437 1256.9 487.285
356 0 50.1105 12.1132 607 98.8517 1257.58 487.476
357 0 51.085 12.5869 643 98.7932 1257.37 486.641
358 0 52.1068 12.34 643 99.2068 1257.16 486.241
359 0 53.0774 11.0593 587 107.063 1256.96 484.322
360 0 58.0603 10.713 622 106.797 1257.18 484.839
361 0 59.0708 12.6289 746 102.8 1256.67 484.286
362 0 59.0838 11.6106 686 106.504 1256.37 480.697
363 0 63.1166 11.5184 727 105.294 1256.88 482.128
364 0 63.0858 12.3641 780 105.686 1256.62 480.38
365 0 68.1585 13.1165 894 103.66 1256.27 478.695
366 0 69.1514 12.1906 843 106.502 1256.88 479.015
367 0 70.0953 11.6984 820 108.879 1256.73 476.822
368 0 74.1027 12.9955 963 105.589 1257.08 477.409
369 0 75.1016 12.583 945 108.741 1256.94 475.888
370 0 79.095 12.0994 957 109.774 1256.76 474.346
371 1 41.0578 10.4487 429 108.678 1256.85 492.459
372 0 45.0473 10.6111 478 104.628 1257.8 493.331
373 0 43.0162 11.3911 490 101.922 1257.71 492.043
374 0 44.0728 11.3675 501 102.319 1257.49 491.186
375 0 46.0792 11.8275 545 101.081 1257.65 491.062
376 0 47.0214 11.5267 542 102.996 1257.13 489.594
377 0 49.0359 11.8077 579 103.064 1258.41 490.135
378 0 50.0725 11.1838 560 105.468 1258.02 487.223
379 0 55.0888 11.6358 641 102.735 1257.57 487.314
380 0 54.1078 10.3867 562 106.959 1257.85 488.002
381 0 54.0328 10.4011 562 108.797 1257.87 485.794
382 0 59.0804 11.8313 699 103.954 1257.92 485.415
383 0 59.0747 12.0187 710 103.604 1258.13 484.876
384 0 64.1446 12.3315 791 110.372 1257.81 482.645
385 0 63.1354 12.0693 762 112.466 1257.42 481.807
386 0 67.1318 11.6189 780 113.451 1257.64 478.567
387 0 69.0896 10.3923 718 113.95 1257.69 481.545
388 0 73.1703 11.0701 810 113.804 1257.47 479.84
389 1 39.0135 10.4323 407 108 1257.79 494.393
390 0 40.0462 10.388 416 105.099 1257.1 495.413
391 0 37.0464 10.6353 394 104.741 1256.16 493.589
392 0 40.0422 10.6388 426 104.54 1255.81 495.291
393 0 43.0243 11.784 507 100.371 1257.59 494.391
394 0 44.0677 11.8681 523 100.836 1257.63 492.459
395 0 44.038 12.6028 555 103.804 1258.17 490.78
396 0 45.0203 11.7058 527 106.911 1258.04 491.317
397 0 48.1101 12.0349 579 106.159 1257.68 490.269
398 0 50.0753 12.5012 626 104.078 1257.1 491.331
399 0 50.1007 12.0158 602 106.638 1258.16 487.522
400 0 53.0634 13.7194 728 102.758 1258.56 487.639
401 0 54.0366 12.9542 700 105.224 1258.02 486.711
402 0 55.0627 12.8036 705 106.834 1258.3 486.549
403 0 56.0958 12.6926 712 108.008 1257.86 485.157
404 0 57.1123 12.5717 718 109.175 1257.48 485.192
405 0 61.0391 13.5487 827 105.976 1257.65 483.31
406 0 61.0744 13.0169 795 109.19 1258.03 482.553
407 0 62.1558 14.528 903 106.001 1257.45 481.73
408 0 66.048 12.9451 855 108.643 1257.76 482.995
409 0 66.2166 13.4256 889 109.135 1257.75 481.028
410 0 70.1364 14.6857 1030 105.777 1257.58 479.005
411 0 72.1447 13.3898 966 108.739 1257.62 479.739
412 0 75.0777 13.3195 1000 114.817 1256.45 476.981
413 0 76.0926 14.0092 1066 113.239 1257.08 475.568
414 0 79.1076 14.1453 1119 112.788 1257.16 474.769
415 0 79.1076 13.2225 1046 148.01 1257.14 473.515
416 0 84.0775 13.8444 1164 114.672 1258.03 470.806
417 0 88.0997 14.6993 1295 112.003 1258.27 471.167
418 0 88.1671 14.8128 1306 112.903 1258.23 467.58
419 1 45.0322 11.2586 507 108.854 1257.93 485.925
420 0 46.0659 11.6572 537 113.199 1258.46 492.168
421 0 47.1128 12.0562 568 116.285 1258.5 489.148
422 0 49.0648 11.923 585 116.697 1258.87 488.798
423 0 52.0996 13.1671 686 112.675 1258.73 488.529
424 0 51.086 12.4104 634 116.191 1258.25 489.131
425 0 52.116 12.5489 654 117.413 1258.07 488.373
426 0 55.1422 12.9484 714 116.922 1258.18 487.203
427 0 55.1071 12.14 669 120.362 1257.42 486.544
428 0 56.0886 12.8012 718 120.01 1258.1 484.247
429 0 58.1869 13.2332 770 117.084 1257.69 485.282
430 0 60.1557 13.3819 805 117.519 1257.1 483.783
431 0 64.167 13.3869 859 117.469 1257.57 483.184
432 0 64.2123 13.5799 872 118.657 1257.18 481.882
433 0 66.0692 13.3648 883 118.659 1257.52 480.665
434 0 69.0665 13.5087 933 119.021 1257.71 478.132
435 0 72.0402 14.4919 1044 114.961 1257.88 478.033
436 0 72.1013 12.9956 937 119.755 1257.92 477.59
437 0 75.049 12.685 952 120.197 1256.85 476.819
438 0 77.1483 13.5713 1047 119.52 1257.18 474.16
439 0 80.1243 15.3886 1233 114.393 1257.78 472.262
440 1 44.0087 11.0205 485 118.957 1258.2 490.282
441 0 43.0833 11.118 479 121.309 1257.99 488.706
442 0 47.0618 11.793 555 117.867 1257.61 489.919
443 0 46.0618 12.049 555 112.29 1257.66 491.906
444 0 47.0333 11.7151 551 113.076 1257.11 491.2
445 0 51.0656 11.5734 591 111.706 1257.82 489.677
446 0 50.1395 11.8669 595 111.65 1258.18 489.76
447 0 50.1395 12.0065 602 142.291 1259.21 489.623
448 0 52.0611 12.4469 648 112.034 1257.75 486.914
449 0 56.0487 12.6854 711 109.488 1257.79 486.422
450 0 57.1423 12.1276 693 110.04 1257.68 488.948
451 0 58.1919 12.7337 741 110.745 1257.8 483.791
452 0 61.0239 11.9298 728 112.464 1257.26 484.141
453 0 60.0937 12.3307 741 112.783 1258.05 483.105
454 0 64.1429 11.4432 734 114.267 1257.98 483.131
455 0 66.0833 12.6204 834 112.884 1257.61 481.231
456 0 69.0934 13.3877 925 111.214 1257.53 480.274
457 0 71.0556 12.6802 901 112.522 1257.63 479.312
458 0 73.1355 12.9212 945 112.561 1257.31 478.381
459 0 75.1202 12.1938 916 114.842 1257.52 476.049
460 0 76.0563 12.333 938 115.408 1257.37 475.522
461 0 81.062 12.4226 1007 114.933 1257.65 473.069
462 0 82.0677 11.917 978 115.807 1257.12 473.366
463 1 43.0616 10.6824 460 115.854 1256.76 492.28
464 0 44.0317 11.8778 523 114.52 1258 491.048
465 0 47.0933 12.8256 604 117.106 1257.65 489.262
466 0 47.0786 11.4489 539 111.709 1257.38 491.443
467 0 49.0248 11.5452 566 110.366 1256.67 490.693
468 0 48.0609 10.9861 528 112.159 1257.38 490.822
469 0 49.0914 11.5499 567 111.559 1256.89 489.192
470 0 53.0386 11.3502 602 110.905 1257.09 486.754
471 0 56.04 11.4204 640 109.873 1256.78 486.48
472 0 56.0486 11.2581 631 111.526 1256.27 484.97
473 0 56.057 11.2029 628 143.979 1255.28 484.917
474 0 63.0355 11.8187 745 108.102 1256.82 485.746
475 0 63.0145 12.394 781 108.093 1257.61 483.325
476 0 67.0574 11.7511 788 109.6 1257.05 482.075
477 0 66.0504 11.3398 749 112.685 1256.89 480.489
478 0 70.0307 12.5374 878 110.05 1257.31 477.921
479 0 74.0768 12.487 925 109.787 1257.13 477.836
480 0 77.0838 12.6486 975 109.168 1256.87 476.58
481 0 79.0748 12.5071 989 111.513 1256.8 474.337
482 0 82.2599 12.6064 1037 111.762 1256.4 471.514
483 1 43.0446 11.0583 476 113.805 1257.47 491.328
484 0 46.0227 11.4726 528 114.682 1257.51 490.574
485 0 47.0283 11.929 561 111.153 1256.9 489.574
486 0 46.0285 11.0801 510 113.082 1256.05 491.049
487 0 48.0232 11.0988 533 113.156 1256 490.452
488 0 47.0332 10.8009 508 116.518 1255.74 489.033
489 0 49.1475 10.438 513 117.218 1256.41 488.105
490 0 53.0406 12.4433 660 111.767 1256.37 486.353
491 0 54.0687 12.6691 685 111.975 1256.49 485.023
492 0 54.035 12.2328 661 113.543 1256.73 485.741
493 0 55.0367 12.0647 664 115.559 1256.87 483.923
494 0 59.0755 12.848 759 112.074 1257 484.286
495 0 61.0294 11.6501 711 116.143 1257.09 481.603
496 0 62.0563 12.1986 757 114.616 1256.66 482.765
497 0 64.0486 12.8964 826 114.219 1256.88 479.565
498 0 68.0652 13.8544 943 110.54 1256.64 479.762
499 0 70.05 12.5482 879 115.336 1257.29 477.743
500 0 70.0599 12.2038 855 121.329 1256.67 476.336
501 0 73.0805 11.8089 863 123.612 1257.27 475.803
502 0 77.1004 13.5408 1044 119.616 1256.94 473.965
503 0 81.1343 13.3729 1085 120.279 1257.53 474.409
504 0 82.0504 13.1626 1080 122.345 1257.38 471.906
505 0 85.0805 12.6704 1078 124.947 1257.56 469.948
506 1 47.0261 11.6318 547 121.771 1256.13 490.887
507 0 47.0387 11.2461 529 123.081 1256.58 489.851
508 0 46.0291 11.4493 527 147.774 1257.56 489.867
509 0 52.0085 12.4787 649 119.898 1256.46 488.088
510 0 53.026 12.9559 687 116.677 1256.78 486.884
511 0 53.0485 12.0644 640 120.003 1256.67 487.378
512 0 56.0566 12.7371 714 117.531 1256.2 485.987
513 0 57.0484 13.0591 745 118.454 1256.17 485.016
514 0 58.1184 12.2164 710 122.221 1256.3 485.117
515 0 60.0836 11.5506 694 122.692 1255.77 485.38
516 0 60.0836 11.6171 698 144.307 1254.78 485.384
517 0 65.0843 12.6759 825 120.034 1257.61 481.248
518 0 64.0375 11.587 742 122.915 1257.62 480.915
519 0 69.0464 13.2809 917 118.308 1256.56 478.304
520 0 71.0678 13.0439 927 118.676 1256.79 477.382
521 0 73.073 12.3028 899 119.99 1256.13 476.194
522 0 76.0524 12.0706 918 120.654 1255.07 475.742
523 0 80.1542 13.2619 1063 116.193 1256.5 475.968
524 0 83.086 13.5763 1128 115.779 1256.15 474.361
525 0 85.0938 12.5979 1072 119.516 1256.54 471.133
526 0 90.0588 12.4141 1118 118.881 1256.36 469.397
527 1 45.0559 11.3415 511 117.579 1255.53 491.638
528 0 46.084 11.8045 544 116.042 1255.6 490.691
529 0 46.0143 12.4309 572 114.806 1255.75 491.344
530 0 48.1324 12.8811 620 113.242 1256.54 488.071
531 0 48.0537 12.2779 590 115.38 1256.34 488.261
532 0 50.0449 12.5887 630 113.917 1256.52 487.635
533 0 52.0565 12.448 648 114.179 1256.49 488.71
534 0 54.1081 11.4585 620 115.998 1256.15 489.484
535 0 54.0538 11.0631 598 118.89 1256.64 486.931
536 0 57.0886 12.2266 698 115.444 1256.53 485.976
537 0 59.1324 12.5481 742 113.767 1256.49 483.796
538 0 57.1071 11.207 640 119.458 1256.53 483.089
539 0 62.0659 12.0517 748 113.812 1255.77 483.19
540 0 65.1134 11.718 763 114.265 1256.55 480.877
541 0 67.0883 12.5059 839 113.144 1256.28 478.825
542 0 69.136 12.1644 841 114.401 1256.5 477.161
543 0 68.0562 11.0497 752 118.573 1256.95 476.992
544 0 75.0621 12.6562 950 113.411 1256.12 474.909
545 0 77.0859 11.8439 913 114.972 1256.84 472.747
546 0 79.1089 12.6282 999 113.42 1256.55 471.204
547 0 83.0916 11.5655 961 114.488 1256.16 472.444
548 0 86.0978 12.0096 1034 113.006 1256.56 470.969
549 0 88.1002 12.429 1095 113.015 1256.29 469.254
550 0 91.0796 11.1661 1017 115.891 1256.36 467.673
551 1 47.0935 11.148 525 110.893 1255.41 489.817
552 0 49.0944 12.5269 615 106.22 1258.19 489.341
553 0 49.1326 10.9093 536 106.058 1257.66 485.265
554 0 49.0423 11.8469 581 110.602 1257.4 487.683
555 0 53.0853 11.5286 612 109.899 1257.62 488.095
556 0 54.0635 12.2634 663 109.481 1257.56 485.505
557 0 54.0669 11.6892 632 112.381 1257.25 486.134
558 0 56.0845 11.1617 626 114.725 1257.49 486.348
559 0 59.1168 13.228 782 109.983 1257.7 483.408
560 0 60.079 12.1007 727 113.431 1258.29 483.9
561 0 61.0629 12.4134 758 115.348 1258.47 483.493
562 0 63.0657 13.0816 825 114.416 1257.41 481.582
563 0 66.0673 13.9252 920 112.836 1257.47 480.423
564 0 70.0791 13.813 968 111.475 1257.85 478.397
565 0 71.0517 13.5535 963 112.415 1257.7 480.56
566 0 71.1128 12.4872 888 119.302 1257.43 478.171
567 0 74.0566 11.9098 882 120.49 1256.72 478.306
568 0 74.1064 12.1582 901 123.277 1257.53 477.976
569 0 78.0556 12.7089 992 121.119 1256.98 476.247
570 0 82.0946 13.0825 1074 120.786 1257.41 474.259
571 0 84.1518 13.2142 1112 120.784 1257.24 473.313
572 0 86.148 13.4768 1161 120.838 1256.93 469.864
573 0 90.2314 13.0553 1178 122.226 1256.96 469.021
574 0 90.1018 13.3849 1206 121.206 1258.08 468.409
575 0 93.1274 12.9393 1205 123.769 1257.49 466.714
576 0 96.1423 12.8351 1234 123.696 1257.4 464.313
577 0 99.1916 12.6422 1254 125.336 1256.59 461.829
578 1 53.0477 12.3474 655 122.026 1257.04 488.195
579 0 53.0477 12.3662 656 141.799 1258.05 488.151
580 0 55.022 12.5404 690 121.538 1257.71 485.349
581 0 57.0586 12.9165 737 119.959 1257.46 484.223
582 0 61.0794 13.4906 824 118.027 1256.55 483.648
583 0 62.0577 14.132 877 116.245 1256.56 483.885
584 0 62.0822 12.9023 801 120.712 1257 482.343
585 0 65.0757 14.3832 936 116.079 1257.08 481.993
586 0 67.1267 13.3479 896 119.442 1257.26 480.416
587 0 69.082 13.3465 922 118.403 1257.27 478.621
588 0 70.1511 12.2165 857 122.512 1256.48 477.425
589 0 71.0827 13.1256 933 121.84 1256.84 474.526
590 0 77.1539 13.648 1053 118.146 1256.83 475.389
591 0 78.086 12.8576 1004 121.449 1256.45 472.348
592 0 80.125 12.6178 1011 121.603 1256.8 472.981
593 0 83.0914 13.2384 1100 121.71 1257.08 469.655
594 0 88.0885 12.601 1110 120.742 1257.2 470.625
595 0 91.0288 11.9083 1084 121.678 1256.79 467.533
596 0 91.0955 12.2728 1118 120.582 1256.59 463.021
597 0 94.045 13.0044 1223 117.238 1256.75 462.866
598 1 54.0529 11.1742 604 117.177 1256.39 480.618
599 0 56.0213 11.0137 617 125.318 1256.85 484.326
600 0 60.0819 12.4164 746 117.791 1257.45 485.784
601 0 59.0757 11.3414 670 121.851 1257.15 483.958
602 0 61.1298 10.8785 665 122.182 1256.78 484.689
603 0 64.025 11.0894 710 120.499 1256.74 485.104
604 0 66.0793 11.4105 754 121.977 1256.69 481.873
605 0 68.1014 12.3052 838 117.689 1257.46 482.952
606 0 69.0859 10.4652 723 125.032 1257.23 480.936
607 0 72.1761 12.4418 898 120.215 1257.02 479.056
608 0 76.108 11.6414 886 122.231 1256.34 477.618
609 0 78.0426 13.1467 1026 120.051 1257.22 475.117
610 0 80.1431 12.6149 1011 122.523 1256.74 474.272
611 0 85.2177 14.152 1206 117.915 1256.83 473.032
612 0 88.0606 13.6497 1202 119.405 1256.84 471.648
613 0 90.1182 13.4379 1211 121.465 1256.45 469.97
614 0 93.1573 13.3538 1244 122.208 1256.99 469.133
615 0 97.174 13.2854 1291 122.749 1256.84 468.098
616 0 100.14 13.611 1363 123.068 1256.65 466.521
617 0 100.165 12.6292 1265 128.461 1256.89 461.601
618 0 107.29 13.7105 1471 125.389 1256.58 461.042
619 0 109.466 13.0817 1432 127.255 1256.46 459.295
620 0 114.346 14.0626 1608 125.567 1256.73 457.147
621 0 117.282 13.5741 1592 128.055 1257.25 451.766
622 0 122.383 13.8336 1693 128.292 1256.41 448.93
623 0 125.398 14.1389 1773 125.491 1256.92 446.06
624 0 127.181 12.6355 1607 125.744 1255.84 445.437
625 1 71.3782 12.9451 924 121.077 1256.33 476.846
626 0 75.1419 13.9736 1050 121.894 1256.86 475.883
627 0 75.1709 11.0415 830 132.888 1257.18 475.906
628 0 80.165 14.1334 1133 123.867 1256.39 474.567
629 0 82.1731 13.143 1080 125.648 1255.71 474.031
630 0 85.3026 13.7159 1170 125.108 1256.02 471.087
631 0 86.2078 13.6531 1177 126.017 1255.58 470.366
632 0 88.218 12.5485 1107 127.84 1255.73 469.719
633 0 92.2376 14.0615 1297 122.482 1255.69 466.74
634 0 94.1659 12.1594 1145 120.312 1255.39 466.748
635 0 98.0501 13.1259 1287 117.294 1255.81 467.471
636 0 103.095 12.8329 1323 117.604 1256.25 465.42
637 0 105.121 12.262 1289 119.535 1256 462.318
638 0 108.101 12.3958 1340 119.507 1255.31 459.852
639 1 50.0084 11.1781 559 110.823 1255.93 492.197
640 0 49.078 11.3289 556 111.331 1258.15 489.428
641 0 51.0417 12.1469 620 111.319 1255.7 489.571
642 0 52.0514 11.1812 582 112.077 1257.79 488.725
643 0 53.0801 12.5282 665 110.045 1256.84 487.526
644 0 55.0648 12.2946 677 110.097 1257.56 487.768
645 0 56.0423 11.4199 640 112.773 1257.8 485.711
646 0 57.0742 12.2998 702 111.644 1257.86 483.983
647 0 61.0965 11.7355 717 112.215 1257 485.386
648 0 62.1017 11.8676 737 112.487 1257.6 483.392
649 0 64.1323 11.8817 762 113.224 1257.08 482.172
650 0 65.0498 11.9601 778 114.725 1256.72 480.604
651 0 69.0738 13.1454 908 109.646 1256.64 480.412
652 0 71.077 12.3669 879 111.94 1256.58 479.479
653 0 71.0505 12.3011 874 114.11 1257.15 476.697
654 0 76.0851 13.0643 994 110.296 1256.95 475.669
655 0 77.0621 12.5483 967 110.827 1256.78 477.178
656 0 81.0742 12.0014 973 109.244 1257 474.628
657 0 83.0807 12.193 1013 108.607 1256.34 474.063
658 0 86.1173 12.6688 1091 107.515 1255.99 472.478
659 0 91.1142 12.5886 1147 106.745 1256.58 471.542
660 1 46.0629 11.2238 517 105.714 1257.28 490.747
661 0 48.0431 10.7403 516 109.023 1257.82 491.143
662 0 49.1146 12.3181 605 109.225 1257.47 489.058
663 0 52.0391 13.3169 693 100.214 1257.42 488.222
664 0 51.1496 11.4566 586 104.154 1257.71 487.751
665 0 53.0508 10.5748 561 105.052 1257.76 488.105
666 0 55.1491 12.4753 688 101.44 1257.08 486.693
667 0 55.0873 11.5998 639 104.477 1256.33 486.881
668 0 58.0559 12.4191 721 102.592 1256.14 484.603
669 0 59.0532 11.2272 663 105.015 1256.71 483.537
670 0 62.0352 12.8475 797 99.995 1256.21 484.162
671 0 63.0723 12.2875 775 102.548 1256.49 483.228
672 0 64.0862 12.3115 789 104.441 1256.24 481.254
673 0 68.0852 12.6019 858 102.917 1255.98 481.019
674 0 70.0912 12.3411 865 103.222 1256.37 479.49
675 0 73.1933 12.1459 889 103.786 1257.05 479.276
676 0 74.0702 13.0822 969 104.236 1256.35 477.08
677 0 77.0966 12.3871 955 105.709 1256.52 476.43
678 0 80.1064 12.6332 1012 104.805 1256.95 474.157
679 0 82.138 12.1259 996 106.538 1256.8 473.161
680 1 44.1896 11.4733 507 105.598 1257.06 492.426
681 0 43.0253 11.0633 476 102.693 1256.96 492.756
682 0 47.0373 12.1606 572 99.7762 1256.26 491.878
683 0 47.0608 13.5994 640 97.1125 1254.97 491.078
684 0 48.0632 13.0869 629 99.0111 1255.19 490.207
685 0 50.0871 12.638 633 99.2907 1255.51 490.398
686 0 53.0477 12.14 644 99.5 1255.36 489.593
687 0 55.017 12.8688 708 97.4124 1255.66 487.98
688 0 57.0353 12.6588 722 97.5111 1255.17 488.756
689 0 58.1086 13.7157 797 95.0163 1255.74 486.945
690 0 57.1246 11.6587 666 99.7823 1256.23 486.402
691 0 60.0367 12.0593 724 98.3398 1255.6 485.333
692 0 62.0938 11.3055 702 100.011 1255.74 482.336
693 0 63.0294 12.1055 763 98.3119 1255.89 482.218
694 0 66.0813 11.728 775 98.0723 1256.09 482.764
695 0 68.0471 11.7419 799 98.7484 1256.05 481.638
696 0 71.0569 12.0045 853 98.1372 1255.78 479.036
697 0 74.1559 11.0578 820 95.5939 1257.05 474.028
698 0 77.0808 12.8047 987 94.23 1256.48 473.149
699 0 79.0499 12.8653 1017 98.9479 1256.67 474.436
700 0 81.1411 12.3612 1003 101.698 1256.26 476.679
701 0 83.0552 10.7639 894 109.568 1256.39 473.008
702 0 87.0814 12.563 1094 107.404 1255.47 471.303
703 0 89.0848 12.359 1101 107.652 1256.95 471.702
704 1 43.0797 11.2118 483 109.72 1257.3 489.476
705 0 46.0688 11.3743 524 109.324 1257.36 490.174
706 0 49.0818 11.5318 566 108.73 1256.49 488.943
707 0 50.0535 12.5865 630 105.935 1257.23 489.96
708 0 52.0987 12.7067 662 107.069 1256.42 485.921
709 0 53.0934 11.5834 615 109.641 1256.26 487.203
710 0 55.068 12.2394 674 107.677 1256.85 486.8
711 0 55.1087 11.7041 645 110.533 1256.82 486.998
712 0 58.1231 13.3338 775 106.77 1256.4 484.957
713 0 59.0682 11.2074 662 112.964 1256.73 484.544
714 0 61.1471 12.9197 790 108.789 1256.89 482.389
715 0 61.1496 12.5757 769 111.676 1256.22 481.334
716 0 66.2427 12.0466 798 111.693 1256.11 480.373
717 0 66.1667 12.9975 860 111.234 1257.08 479.612
718 0 67.07 11.7489 788 113.721 1256.48 478.957
719 0 69.1274 11.8477 819 113.698 1256.74 477.58
720 0 74.1173 13.6271 1010 110.183 1256.38 475.183
721 0 77.059 13.1717 1015 110.61 1256.45 473.87
722 0 77.1411 11.8225 912 114.945 1256.69 472.109
723 0 82.1499 12.7085 1044 112.365 1257.12 471.106
724 0 83.2359 13.3596 1112 112.19 1256.62 468.754
725 0 86.1869 12.6933 1094 113.601 1255.88 465.899
726 1 44.0171 10.8821 479 112.399 1256.53 485.061
727 0 48.021 12.2863 590 107.398 1256.74 486.747
728 0 47.0403 10.9906 517 110.685 1256.92 485.079
729 0 50.1256 11.3515 569 113.562 1257.4 484.452
730 0 50.0445 12.6887 635 110.403 1257.09 487.767
731 0 51.1515 12.1404 621 111.337 1256.48 488.96
732 0 53.0544 12.0631 640 111.455 1256.47 487.416
733 0 53.0472 11.7254 622 113.233 1256.44 486.476
734 0 56.1808 10.6442 598 114.052 1256.3 487.176
735 0 57.1368 10.9212 624 115.054 1256.35 484.298
736 0 58.196 10.8083 629 115.758 1255.79 484.126
737 0 62.1009 13.0111 808 109.427 1256.15 482.113
738 0 66.1437 12.6391 836 108.325 1256.13 483.524
739 0 67.1277 12.5284 841 110.444 1256.77 481.309
740 0 67.2159 13.1219 882 110.4 1256.01 480.062
741 0 71.1477 13.1838 938 110.321 1255.97 477.617
742 0 73.1256 12.8819 942 110.01 1256.27 480.166
743 0 75.0635 13.1755 989 110.739 1255.99 475.914
744 0 80.1292 12.667 1015 111.231 1256.34 476.618
745 0 80.1925 12.1832 977 113.542 1256.65 474.756
746 0 83.1967 12.801 1065 112.051 1255.64 471.127
747 0 86.166 12.9866 1119 112.278 1255.04 471.554
748 0 89.1585 13.1003 1168 111.777 1255.25 470.13
749 0 91.2538 12.7885 1167 112.857 1255.19 467.952
750 0 95.1615 12.9044 1228 109.173 1255.35 466.585
751 0 98.2588 14.0344 1379 107.56 1255.93 464.606
752 0 100.115 13.2647 1328 107.893 1255.71 464.198
753 0 103.072 12.5447 1293 109.578 1256.65 462.296
754 1 53.0498 11.1405 591 106.968 1257.01 489.068
755 0 58.143 12.4005 721 105.04 1256.2 484.653
756 0 59.1076 11.589 685 106.394 1256.77 485.466
757 0 62.0855 13.8358 859 100.013 1255.69 482.901
758 0 64.1152 12.8675 825 102.08 1255.04 481.482
759 0 65.0767 13.4764 877 100.075 1255.49 481.279
760 0 67.0842 12.3129 826 103.688 1254.48 480.856
761 0 70.0361 11.8796 832 103.855 1255.46 480.028
762 0 74.0559 14.408 1067 97.6317 1255.31 478.36
763 0 75.1628 12.0804 908 103.295 1255.45 477.292
764 0 78.0604 12.849 1003 102.534 1255.89 477.463
765 0 80.1036 12.4214 995 104.051 1255.79 475.079
766 0 83.0147 12.817 1064 103.677 1255.12 475.602
767 0 84.082 12.0002 1009 105.93 1255.44 473.428
768 0 89.0444 12.6903 1130 111.472 1254.73 471.948
769 0 92.1063 12.7896 1178 112.707 1254.71 469.217
770 0 94.0709 13.1071 1233 113.029 1254.81 466.787
771 0 100.114 13.105 1312 111.957 1254.81 468.045
772 0 101.136 12.7254 1287 113.395 1255.5 462.657
773 0 107.07 12.2257 1309 114.468 1255.15 462.979
774 0 110.097 13.7697 1516 110.042 1255.47 461.764
775 0 113.202 12.6147 1428 112.214 1255.32 457.468
776 0 118.224 13.4829 1594 108.592 1255.22 455.874
777 0 121.199 13.0034 1576 111.831 1255.2 450.99
778 0 126.169 13.0539 1647 111.416 1255.23 451.574
779 1 68.0956 12.6146 859 103.007 1256.78 481.088
780 0 72.0719 12.4875 900 101.962 1256.22 479.911
781 0 73.185 12.3933 907 99.2624 1256.44 476.255
782 0 74.0911 11.2024 830 102.464 1255.75 475.154
783 0 77.11 11.4382 882 103.604 1255.78 473.795
784 0 80.0698 11.515 922 104.024 1256.01 472.344
785 0 82.1045 11.4488 940 104.428 1256.22 472.739
786 0 85.1035 11.9854 1020 106.136 1256.58 469.041
787 0 88.1592 12.0464 1062 107.796 1255.31 467.318
788 0 90.0993 12.4085 1118 108.22 1255.82 467.229
789 0 95.1723 11.9573 1138 108.88 1256.29 465.778
790 0 96.0749 11.0227 1059 112.807 1255.34 463.769
791 0 101.191 13.0446 1320 109.527 1255.65 460.042
792 0 103.124 12.3153 1270 113.131 1255.41 459.206
793 0 106.095 11.1033 1178 115.54 1255.54 457.809
794 0 112.181 12.9167 1449 110.158 1255.84 455.128
795 1 56.0917 11.9625 671 109.24 1255.7 488.265
796 0 57.0955 13.4161 766 107.629 1255.25 485.822
797 0 62.0616 13.3416 828 104.077 1255.39 487.234
798 0 61.1561 13.0322 797 107.285 1255.22 483.232
799 0 64.0963 12.0912 775 108.698 1254.92 483.97
800 0 68.1325 12.7986 872 106.635 1255.14 483.702
801 0 67.1371 11.6329 781 110.595 1255.31 481.41
802 0 69.0962 12.0846 835 110.862 1254.93 479.933
803 0 73.1574 12.3159 901 109.283 1254.65 478.925
804 0 75.1012 12.623 948 109.351 1256.35 478.939
805 0 76.0615 12.1875 927 111.181 1256.23 479.389
806 0 78.0644 12.7331 994 112 1256.33 476.208
807 0 81.0554 12.3496 1001 113.131 1256.02 476.631
808 0 83.1065 11.7199 974 115.602 1255.63 474.272
809 0 88.1898 12.6885 1119 112.266 1256.74 473.207
810 0 89.075 11.7317 1045 116.502 1256.22 471.258
811 0 93.0798 11.9467 1112 116.145 1257.42 468.551
812 0 95.1518 11.571 1101 117.094 1256.81 468.279
813 1 53.0397 11.4443 607 112.801 1256.84 489.855
814 0 54.0394 12.1763 658 112.57 1256.66 487.737
815 0 55.0931 12.2338 674 114.001 1256.45 486.212
816 0 55.0644 11.5683 637 112.664 1257.33 486.733
817 0 59.0163 11.6408 687 111.378 1256.48 484.425
818 0 59.1108 12.5865 744 109.433 1257.2 486.23
819 0 60.0471 11.4077 685 111.46 1257.09 483.493
820 0 63.021 12.5196 789 108.575 1257.26 483.913
821 0 64.0569 12.2391 784 110.191 1256.53 481.059
822 0 65.0568 12.8349 835 108.732 1257.81 479.763
823 0 70.0605 13.3884 938 105.385 1257.42 480.639
824 0 70.0841 13.3411 935 106.93 1257 478.63
825 0 72.1292 12.1033 873 110.532 1257.24 477.506
826 0 74.0863 12.8364 951 108.528 1257.44 478.372
827 0 76.0794 12.9076 982 107.335 1257 477.603
828 0 77.0725 12.1704 938 109.581 1257.37 475.699
829 0 80.1055 12.6084 1010 108.03 1256.93 473.738
830 0 83.1714 12.4201 1033 107.716 1256.28 474.58
831 0 87.0629 12.5082 1089 107.887 1255.63 471.713
832 0 90.1518 13.2443 1194 107.11 1256.22 467.413
833 0 94.153 13.3188 1254 106.156 1256.75 468.746
834 1 51.0617 12.2988 628 110.486 1256.71 489.39
835 0 52.0998 12.073 629 111.906 1254.61 488.933
836 0 55.0469 13.2978 732 104.893 1254.57 488.858
837 0 56.082 12.9097 724 104.771 1254.75 487.979
838 0 57.0423 13.5163 771 104.407 1254.92 487.101
839 0 59.103 13.0619 772 105.372 1254.73 485.935
840 0 62.0355 12.6218 783 105.285 1255.25 485.057
841 0 62.0179 12.4158 770 105.994 1254.77 483.24
842 0 66.0327 12.7967 845 104.291 1255 483.454
843 0 67.0937 12.7434 855 105.593 1254.87 480.616
844 0 71.1037 13.3326 948 102.8 1254.76 478.917
845 0 74.1425 12.8671 954 103.461 1255.21 479.14
846 0 76.1097 13.9535 1062 101.142 1254.87 477.899
847 0 78.1752 12.1778 952 104.998 1254.69 476.963
848 0 81.1482 12.5449 1018 104.51 1254.71 475.636
849 1 43.0388 12.1983 525 105.6 1253.33 493.255
850 0 46.081 12.6082 581 103.781 1254.94 493.632
851 0 46.0337 12.3388 568 105.118 1254.86 491.606
852 0 45.1093 12.7468 575 103.64 1254.56 491.468
853 0 48.033 13.1784 633 102.174 1255.07 490.85
854 0 50.1027 14.59 731 98.7127 1255.2 490.813
855 0 50.112 13.6694 685 101.742 1254.61 488.356
856 0 53.1135 12.4262 660 103.258 1255.56 488.364
857 0 53.0769 12.3594 656 105 1255.51 486.983
858 0 56.0844 12.1959 684 104.561 1255.64 487.025
859 0 57.1661 13.6619 781 101.698 1254.94 485.096
860 0 59.2154 13.6282 807 102.502 1254.9 484.985
861 0 60.2006 13.7208 826 104.298 1255.09 482.91
862 0 62.1683 12.5466 780 106.051 1255.35 483.319
863 0 64.3348 13.5541 872 104.522 1254.53 480.689
864 0 66.1447 13.3042 880 105.673 1254.94 481.494
865 0 69.3056 15.8862 1101 99.3615 1255.56 480.282
866 0 69.3286 13.5298 938 106.555 1255.7 476.98
867 0 73.3868 12.5091 918 108.184 1255.76 474.688
868 0 74.1728 14.1831 1052 102.96 1255.13 473.445
869 0 75.1315 10.9541 823 110.58 1255.62 474.764
870 0 78.1795 12.5992 985 107.68 1255.14 472.851
871 0 81.1999 12.2783 997 107.628 1255.14 471.957
872 0 83.1466 12.4118 1032 108.372 1255.38 468.642
873 0 87.1583 12.0929 1054 108.147 1255.85 467.744
874 0 87.2984 11.833 1033 110.098 1255.2 463.38
875 1 47.3507 10.7496 509 104.464 1255.3 483.008
876 0 49.1282 11.2359 552 107.701 1254.7 486.819
877 0 49.0867 9.77861 480 103.221 1255.32 490.077
878 0 51.1079 9.48973 485 104.066 1255.4 489.534
879 0 54.1185 12.5465 679 97.8203 1255.15 486.7
880 0 56.0717 11.1464 625 100.245 1255.46 487.56
881 0 57.1018 11.786 673 99.6389 1255.62 484.278
882 0 60.1148 12.027 723 99.1217 1255.2 483.669
883 0 60.0614 10.7057 643 103.04 1255.34 481.924
884 0 64.1013 12.6831 813 98.6261 1256.02 480.708
885 0 64.0816 11.6258 745 100.93 1255.63 482.129
886 0 67.1596 12.2097 820 100.224 1255.97 479.727
887 0 70.2706 12.4519 875 99.3086 1255.46 479.888
888 0 71.1293 11.5705 823 102.798 1255.47 478.219
889 0 77.1177 11.7483 906 101.033 1255.62 477.241
890 0 78.1355 11.8 922 101.572 1255.22 475.491
891 0 81.2037 12.1054 983 101.413 1255.75 473.591
892 1 42.0408 9.80001 412 105.536 1255.73 492.604
893 0 43.0346 11.7812 507 101.037 1256.01 491.746
894 0 47.0975 12.4847 588 97.983 1255.65 490.488
895 0 48.0638 12.3794 595 100.044 1256.57 490.316
896 0 49.052 12.5581 616 100.281 1256.78 489.685
897 0 50.0465 13.1078 656 98.9802 1256.19 488.002
898 0 50.075 12.3415 618 101.709 1256.46 487.652
899 0 53.0395 12.8772 683 100.458 1256.68 488.464
900 0 51.0122 12.8401 655 103.295 1256.06 487.153
901 0 57.1291 13.5308 773 99.9483 1256.54 487.131
902 0 58.0593 12.9523 752 102.286 1256.57 485.61
903 0 58.0284 13.1487 763 103.227 1256.7 485.106
904 0 62.0194 14.044 871 100.978 1255.89 482.708
905 0 63.0208 13.9636 880 101.428 1256.13 482.388
906 0 67.0735 14.2679 957 100.236 1256.4 483.207
907 0 65.0519 11.6676 759 109.491 1256.25 482.768
908 0 68.0745 12.8976 878 106.591 1256.28 480.909
909 0 71.0529 12.5118 889 106.574 1256.13 480.262
910 0 73.0886 12.5738 919 107.262 1256.04 478.837
911 0 75.1405 12.3635 929 106.946 1256.18 477.954
912 0 78.1059 11.7789 920 108.379 1256.18 476.874
913 0 80.0766 13.1999 1057 105.701 1256.04 474.737
914 0 82.1199 12.5548 1031 106.953 1256.04 473.505
915 0 86.156 12.0943 1042 107.214 1255.58 472.965
916 0 89.1896 12.1202 1081 107.004 1255.58 472.227
917 1 49.1547 11.6164 571 105.466 1256.15 490.662
918 0 49.097 11.7115 575 105.546 1255.67 490.363
919 0 53.1442 12.833 682 101.585 1255.85 489.031
920 0 54.0988 12.4772 675 101.954 1255.84 487.458
921 0 55.0707 12.4022 683 102.523 1255.74 486.868
922 0 55.0757 11.2935 622 102.707 1256.21 486.487
923 0 58.1241 12.3013 715 100.543 1256.1 485.646
924 0 59.0936 11.6256 687 102.936 1255.28 484.918
925 0 62.1263 12.5551 780 100.754 1256.07 484.086
926 0 64.1034 12.2926 788 101.831 1255.74 482.527
927 0 65.1485 12.4485 811 102.577 1255.7 480.338
928 0 69.1326 13.0329 901 100.781 1255.74 480.173
929 0 72.0811 12.4859 900 102.014 1255.84 478.32
930 0 74.1803 12.4696 925 102.65 1256.03 477.281
931 0 75.1338 12.7373 957 101.655 1256.11 473.941
932 0 80.1078 12.9076 1034 100.651 1256.44 474.046
933 0 82.1476 12.1002 994 103.96 1255.73 473.412
934 0 84.0888 12.0468 1013 104.203 1256.33 472.601
935 0 88.1749 12.2824 1083 103.957 1256.19 469.588
936 1 46.0858 9.721 448 102.431 1255.46 489.379
937 0 47.135 11.4777 541 102.325 1254.71 487.564
938 0 49.1297 11.0117 541 104.989 1254.34 489.274
939 0 49.0725 11.8396 581 106.028 1254.59 489.556
940 0 51.1016 12.1327 620 104.918 1254.59 487.319
941 0 54.0785 13.277 718 102.28 1254.66 486.554
942 0 54.0775 12.8334 694 105.519 1254.9 485.866
943 0 56.0601 12.7363 714 105.877 1254.89 484.224
944 0 57.0468 12.9543 739 106.341 1255.24 484.433
945 0 58.0567 11.9883 696 110.494 1255.3 485.042
946 0 62.0265 13.8006 856 105.466 1254.9 481.828
947 0 64.0822 13.233 848 106.524 1255.95 481.271
948 0 67.0984 12.817 860 107.864 1256.2 480.854
949 0 69.1032 13.3858 925 106.986 1255.81 480.05
950 0 70.085 12.6418 886 110.8 1256.04 478.786
951 0 71.1115 13.0218 926 111.421 1256.06 477.38
952 0 73.176 12.4358 910 113.679 1255.29 474.856
953 0 75.0796 13.186 990 113.526 1255.29 475.617
954 0 79.1004 13.6535 1080 112.578 1255.89 473.306
955 0 83.1333 13.0874 1088 112.914 1256.35 474.853
956 0 86.1411 13.1877 1136 113.606 1255.83 473.136
957 0 90.1537 13.7099 1236 112.966 1255.71 470.852
958 0 93.2311 14.4909 1351 112.11 1255.86 469.698
959 0 96.1391 13.9381 1340 113.354 1255.63 468.274
960 1 52.0657 12.3882 645 114.797 1255.1 488.678
961 0 53.2307 11.7977 628 116.457 1253.97 486.631
962 0 55.2508 13.1944 729 112.881 1254.5 484.923
963 0 57.1242 12.3415 705 114.621 1254.46 485.808
964 0 58.0724 13.6726 794 110.967 1255 485.069
965 0 59.0674 13.2899 785 112.642 1254.41 484.894
966 0 61.0717 13.3941 818 113.07 1254.58 482.555
967 0 63.0725 13.9363 879 111.254 1254.86 481.539
968 0 65.0555 13.5884 884 112.957 1254.82 481.094
969 0 67.0779 14.0881 945 111.626 1254.43 481.533
970 0 70.0421 14.1486 991 112.868 1256.19 480.053
971 0 72.1385 14.2365 1027 113.839 1255.31 477.886
972 0 74.1285 15.2573 1131 112.169 1255.2 477.554
973 0 76.0812 13.1438 1000 118.923 1255.68 475.61
974 0 78.0874 12.4348 971 121.692 1256.06 474.755
975 0 81.1365 14.0874 1143 118.304 1255.63 471.904
976 0 83.1014 13.1165 1090 121.304 1255.75 472.061
977 0 86.2902 13.2344 1142 121.91 1256.43 471.418
978 0 90.0717 13.8889 1251 114.863 1255.61 470.933
979 0 92.0673 12.6321 1163 120.43 1255.45 466.64
980 0 94.1031 13.1877 1241 120.898 1255 466.795
981 1 48.0343 11.8457 569 118.916 1255.1 490.137
982 0 52.0743 11.714 610 116.918 1256.2 487.548
983 0 55.0375 12.5006 688 114.432 1256.06 487.968
984 0 55.0985 11.6337 641 118.028 1256.31 486.457
985 0 55.0604 12.3319 679 116.3 1255.37 487.517
986 0 57.0238 11.539 658 116.739 1256.11 487.132
987 0 60.0879 12.6481 760 114.791 1256.47 483.657
988 0 62.0517 12.0706 749 115.202 1256.38 483.919
989 0 64.0976 13.7759 883 110.529 1256.57 482.717
990 0 65.0408 12.423 808 115.446 1256.34 479.95
991 0 67.0799 13.7448 922 112.121 1256 479.836
992 0 70.0893 12.7123 891 114.412 1255.83 479.695
993 0 72.1019 11.9969 865 116.328 1256.45 479.302
994 0 74.08 12.0815 895 116.38 1255.58 477.6
995 0 77.0641 12.6648 976 115.455 1255.77 477.169
996 0 78.0453 12.6593 988 116.191 1255.95 475.862
997 0 82.0554 13.369 1097 114.827 1256.26 473.229
998 0 84.0989 13.6149 1145 115.422 1255.31 470.668
999 0 85.0324 11.5015 978 120.864 1255.83 470.777
1000 0 88.1159 12.6197 1112 118.395 1256.19 469.692
1001 0 90.0756 12.4895 1125 121.492 1254.89 468.772
1002 0 94.1469 14.2649 1343 117.669 1255.05 467.73
1003 0 98.1282 13.4416 1319 121.609 1255.92 464.142
1004 0 103.08 13.6107 1403 118.566 1255.14 463.547
1005 0 106.094 14.0725 1493 117.864 1255.29 460.888
1006 1 59.1054 12.1647 719 118.623 1254.87 484.38
1007 0 61.0862 11.7375 717 122.289 1255.03 481.372
1008 0 63.0946 12.8854 813 119.613 1253.86 481.823
1009 0 65.0898 12.1371 790 121.72 1255.11 481.437
1010 0 67.093 14.4128 967 117.1 1254.96 478.704
1011 0 70.0705 13.1011 918 120.063 1254.42 478.064
1012 0 73.0796 14.5458 1063 115.854 1254.58 477.303
1013 0 74.1416 12.3008 912 120.553 1254.72 478.095
1014 0 78.1128 14.3254 1119 112.064 1253.8 474.3
1015 0 82.0414 12.4084 1018 116.232 1254.8 475.025
1016 0 82.1084 12.313 1011 117.691 1254.72 470.626
1017 0 84.1457 12.5378 1055 114.703 1255.04 470.096
1018 0 87.1123 11.3761 991 119.33 1255.79 469.051
1019 0 93.0576 12.734 1185 115.323 1255.66 469.186
1020 1 49.0377 9.91074 486 113.667 1254.78 490.66
1021 0 51.0177 11.5254 588 108.935 1254.98 488.352
1022 0 53.051 12.1016 642 107.587 1255.46 487.417
1023 0 52.0606 11.6211 605 116.183 1254.56 488.182
1024 0 54.086 11.038 597 119.015 1254.69 486.95
1025 0 58.0406 11.9055 691 114.999 1255.53 485.514
1026 0 58.1212 11.1663 649 118.33 1254.46 485.345
1027 0 60.047 12.7067 763 115.86 1255.26 482.499
1028 0 62.0985 12.2225 759 117.256 1254.21 482.797
1029 0 64.1031 11.5595 741 118.694 1254.73 482.9
1030 0 68.1609 12.8226 874 115.3 1255.04 482.205
1031 0 69.0942 12.1573 840 117.395 1255.2 481.923
1032 0 71.1276 12.7658 908 117.159 1255.67 477.58
1033 0 75.102 13.5283 1016 114.416 1255.33 477.035
1034 0 74.073 11.3537 841 121.882 1255.14 475.881
1035 0 79.2047 12.2594 971 118.531 1254.98 476.724
1036 0 81.1997 12.9188 1049 118.77 1255.16 471.657
1037 0 85.2854 13.1089 1118 116.834 1256.26 470.964
1038 1 49.2286 11.4364 563 118.353 1256.65 486.506
1039 0 49.0275 12.0953 593 113.592 1254.74 484.961
1040 0 49.0903 10.3279 507 108.872 1255.28 482.278
1041 0 53.1697 11.2282 597 102.352 1257.07 485.008
1042 0 54.0925 11.6467 630 103.448 1255.35 483.167
1043 0 52.017 10.6696 555 113.243 1256.95 482.191
1044 0 56.0389 10.9031 611 111.753 1257.01 480.923
1045 0 60.061 11.122 668 111.193 1256.89 480.262
1046 0 58.0422 10.0444 583 114.25 1256.61 480.3
1047 0 59.0665 10.7337 634 113.836 1256.62 479.461
1048 0 64.0742 12.9381 829 116.55 1256.68 483.738
1049 0 66.1141 12.1154 801 118.478 1256.3 482.347
1050 0 68.0489 13.5344 921 115.268 1257.06 479.453
1051 0 69.0271 12.2271 844 117.582 1256.64 479.728
1052 0 72.1798 12.8291 926 114.34 1255.87 479.846
1053 0 74.0785 13.0942 970 114.212 1256.02 476.62
1054 0 78.0271 13.7516 1073 110.546 1256.01 477.22
1055 0 80.0543 12.9037 1033 112.21 1256.21 475.621
1056 0 82.1625 11.745 965 114.676 1256.04 475.651
1057 0 85.1891 12.126 1033 113.265 1256.1 472.972
1058 1 44.0268 11.5611 509 106.894 1256.87 493.157
1059 0 46.0444 10.4464 481 110.158 1256.65 491.453
1060 0 48.0113 11.4765 551 105.243 1256.04 491.632
1061 0 48.0762 12.3138 592 104.794 1256.16 489.025
1062 0 50.1723 11.7196 588 105.587 1256.16 485.332
1063 0 49.1362 11.926 586 107.143 1256.38 486.411
1064 0 53.228 11.2535 599 106.653 1256.84 485.925
1065 0 55.1659 12.0364 664 105.009 1256.76 485.331
1066 0 58.2439 12.1901 710 104.139 1257.33 484.628
1067 0 58.1726 11.9816 697 106.277 1256.94 483.618
1068 0 59.0753 12.5433 741 104.861 1256.89 482.706
1069 0 63.1236 12.1032 764 103.315 1257.09 483.899
1070 0 64.0738 11.7209 751 104.539 1256.5 483.389
1071 0 67.1004 13.3978 899 101.392 1256.59 481.201
1072 0 67.0402 12.679 850 103.895 1256.64 481.501
1073 0 67.1023 12.0413 808 107.55 1256.33 479.106
1074 0 69.1042 11.2873 780 109.021 1256.24 478.62
1075 0 74.1648 12.4857 926 107.607 1256.2 475.758
1076 0 75.1274 12.0462 905 109.433 1255.93 475.004
1077 0 78.1986 13.0053 1017 108.085 1255.22 473.269
1078 0 81.2091 13.4468 1092 105.883 1255.6 472.45
1079 0 83.232 13.0839 1089 110.067 1256.15 470.484
1080 0 86.2449 14.5052 1251 106.361 1255.52 468.556
1081 0 88.1027 13.5297 1192 107.305 1255.19 471.059
1082 0 89.0885 12.4595 1110 111.306 1254.95 468.645
1083 0 95.123 12.405 1180 111.43 1255.07 467.935
1084 0 97.2193 12.7958 1244 109.142 1255.11 467.538
1085 1 53.0696 11.6828 620 108.515 1255.99 489.003
1086 0 54.0253 11.3465 613 107.254 1256.02 489.297
1087 0 55.0991 11.1073 612 101.239 1254.92 484.423
1088 0 56.0686 13.2695 744 96.2917 1255.81 481.98
1089 0 59.156 11.5627 684 99.1389 1255.58 483.882
1090 0 60.0992 11.2148 674 99.9258 1256.02 480.728
1091 0 61.1252 11.2883 690 100.83 1255.99 480.507
1092 0 62.148 11.2634 700 101.484 1255.96 478.663
1093 0 62.1584 11.2615 700 126.164 1255.96 478.723
1094 0 67.2033 11.7107 787 101.767 1254.5 474.925
1095 0 70.1066 11.8106 828 101.672 1254.13 478.488
1096 0 73.1386 12.1277 887 100.809 1255.36 476.99
1097 0 76.2307 12.1211 924 101.071 1255.55 476.6
1098 0 78.2349 12.0662 944 102.679 1255.18 474.918
1099 0 78.1033 12.3426 964 104.176 1255.85 474.076
1100 0 82.163 12.5847 1034 103.673 1255.74 473.518
1101 0 85.1791 12.7613 1087 104.344 1255.79 472.835
1102 0 88.2073 13.0375 1150 104.617 1255.34 470.61
1103 0 91.2114 12.8273 1170 104.989 1255.41 469.878
1104 0 93.2098 13.8183 1288 103.623 1255.17 468.432
1105 0 98.0777 12.6226 1238 105.905 1255.49 467.937
1106 0 100.146 12.5416 1256 106.004 1255.5 463.834
1107 1 53.0755 11.5684 614 106.661 1256.75 489.974
1108 0 54.1609 12.1121 656 107.139 1254.77 484.8
1109 0 55.0315 12.611 694 103.594 1256.07 489.267
1110 0 57.062 12.4601 711 104.166 1255.73 487.203
1111 0 59.0403 13.3129 786 102.844 1255.4 486.028
1112 0 60.107 11.8954 715 105.657 1255.9 484.526
1113 0 63.0709 11.7645 742 102.553 1255.96 483.88
1114 0 65.039 12.3157 801 101.605 1255.98 482.914
1115 0 66.0344 12.1149 800 101.621 1256.38 482.752
1116 0 69.0367 12.5296 865 100.452 1255.22 480.527
1117 0 71.0875 12.8715 915 100.302 1255.21 479.991
1118 0 73.0698 12.4949 913 102.601 1255.33 476.102
1119 0 75.0506 12.0852 907 102.068 1255.68 476.571
1120 0 76.0602 11.8459 901 104.216 1254.94 476.472
1121 0 78.1202 12.468 974 103.715 1255.48 474.959
1122 0 82.2376 12.8044 1053 103.207 1255.1 472.407
1123 0 85.1049 11.9617 1018 105.255 1254.61 474.059
1124 0 87.1671 12.3671 1078 105.538 1254.99 470.768
1125 0 89.1077 11.6825 1041 107.359 1255.55 470.964
1126 0 92.1626 11.9137 1098 107.448 1255.85 470.309
1127 1 52.0253 10.7832 561 106.123 1255.42 489.964
1128 0 53.0309 12.6153 669 104.052 1254.47 489.075
1129 0 55.0707 12.838 707 104.861 1254.79 488.166
1130 0 58.0262 13.356 775 101.662 1254.57 485.355
1131 0 59.0779 11.2225 663 107.955 1254.23 484.021
1132 0 62.0593 12.2141 758 105.635 1253.8 483.301
1133 0 63.077 12.6195 796 105.192 1254.38 483.099
1134 0 66.157 14.1028 933 102.189 1253.78 481.685
1135 0 70.1253 11.8787 833 107.978 1254.32 480.909
1136 0 71.0899 13.0117 925 105.476 1254.08 478.474
1137 0 74.1441 13.3119 987 105.981 1254.37 476.517
1138 0 75.1048 12.1164 910 110.82 1254.8 477.486
1139 0 79.1962 13.5234 1071 108.692 1254.33 476.105
1140 0 81.1691 12.9483 1051 111.327 1254.66 475.625
1141 0 85.0637 12.4142 1056 113.67 1254.89 473.971
1142 0 88.1013 13.4958 1189 110.769 1255.13 474.997
1143 0 88.1787 12.1685 1073 118.201 1253.98 470.579
1144 0 91.137 12.3111 1122 118.929 1254.14 470.29
1145 0 96.0675 13.8444 1330 115.538 1253.82 465.947
1146 1 51.0976 10.431 533 116.912 1253.36 490.97
1147 0 54.0768 12.1494 657 111.871 1253.75 489.531
1148 0 55.0614 11.9685 659 114.302 1253.58 487.393
1149 0 58.0419 12.6116 732 110.223 1253.53 486.882
1150 0 58.1162 12.8019 744 112.63 1253.59 484.317
1151 0 59.0885 11.6943 691 116.022 1254.1 484.14
1152 0 62.0627 11.9073 739 115.604 1253.76 483.037
1153 0 63.0506 11.8318 746 114.328 1253.99 483.024
1154 0 65.1002 12.3809 806 114.797 1253.62 480.058
1155 0 68.0768 13.0294 887 113.228 1253.75 478.647
1156 0 71.0545 13.1167 932 112.322 1254.05 478.209
1157 0 71.0851 12.5765 894 115.064 1253.62 476.357
1158 0 74.0425 12.8305 950 113.698 1253.3 477.109
1159 0 77.198 12.2024 942 116.167 1253.87 474.788
1160 0 79.122 13.8773 1098 111.991 1254.38 473.822
1161 0 80.1551 13.2618 1063 114.802 1253.4 473.682
1162 0 84.1264 13.1469 1106 115.901 1253.37 471.429
1163 0 86.0956 12.881 1109 117.329 1253.49 470.113
1164 0 90.1169 13.1385 1184 116.349 1253.23 470.524
1165 0 93.1225 13.3588 1244 115.36 1254.15 470.147
1166 0 95.1058 14.8256 1410 113.744 1254.01 467.196
1167 0 97.1546 12.969 1260 119.656 1253.9 464.571
1168 0 102.101 13.8196 1411 116.797 1254.35 464.116
1169 0 106.076 13.9335 1478 115.815 1254.13 462.436
1170 1 56.0601 12.2904 689 117.386 1254.07 489.329
1171 0 58.049 12.7995 743 121.297 1254.85 488.635
1172 0 62.2059 12.957 806 116.366 1254.52 485.876
1173 0 62.0628 13.0996 813 114.986 1254.65 482.191
1174 0 64.2002 12.3676 794 117.068 1254.74 480.858
1175 0 66.0949 12.5426 829 116.747 1254.11 479.352
1176 0 72.1968 14.2389 1028 111.519 1253.73 479.39
1177 0 71.1966 13.6523 972 115.062 1254.92 476.247
1178 0 73.0626 12.7972 935 117.472 1254.62 476.581
1179 0 78.0747 13.5255 1056 115.764 1253.72 476.061
1180 0 78.0461 13.428 1048 119.513 1254.2 476.604
1181 0 83.1201 14.1001 1172 117.203 1254.85 476.067
1182 0 84.1254 14.3357 1206 117.585 1254.51 470.985
1183 0 87.2402 12.7694 1114 121.811 1254.23 472.806
1184 0 91.1656 14.4791 1320 116.52 1254.42 468.967
1185 0 94.1712 14.0701 1325 119.159 1254.26 468.49
1187 0 96.2038 12.9725 1248 123.7 1254.12 467.566
1188 0 100.133 13.5519 1357 123.082 1253.97 464.264
1189 1 52.1135 12.1274 632 120.38 1254.19 490.383
1190 0 54.1156 12.5287 678 124.091 1254.5 488.031
1191 0 56.1056 13.7598 772 120.758 1254.76 486.009
1192 0 59.1582 13.7597 814 115.274 1253.72 487.006
1193 0 63.2032 13.4803 852 115.041 1254.72 485.926
1194 0 63.1319 12.6877 801 118.764 1255.1 483.599
1195 0 66.0789 14.0741 930 115.175 1254.64 481.151
1196 0 69.0623 13.4371 928 116.919 1254.16 480.191
1197 0 71.0755 13.2254 940 118.189 1254.24 479.585
1198 0 74.1016 13.6029 1008 117.044 1253.98 477.335
1199 0 76.0655 13.2649 1009 119.689 1254.8 474.406
1200 0 78.0629 11.7213 915 124.77 1254.64 470.255
1201 0 83.0659 13.4712 1119 119.381 1255.06 469.665
1202 0 84.1234 12.8502 1081 122.066 1254.52 472.189
1203 0 88.0513 13.2196 1164 120.834 1254.63 469.521
1204 0 93.1617 14.4695 1348 116.503 1254.5 468.983
1205 0 96.1226 13.8573 1332 119.248 1254.19 466.193
1206 0 96.0834 13.0303 1252 122.042 1254.75 465.808
1207 0 100.135 12.0337 1205 125.639 1254.77 464.55
1208 0 104.137 13.5015 1406 122.72 1254.34 460.445
1209 0 106.187 12.6287 1341 125.689 1253.87 460.513
1210 1 57.0596 11.4266 652 122.966 1253.99 485.399
1211 0 63.1018 12.2183 771 118.611 1253.33 482.588
1212 0 63.0646 11.4962 725 120.418 1254.54 480.039
1213 0 65.1018 12.3192 802 118.055 1254.31 480.556
1214 0 67.0815 12.3134 826 121.535 1254.37 482.51
1215 0 70.1197 12.6641 888 119.391 1253.86 477.034
1216 0 71.0674 12.453 885 120.991 1253.38 474.568
1217 0 76.0753 13.342 1015 117.194 1254.32 475.1
1218 0 78.1169 13.1726 1029 117.726 1253.89 473.906
1219 0 81.164 12.5302 1017 119.202 1254.18 473.911
1220 0 82.1523 11.9899 985 120.747 1254.02 474.027
1221 0 87.0857 13.0791 1139 117.601 1254.55 472.88
1222 0 90.1095 13.4614 1213 118.001 1254.82 470.36
1223 0 90.1095 13.4392 1211 149.48 1254.83 470.357
1224 0 96.0463 13.0458 1253 120.35 1254.96 467.769
1225 0 100.201 13.8222 1385 118.515 1254.56 468.188
1226 1 53.009 11.8659 629 118.364 1255.4 489.868
1227 0 54.0463 12.5818 680 118.75 1254.91 488.518
1228 0 57.0814 12.4209 709 117.427 1255.29 486.581
1229 0 58.0252 12.9944 754 112.203 1255.11 487.363
1230 0 61.0244 12.4704 761 112.159 1254.87 485.208
1231 0 62.1144 13.0727 812 108.606 1255.03 485.644
1232 0 66.0453 12.9608 856 108.243 1255.29 482.085
1233 0 67.0952 12.8325 861 109.527 1254.65 481.887
1234 0 66.0288 12.7066 839 110.397 1255.15 481.106
1235 0 70.0882 12.7411 893 110.649 1254.79 479.738
1236 0 74.1811 12.6312 937 109.46 1254.3 477.422
1237 0 76.0572 12.3591 940 112.636 1253.66 476.405
1238 0 77.0381 13.0974 1009 113.553 1254.51 475.844
1239 0 80.0961 13.2341 1060 113.713 1254.83 474.798
1240 0 85.1739 14.1241 1203 110.488 1253.86 471.885
1241 0 86.1075 13.3786 1152 112.872 1254.18 471.615
1242 0 89.0877 14.4689 1289 110.866 1254.78 467.435
1243 0 92.1389 14.044 1294 112.021 1254.49 466.056
1244 0 95.1928 13.2258 1259 113.122 1254.22 466.715
1245 0 98.1594 13.5901 1334 112.666 1254.59 464.545
1246 0 102.154 14.2237 1453 110.908 1254.37 462.296
1247 0 107.123 14.8335 1589 109.296 1254.42 461.531
1248 0 109.138 12.5072 1365 115.752 1254.4 458.456
1249 0 113.127 13.7545 1556 113.553 1254.37 457.273
1250 1 59.1144 12.1459 718 113.494 1253.95 482.198
1251 0 61.0889 13.1611 804 109.616 1253.37 484.422
1252 0 65.1819 12.8563 838 110.193 1253.89 481.772
1253 0 68.1759 14.0519 958 107.091 1254.36 479.529
1254 0 70.0816 12.1287 850 111.522 1254.91 479.892
1255 0 73.1482 13.6299 997 108.038 1255.08 476.676
1256 0 74.0937 12.4032 919 110.851 1254.38 476.828
1257 0 75.1344 13.03 979 110.78 1253.8 472.191
1258 0 79.1633 13.8195 1094 109.193 1254.11 471.484
1259 0 82.0617 14.0504 1153 107.425 1254.2 472.834
1260 0 86.2103 12.4695 1075 111.084 1254.31 469.452
1261 0 89.2235 14.1442 1262 107.212 1254.05 468.589
1262 0 91.076 12.4621 1135 111.291 1254.19 466.508
1263 0 94.2846 12.7805 1205 110.205 1254.77 465.012
1264 0 97.1655 13.266 1289 109.942 1254.55 461.707
1265 0 100.221 12.5123 1254 111.361 1254.36 461.322
1266 0 104.257 12.4116 1294 111.46 1254.23 457.605
1267 0 107.148 13.1874 1413 109.457 1254.23 454.922
1268 0 110.122 12.7041 1399 110.439 1254.36 451.439
1269 0 115.171 12.4511 1434 109.211 1254.11 453.126
1270 1 59.0836 11.6953 691 103.988 1254.47 482.92
1271 0 61.1578 11.7892 721 103.239 1254.08 483.939
1272 0 66.1275 13.5798 898 98.2249 1254.05 481.079
1273 0 67.1246 12.1863 818 102.484 1254.24 479.456
1274 0 72.169 13.2744 958 97.9384 1254.7 479.427
1275 0 74.2715 12.8986 958 100.628 1254.23 475.539
1276 0 76.3807 12.6341 965 101.501 1254.5 475.072
1277 0 78.3865 11.5326 904 104.158 1253.5 473.363
1278 0 78.3909 11.5447 905 135.393 1252.49 473.346
1279 0 82.3565 11.3774 937 106.243 1253.79 469.226
1280 0 87.4953 13.315 1165 101.443 1253.89 468.87
1281 0 89.4278 11.4618 1025 105.564 1253.49 468.109
1282 0 93.2848 12.9281 1206 103.748 1253.83 465.01
1283 0 96.3599 13.9788 1347 102.65 1254.51 461.62
1284 0 98.3575 12.4749 1227 107.007 1254.36 460.553
1285 0 103.456 13.658 1413 104.251 1253.79 460.362
1286 0 105.284 12.7275 1340 108.625 1253.78 456.41
1287 0 110.209 13.5288 1491 107.66 1253.27 455.915
1288 0 113.183 12.546 1420 110.492 1253.76 452.873
1289 1 60.2867 10.3671 625 104.974 1253.69 482.342
1290 0 63.2565 11.398 721 104.474 1254.6 481.338
1291 0 63.2104 11.8651 750 103.324 1253.91 479.321
1292 0 65.1948 11.8108 770 105.161 1253.47 479.061
1293 0 68.2865 12.0522 823 105.65 1254.38 479.118
1294 0 71.4565 12.3012 879 105.328 1253.39 477.263
1295 0 74.1867 12.2124 906 105.862 1254.26 476.656
1296 0 76.2113 12.4522 949 106.128 1253.76 474.413
1297 0 80.3072 12.9876 1043 104.207 1253.62 473.647
1298 0 82.2711 13.808 1136 103.702 1253.06 469.67
1299 0 87.3331 13.8092 1206 102.454 1253.41 470.036
1300 0 87.4089 12.7333 1113 107.536 1253.34 467.438
1301 0 90.4695 13.0541 1181 107.213 1254.18 464.809
1302 0 93.3159 12.9774 1211 107.794 1254.4 465.107
1303 0 95.2894 12.2259 1165 109.857 1254.06 464.321
1304 0 101.304 13.2472 1342 108.075 1254.24 460.243
1305 0 106.344 12.8639 1368 107.795 1254.63 460.787
1306 0 108.317 13.322 1443 109.04 1254.24 457.058
1307 0 111.223 13.3245 1482 111.145 1253.75 456.412
1308 1 60.1625 13.4469 809 103.765 1253.73 483.773
1309 0 58.0425 11.6639 677 110.88 1254.55 484.514
1310 0 60.0553 12.2554 736 109.67 1254.85 482.91
1311 0 63.1018 12.8206 809 107.884 1255.45 482.346
1312 0 66.2069 11.3885 754 110.158 1254.89 481.532
1313 0 68.2621 11.6609 796 110.119 1255.33 477.557
1314 0 71.128 14.5653 1036 104.068 1254.95 477.516
1315 0 74.1763 13.3061 987 106.83 1255 476.592
1316 0 77.059 13.3923 1032 106.268 1255.22 476.297
1317 0 78.3782 12.7969 1003 109.534 1254.03 471.284
1318 0 83.4101 13.3317 1112 107.34 1253.69 469.684
1319 0 85.5249 14.7326 1260 104.291 1253.09 468.567
1320 0 88.3425 12.6779 1120 109.229 1253.81 468.898
1321 0 89.4868 13.7897 1234 108.665 1253.07 464.151
1322 0 90.4039 12.3225 1114 112.725 1253.17 463.861
1323 0 93.275 13.294 1240 110.511 1253.61 461.029
1324 0 97.2347 13.1126 1275 110.269 1253.66 459.529
1325 0 102.268 13.2006 1350 109.41 1253.26 460.145
1326 0 106.518 14.1478 1507 106.903 1253.61 457.511
1327 0 106.435 13.8394 1473 109.099 1252.63 455.363
1328 0 110.56 13.0337 1441 109.752 1253.12 453.954
1329 0 114.304 13.8228 1580 107.653 1253.55 453.398
1330 0 115.283 13.1763 1519 109.934 1254.09 449.379
1331 0 120.486 13.6115 1640 109.265 1253.63 449.628
1332 0 122.511 12.2602 1502 112.17 1254.31 446.423
1333 0 131.431 13.5965 1787 108.957 1253.3 443.572
1334 0 135.371 13.1712 1783 109.833 1253.66 440.007
1335 0 138.236 12.5437 1734 111.339 1252.98 435.765
1336 1 76.2547 12.1173 924 105.106 1252.88 467.594
1337 0 76.4522 11.929 912 108.114 1253.84 463.501
1338 0 78.3007 13.4226 1051 105.435 1253.52 462.932
1339 0 81.2034 13.5216 1098 103.648 1252.99 462.563
1340 0 82.1772 12.9841 1067 106.348 1253.32 459.446
1341 0 87.0862 13.4809 1174 104.521 1253.78 457.339
1342 0 87.2023 12.7061 1108 108.069 1253.88 456.623
1343 0 91.168 12.8883 1175 107.556 1253.97 454.75
1344 0 94.3631 12.1446 1146 108.993 1253.85 453.698
1345 0 97.0994 12.2658 1191 108.221 1254.08 452.833
1346 0 98.1332 11.3214 1111 110.739 1254.23 451.608
1347 0 103.13 13.3133 1373 105.656 1254.22 445.531
1348 0 109.353 11.751 1285 108.112 1255.01 447.276
1349 0 113.319 13.4222 1521 104.066 1254.25 447.224
1350 0 118.267 12.5225 1481 105.469 1254.22 444.001
1351 1 64.1112 11.1525 715 106.298 1254.74 471.249
1352 0 65.222 11.1159 725 106.537 1255.32 474.062
1353 0 69.0977 12.2725 848 102.791 1255.21 473.639
1354 0 70.1843 10.8999 765 106.905 1255.97 470.731
1355 0 71.1892 11.4343 814 106.054 1255.48 468.489
1356 0 76.1287 13.7136 1044 99.8276 1255.05 466.189
1357 0 78.13 12.9272 1010 101.695 1255.54 465.566
1358 0 83.0978 13.8752 1153 98.7745 1255.69 466.302
1359 0 85.1118 13.3354 1135 100.428 1254.46 463.451
1360 0 88.272 13.4924 1191 101.58 1253.92 463.162
1361 0 89.2677 13.2299 1181 102.718 1254.26 461.911
1362 0 92.1778 12.9315 1192 103.459 1253.64 460.361
1363 0 95.2762 13.7705 1312 101.656 1252.9 459.886
1364 0 101.295 13.1498 1332 102.479 1253.32 457.387
1365 0 104.364 14.0278 1464 100.721 1253.03 455.651
1366 1 54.1166 9.47953 513 101.85 1253.02 480.158
1367 0 56.1723 10.8772 611 99.1162 1253.09 478.273
1368 0 60.0665 10.6549 640 98.6828 1252.72 482.58
1369 0 61.1141 10.5704 646 91.9752 1254.44 482.41
1370 0 64.0795 11.3297 726 89.6198 1254.99 483.176
1371 0 66.0895 11.7265 775 90.5484 1255.07 479.05
1372 0 66.0616 10.2177 675 93.0015 1254.41 477.904
1373 0 70.1213 10.8384 760 91.7197 1254.79 477.414
1374 0 73.1723 11.0014 805 91.277 1254.48 477.328
1375 0 74.1507 10.6944 793 92.6507 1254.38 476.182
1376 0 75.109 10.305 774 93.8811 1254.3 475.393
1377 0 78.1387 10.571 826 93.931 1254.82 474.797
1378 0 80.0709 10.3533 829 95.5284 1253.94 470.405
1379 0 83.1225 11.6936 972 94.1327 1253.97 473.541
1380 0 85.1986 12.4885 1064 94.1212 1253.89 470.827
1381 0 88.2261 12.6947 1120 95.0062 1253.63 468.156
1382 0 90.1443 11.2043 1010 98.0713 1254.39 470.313
1383 0 93.4197 12.0853 1129 97.4677 1253.82 466.057
1384 0 96.1111 12.548 1206 97.2272 1253.72 463.381
1385 0 98.3064 11.7693 1157 97.968 1254.49 460.923
1386 0 98.3064 11.7693 1157 137.736 1255.49 460.865
1387 0 105.171 11.9615 1258 97.3879 1253.68 458.277
1388 0 107.582 11.9257 1283 95.085 1255.14 458.153
1389 1 59.245 11.5115 682 91.6906 1254.56 484.286
1390 0 62.3661 11.8654 740 92.0068 1254.53 482.407
1391 0 64.1542 10.9891 705 90.7149 1253.67 479.42
1392 0 66.2495 11.5624 766 89.5339 1253.63 478.013
1393 0 68.1455 11.3874 776 90.6675 1253.64 480.36
1394 0 69.2642 12.6617 877 89.1881 1253.65 479.057
1395 0 72.3792 11.6746 845 91.2698 1253.51 473.202
1396 0 76.3066 12.6595 966 89.6077 1253.57 475.083
1397 0 75.2976 12.8689 969 90.8947 1253.34 476.129
1398 0 79.2672 13.2842 1053 90.2336 1253.59 471.626
1399 0 79.2841 13.685 1085 91.4064 1253.32 473.129
1400 0 81.3085 10.8968 886 97.2867 1254.66 471.965
1401 0 86.1818 12.404 1069 95.6436 1254.37 469.48
1402 0 87.228 12.5533 1095 97.3306 1254.63 466.537
1403 0 92.1919 12.4089 1144 97.514 1255.41 465.295
1404 0 92.3336 11.8267 1092 101.06 1254.33 461.961
1405 0 97.3864 12.2194 1190 99.8387 1253.83 461.787
1406 0 98.3599 11.1021 1092 103.624 1254.28 456.998
1407 0 101.31 12.4174 1258 101.149 1253.44 456.192
1408 1 51.216 10.2702 526 97.6806 1254.52 482.702
1409 0 51.216 10.3874 532 119.252 1255.51 482.645
1410 0 56.207 11.2975 635 95.5795 1253.5 482.959
1411 0 60.0694 11.7198 704 94.1023 1254.01 482.974
1412 0 59.1581 11.2749 667 96.7601 1253.68 481.28
1413 0 63.1147 11.5504 729 95.6722 1253.37 480.728
1414 0 64.1049 10.7324 688 97.7762 1253.45 478.144
1415 0 66.0899 11.6659 771 95.3346 1253.63 477.16
1416 0 69.1223 11.4869 794 95.2922 1253.34 474.574
1417 0 73.3571 11.8598 870 93.523 1252.94 473.756
1418 0 76.2909 12.3737 944 92.6811 1252.71 471.248
1419 0 77.2564 12.2579 947 94.2218 1252.35 467.636
1420 0 79.2601 12.7176 1008 94.003 1252.28 471.562
1421 0 82.1361 12.8932 1059 94.0076 1252.33 469.656
1422 0 85.2139 12.2633 1045 95.6421 1252.84 469.86
1423 0 89.1276 13.3629 1191 91.8497 1253.13 470.13
1424 0 91.1667 13.2395 1207 93.4938 1252.93 465.403
1425 0 91.2655 11.9432 1090 97.3138 1253.71 463.164
1426 0 95.1976 13.2041 1257 93.7295 1254.67 463.36
1427 0 98.1285 11.648 1143 98.1059 1253.47 460.365
1428 0 101.302 12.3295 1249 97.434 1254.43 457.87
1429 0 101.183 11.9388 1208 99.7906 1253.53 456.28
1430 0 108.271 12.8936 1396 97.3374 1253.86 454.232
1431 0 109.281 12.3077 1345 102.277 1253.84 448.639
1432 0 114.223 12.7733 1459 98.4503 1253.42 454.026
1433 0 119.309 12.5892 1502 99.5719 1253.01 451.43
1434 0 122.284 13.6568 1670 100.956 1253.52 447.12
1435 0 126.312 10.6245 1342 108.355 1253.76 445.502
1436 1 66.1387 13.6229 901 94.4584 1252.86 476.487
1437 0 68.197 11.9653 816 98.1458 1253.01 474.515
1438 0 69.1157 12.9059 892 97.111 1252.83 473.488
1439 0 73.0729 14.2734 1043 94.0825 1252.55 472.098
1440 0 74.1127 12.4 919 98.3906 1252.85 470.084
1441 0 75.0907 10.6138 797 101.846 1252.57 471.935
1442 0 79.1213 13.6752 1082 96.0185 1252.98 469.435
1443 0 82.0915 12.3399 1013 99.3633 1253.67 467.61
1444 0 82.0732 12.7447 1046 99.1816 1253.98 467.88
1445 0 87.1087 12.4787 1087 99.1858 1253.38 464.329
1446 0 89.1031 12.0983 1078 100.537 1252.87 463.733
1447 0 91.0533 11.2352 1023 103.964 1253.58 464.372
1448 0 94.1232 11.963 1126 102.797 1252.68 459.793
1449 0 98.1375 11.4024 1119 103.337 1251.84 460.698
1450 0 100.144 11.743 1176 103.23 1252.65 457.56
1451 0 105.094 12.3794 1301 100.61 1253 458.322
1452 0 110.111 11.8789 1308 101.774 1252.3 454.291
1453 0 113.116 12.2529 1386 101.453 1253 453.936
1454 0 116.122 12.5299 1455 100.282 1252.39 453.146
1455 0 120.191 11.8228 1421 101.6 1252.05 450.434
1456 0 125.137 12.6901 1588 99.7758 1253.21 446.057
1457 0 128.214 12.3934 1589 101.9 1253.36 441.816
1458 0 133.235 12.1364 1617 101.799 1253.1 443.97
1459 0 137.219 12.2359 1679 102.286 1252.9 440.724
1460 0 141.17 11.6172 1640 105.627 1252.49 436.81
1461 0 146.323 11.8437 1733 105.051 1253.08 437.346
1462 0 151.201 12.0436 1821 105.487 1253.27 433.381
1463 0 158.246 11.7917 1866 106.269 1253.34 431.732
1464 0 162.197 11.2086 1818 107.79 1252.69 432.315
1465 0 167.196 11.9859 2004 107.259 1253.55 428.528
1466 1 99.1551 13.0906 1298 100.797 1253.68 464.293
1467 0 102.112 12.9074 1318 101.863 1254.05 462.539
1468 0 101.165 11.6443 1178 105.654 1254.78 457.967
1469 0 105.07 12.1824 1280 105.235 1254.78 458.479
1470 0 110.06 12.4477 1370 103.99 1254.03 456.501
1471 0 114.063 11.8268 1349 104.401 1254.39 457.213
1472 0 117.157 11.2072 1313 106.497 1254.11 455.246
1473 0 122.189 12.587 1538 104.722 1253.23 448.598
1474 0 126.282 12.8047 1617 103.228 1253.47 448.994
1475 1 69.148 11.6417 805 102.501 1252.92 471.438
1476 0 66.1799 10.1239 670 103.296 1252.41 468.906
1477 0 71.0754 10.6788 759 101.825 1252.33 468.042
1478 0 73.0615 11.4014 833 100.472 1254.8 474.909
1479 0 73.0608 10.5528 771 132.7 1255.78 473.319
1480 0 80.131 11.319 907 99.4454 1254.88 469.947
1481 0 83.151 12.5675 1045 97.2038 1254.11 468.001
1482 0 86.21 12.3768 1067 96.3271 1254.92 470.485
1483 0 89.1078 12.0977 1078 97.6772 1254.55 467.559
1484 0 95.1448 12.6334 1202 95.287 1255.33 466.909
1485 0 95.1104 11.8178 1124 98.323 1254.81 463.815
1486 1 48.1281 9.14227 440 95.6318 1254.77 488.341
1487 0 49.1139 12.0536 592 97.6807 1252.5 485.851
1488 0 47.052 9.71266 457 100.123 1254.13 488.081
1489 0 51.0541 10.1461 518 99.529 1254.44 487.458
1490 0 52.037 10.1274 527 99.1689 1253.87 488.803
1491 0 52.0381 10.0311 522 99.4444 1255.14 488.502
1492 0 56.0874 9.93094 557 101.706 1254.32 488.088
1493 0 57.1649 11.0382 631 102.166 1254.13 484.718
1494 0 58.1655 10.7108 623 103.4 1254.31 483.803
1495 0 60.0458 10.7751 647 103.799 1253.95 483.561
1496 0 61.0692 9.67755 591 106.081 1253.94 482.572
1497 0 63.0975 11.0147 695 103.567 1253.7 480.344
1498 0 64.0497 11.5691 741 103.406 1254.35 480.815
1499 0 67.1045 11.7578 789 102.838 1254.21 479.202
1500 0 74.133 13.4083 994 95.5553 1253.94 480.322
1501 0 83.1904 18.4396 1534 80.3448 1253.94 468.284
1502 0 89.2931 17.1906 1535 80.9857 1253.87 466.042
1503 0 87.1355 20.5312 1789 74.5847 1253.96 466.312
1504 0 87.1082 15.6128 1360 84.2309 1254.11 469.551
1505 0 88.1628 16.1633 1425 83.8772 1253.48 469.193
1506 0 84.0942 12.0222 1011 91.8526 1253.74 475.27
1507 0 83.1668 11.5791 963 100.991 1253.61 470.027
1508 0 86.1495 11.8051 1017 100.062 1254.09 469.347
1509 1 47.0576 11.3053 532 98.4699 1254.16 490.816
1510 0 48.0967 11.7264 564 97.5869 1254.4 489.36
1511 0 48.0416 11.8231 568 98.2993 1253.91 487.47
1512 0 53.0196 13.6176 722 91.8255 1254.14 487.449
1513 0 55.1053 12.9026 711 95.7651 1255.31 484.717
1514 0 55.1354 13.1494 725 95.8648 1254.75 483.353
1515 0 55.1598 12.3641 682 97.585 1255.19 483.635
1516 0 57.114 13.4118 766 96.2859 1254.76 481.825
1517 0 56.0748 11.6808 655 100.905 1254.64 480.724
1518 0 60.1074 12.3113 740 98.3338 1254.47 480.178
1519 0 62.0603 12.9874 806 97.7692 1254.29 479.213
1520 0 63.054 11.8311 746 101.45 1255.04 481.365
1521 0 65.1133 13.0695 851 99.1939 1254.16 481.256
1522 0 68.0304 12.7737 869 99.702 1254.02 481.749
1523 0 68.0757 12.2658 835 103.344 1254.15 478.34
1524 0 71.0608 11.8068 839 105.145 1254.33 479.646
1525 0 72.0433 10.7574 775 108.648 1254.58 480.339
1526 0 75.0808 12.4399 934 105.141 1254.57 479.292
1527 1 38.0158 10.2852 391 108.563 1255.13 493.678
1528 0 40.0457 10.3632 415 107.549 1254.47 494.667
1529 0 43.2385 11.9801 518 105.458 1252.58 491.365
1530 0 43.1602 11.9091 514 99.6732 1251.69 493.235
1531 0 46.1072 12.3625 570 98.3281 1251.51 493.625
1532 0 47.0814 12.1492 572 100.156 1252.03 493.451
1533 0 47.2204 12.3675 584 100.551 1252.04 490.985
1534 0 48.1441 13.0857 630 100.733 1251.87 491.017
1535 0 49.0847 11.1644 548 106.195 1250.8 491.507
1536 0 52.1388 12.4092 647 102.713 1251.04 490.184
1537 0 52.167 11.3673 593 106.782 1250.57 488.998
1538 0 54.0804 11.9822 648 105.113 1250.91 489.33
1539 0 56.1088 13.2778 745 102.021 1251.47 488.77
1540 0 56.1438 11.9515 671 107.042 1251.44 487.098
1541 0 57.0667 11.8808 678 107.792 1251.24 487.701
1542 0 59.0501 11.8882 702 106.875 1251.14 488.167
1543 0 61.0669 12.2325 747 106.932 1251.08 485.531
1544 0 63.1059 12.1225 765 107.095 1251.8 484.427
1545 0 65.0564 11.2364 731 108.052 1251.65 483.107
1546 0 67.1449 13.3592 897 102.919 1251.32 481.314
1547 0 69.1175 12.1677 841 105.395 1250.71 480.006
1548 0 69.1154 12.1102 837 106.276 1250.97 480.096
1549 0 75.0804 11.6675 876 103.058 1251.31 478.935
1550 0 76.1336 11.2171 854 102.652 1251.16 473.649
1551 0 80.0869 11.937 956 100.026 1251.76 471.771
1552 0 82.2206 11.5908 953 101.055 1251.48 470.07
1553 0 87.1447 12.2784 1070 98.772 1251.45 469.178
1554 0 88.1075 11.0206 971 103.248 1251.98 468.777
1555 1 44.0547 11.5084 507 105.915 1252.44 492.207
1556 0 44.063 12.3006 542 102.493 1252.38 492.266
1557 0 46.0383 12.9892 598 101.754 1252.06 491.365
1558 0 48.0259 13.576 652 99.3773 1252.39 492.092
1559 0 48.0475 12.9247 621 102.319 1252.55 488.651
1560 0 50.0715 12.9415 648 101.951 1252.53 490.502
1561 0 50.0743 11.3631 569 105.445 1252.87 488.801
1562 0 52.0343 12.1266 631 103.794 1252.11 488.586
1563 0 54.0971 12.9027 698 100.579 1252.81 487.683
1564 0 56.0339 13.5454 759 98.9512 1252.49 486.285
1565 0 58.0815 11.6044 674 102.89 1252.98 485.749
1566 0 60.0819 12.8658 773 99.7969 1252.5 484.177
1567 0 59.0792 12.1024 715 99.5496 1252.49 481.565
1568 0 63.0513 11.673 736 99.5 1252.37 482.166
1569 0 66.1064 12.0866 799 99.0175 1251.72 480.835
1570 0 68.129 12.7405 868 98.3422 1251.48 479.289
1571 0 69.1024 11.8086 816 99.8015 1251.97 477.951
1572 0 71.0491 12.9066 917 98.6129 1251.29 477.409
1573 0 72.0956 11.9286 860 101.197 1252.21 476.158
1574 0 76.0474 11.8347 900 101.132 1252.08 473.882
1575 0 80.0768 12.6753 1015 99.1892 1251.34 472.239
1576 0 83.0643 12.9297 1074 99.0186 1251.47 470.934
1577 1 45.0478 12.1649 548 98.1113 1251.74 491.181
1578 0 45.017 12.262 552 104.721 1251.11 482.402
1579 0 49.0932 11.855 582 105.565 1251.93 483.61
1580 0 48.048 11.0931 533 109.829 1251.84 481.994
1581 0 51.0763 12.3932 633 104.828 1252.43 481.547
1582 0 52.0991 11.7468 612 107.541 1252.03 481.366
1583 0 53.1696 10.8709 578 105.367 1251.2 486.284
1584 0 54.1499 11.5605 626 109.575 1250.92 487.176
1585 0 56.0251 11.7983 661 106.983 1251.03 488.133
1586 0 58.063 12.0559 700 108.314 1251.5 485.866
1587 0 62.0343 11.8483 735 107.688 1251.82 484.777
1588 0 63.0446 12.3405 778 107.059 1250.75 485.361
1589 0 65.0459 11.5611 752 106.076 1251.09 480.501
1590 0 68.0782 12.5444 854 103.008 1251.52 481.048
1591 0 69.0754 10.6695 737 107.072 1251.28 481.404
1592 0 73.1049 11.5998 848 105.915 1251.75 477.932
1593 0 75.1261 11.9666 899 106.429 1252.02 476.297
1594 0 79.1094 12.3373 976 105.588 1251.34 472.191
1595 1 41.0903 12.1683 500 103.008 1251.18 490.314
1596 0 43.07 11.7947 508 104.663 1251.37 491.116
1597 0 44.2226 12.3014 544 105.98 1251.1 491.246
1598 0 44.0629 12.2779 541 105.261 1251.04 489.623
1599 0 48.1765 12.6203 608 101.643 1251.67 489.936
1600 0 48.0333 13.4907 648 100.972 1252.18 488.684
1601 0 50.0959 13.4542 674 101.583 1251.74 487.501
1602 0 50.0332 12.5117 626 105.118 1251.6 488.361
1603 0 53.1234 12.1792 647 105.943 1251.25 486.796
1604 0 54.0593 12.8933 697 105.354 1251.6 485.885
1605 0 54.0392 11.1586 603 110.793 1251.51 485.859
1606 0 57.0419 12.447 710 108.339 1252.42 485.044
1607 0 59.0456 14.4634 854 105.804 1252.36 486.707
1608 0 61.1342 13.544 828 105.112 1252.77 485.422
1609 0 63.0596 13.3842 844 106.641 1252.35 482.364
1610 0 64.0632 13.2525 849 107.28 1251.86 480.061
1611 0 67.0428 13.5138 906 107.176 1252.29 479.312
1612 0 69.0511 13.8448 956 106.179 1252.28 479.757
1613 0 72.1933 13.8794 1002 106.021 1251.09 475.376
1614 0 73.2114 13.7547 1007 106.762 1250.56 472.836
1615 0 76.0818 12.4077 944 110.071 1251.63 474.293
1616 0 80.1907 13.8545 1111 105.95 1251.02 472.517
1617 0 82.2996 12.2115 1005 109.655 1250.64 470.03
1618 1 40.1791 10.6274 427 110.098 1251.13 488.892
1619 0 41.0795 10.8813 447 109.092 1250.92 489.313
1620 0 43.0966 12.2283 527 107.26 1249.87 488.856
1621 0 46.0517 12.4208 572 108.802 1251.14 490.135
1622 0 48.0671 12.1705 585 106.232 1250.61 485.735
1623 0 49.0788 12.9791 637 103.746 1250.7 485.333
1624 0 51.0993 12.8965 659 104.247 1250.33 485.563
1625 0 52.0422 12.144 632 107.019 1250.87 485.386
1626 0 55.166 12.834 708 107.192 1251.28 483.541
1627 0 57.0664 12.5468 716 106.888 1251.7 483.846
1628 0 59.1122 13.8042 816 104.271 1251.63 482.303
1629 0 58.1351 12.2301 711 109.831 1251.33 482.343
1630 0 63.102 14.2468 899 103.627 1251.51 481.426
1631 0 64.0576 13.2381 848 106.17 1251.39 480.226
1632 0 67.0674 13.3746 897 105.688 1251.22 478.03
1633 0 69.0972 13.5172 934 105.68 1250.94 477.404
1634 0 73.0616 13.1807 963 105.63 1251.31 476.617
1635 0 74.0758 12.0822 895 109.035 1251.08 473.678
1636 0 79.085 13.1378 1039 103.342 1251.96 473.839
1637 0 82.1122 12.97 1065 104.71 1251.1 470.527
1638 1 41.0581 11.2036 460 103.985 1252.1 493.083
1639 0 42.0432 12.5109 526 104.572 1251.66 491.011
1640 0 43.0551 12.8208 552 104.279 1252.15 491.543
1641 0 45.1045 12.0831 545 107.741 1250.04 489.919
1642 0 46.0946 12.9733 598 106.846 1251.36 489.91
1643 0 49.0748 13.2043 648 105.897 1251.73 489.165
1644 0 50.0512 14.2854 715 106.138 1251.55 489.892
1645 0 52.0806 13.4407 700 107.521 1251.96 488.53
1646 0 52.0267 13.9352 725 108.684 1251.87 488.197
1647 0 55.0189 14.3769 791 106.8 1251.64 486.698
1648 0 55.0299 14.0106 771 109.594 1252.27 486.599
1649 0 54.0304 14.0106 757 137.593 1252.23 486.353
1650 0 58.0911 15.338 891 108.493 1252.15 484.703
1651 0 61.077 14.3753 878 110.158 1252.44 484.362
1652 0 62.0184 13.5282 839 113.056 1251.54 483.395
1653 0 65.0539 14.7724 961 109.944 1251.27 481.174
1654 0 67.021 14.7417 988 111.762 1251.62 481.029
1655 0 68.0513 14.2246 968 113.958 1251.36 480.773
1656 0 72.0559 14.7247 1061 111.899 1251.4 479.749
1657 0 74.0692 14.9185 1105 112.622 1251.48 478.14
1658 0 73.1314 13.633 997 117.967 1251.88 475.27
1659 0 79.1437 14.619 1157 111.583 1251.65 475.691
1660 0 81.1129 14.2641 1157 114.041 1252.13 471.602
1661 1 44.0321 11.3554 500 115.868 1252.2 492.202
1662 0 42.0596 9.01102 379 111.029 1252.01 488.034
1663 0 44.0443 11.1706 492 106.957 1251.35 487.465
1664 0 44.1335 11.5558 510 105.496 1250.4 487.82
1665 0 47.0408 10.7779 507 106.592 1251.09 486.99
1666 0 48.0317 11.5549 555 106.398 1251.18 483.739
1667 0 48.0775 11.2735 542 107.659 1251.42 483.548
1668 0 51.117 11.5813 592 106.098 1251.07 484.042
1669 0 55.0498 12.6068 694 103.112 1251.47 483.284
1670 0 55.0637 12.204 672 107.025 1251.12 480.426
1671 0 54.0398 11.5285 623 110.323 1250.04 478.965
1672 0 61.0276 12.7811 780 105.676 1251.69 479.17
1673 0 62.0484 12.2969 763 109.068 1251.81 479.204
1674 0 62.0675 12.4864 775 110.719 1251.13 479.034
1675 0 64.0694 12.0963 775 112.325 1251.6 476.954
1676 0 68.067 12.1792 829 111.25 1252.12 476.378
1677 0 71.0479 12.2312 869 112.193 1251.96 473.88
1678 0 73.1486 12.3037 900 111.932 1251.92 472.912
1679 0 74.0558 12.126 898 113.077 1252.26 472.353
1680 0 78.0362 14.0191 1094 109.517 1252.1 471.25
1681 0 79.0844 11.8481 937 114.444 1252.01 468.819
1682 0 83.0208 12.4788 1036 121.089 1251.29 474.098
1683 1 43.0222 11.6451 501 120.627 1250.42 491.657
1684 0 47.0351 12.5651 591 114.87 1251.6 491.777
1685 0 44.0547 10.8274 477 121.853 1250.4 491.574
1686 0 46.0937 11.4549 528 118.807 1250.8 491.275
1687 0 51.0715 12.786 653 112.328 1250.56 488.801
1688 0 50.103 11.1969 561 116.941 1251.17 490.012
1689 0 54.0594 12.0423 651 112.478 1251.27 487.594
1690 0 56.0532 12.7201 713 111.377 1251.39 486.773
1691 0 59.1603 11.2068 663 107.535 1251.49 484.333
1692 0 59.0781 11.2055 662 110.079 1251.13 480.742
1693 0 62.0487 12.055 748 106.362 1250.58 477.512
1694 0 65.2719 13.1144 856 103.011 1251.12 477.4
1695 0 65.1065 11.0281 718 108.581 1251.84 479.241
1696 0 67.0326 12.0986 811 107.208 1251.26 477.703
1697 0 71.1676 12.3792 881 105.788 1250.99 476.907
1698 0 73.0497 13.2239 966 104.263 1251.49 474.581
1699 0 77.0902 12.3751 954 105.585 1250.02 476.58
1700 0 80.1952 13.3674 1072 102.887 1250.41 472.382
1701 0 83.2409 12.65 1053 104.853 1250.7 471.413
1702 0 86.1191 13.7716 1186 102.165 1250.86 469.539
1703 0 87.1898 12.1574 1060 106.396 1250.03 468.34
1704 1 43.0577 9.87048 425 105.612 1251.76 491.478
1705 0 43.0805 11.1419 480 102.785 1251.27 488.792
1706 0 45.0754 10.2495 462 104.887 1251.96 487.152
1707 0 48.1514 12.4192 598 101.445 1252.23 486.597
1708 0 49.077 12.1238 595 100.8 1252.11 488.034
1709 0 51.026 12.5818 642 101.16 1250.72 488.224
1710 0 52.0823 12.7107 662 100.976 1250.78 488.817
1711 0 54.0859 13.1273 710 99.862 1251.54 488.793
1712 0 55.1529 11.9667 660 102.885 1250.77 484.974
1713 0 60.1235 12.7072 764 100.05 1251.03 486.402
1714 0 60.1718 11.6001 698 103.643 1250.93 482.047
1715 0 62.1831 12.238 761 102.727 1250.25 481.624
1716 0 64.1765 12.3721 794 103.39 1250.51 481.861
1717 0 65.1375 13.341 869 101.854 1250.63 481.842
1718 0 68.0932 12.6591 862 105.239 1250.9 480.437
1719 0 71.1328 13.6646 972 103.814 1250.56 477.205
1720 0 73.097 12.1756 890 108.565 1250.17 478.161
1721 0 75.2319 12.9865 977 106.486 1250.67 478.666
1722 0 75.3025 11.4339 861 113.623 1250.25 474.959
1723 0 80.1975 13.7286 1101 107.595 1251.35 472.71
1724 0 83.3269 12.781 1065 110.653 1250.32 472.461
1725 0 84.3875 11.6368 982 114.461 1250.57 470.271
1726 1 44.1689 10.9127 482 111.799 1250.3 492.16
1727 0 47.1067 11.8242 557 109.513 1250.62 491.239
1728 0 48.1716 12.7461 614 108.404 1250.61 490.822
1729 0 50.0938 13.1753 660 106.752 1250.73 489.833
1730 0 52.0815 12.538 653 109.25 1251.15 488.747
1731 0 52.1033 13.3773 697 108.449 1250.96 487.855
1732 0 54.1649 12.6835 687 110.186 1250.53 488.808
1733 0 55.1463 13.4551 742 108.72 1250.31 488.298
1734 0 58.1574 13.2571 771 109.66 1249.78 486.217
1735 0 60.1058 13.5095 812 108.624 1250.2 485.643
1736 0 61.1066 12.9773 793 110.226 1250.28 484.995
1737 0 64.2201 14.1389 908 107.492 1250.17 483.999
1738 0 68.2398 14.6395 999 106.001 1250.41 481.335
1739 0 68.1822 12.6719 864 111.973 1250.52 481.889
1740 0 71.1885 13.9208 991 107.196 1250.75 481.697
1741 0 73.1911 14.7969 1083 106.94 1249.75 479.253
1742 0 75.1435 13.4543 1011 109.589 1250.44 480.084
1743 0 78.2013 13.4141 1049 110.252 1250.71 476.907
1744 0 80.2078 12.9788 1041 111.727 1250.33 475.292
1745 0 84.067 13.5011 1135 109.731 1250.5 473.629
1746 0 86.2418 14.1926 1224 108.422 1249.75 472.709
1747 0 90.1711 13.2526 1195 110.798 1249.72 470.517
1748 0 94.2178 13.819 1302 107.859 1250.02 472.171
1749 1 48.0633 12.8372 617 115.538 1250.95 489.65
1750 0 50.0152 13.2959 665 112.965 1249.62 490.814
1751 0 52.0615 13.8298 720 112.221 1249.17 488.276
1752 0 54.0885 14.6427 792 107.848 1249.66 488.578
1753 0 56.0516 13.4697 755 110.905 1249.61 486.49
1754 0 58.0983 13.546 787 109.75 1250.22 486.896
1755 0 58.1235 13.3165 774 111.283 1250.22 486.164
1756 0 62.0248 13.8171 857 107.655 1250.66 485.286
1757 0 64.0722 13.9998 897 107.806 1250.71 482.592
1758 0 64.104 14.2269 912 108.771 1250.66 483.111
1759 0 69.1225 15.147 1047 104.53 1251.11 482.458
1760 0 69.0501 14.2071 981 108.478 1250.35 481.062
1761 0 70.0707 13.3437 935 111.536 1250 479.479
1762 0 76.061 14.988 1140 105.921 1250.64 477.539
1763 0 76.1149 13.3351 1015 112.005 1251.26 476.655
1764 0 79.0504 15.3446 1213 107.65 1250.58 474.087
1765 0 83.1062 14.692 1221 108.79 1250.72 471.947
1766 0 85.1197 13.2402 1127 112.178 1250.43 475.284
1767 0 88.1008 14.3813 1267 110.622 1250.82 471.17
1768 0 91.0982 13.8971 1266 112.094 1250.92 469.804
1769 0 96.0865 14.4037 1384 109.889 1250.68 470.115
1770 1 51.0902 12.9966 664 116.294 1250.85 489.444
1771 0 51.0268 12.4836 637 118.509 1250.4 488.391
1772 0 54.1322 13.0606 707 116.153 1251.03 487.078
1773 0 57.1387 13.9485 797 113.895 1251.91 484.714
1774 0 58.054 13.7975 801 116.753 1251.16 485.14
1775 0 62.077 13.6927 850 115.838 1251.1 484.548
1776 0 63.0854 14.4407 911 113.745 1250.2 484.366
1777 0 66.0827 14.5121 959 113.487 1250.16 483.087
1778 0 68.1546 14.7459 1005 113.087 1250.21 480.265
1779 0 70.147 14.7262 1033 114.146 1250.48 478.609
1780 0 73.0926 14.6937 1074 114.713 1250.4 477.83
1781 0 76.0872 14.6148 1112 113.946 1250.89 478.344
1782 0 78.1885 15.501 1212 112.851 1251.07 474.677
1783 0 80.1702 13.7707 1104 117.962 1251.07 475.056
1784 0 82.1604 14.1674 1164 118.355 1251 472.669
1785 0 87.2717 15.3544 1340 114.802 1250.94 470.053
1786 0 89.3442 14.7184 1315 113.895 1250.92 466.756
1787 0 92.2584 14.3293 1322 117.419 1250.88 463.708
1788 0 94.2599 13.9508 1315 118.852 1250.89 464.763
1789 1 47.0433 13.0093 612 117.332 1250.47 486.601
1790 0 49.0768 13.5502 665 115.226 1251.07 487.904
1791 0 51.0704 13.7457 702 116.091 1251.01 486.829
1792 0 52.016 13.5728 706 115.245 1250.54 486.572
1793 0 54.0919 14.4199 780 114.826 1251.1 484.991
1794 0 53.0661 13.323 707 120.436 1251.04 484.68
1795 0 58.0315 14.0269 814 118.268 1251.2 483.966
1796 0 57.0236 14.2047 810 161.881 1252.2 484.007
1797 0 61.0874 14.2419 870 119.139 1252 481.795
1798 0 64.1493 15.4172 989 116.688 1251.48 480.698
1799 0 67.1485 14.386 966 119.4 1251.91 480.355
1800 0 69.1278 15.0446 1040 119.056 1252.33 478.884
1801 0 70.0739 14.7273 1032 121.383 1252.26 477.797
1802 0 72.0823 14.0534 1013 125.511 1251.94 478.268
1803 0 75.2423 14.646 1102 124.534 1251.87 476.53
1804 0 76.2285 14.2991 1090 125.23 1251.5 475.527
1805 0 81.1057 14.9065 1209 121.798 1252.03 474.502
1806 0 82.1346 14.671 1205 125.159 1252.08 471.51
1807 0 87.052 15.1978 1323 122.984 1252.4 469.658
1808 0 90.1086 16.7465 1509 119.214 1252.22 468.946
1809 0 92.0876 14.5405 1339 124.63 1252.32 468.194
1810 0 96.1447 13.9789 1344 126.473 1252.14 467.817
1811 0 100.049 14.6929 1470 124.563 1251.72 467.222
1812 0 101.217 14.4739 1465 126.396 1251.35 464.617
1813 1 56.1028 13.4575 755 127.774 1251.18 487.445
1814 0 57.1252 13.9693 798 125.033 1251.25 487.584
1815 0 60.1236 14.0211 843 126.21 1250.87 484.117
1816 0 62.0499 14.44 896 124.866 1251 483.054
1817 0 65.0289 14.3629 934 124.81 1251.1 482.794
1818 0 68.0271 14.2737 971 124.183 1251.28 481.43
1819 0 70.0688 14.6998 1030 123.229 1251.12 480.632
1820 0 73.1342 14.1794 1037 123.848 1251.63 480.261
1821 0 75.0743 14.3591 1078 123.573 1251.46 478.393
1822 0 77.1254 15.1312 1167 121.2 1251.55 476.575
1823 0 80.1637 13.3976 1074 125.409 1251.99 474.871
1824 0 84.1328 14.2869 1202 122.79 1252.06 472.75
1825 0 86.1676 14.0888 1214 123.406 1251.98 472.017
1826 0 90.1083 14.6823 1323 120.774 1251.52 472.433
1827 0 93.1889 13.7355 1280 123.133 1251.14 472.038
1828 0 97.165 14.3364 1393 122.709 1251.3 467.966
1829 1 51.0365 13.9312 711 122.042 1251.79 489.36
1830 0 53.0314 12.7849 678 122.044 1251.66 489.428
1831 0 54.0862 13.4785 729 120.048 1251.02 487.558
1832 0 57.1383 13.2486 757 121.02 1251.54 486.752
1833 0 59.0696 13.137 776 118.902 1251.48 482.767
1834 0 60.0952 13.4786 810 118.168 1251.21 482.823
1835 0 61.2054 14.0347 859 122.692 1250.22 482.981
1836 0 65.0582 14.4793 942 119.616 1251.73 481.479
1837 0 68.1396 14.573 993 119.202 1252.31 479.565
1838 0 70.0596 14.2165 996 119.793 1251.82 479.235
1839 0 71.0976 13.0384 927 120.729 1252.07 476.576
1840 0 77.1723 13.4245 1036 117.479 1252.76 476.391
1841 0 78.1547 13.6012 1063 119.467 1252.39 474.442
1842 0 80.114 13.8677 1111 119.672 1251.72 471.222
1843 0 82.2289 13.8029 1135 120.15 1251.68 471.451
1844 0 87.2676 13.3154 1162 121.595 1252.19 470.311
1845 0 90.1439 13.6448 1230 123.243 1251.55 467.806
1846 1 45.0985 13.1712 594 120.362 1252.55 489.013
1847 0 46.1661 13.798 637 119.595 1252.51 489.146
1848 0 50.2216 14.1971 713 124.181 1252.24 484.431
1849 0 52.0938 14.2051 740 122.764 1251.96 484.742
1850 0 53.1383 14.6787 780 122.487 1252.3 482.478
1851 0 58.1622 17.7263 1031 110.124 1252.28 478.399
1852 0 57.1693 14.4308 825 121.981 1252.21 480.309
1853 0 60.3448 14.2183 858 120.949 1252.77 481.657
1854 0 61.1658 14.6814 898 120.937 1251.95 479.163
1855 0 63.2121 13.5259 855 124.039 1251.96 479.133
1856 0 66.1983 14.4717 958 121.038 1251.6 477.164
1857 0 65.2252 13.645 890 124.163 1252.18 477.246
1858 0 70.4567 14.5905 1028 119.64 1251.56 474.286
1859 0 72.1788 14.1177 1019 120.509 1251.79 473.365
1860 0 74.1912 14.3413 1064 120.45 1251.27 471.231
1861 0 77.4753 13.9141 1078 120.347 1251.69 472.862
1862 0 79.1161 13.3727 1058 122.814 1251.67 470.381
1863 0 84.3578 14.7111 1241 118.195 1251.57 468.52
1864 0 87.2695 14.6099 1275 118.507 1251.91 464.812
1865 0 92.4008 15.4436 1427 114.406 1251.67 466.149
1866 1 43.029 11.5503 497 119.372 1252.46 479.268
1867 0 46.0175 11.9954 552 118.292 1251.64 480.487
1868 0 49.1051 12.178 598 113.781 1251.47 480.803
1869 0 52.0552 13.0439 679 111.973 1251.98 479.717
1870 0 51.0478 12.7136 649 114.159 1251.96 477.689
1871 0 56.0456 13.7388 770 109.078 1252.21 477.344
1872 0 57.0854 14.3294 818 107.7 1251.54 474.132
1873 0 59.0441 13.0411 770 111.27 1250.55 474.955
1874 0 62.0589 15.1952 943 105.866 1251.31 476.287
1875 0 63.052 13.2113 833 113.705 1250.97 476.026
1876 0 63.0226 13.0588 823 115.287 1251.17 474.745
1877 0 68.0902 14.1871 966 111.582 1250.99 471.725
1878 0 68.1276 13.5041 920 116.283 1251.91 470.348
1879 0 72.0723 13.7917 994 114.466 1251.05 471.109
1880 0 73.1075 14.8685 1087 113.374 1251.22 469.336
1881 0 76.1432 14.5909 1111 113.748 1251.81 469.888
1882 0 76.1417 13.6588 1040 119.613 1251.71 465.286
1883 0 81.1715 14.7589 1198 115.667 1251.41 468.134
1884 0 81.0904 14.268 1157 120.406 1251.42 464.289
1885 0 83.065 13.2186 1098 123.536 1251.35 464.413
1886 0 86.2198 12.9437 1116 125.073 1251.42 461.614
1887 0 91.1228 14.058 1281 121.718 1251.12 462.989
1888 0 93.4022 13.6506 1275 123.437 1251.8 459.642
1889 0 96.1683 14.2147 1367 122.316 1251.47 459.775
1890 0 100.21 15.1283 1516 118.945 1251.92 458.096
1891 0 104.322 15.7301 1641 117.913 1251.72 456.175
1892 0 106.142 13.8871 1474 123.182 1251.93 455.909
1893 0 109.247 13.1719 1439 127.044 1251.75 453.224
1894 0 112.167 13.9078 1560 125.116 1251.76 451.788
1895 0 119.443 13.9648 1668 123.304 1251.66 451.792
1896 0 123.189 13.7836 1698 124.193 1251.4 449.041
1897 0 127.382 13.8717 1767 124.5 1251.74 447.441
1898 0 132.215 14.189 1876 122.493 1251.58 445.604
1899 0 138.325 13.8442 1915 123.366 1251.2 441.773
1900 0 143.31 13.9767 2003 123.364 1251.52 438.786
1901 1 77.0975 10.4543 806 118.057 1251.7 471.71
1902 0 82.0557 10.9925 902 115.153 1251.43 470.778
1903 0 84.2412 10.5293 887 117.798 1250.72 467.443
1904 0 90.3414 13.3051 1202 110.404 1251.6 460.792
1905 0 91.3425 11.1887 1022 114.296 1251.45 463.099
1906 0 93.3541 11.1618 1042 115.717 1251.55 458.181
1907 0 98.3682 10.8978 1072 116.507 1251.31 456.965
1908 0 101.301 12.4974 1266 113.1 1251.36 456.167
1909 0 104.389 10.5375 1100 115.383 1251.31 457.823
1910 0 106.424 11.4824 1222 114.688 1250.87 454.657
1911 0 112.377 11.5326 1296 114.256 1251.02 453.732
1912 0 116.322 11.58 1347 113.654 1251.46 452.458
1913 0 121.171 11.3806 1379 112.613 1251.58 451.893
1914 0 124.326 11.2607 1400 113.855 1251.53 448.266
1915 0 128.199 9.84406 1262 117.559 1251.05 446.653
1916 1 72.0663 9.43576 680 108.325 1252.03 474.547
1917 0 75.218 10.8884 819 106.597 1251.7 473.802
1918 0 76.179 10.3572 789 109.288 1251.54 472.199
1919 0 80.0557 12.1041 969 106.322 1252.18 471.178
1920 0 81.0924 10.9011 884 111.258 1252.24 471.009
1921 0 82.1437 10.9077 896 112.641 1252.31 468.246
1922 0 85.0917 10.6943 910 113.187 1251.92 468.855
1923 0 87.1469 9.51267 829 115.986 1252.46 468.875
1924 0 92.0831 12.4018 1142 109.629 1252.4 464.089
1925 0 95.1025 11.1038 1056 113.768 1251.28 463.802
1926 0 94.2342 9.49761 895 118.383 1252.17 461.402
1927 1 53.1256 11.5575 614 104.007 1252.43 486.889
1928 0 53.1914 11.2424 598 111.689 1251.89 483.329
1929 0 57.2901 10.7348 615 112.593 1252.06 482.598
1930 0 58.2042 10.9271 636 107.841 1252.6 483.456
1931 0 60.275 10.9498 660 112.412 1252.4 482.612
1932 0 62.3154 9.45192 589 117.851 1251.88 480.256
1933 0 62.2586 10.7455 669 116.428 1252.23 478.825
1934 0 63.2936 9.71662 615 117.254 1251.98 479.15
1935 0 65.1671 10.1125 659 116.293 1252.02 477.86
1936 0 71.5567 11.2638 806 111.784 1251.92 477.516
1937 0 69.413 8.93205 620 120.208 1251.57 473.394
1938 0 74.4385 9.87392 735 117.897 1251.78 475.744
1939 0 76.3302 10.5332 804 118.831 1251.61 473.745
1940 0 76.3207 10.4952 801 120.615 1251.43 470.773
1941 0 81.4381 10.8426 883 121.061 1251.36 469.813
1942 0 86.2768 10.9068 941 120.118 1250.91 469.471
1943 0 86.3584 11.128 961 122.431 1251.59 465.79
1944 0 86.3438 11.6511 1006 123.548 1251.35 463.777
1945 0 92.3693 11.8113 1091 122.071 1251.99 462.716
1946 0 94.3356 11.0669 1044 125.119 1251.5 461.412
1947 0 98.5564 11.8206 1165 122.827 1251.85 460.796
1948 0 100.472 11.2469 1130 125.733 1251.31 458.917
1949 0 103.336 13.0448 1348 123.162 1251.33 453.907
1950 0 108.431 11.8693 1287 125.451 1250.64 453.712
1951 1 59.2001 11.0304 653 122.438 1250.67 477.17
1952 0 60.0648 11.0547 664 123.929 1251.19 471.136
1953 0 60.0786 11.0189 662 125.979 1251.3 470.517
1954 0 62.204 12.6037 784 120.597 1252.08 471.126
1955 0 64.2885 11.2462 723 124.289 1251.77 469.51
1956 0 67.218 11.976 805 121.637 1251.49 468.67
1957 0 68.1425 11.2265 765 125.485 1252.13 465.833
1958 0 72.2443 12.3193 890 120.924 1251.39 465.827
1959 0 74.2294 11.9629 888 122.355 1251.78 463.813
1960 0 78.1951 13.0315 1019 117.843 1251.7 467.655
1961 0 78.1828 11.5499 903 123.59 1252.66 467.307
1962 0 81.1836 12.8105 1040 118.953 1251.15 468.09
1963 0 84.2731 12.2222 1030 120.27 1250.72 467.16
1964 0 87.284 12.6484 1104 117.256 1251.73 464.98
1965 0 89.3316 11.2502 1005 120.627 1251.36 464.643
1966 0 92.3065 11.6677 1077 120.15 1251.57 463.303
1967 0 95.3271 11.8329 1128 119.037 1250.82 459.725
1968 1 48.1881 8.69509 419 120.78 1251.34 478.573
1969 0 52.2727 9.41217 492 116.553 1251.36 480.008
1970 0 54.096 10.9435 592 114 1251.67 477.395
1971 0 59.1774 14.7354 872 105.343 1252.72 482.868
1972 0 58.1219 12.1641 707 113.188 1252.89 481.856
1973 0 61.1305 12.3179 753 112.259 1252.89 482.563
1974 0 62.2122 12.4413 774 112.965 1252.24 479.26
1975 0 65.165 12.2919 801 112.297 1251.86 480.273
1976 0 65.1028 11.3206 737 114.984 1252.6 478.738
1977 0 68.2117 12.5931 859 111.597 1253.05 478.801
1978 0 71.2254 12.9729 924 107.095 1252.44 475.531
1979 0 72.1982 11.7039 845 111.265 1252.05 476.121
1980 0 75.1627 12.9053 970 108.689 1251.54 475.616
1981 0 76.1765 12.2085 930 110.03 1252.07 473.675
1982 0 80.2961 13.4627 1081 107.338 1251.65 471.771
1983 0 84.2472 14.4218 1215 103.898 1252.06 472.031
1984 0 86.1675 13.671 1178 107.719 1252.19 468.038
1985 0 89.1338 13.5751 1210 107.098 1251.07 469.099
1986 0 93.13 12.6168 1175 109.218 1252.23 467.288
1987 1 53.1174 11.1451 592 108.285 1253.31 485.843
1988 0 53.1174 11.1263 591 140.489 1253.3 485.812
1989 0 52.1426 11.8521 618 109.636 1252.41 483.087
1990 0 57.2258 11.4109 653 107.761 1252.16 485.081
1991 0 57.2586 11.4743 657 109.146 1252.64 482.566
1992 0 61.2364 12.3946 759 106.332 1252.28 480.722
1993 0 60.1603 11.1702 672 109.966 1251.16 482
1994 0 62.1917 12.0595 750 108.04 1251.01 479.045
1995 0 65.165 13.0285 849 104.906 1251.13 479.625
1996 0 65.236 12.5697 820 107.167 1251.53 477.938
1997 0 66.1538 11.7605 778 108.92 1251.25 477.747
1998 0 71.1635 11.1293 792 108.337 1250.63 477.081
1999 0 70.2135 12.3338 866 107.316 1251.15 475.41
2000 0 76.1418 12.1878 928 105.786 1250.75 473.747
2001 0 78.2708 12.5845 985 104.926 1251.76 473.333
2002 0 81.1404 12.312 999 104.835 1251.48 473.08
2003 0 82.2106 12.2125 1004 106.308 1251.39 469.885
2004 0 85.2707 11.9502 1019 107.306 1251.17 467.833
2005 1 45.1494 9.87832 446 106.422 1251.79 491.213
2006 0 47.0953 11.7421 553 104.268 1252.29 489.042
2007 0 46.0219 9.34338 430 106.407 1252.61 488.807
2008 0 49.0391 10.8281 531 105.098 1251.34 486.827
2009 0 50.0995 12.4951 626 105.286 1252.33 485.703
2010 0 52.1142 12.1272 632 106.394 1252.77 483.785
2011 0 53.0984 13.5409 719 104.312 1252.71 482.317
2012 0 54.1312 12.9315 700 106.567 1252.55 481.937
2013 0 57.1117 12.9045 737 105.256 1252.85 482.22
2014 0 59.0471 12.1259 716 101.906 1251.96 482.873
2015 0 60.0334 10.694 642 106.142 1252.08 481.349
2016 0 61.0375 11.7469 717 104.318 1252.25 479.688
2017 0 63.1549 11.258 711 105.499 1251.67 480.719
2018 0 66.0467 12.4912 825 102.318 1252.32 480.921
2019 0 69.0646 12.1625 840 103.179 1252.05 477.006
2020 0 70.0748 11.4164 800 100.225 1251.62 472.125
2021 0 72.1757 11.2642 813 100.36 1251.03 470.963
2022 0 73.1431 10.9511 801 101.628 1251.78 470.136
2023 0 76.1851 12.0102 915 99.671 1251.62 466.409
2024 0 80.0998 11.211 898 101.308 1251.84 467.737
2025 0 84.1643 10.8122 910 102.069 1251.77 466.304
2026 0 85.1715 11.5179 981 101.062 1252.41 466.584
2027 0 89.1869 11.2124 1000 102.249 1252.14 464.298
2028 1 44.1509 9.39958 415 104.128 1252.04 486.077
2029 0 45.0588 9.78721 441 104.995 1250.97 485.469
2030 0 44.087 9.77612 431 111.434 1251.48 482.155
2031 0 48.1713 9.63229 464 109.082 1252.05 482.502
2032 0 50.0504 11.5883 580 107.169 1250.36 481.059
2033 0 51.056 10.7725 550 109.562 1250.35 480.645
2034 0 53.0254 12.0131 637 115.896 1250.1 484.515
2035 0 56.0974 12.9239 725 113.905 1250.68 482.472
2036 0 59.2004 13.9188 824 111.868 1250.2 482.323
2037 0 59.139 12.5298 741 115.75 1250.8 482.881
2038 0 61.1547 11.8061 722 119.298 1250.93 480.705
2039 0 64.1064 11.9177 764 119.186 1250.51 480.249
2040 0 63.1349 11.8952 751 121.161 1250.69 478.714
2041 0 65.1634 12.4456 811 119.694 1250.44 475.72
2042 0 70.1249 12.5918 883 117.522 1251.14 476.579
2043 0 73.1584 12.5208 916 117.194 1251.17 475.515
2044 0 75.1307 14.0954 1059 114.369 1251.43 472.458
2045 0 77.1127 14.3426 1106 114.858 1250.67 471.503
2046 0 78.1692 12.6009 985 119.482 1250.59 471.387
2047 0 84.1774 12.8894 1085 116.895 1251.66 472.977
2048 0 87.2053 13.3019 1160 117.329 1250.88 468.301
2049 0 89.1747 12.7839 1140 118.224 1251.2 469.821
2050 1 48.139 11.7784 567 116.959 1250.85 488.051
2051 0 51.1825 12.5433 642 115.132 1250.48 487.12
2052 0 51.2103 12.0288 616 117.653 1251.77 482.299
2053 0 53.2658 13.4796 718 113.359 1251.75 482.187
2054 0 55.274 13.424 742 114.35 1251.33 481.522
2055 0 56.2569 12.0874 680 118.907 1250.88 483.007
2056 0 56.239 11.4867 646 121.625 1250.42 483.406
2057 0 59.1341 13.0382 771 116.511 1250.98 483.457
2058 0 61.1652 12.1965 746 118.894 1250.68 482.609
2059 0 64.1165 13.5534 869 114.809 1250.83 480.782
2060 0 66.1769 12.7839 846 116.264 1250.79 480.19
2061 0 67.1961 12.3221 828 118.688 1250.89 477.518
2062 0 71.1288 12.8078 911 115.607 1250.7 479.692
2063 0 70.2097 11.722 823 120.75 1250.54 475.493
2064 0 74.0857 13.0255 965 116.62 1250.2 473.488
2065 0 76.2182 11.8213 901 119.694 1251.14 473.123
2066 0 79.202 12.2724 972 118.28 1251.45 470.229
2067 0 82.4056 12.3657 1019 117.508 1250.68 467.623
2068 0 88.2886 13.773 1216 113.102 1251.01 463.26
2069 0 90.3962 12.8324 1160 115.741 1250.6 461.422
2070 0 90.3932 12.4014 1121 118.071 1249.98 459.802
2071 1 46.2547 10.1179 468 119.605 1251.23 481.912
2072 0 50.1867 9.80339 492 115.933 1251.14 479.722
2073 0 48.0609 10.9028 524 105.382 1251.1 477.504
2074 0 49.0453 9.58298 470 105.096 1251.93 477.466
2075 0 53.0545 10.0274 532 103.789 1251.68 478.481
2076 0 55.0949 11.3622 626 102.471 1252.11 479.671
2077 0 58.0772 11.0715 643 108.964 1252.02 482.585
2078 0 60.1125 11.7613 707 106.464 1252.08 479.334
2079 0 63.0731 11.1934 706 107.069 1251.8 479.894
2080 0 64.1318 11.2269 720 107.162 1251.31 479.24
2081 0 67.1629 11.2413 755 105.536 1251.3 479.094
2082 0 70.1557 11.8878 834 103.839 1251.31 475.011
2083 0 72.0803 11.6953 843 102.578 1250.57 474.13
2084 0 75.0882 12.0924 908 103.357 1251.11 473.291
2085 0 77.132 10.6571 822 105.532 1251.78 472.311
2086 0 78.1268 11.5581 903 103.72 1251.24 471.124
2087 0 83.1087 11.6113 965 102.324 1251.72 470.861
2088 0 85.1459 11.3335 965 104.396 1251.81 466.339
2089 0 86.1407 11.2026 965 104.665 1250.94 467.068
2090 0 91.1881 11.1637 1018 104.762 1251.17 465.657
2091 0 94.3102 11.3137 1067 105.207 1250.45 461.98
2092 0 97.2719 11.3291 1102 106.615 1250.3 460.016
2093 0 99.3265 11.6182 1154 106.711 1250.1 457.174
2094 0 103.217 11.4031 1177 108.004 1250.63 454.929
2095 0 107.289 10.523 1129 110.712 1250.85 453.569
2096 0 109.177 11.7607 1284 108.96 1250.83 450.171
2097 0 112.287 10.7759 1210 114.962 1250.28 447.711
2098 0 118.268 11.8883 1406 112.218 1250.98 450.62
2099 0 121.277 12.7807 1550 110.692 1250.58 446.038
2100 1 67.2841 9.71997 654 105.353 1251.13 478.558
2101 0 69.047 9.93526 686 106.27 1250.05 477.876
2102 0 71.0933 11.6889 831 105.241 1250.62 478.071
2103 0 71.1562 10.4278 742 109.131 1251.32 476.596
2104 0 76.2094 11.7046 892 105.21 1251.84 474.573
2105 0 79.1996 11.0859 878 106.187 1252.04 474.96
2106 0 81.1462 11.202 909 107.933 1250.7 472.355
2107 0 83.1935 11.1788 930 108.035 1251.37 471.619
2108 0 87.1662 11.6215 1013 107.246 1252.04 471.28
2109 0 91.1536 13.1865 1202 105.567 1250.72 466.773
2110 0 94.1739 12.9441 1219 106.743 1251.49 467.309
2111 0 96.13 12.3375 1186 110.02 1250.71 465.323
2112 0 99.2015 11.7942 1170 112.046 1250.24 463.601
2113 0 103.156 12.3502 1274 110.422 1250.61 463.283
2114 0 103.229 12.0799 1247 114.536 1251.01 457.111
2115 0 108.119 12.6157 1364 113.679 1251.2 457.617
2116 0 112.104 12.7381 1428 112.701 1252.04 457.919
2117 1 62.0737 10.552 655 110.597 1252.7 485.676
2118 0 62.0324 10.9943 682 112.78 1251.95 483.563
2119 0 64.0855 12.9515 830 111.257 1252.05 480.365
2120 0 68.0377 13.3749 910 112.519 1252.36 479.678
2121 0 68.1355 12.754 869 117.751 1251.44 479.407
2122 0 71.1644 13.7569 979 115.634 1250.81 475.687
2123 0 72.2841 12.9212 934 118.627 1250.88 475.222
2124 0 77.3176 13.8002 1067 114.833 1250.88 473.554
2125 0 76.2359 12.5531 957 118.953 1251.4 474.073
2126 0 78.2733 13.6828 1071 116.677 1251 471.991
2127 0 82.3245 13.2767 1093 117.469 1250.7 471.909
2128 0 85.302 13.165 1123 117.829 1250.36 471.378
2129 0 86.2677 13.829 1193 117.94 1250.48 467.955
2130 0 89.2569 13.758 1228 118.437 1250.99 466.08
2131 0 91.3044 14.4681 1321 117.833 1250.55 464.672
2132 0 94.2656 14.5652 1373 117.867 1250.74 467.105
2133 0 96.2708 14.2619 1373 120.527 1250.25 463.254
2134 0 98.3773 13.5499 1333 122.492 1249.99 461.124
2135 0 102.395 14.5613 1491 118.798 1250.08 459.568
2136 0 104.328 13.4192 1400 122.166 1249.76 456.277
2137 0 108.3 13.6103 1474 122.268 1250.8 458.282
2138 0 110.071 12.7735 1406 114.586 1250.61 459.47
2139 0 114.148 13.2459 1512 114.06 1249.72 455.1
2140 0 120.148 12.5262 1505 114.916 1250.74 455.267
2141 1 64.1221 10.8075 693 115.45 1249.69 482.685
2142 0 67.0929 12.8926 865 111.955 1250.37 478.909
2143 0 70.1153 12.1372 851 115.62 1250.08 479.888
2144 0 67.0957 10.9545 735 120.32 1249.45 476.267
2145 0 73.2791 12.7185 932 114.042 1249.73 478.16
2146 0 75.1068 12.2892 923 114.353 1250.25 478.09
2147 0 77.1418 11.7187 904 119.735 1249.03 473.407
2148 0 80.1809 13.0206 1044 117.257 1248.64 471.924
2149 0 83.1153 12.8978 1072 118.618 1249.45 470.901
2150 0 82.0815 12.4267 1020 121.17 1249.62 469.136
2151 0 86.1643 12.9752 1118 120.499 1248.83 467.104
2152 0 89.2231 13.9426 1244 120.884 1248.98 466.543
2153 0 91.1408 13.4956 1230 122.257 1249.3 464.585
2154 0 93.1381 12.2721 1143 125.738 1248.7 464.143
2155 0 97.0991 13.4399 1305 121.189 1249.77 463.175
2156 0 100.15 13.4698 1349 121.699 1249.74 460.274
2157 0 102.173 12.2831 1255 124.053 1250.28 458.793
2158 0 106.347 11.7822 1253 122.606 1249.71 456.398
2159 0 109.083 13.1918 1439 116.19 1249.65 450.355
2160 1 59.0701 10.1066 597 117.554 1251.11 475.499
2161 0 63.1242 10.3922 656 117.498 1251.54 475.413
2162 0 64.1158 12.1655 780 118.823 1252.39 479.412
2163 0 68.0805 13.5428 922 113.983 1251.73 479.115
2164 0 71.1115 13.2609 943 113.892 1251.55 476.789
2165 0 73.0932 11.5332 843 119.038 1251.06 476.721
2166 0 74.0824 13.1205 972 116.019 1251.25 475.745
2167 0 78.1218 11.4309 893 120.078 1250.93 475.342
2168 0 80.0895 13.1228 1051 117.633 1251.55 473.381
2169 0 83.1308 12.9074 1073 117.067 1251.45 472.715
2170 0 85.0994 12.691 1080 119.757 1251.31 469.753
2171 0 88.1887 11.9857 1057 121.779 1251.71 470.027
2172 0 91.1718 12.9316 1179 119.641 1251.96 469.196
2173 0 90.1555 11.8129 1065 125.402 1251.66 467.477
2174 0 95.1289 13.2452 1260 122.768 1251.58 463.793
2175 0 100.188 13.4148 1344 121.778 1251.2 464.093
2176 0 102.179 13.0849 1337 123.72 1251.12 462.422
2177 0 105.108 13.3386 1402 124.811 1251.29 459.978
2178 0 108.147 12.9731 1403 125.908 1251.46 457.699
2179 0 108.228 13.1851 1427 126.571 1252.41 456.411
2180 0 112.202 12.834 1440 128.099 1251.39 453.704
2181 0 116.192 12.6428 1469 127.807 1249.99 455.643
2182 0 119.144 12.4304 1481 128.452 1250.31 452.354
2183 0 123.227 13.3737 1648 123.85 1250.35 452.158
2184 0 128.277 13.5644 1740 123.097 1250.88 448.33
2185 0 134.262 13.6896 1838 121.565 1250.62 445.132
2186 1 74.1438 11.2484 834 111.908 1250.77 473.321
2187 0 76.1534 11.8839 905 113.575 1249.67 468.481
2188 0 78.1921 11.3439 887 113.301 1250.51 469.246
2189 0 78.1978 10.5502 825 116.428 1250.09 467.566
2190 0 84.2409 11.1347 938 115.151 1249.73 464.873
2191 0 84.1451 10.779 907 115.729 1250.67 465.009
2192 0 89.1501 11.6208 1036 112.773 1250.28 462.939
2193 0 90.258 10.2927 929 117.344 1250.02 461.475
2194 0 94.1457 11.6734 1099 112.794 1249.73 461.313
2195 0 97.1825 12.1112 1177 113.776 1249.88 459.876
2196 0 98.1489 11.6659 1145 114.477 1249.56 455.464
2197 0 103.173 12.2998 1269 111.292 1250.57 455.015
2198 0 102.185 11.4205 1167 114.331 1250.17 450.365
2199 0 110.199 11.5427 1272 112.151 1250.69 452.793
2200 0 113.137 11.9943 1357 110.426 1251.07 450.817
2201 0 117.135 12.4044 1453 111.301 1250.16 448.109
2202 0 118.177 9.70582 1147 117.278 1249.96 445.62
2203 0 126.188 12.1644 1535 112.149 1250.73 444.203
2204 1 66.1157 11.0413 730 102.942 1251.75 478.351
2205 0 66.1156 9.63464 637 105.805 1251.77 477.898
2206 0 70.1203 10.8243 759 106.054 1251.36 477.493
2207 0 71.1703 10.8332 771 106 1251.63 474.799
2208 0 75.1285 11.9262 896 103.429 1251.06 474.419
2209 0 78.1625 11.7704 920 103.988 1251.55 473.568
2210 0 76.11 10.5505 803 108.494 1251.63 471.496
2211 0 82.1074 12.5445 1030 103.067 1251.63 470.647
2212 0 84.1608 12.5236 1054 104.127 1251.52 471.536
2213 0 84.1279 12.1363 1021 106.436 1251.7 468.653
2214 0 89.2005 13.621 1215 102.882 1251.81 465.938
2215 0 89.1414 13.4505 1199 104.716 1251.47 467.337
2216 0 94.1312 13.7255 1292 103.72 1251.24 465.61
2217 0 94.1864 12.1567 1145 108.472 1251.29 462.19
2218 0 98.1104 12.7407 1250 106.883 1251.47 464.996
2219 0 98.1308 12.4222 1219 105.603 1251.57 460.537
2220 0 100.286 11.507 1154 107.223 1251.51 459.235
2221 0 102.188 12.6042 1288 106.028 1252.06 456.736
2222 0 106.104 12.0165 1275 106.865 1251.66 454.536
2223 0 109.281 12.0423 1316 106.429 1251.39 454.9
2224 0 113.207 12.4109 1405 105.626 1250.96 452.724
2225 0 115.223 12.1243 1397 106.69 1251.2 453.092
2226 1 60.1053 10.5482 634 101.391 1251.17 481.03
2227 0 61.1498 10.139 620 103.768 1251.95 476.882
2228 0 63.1378 12.053 761 98.8896 1251.9 476.819
2229 0 63.1022 9.92042 626 103.966 1250.94 474.177
2230 0 67.0393 10.9936 737 101.235 1250.34 471.828
2231 0 65.1008 11.4284 744 101.489 1250.83 470.946
2232 0 69.1808 13.0383 902 98.7151 1251.1 467.848
2233 0 70.1249 11.18 784 101.825 1251.36 468.046
2234 0 71.0931 10.6761 759 104.481 1250.57 466.105
2235 0 72.177 10.502 758 105.62 1250.86 463.65
2236 0 76.0904 11.8543 902 102.603 1250.95 465.259
2237 0 77.1518 11.5227 889 105.53 1250.9 461.78
2238 0 82.1107 11.4845 943 105.963 1250.89 463.275
2239 0 87.1486 11.1304 970 106.139 1250.68 462.241
2240 0 91.1338 11.9495 1089 104.438 1250.6 461.825
2241 0 94.228 12.4591 1174 105.228 1250.94 461.437
2242 0 96.1217 12.0264 1156 108.194 1249.87 458.036
2243 1 49.1667 9.45762 465 104.637 1251.11 483.002
2244 0 46.1091 9.13051 421 104.397 1250.25 476.708
2245 0 51.1246 9.7409 498 105.157 1250.5 477.95
2246 0 55.1286 12.7157 701 99.9444 1250.12 478.795
2247 0 56.1398 9.38729 527 106.615 1249.86 476.342
2248 0 53.0968 10.3773 551 106.904 1249.62 472.408
2249 0 61.1408 11.4326 699 102.916 1249.86 472.795
2250 0 61.0592 10.2523 626 105.225 1251.12 473.612
2251 0 63.0612 11.2906 712 103.934 1250.63 471.44
2252 0 64.1327 11.7257 752 104.287 1250.3 470.209
2253 0 67.1526 12.0621 810 104.544 1250.11 469.028
2254 0 68.0893 10.9856 748 107.178 1249.94 468.382
2255 0 72.1399 11.6718 842 105.472 1250.29 467.922
2256 0 74.1074 11.2404 833 106.81 1251.18 468.631
2257 0 76.0856 11.1848 851 107.603 1250.58 467.752
2258 0 76.0848 11.0929 844 136.064 1250.58 467.637
2259 0 80.1396 11.4425 917 108.677 1250.54 469.494
2260 0 82.136 11.3349 931 110.191 1250.83 465.456
2261 0 84.2929 10.4398 880 113.377 1250.26 462.701
2262 0 86.103 11.6488 1003 110.828 1250.34 464.462
2263 1 45.1051 8.89036 401 104.713 1250.15 486.975
2264 0 52.0425 10.4338 543 104.759 1250.42 487.913
2265 0 50.0604 10.3874 520 108.192 1250.69 488.077
2266 0 51.1464 10.1278 518 101.419 1249.79 490.95
2267 0 51.0647 9.674 494 104.237 1249.31 489.35
2268 0 53.0251 10.693 567 102.869 1249.41 487.422
2269 0 57.0838 11.4568 654 99.6865 1249.43 489.333
2270 0 57.0974 10.4558 597 102.727 1248.74 487.725
2271 0 59.1007 11.0659 654 102.417 1248.05 488.665
2272 0 58.0897 11.1552 648 126.66 1247.05 488.142
2273 0 64.1158 11.0893 711 101.606 1247.45 486.174
2274 0 65.0922 11.1841 728 102.511 1247.86 484.909
2275 0 66.0867 11.031 729 104.373 1247.54 483.007
2276 0 68.0694 11.6352 792 103.831 1246.6 480.778
2277 0 71.2145 11.3179 806 104.887 1246.79 480.391
2278 0 74.0655 10.8688 805 107.061 1246.21 478.427
2279 0 81.0562 14.1013 1143 108.929 1246.4 483.618
2280 0 82.0766 12.9513 1063 111.073 1245.99 482.133
2281 0 85.0835 13.5279 1151 110.831 1246.1 480.745
2282 0 84.1462 13.1438 1106 113.331 1245.95 478.654
2283 0 91.087 12.4496 1134 111.377 1246.05 482.21
2284 0 92.0768 11.6207 1070 114.399 1246.03 478.127
2285 0 94.1114 12.7296 1198 112.211 1245.66 474.296
2286 0 98.0506 12.2488 1201 112.968 1245.57 471.883
2287 0 101.197 11.0182 1115 115.45 1245.37 472.599
2288 0 103.179 11.5915 1196 114.709 1244.56 469.592
2289 1 57.0695 11.4422 653 112.142 1245.29 494.574
2290 0 60.1796 11.8645 714 109.053 1244.49 495.8
2291 0 61.0786 12.312 752 106.867 1244.79 494.447
2292 0 61.127 11.3534 694 109.301 1245.03 492.097
2293 0 66.0825 11.985 792 105.981 1244.63 493.471
2294 0 69.1207 14.0045 968 100.465 1246.6 490.301
2295 0 71.2033 13.0752 931 103.265 1246.21 488.632
2296 0 72.1178 11.8001 851 105.918 1246.09 489.92
2297 0 76.1664 13.4968 1028 101.673 1246.33 487.217
2298 0 77.1151 12.6434 975 104.055 1245.94 485.545
2299 0 81.1851 13.0689 1061 101.751 1245.95 483.117
2300 0 84.2337 11.658 982 104.849 1245.67 480.342
2301 0 86.1781 12.3117 1061 103.717 1245.62 478.249
2302 0 88.097 12.1911 1074 104.872 1245.41 474.931
2303 0 92.1684 12.1408 1119 105.543 1244.68 473.433
2304 0 93.1968 10.9982 1025 108.919 1245.51 471.577
2305 0 97.2219 12.7749 1242 106.419 1245.52 471.528
2306 0 100.167 12.8586 1288 106.178 1245.61 470.273
2307 1 54.1666 9.85847 534 106.219 1245.49 494.318
2308 0 56.1088 9.94496 558 107.482 1243.28 493.247
2309 0 57.2205 10.7479 615 104.966 1243.24 492.433
2310 0 59.4072 11.4632 681 103.555 1243.47 487.175
2311 0 57.0201 10.698 610 107.503 1245 487.841
2312 0 64.2516 10.3344 664 107.304 1244.79 490.483
2313 0 63.3033 11.4212 723 106.311 1244.69 487.873
2314 0 64.1456 10.102 648 108.586 1245.1 487.642
2315 0 66.3201 10.4192 691 108.323 1244.49 485.266
2316 0 73.301 11.7461 861 103.726 1245.12 484.279
2317 0 73.2558 11.0025 806 107.144 1245.26 482.86
2318 0 74.3197 11.4909 854 106.379 1244.86 481.475
2319 0 77.2839 11.7877 911 105.408 1244.52 481.671
2320 0 81.1643 13.0106 1056 101.289 1245.53 479.352
2321 0 85.0841 12.3407 1050 102.261 1245.26 477.096
2322 0 88.1379 11.9699 1055 103.486 1245.4 478.282
2323 0 89.1336 12.184 1086 104.473 1246.1 474.471
2324 0 92.1544 11.9039 1097 106.255 1245.99 473.143
2325 0 95.1458 12.7173 1210 104.459 1245.88 468.975
2326 1 53.0468 9.50104 504 108.659 1245.51 494.849
2327 0 53.0611 11.4585 608 104.469 1246.48 487.883
2328 0 52.0819 10.9635 571 107.133 1245.99 487.326
2329 0 55.0685 10.1147 557 109.005 1246.34 493.623
2330 0 59.1131 10.6914 632 100.957 1246.35 495.103
2331 0 59.0645 10.5647 624 103.144 1246.25 493.111
2332 0 62.0624 9.00707 559 104.082 1246.11 495.272
2333 0 63.0848 10.5414 665 101.218 1246.64 490.69
2334 0 68.1754 10.0036 682 100.56 1245.89 491.24
2335 0 68.1474 10.5947 722 101.856 1246.3 488.952
2336 0 70.2123 10.7104 752 100.949 1246.04 488.121
2337 0 75.1059 12.742 957 96.2612 1245.38 485.433
2338 0 73.1393 11.1841 818 101.685 1246.29 483.128
2339 0 77.1064 10.5439 813 102.672 1246.49 483.399
2340 0 80.1512 12.0148 963 101.125 1246.01 481.358
2341 0 84.2213 12.1466 1023 101.135 1246.11 480.971
2342 0 84.2416 11.0278 929 105.045 1246.01 477.904
2343 0 88.2757 11.4414 1010 104.45 1246.1 477.779
2344 0 89.2047 11.1765 997 106.848 1246.06 474.52
2345 1 50.0592 9.60862 481 107.499 1247.24 494.69
2346 0 51.0992 10.4894 536 106.222 1247.32 494.104
2347 0 53.0763 10.4567 555 106.766 1247.38 494.018
2348 0 54.0665 11.1899 605 106.922 1245.6 490.263
2349 0 59.0486 12.3288 728 102.927 1246.1 488.551
2350 0 58.0416 12.6289 733 103.883 1246.3 487.752
2351 0 61.0622 11.8895 726 105.663 1245.94 486.938
2352 0 63.0822 13.8232 872 101.056 1246.6 486.489
2353 0 65.0678 13.5705 883 102.805 1246.54 485.27
2354 0 62.066 11.3911 707 110.463 1246.32 486.211
2355 0 63.0353 10.3434 652 114.095 1246.39 485.397
2356 0 68.0649 10.9454 745 111.664 1246.47 484.411
2357 0 69.1049 11.403 788 109.157 1246.76 485.034
2358 0 70.062 11.1901 784 112.735 1246.97 481.444
2359 0 74.0388 12.4394 921 109.788 1246.9 480.041
2360 0 75.0633 12.4295 933 111.493 1247.41 477.428
2361 0 79.0656 12.1671 962 111.848 1247.98 474.822
2362 0 79.0729 11.3313 896 114.588 1247 477.702
2363 0 80.0668 11.0907 888 118.707 1247.29 473.195
2364 0 87.1131 12.0992 1054 114.289 1247.38 472.705
2365 0 89.1023 11.8291 1054 115.62 1247.81 469.851
2366 0 93.1501 12.1524 1132 117.913 1247.15 466.713
2367 0 94.1453 12.5126 1178 117.713 1246.66 465.466
2368 1 52.14 10.069 525 122.406 1246.6 484.417
2369 0 56.3518 12.138 684 116.591 1247.35 482.57
2370 0 53.069 10.2508 544 106.801 1248.66 476.401
2371 0 56.1951 10.6593 599 105.616 1248.81 476.01
2372 0 58.1044 10.9975 639 105.064 1248.42 472.607
2373 0 58.1043 11.0835 644 106.292 1248.72 474.783
2374 0 61.1218 10.6836 653 106.865 1248.65 474.329
2375 0 64.2689 10.7984 694 105.713 1248.8 473.794
2376 0 64.2707 11.3893 732 106.322 1249.03 471.668
2377 0 68.0627 11.8126 804 105.306 1248.73 469.522
2378 0 71.1364 11.8505 843 105.55 1248.37 467.719
2379 0 70.2513 11.7151 823 106.533 1249.1 469.211
2380 0 75.2832 12.2338 921 105.633 1249.52 466.013
2381 0 76.1342 11.8738 904 107.561 1249.41 464.586
2382 0 80.2028 13.5282 1085 103.261 1249.5 465.226
2383 0 82.1503 12.0998 994 108.264 1249.13 462.048
2384 0 83.1772 11.9504 994 109.485 1250.17 464.174
2385 0 86.2104 11.9823 1033 110.785 1250.17 460.582
2386 0 87.4196 12.6516 1106 110.665 1250.12 460.074
2387 0 92.2969 13.5107 1247 108.319 1249.49 457.755
2388 0 95.1609 12.915 1229 110.898 1249.31 461.046
2389 0 97.2524 13.5832 1321 109.939 1249.25 456.002
2390 0 100.158 13.3489 1337 111.494 1249.59 453.718
2391 0 102.272 12.7699 1306 115.746 1249.04 451.342
2392 0 105.101 13.0066 1367 115.178 1249.19 450.467
2393 1 60.0287 10.1452 609 121.212 1248.25 472.168
2394 0 60.0224 11.1458 669 124.685 1247.69 470.653
2395 0 64.0386 11.9928 768 112.345 1248.06 471.766
2396 0 64.0418 12.1639 779 111.734 1248.64 472.964
2397 0 68.0591 11.5488 786 111.487 1248.52 472.892
2398 0 71.1186 11.7691 837 111.256 1248.86 471.309
2399 0 73.0858 12.8069 936 109.5 1248.65 471.753
2400 0 76.1012 12.6673 964 109.75 1248.33 471.981
2401 0 76.0862 12.9196 983 111.665 1248.5 468.32
2402 0 78.1336 11.6979 914 116.257 1248.15 468.509
2403 0 83.131 13.2321 1100 111.47 1248.37 467.487
2404 0 83.072 11.7729 978 117.129 1247.87 464.139
2405 0 87.0924 12.1251 1056 115.562 1248.62 464.186
2406 0 91.0891 13.5362 1233 111.894 1248.02 463.159
2407 0 93.0876 13.7505 1280 112.186 1248.41 463.991
2408 0 97.1428 12.3427 1199 116.31 1248.41 460.673
2409 0 98.0402 12.4133 1217 116.777 1248.48 458.516
2410 0 103.086 13.154 1356 115.156 1248.92 456.169
2411 0 107.114 13.9478 1494 114.946 1248.96 454.21
2412 1 58.03 10.4601 607 113.303 1249.37 481.371
2413 0 59.1039 11.8774 702 111.815 1248.47 480.345
2414 0 61.1718 11.7211 717 113.823 1248.92 478.173
2415 0 62.1341 10.8153 672 111.092 1249.11 476.546
2416 0 62.0869 10.0988 627 113.482 1249.74 481.616
2417 0 65.1067 11.3352 738 110.507 1249.87 477.924
2418 0 68.1248 10.2312 697 111.24 1249.87 479.528
2419 0 71.138 12.7358 906 105.608 1249.87 476.6
2420 0 70.1389 11.6626 818 109.274 1249.5 476.199
2421 0 74.0711 10.6924 792 110.908 1249.59 474.312
2422 0 77.0767 11.2096 864 109.226 1249.43 475.23
2423 0 77.0598 10.9266 842 110.474 1249.52 474.648
2424 0 81.1198 10.9838 891 110.874 1248.76 469.364
2425 0 83.1186 11.3332 942 110.425 1248.94 465.659
2426 0 84.1002 11.1296 936 111.054 1248.93 466.868
2427 0 88.0635 11.5031 1013 108.355 1249.18 465.573
2428 0 92.1066 11.8124 1088 107.581 1249.53 463.767
2429 0 94.0795 11.4371 1076 108.921 1249.42 461.621
2430 0 97.0687 10.8686 1055 109.069 1249.21 464.834
2431 0 101.058 12.3395 1247 105.921 1249.46 462.209
2432 1 51.0735 9.94646 508 106.508 1250.01 482.343
2433 0 57.1715 11.4043 652 103.706 1248.96 483.753
2434 0 58.098 12.4617 724 108.236 1248.6 483.808
2435 0 59.099 12.3352 729 107.963 1248.84 484.134
2436 0 61.0799 12.6228 771 107.94 1247.99 480.678
2437 0 62.0647 12.7125 789 108.144 1248.49 480.594
2438 0 64.1067 13.3839 858 105.924 1248.62 480.97
2439 0 66.1044 12.9492 856 107.874 1248.44 478.74
2440 0 69.1373 14.6809 1015 103.215 1249.03 478.203
2441 0 71.0852 13.2517 942 107.792 1249.33 476.442
2442 0 73.0789 13.8344 1011 106.83 1248.76 476.93
2443 0 76.0814 13.525 1029 107.864 1248.85 475.26
2444 0 76.0547 13.5692 1032 110.328 1248.86 475.103
2445 0 80.0608 14.7013 1177 107.014 1248.47 475.614
2446 0 81.063 14.0878 1142 110.825 1248.21 473.126
2447 0 83.0816 14.4797 1203 110.337 1248.52 472.263
2448 0 85.1061 14.0178 1193 111.66 1248.57 470.263
2449 0 88.0796 14.6004 1286 110.728 1248.96 469.084
2450 0 93.1584 16.8101 1566 104.127 1248.43 468.365
2451 0 95.1514 15.1758 1444 109.499 1248.07 467.062
2452 0 95.1318 14.0226 1334 114.238 1248.5 464.351
2453 0 101.109 14.3409 1450 112.672 1249.03 465.541
2454 0 103.1 14.646 1510 112.328 1249.12 461.792
2455 0 106.098 14.5432 1543 111.764 1249.64 457.272
2456 0 111.164 14.1503 1573 112.456 1249.08 457.942
2457 0 113.099 14.421 1631 111.551 1249.05 454.693
2458 0 116.172 13.7641 1599 114.312 1248.91 454.035
2459 0 121.155 14.0646 1704 113.013 1248.95 453.123
2460 0 124.134 13.2357 1643 115.692 1248.89 449.128
2461 1 70.1461 13.0014 912 112.8 1249.27 477.857
2462 0 70.1934 12.7932 898 113.758 1249.47 474.875
2463 0 75.0921 13.9562 1048 109.984 1248.69 475.273
2464 0 77.0563 14.457 1114 108.828 1248.7 474.498
2465 0 77.0748 13.2209 1019 112.561 1249.91 473.071
2466 0 81.1031 14.6727 1190 109.041 1249.64 470.429
2467 0 83.1818 13.5727 1129 111.416 1249.17 468.762
2468 0 87.1693 14.1678 1235 107.215 1250.08 468.13
2469 0 89.2065 14.0236 1251 108.075 1249.94 466.572
2470 0 89.1186 12.7134 1133 112.719 1249.58 464.344
2471 0 95.1548 14.5552 1385 106.512 1250.23 465.142
2472 0 98.3249 14.6758 1443 105.406 1251 462.957
2473 0 101.262 14.0626 1424 108.224 1250.53 462.012
2474 0 102.145 14.4108 1472 108.559 1250.84 459.063
2475 0 108.38 14.6245 1585 107.924 1250.76 455.915
2476 0 108.223 12.927 1399 112.151 1250.7 451.817
2477 0 113.302 14.5276 1646 107.984 1250.85 451.639
2478 0 117.263 13.9516 1636 109.196 1250.66 450.186
2479 0 122.278 15.9391 1949 104.194 1251.04 445.895
2480 0 125.236 14.2771 1788 108.32 1249.17 443.492
2481 0 127.247 12.794 1628 111.217 1249.77 440.506
2482 0 130.222 12.8703 1676 111.286 1249.87 443.132
2483 1 77.1442 12.3276 951 109.994 1250.11 465.587
2484 0 82.1224 13.0293 1070 109.411 1250.17 461.763
2485 0 83.1628 12.5657 1045 109.896 1250.88 464.829
2486 0 85.1397 14.0475 1196 107.114 1250.41 463.34
2487 0 90.1737 13.4962 1217 107.88 1250.73 460.852
2488 0 92.1971 12.2672 1131 110.937 1250.3 460.27
2489 0 95.0932 12.798 1217 111.554 1250.06 457.079
2490 0 97.2326 12.4135 1207 113.135 1250.09 456.356
2491 0 102.202 13.9429 1425 109.758 1250.89 453.105
2492 0 104.087 13.4983 1405 112.517 1250.53 450.752
2493 0 108.163 12.703 1374 115.603 1250.35 449.145
2494 0 111.156 14.0344 1560 112.963 1250.26 448.428
2495 0 114.214 13.2296 1511 114.981 1249.42 443.426
2496 0 120.308 15.585 1875 108.139 1250.02 445.026
2497 0 121.174 15.0775 1827 111.691 1250.3 441.551
2498 0 125.196 13.5149 1692 115.515 1250.47 439.353
2499 0 124.2 13.7762 1711 158.096 1251.49 439.295
2500 0 133.251 13.0655 1741 115.416 1249.65 440.572
2501 0 136.221 12.8394 1749 116.149 1250.23 432.259
2502 0 141.345 12.4872 1765 117.066 1249.84 433.289
2503 1 82.1523 12.7568 1048 108.81 1250.19 460.619
2504 0 83.2158 11.4642 954 111.657 1250.25 461.297
2505 0 87.1864 12.9034 1125 109.525 1249.47 456.998
2506 0 90.1426 13.279 1197 108.606 1249.64 458.934
2507 0 93.2268 12.904 1203 110.111 1250.18 457.362
2508 0 93.1624 12.8056 1193 111.556 1250.12 457.718
2509 0 99.1297 13.8203 1370 110.065 1249.48 455.518
2510 0 101.254 12.4835 1264 114.064 1249.72 455.703
2511 0 103.102 12.4731 1286 116.549 1249.82 452.11
2512 0 107.249 11.8602 1272 118.544 1250.19 449.013
2513 0 113.135 13.8595 1568 113.699 1250.38 448.561
2514 0 114.179 12.8395 1466 117.497 1251.07 448.469
2515 0 118.164 13.3543 1578 118.084 1250.74 443.988
2516 0 122.189 13.0617 1596 119.805 1250.99 439.144
2517 0 126.254 13.758 1737 117.621 1250.83 444.933
2518 0 130.254 12.7827 1665 121.136 1251.28 441.022
2519 0 134.251 13.296 1785 120.033 1251.71 439.801
2520 0 138.32 13.6929 1894 119.602 1252.09 435.551
2521 0 143.216 14.0697 2015 118.304 1252.32 435.603
2522 0 147.207 13.5048 1988 121.483 1251.64 429.885
2523 0 152.205 13.7972 2100 120.411 1251.53 431.259
2524 0 160.164 14.5726 2334 117.511 1250.77 432.994
2525 1 83.152 11.7977 981 115.113 1250.07 469.987
2526 0 85.1119 12.1957 1038 113.714 1250.98 469.618
2527 0 87.2059 12.3845 1080 114.996 1251.96 460.883
2528 0 92.1559 13.6508 1258 110.944 1251.38 458.839
2529 0 95.1774 13.0493 1242 111.606 1251.5 460.415
2530 0 97.2042 13.0241 1266 112.813 1251.21 454.212
2531 0 100.118 11.9259 1194 116.254 1251.5 453.587
2532 0 104.238 13.2868 1385 112.719 1250.89 453.773
2533 0 110.197 11.7971 1300 113.788 1252.31 452.122
2534 0 115.172 13.1889 1519 110.167 1252.4 452.328
2535 0 119.128 12.2809 1463 113.535 1251.84 446.887
2536 0 121.204 12.153 1473 115.089 1251.19 444.012
2537 1 51.1802 10.4923 537 109.024 1252.26 478.845
2538 0 53.1066 12.3713 657 104.338 1252.41 478.653
2539 0 55.1545 10.661 588 108.389 1251.34 476.133
2540 0 57.1758 12.4878 714 107.476 1252.33 474.451
2541 0 58.1205 12.13 705 109.294 1252.53 473.904
2542 0 59.1692 10.9347 647 113.502 1252.09 476.495
2543 0 63.1492 14.1253 892 104.336 1252.5 474
2544 0 64.1429 13.2828 852 107.251 1253.05 471.525
2545 0 67.301 12.9419 871 107.556 1253.05 471.359
2546 0 69.1217 13.5413 936 106.871 1252.45 472.056
2547 0 68.1498 12.7367 868 110.918 1252.62 470.533
2548 0 71.2141 13.0873 932 109.063 1253.38 469.241
2549 0 73.1451 13.7945 1009 108.422 1253.13 467.862
2550 0 78.1725 13.6877 1070 108.555 1252.18 468.665
2551 0 78.1352 13.7454 1074 111.098 1252.34 467.813
2552 0 80.1105 13.0819 1048 112.981 1252.17 466.659
2553 0 84.1424 12.158 1023 114.967 1252.3 465.911
2554 0 89.1772 13.1199 1170 112.317 1252.3 464.651
2555 0 91.111 12.7427 1161 114.738 1251.94 461.363
2556 1 52.0325 12.0117 625 110.525 1253.06 481.915
2557 0 54.037 12.8801 696 109.079 1252.91 481.318
2558 0 55.1059 11.9588 659 112.205 1253.31 477.982
2559 0 57.2135 12.9165 739 110.512 1252.7 478.415
2560 0 56.2371 11.6115 653 114.976 1253.29 478.36
2561 0 61.2356 13.1623 806 109.519 1252.78 477.566
2562 0 62.1451 12.857 799 111.493 1251.94 475.409
2563 0 65.1054 13.578 884 109.2 1252.02 474.96
2564 0 66.2483 13.0569 865 110.446 1252.43 475.309
2565 0 68.2286 12.9271 882 110.74 1252.97 474.702
2566 0 69.1767 13.1547 910 110.684 1251.91 472.047
2567 0 72.0502 13.5739 978 108.687 1252.75 472.215
2568 0 73.3065 13.996 1026 108.738 1252.29 470.294
2569 0 72.1016 12.3853 893 112.98 1252.08 470.866
2570 0 79.1683 14.3997 1140 106.849 1251.78 468.375
2571 0 80.1416 13.0644 1047 109.866 1252.36 468.228
2572 0 84.2026 13.5506 1141 107.977 1252.42 466.337
2573 0 85.0891 12.1755 1036 111.883 1252.2 465.205
2574 0 87.1735 13.215 1152 110.671 1252.55 463.78
2575 0 90.1524 14.1205 1273 108.996 1252.55 461.836
2576 0 93.1775 12.5674 1171 109.993 1252.47 461.243
2577 0 96.1462 13.3963 1288 108.448 1251.46 458.552
2578 0 98.2003 13.4317 1319 109.496 1252.05 454.379
2579 1 57.1163 11.1177 635 105.676 1252.67 479.918
2580 0 59.1691 11.7291 694 104.805 1252.91 479.297
2581 0 60.0535 13.2215 794 102.683 1252.76 475.309
2582 0 62.0658 11.6812 725 110.004 1252.65 475.371
2583 0 64.0595 11.1771 716 111.624 1252.51 473.163
2584 0 65.1033 13.8703 903 106.592 1252.71 471.542
2585 0 67.2642 12.7111 855 108.292 1252.15 473.6
2586 0 70.1517 12.6013 884 108.534 1252.34 471.33
2587 0 72.2217 12.9601 936 107.682 1252.65 471.585
2588 0 74.0583 13.6514 1011 106.228 1252.73 470.033
2589 0 72.1099 11.9817 864 111.865 1252.93 468.302
2590 0 76.3564 13.8561 1058 108.456 1251.9 465.701
2591 0 78.1723 13.7517 1075 108.352 1252.25 467.776
2592 0 81.2477 13.785 1120 108.494 1251.99 464.607
2593 0 82.1465 13.8898 1141 108.823 1251.67 463.841
2594 0 83.2136 13.1709 1096 111.815 1252.24 461.283
2595 0 86.212 13.722 1183 110.324 1251.99 463.774
2596 0 91.2534 13.3365 1217 111.56 1252.19 460.576
2597 0 92.1214 13.3845 1233 112.543 1252.5 457.931
2598 0 96.2155 13.7296 1321 111.975 1252.83 456.448
2599 0 96.122 13.2124 1270 115.071 1252.67 455.246
2600 0 99.1808 12.9259 1282 116.686 1253.18 452.694
2601 0 102.323 13.6723 1399 115.351 1252.95 444.704
2602 0 106.229 14.1299 1501 114.805 1252.09 444.294
2603 0 107.221 12.4883 1339 119.019 1252.1 443.512
2604 0 113.255 13.1297 1487 116.467 1251.86 441.255
2605 1 65.0537 10.5605 687 114.325 1252.18 465.624
2606 0 62.053 11.8608 736 113.126 1250.78 459.716
2607 0 65.121 12.638 823 110.656 1252.65 463.645
2608 0 70.1371 12.9318 907 109.366 1253.14 462.434
2609 0 72.0944 11.4017 822 113.747 1252 461.945
2610 0 73.0967 11.5737 846 137.151 1251.02 462.687
2611 0 79.3139 12.8099 1016 106.929 1251.38 462.729
2612 0 83.1089 12.4174 1032 106.884 1251 463.291
2613 0 87.13 13.7955 1202 103.093 1251.46 462.514
2614 0 89.0788 13.5723 1209 104.644 1251.35 462.852
2615 0 88.0634 11.8778 1046 110.292 1251.69 457.259
2616 0 94.1042 13.7401 1293 105.292 1252.15 458.213
2617 0 97.1934 13.1799 1281 106.178 1251.54 457.414
2618 0 99.1308 14.1429 1402 104.546 1250.88 457.742
2619 0 104.119 11.9191 1241 108.474 1251.21 456.812
2620 0 105.153 13.7419 1445 105.836 1251.41 451.711
2621 0 110.199 13.0219 1435 106.56 1250.97 451.725
2622 0 116.338 12.4121 1444 107.502 1250.51 451.202
2623 1 63.1265 10.4394 659 103.73 1250.8 469.42
2624 0 68.1015 11.3213 771 100.411 1250.82 470.558
2625 0 71.0722 11.4813 816 96.7672 1251.55 474.911
2626 0 73.098 12.107 885 98.1401 1251.45 474.536
2627 0 73.122 11.3646 831 100.815 1251.58 474.708
2628 0 75.1103 9.972 749 103.907 1251.2 473.714
2629 0 80.2118 11.5694 928 100.387 1251.49 472.718
2630 0 82.2549 12.3032 1012 100.131 1251.37 470.562
2631 0 85.247 12.3406 1052 100.575 1251.73 469.805
2632 0 87.1012 11.5268 1004 102.41 1251.41 468.097
2633 0 90.2236 11.8927 1073 104.604 1250.71 468.255
2634 0 93.168 11.549 1076 105.494 1250.68 465.488
2635 0 93.1256 12.6066 1174 104.444 1250.53 463.813
2636 0 98.1299 12.565 1233 103.881 1251.05 462.2
2637 0 101.156 12.4758 1262 104.339 1250.95 462.1
2638 1 57.0912 9.98402 570 106.451 1251.18 483.077
2639 0 54.0965 10.0931 546 104.505 1250.38 481.031
2640 0 58.241 12.8432 748 96.9158 1250.01 480.377
2641 0 60.0615 11.2884 678 97.4189 1249.63 481.63
2642 0 62.0881 11.838 735 96.8939 1250.04 479.705
2643 0 63.0485 11.7846 743 96.6514 1249.07 482.528
2644 0 66.0706 11.1547 737 98.076 1249.43 478.213
2645 0 65.1069 11.8113 769 98.3771 1249.25 477.2
2646 0 70.0653 12.2885 861 104.041 1248.71 475.084
2647 0 71.0902 11.183 795 107.063 1248.51 473.727
2648 0 73.0817 11.8224 864 105.204 1248.72 472.957
2649 0 75.1233 11.8871 893 104.364 1248.96 473.333
2650 0 78.1044 12.9058 1008 102.729 1248.67 470.464
2651 0 78.152 11.1961 875 106.379 1248.85 470.954
2652 0 82.1502 12.6963 1043 102.719 1249.16 469.698
2653 0 85.1416 13.6948 1166 100.686 1248.15 470.316
2654 0 86.0594 12.8051 1102 103.209 1249.13 469.48
2655 0 87.1728 12.0106 1047 101.862 1248.97 463.36
2656 0 89.1277 12.3979 1105 101.838 1248.15 463.153
2657 0 92.0624 12.3829 1140 102.392 1249.09 464.348
2658 0 92.1182 12.3428 1137 105.033 1248.74 462.638
2659 0 97.215 12.7758 1242 104.554 1249.27 463.49
2660 0 100.232 12.4013 1243 104.943 1249.29 461.882
2661 0 105.139 12.5739 1322 104.253 1248.16 460.447
2662 0 107.062 12.404 1328 105.855 1248.78 457.036
2663 1 59.0541 11.2778 666 99.4565 1249.31 483.153
2664 0 62.0235 12.1728 755 99.1311 1248.54 481.562
2665 0 61.092 11.7364 717 102.947 1249.36 481.245
2666 0 64.1554 12.4697 800 108.788 1249.43 478.328
2667 0 67.0453 12.9166 866 107.117 1249.5 480.435
2668 0 71.2037 13.3982 954 105.484 1249.72 479.563
2669 0 71.1073 11.785 838 109.292 1249.57 478.479
2670 0 73.2275 12.9733 950 107.302 1249.86 476.363
2671 0 76.1136 13.8346 1053 105.259 1249.53 475.275
2672 0 76.0777 11.6328 885 110.957 1250.45 474.838
2673 0 80.147 13.8371 1109 105.8 1249.83 472.603
2674 0 80.1593 13.835 1109 151.388 1249.84 472.658
2675 0 82.1706 12.6444 1039 108.208 1249.41 472.241
2676 0 86.0598 12.073 1039 108.166 1249.68 472.9
2677 0 88.0642 12.048 1061 103.698 1250.32 468.745
2678 0 91.0704 12.2433 1115 103.23 1250.42 468.15
2679 0 89.0866 11.9322 1063 105.589 1249.84 466.278
2680 0 95.0671 12.5175 1190 105.876 1250.02 466.849
2681 0 95.1471 12.0655 1148 107.93 1249.23 464.027
2682 0 101.15 12.1305 1227 105.934 1250.1 463.978
2683 0 105.276 11.9496 1258 106.975 1250.05 459.403
2684 0 107.247 12.2148 1310 107.64 1249.84 456.978
2685 1 59.1072 10.4048 615 105.958 1250.47 481.966
2686 0 62.2053 10.9958 684 104.177 1250.35 480.409
2687 0 67.1306 11.6638 783 99.4751 1249.97 481.032
2688 0 68.085 11.9116 811 99.4599 1249.48 479.149
2689 0 68.0937 10.9996 749 102.26 1249.16 478.171
2690 0 71.0397 12.6127 896 98.8951 1249.6 476.839
2691 0 74.0781 12.9188 957 98.5705 1250.09 473.945
2692 0 74.0734 11.6641 864 100.84 1249.88 474.877
2693 0 78.1327 11.4549 895 108.326 1250.04 471.535
2694 0 79.0594 13.395 1059 104.655 1250.13 470.77
2695 0 81.0618 11.4974 932 108.357 1250.01 470.834
2696 0 82.0455 10.421 855 109.313 1249.64 471.115
2697 0 84.0442 11.1965 941 106.942 1250.01 468.612
2698 0 88.1171 11.2691 993 106.638 1250.25 465.622
2699 0 91.1379 12.1245 1105 105.605 1249.49 463.18
2700 0 94.1626 12.2448 1153 106.033 1249.33 463.202
2701 0 95.1556 10.5722 1006 110.421 1249.4 459.682
2702 0 99.1434 10.4899 1040 110.374 1249.41 462.085
2703 0 103.242 11.2551 1162 108.903 1249.6 460.064
2704 0 108.171 12.3323 1334 105.073 1250.53 462.125
2705 0 111.358 12.0871 1346 112.117 1249.96 459.105
2706 0 113.186 12.0421 1363 109.426 1249.44 458.45
2707 0 116.157 12.3454 1434 106.795 1249.94 456.962
2708 1 61.0487 10.3032 629 104.895 1249.87 480.488
2709 0 66.0518 11.8241 781 101.157 1250.65 479.57
2710 0 67.1946 12.2778 825 101.907 1250.62 477.474
2711 0 70.1114 11.6101 814 102.877 1250.68 477.189
2712 0 72.1614 11.8346 854 103.15 1250.41 476.792
2713 0 72.1412 10.826 781 108.005 1250.6 473.762
2714 0 75.1832 12.2634 922 107.949 1250.96 471.746
2715 0 80.0862 11.9746 959 107.46 1250.38 472.283
2716 0 81.1046 11.1461 904 110.033 1250.63 470.53
2717 0 84.1123 11.3539 955 107.914 1250.42 472.01
2718 0 88.0541 12.833 1130 106.414 1250.56 467.081
2719 0 89.0984 11.2572 1003 110.244 1251.26 465.879
2720 0 92.0602 12.0356 1108 108.23 1250.64 464.532
2721 0 95.1139 12.3326 1173 108.438 1251.16 464.136
2722 0 99.1117 12.0975 1199 108.846 1250.77 463.795
2723 0 101.158 12.2284 1237 109.11 1251.74 461.908
2724 0 103.084 12.0775 1245 111.7 1250.63 460.748
2725 0 105.171 11.3339 1192 113.226 1250.67 459.158
2726 0 109.118 11.153 1217 113.76 1250.3 454.961
2727 0 113.088 11.9022 1346 112.964 1251.27 453.563
2728 1 65.0885 10.8007 703 106.745 1250.79 479.391
2729 0 68.1857 11.8353 807 105.949 1250.88 478.582
2730 0 69.1499 12.9718 897 106.46 1251.18 475.676
2731 0 71.109 11.9675 851 109.662 1249.93 475.934
2732 0 72.0956 11.6373 839 112.439 1250.43 474.023
2733 0 76.1754 12.2087 930 110.894 1249.53 474.354
2734 0 78.2071 13.119 1026 110.865 1249.74 472.522
2735 0 79.0543 12.5104 989 112.944 1248.94 470.239
2736 0 81.0726 12.31 998 114.33 1248.43 468.38
2737 0 82.0546 13.2473 1087 113.363 1248.46 468.636
2738 0 85.0773 13.0117 1107 114.809 1248.92 467.566
2739 0 86.0456 12.9466 1114 117.267 1248.89 466.362
2740 0 89.1155 13.4657 1200 115.63 1249.86 467.748
2741 0 92.0455 12.5047 1151 118.8 1248.97 465.161
2742 0 94.0961 13.6775 1287 116.57 1249.3 464.49
2743 0 92.1188 12.2016 1124 119.314 1251.35 463.642
2744 0 97.1059 13.1815 1280 115.334 1251.81 465.553
2745 0 101.195 13.8248 1399 114.332 1251.85 462.524
2746 0 104.138 12.589 1311 117.439 1251.52 459.758
2747 0 106.112 12.0062 1274 120.072 1251.51 458.231
2748 0 110.145 13.0374 1436 116.705 1251.62 457.187
2749 0 110.122 12.4226 1368 119.878 1251.61 454.458
2750 0 116.08 11.7419 1363 119.035 1251.63 455.075
2751 0 116.181 11.6628 1355 121.736 1252.18 448.32
2752 0 118.113 12.378 1462 120.362 1251.81 448.541
2753 0 123.343 11.9342 1472 121.62 1250.59 447.075
2754 0 128.211 12.3469 1583 119.098 1250.68 448.02
2755 0 129.215 12.042 1556 121.266 1250.77 446.288
2756 0 133.185 11.5254 1535 123.081 1251.65 442.306
2757 0 138.212 12.0973 1672 120.95 1251.44 442.368
2758 0 145.158 13.2683 1926 116.756 1250.87 437.563
2759 0 149.18 12.4011 1850 119.088 1251.38 434.385
2760 1 92.1698 10.1009 931 117.45 1250.92 461.684
2761 0 95.2407 11.8122 1125 113.88 1251.71 456.533
2762 0 96.1893 12.4962 1202 114.442 1250.82 454.166
2763 0 96.1893 12.5066 1203 141.262 1249.83 454.236
2764 0 103.185 13.2383 1366 112.253 1250.72 452.576
2765 0 107.19 12.6784 1359 113.372 1250.62 451.925
2766 0 106.08 12.9525 1374 114.154 1251.28 449.628
2767 0 111.142 12.4526 1384 114.959 1250.94 449.993
2768 0 114.157 12.6229 1441 115.455 1251.46 453.964
2769 0 116.207 12.9854 1509 116.406 1251.65 453.476
2770 0 119.245 13.6191 1624 116.32 1251.73 448.19
2771 0 121.183 13.6653 1656 116.199 1251 448.873
2772 0 123.241 12.1956 1503 121.027 1250.65 446.345
2773 0 125.251 11.1616 1398 121.526 1250.97 441.055
2774 0 134.22 13.5822 1823 115.29 1250.49 442.11
2775 0 134.22 13.6492 1832 146.781 1249.49 442.057
2776 0 142.3 13.1202 1867 117.798 1249.76 433.651
2777 1 82.1127 10.9605 900 117.607 1250.71 464.698
2778 0 84.2224 12.2295 1030 115.108 1250.77 464.776
2779 0 86.0964 11.4407 985 116.671 1250.45 463.18
2780 0 91.1528 11.8263 1078 116.11 1250.48 460.426
2781 0 94.1515 12.9685 1221 113.305 1250.3 459.081
2782 0 96.1267 12.1402 1167 115.863 1249.84 456.773
2783 0 99.1682 12.6855 1258 115.443 1249.64 454.558
2784 0 105.104 13.3772 1406 117.129 1250.47 458.916
2785 0 101.219 14.7896 1497 122.962 1248.66 456.237
2786 0 104.264 15.2978 1595 123.651 1249.74 458.468
2787 0 103.18 12.6284 1303 128.928 1249.98 462.032
2788 0 105.136 12.5837 1323 126.712 1249.64 458.819
2789 0 107.101 11.858 1270 128.643 1249.46 456.874
2790 0 113.074 13.5398 1531 122.651 1250.01 455.746
2791 0 117.109 12.8 1499 122.098 1249.43 456.498
2792 0 119.039 12.7018 1512 122.725 1249.7 453.921
2793 0 123.165 12.7227 1567 122.488 1249.8 451.753
2794 0 125.109 12.3332 1543 123.407 1250.18 449.478
2795 0 129.247 11.7992 1525 125.464 1250.03 446.791
2796 1 73.0617 10.4843 766 121.978 1250.23 476.858
2797 0 77.1384 12.3544 953 118.413 1249.5 475.01
2798 0 82.1162 14.0533 1154 110.719 1249.86 473.242
2799 0 85.1457 13.7529 1171 113.956 1249.74 472.003
2800 0 87.2204 14.2627 1244 109.227 1250.22 469.599
2801 0 86.1514 12.8147 1104 114.526 1249.53 469.503
2802 0 90.1731 12.6867 1144 113.566 1249.44 466.189
2803 0 93.0962 14.3615 1337 109.283 1249.5 466.195
2804 0 94.2283 12.9261 1218 113.374 1250.15 464.447
2805 0 97.1292 13.0857 1271 114.344 1250.3 463.239
2806 0 99.159 12.6968 1259 116.899 1250.19 463.59
2807 0 102.22 13.2361 1353 120.089 1249.66 461.094
2808 0 104.211 12.158 1267 122.42 1249.62 460.652
2809 0 108.174 13.6262 1474 119.678 1249.91 457.185
2810 0 111.275 13.8665 1543 119.242 1249.93 457.019
2811 0 113.198 13.631 1543 119.801 1249.91 458.321
2812 0 117.12 13.3368 1562 121.072 1249.3 453.408
2813 0 120.258 14.1612 1703 119.53 1249.39 452.668
2814 0 122.276 13.5185 1653 121.319 1249.73 450.276
2815 0 126.172 14.829 1871 117.697 1249.89 450.269
2816 0 130.261 15.0083 1955 118.321 1248.97 447.042
2817 0 133.121 15.5122 2065 118.964 1249.69 445.335
2818 0 137.129 14.1254 1937 121.594 1249.39 444.8
2819 0 141.192 14.505 2048 120.916 1249.06 443.628
2820 0 146.192 14.7067 2150 122.266 1248.79 440.329
2821 0 148.191 14.1439 2096 124.077 1249.65 436.065
2822 0 154.341 14.3384 2213 122.546 1249.24 434.267
2823 1 76.1301 12.7282 969 117.965 1250.87 475.384
2824 0 79.1156 11.9193 943 119.705 1250.02 473.222
2825 0 82.051 12.9066 1059 117.338 1249.17 471.101
2826 0 84.1455 12.9538 1090 118.16 1249.4 470.295
2827 0 86.1406 12.5376 1080 119.613 1249.82 470.225
2828 0 87.0827 13.068 1138 119.828 1249.03 468.414
2829 0 89.0314 12.3552 1100 113.323 1249.21 468.462
2830 0 90.1646 11.3348 1022 115.263 1248.65 469.639
2831 0 95.1166 12.3533 1175 113.579 1249.06 466.077
2832 0 98.0891 12.876 1263 113.065 1249.2 463.972
2833 0 102.092 12.0969 1235 116.032 1248.85 463.382
2834 0 106.195 12.1852 1294 115.206 1249.83 461.286
2835 0 110.253 12.8704 1419 115.147 1249.5 459.469
2836 0 113.22 12.0296 1362 119.033 1249.08 457.061
2837 1 55.2274 10.8642 600 115.447 1249.29 483.943
2838 0 57.2765 11.0866 635 115.595 1249.45 483.069
2839 0 60.0709 9.12255 548 111.02 1248.95 485.562
2840 0 60.0608 9.04084 543 112.07 1249.15 483.884
2841 0 64.0654 9.74005 624 108.13 1249.41 482.623
2842 0 64.0743 9.33291 598 110.017 1250.12 481.557
2843 0 68.058 10.9612 746 106.815 1249.58 480.227
2844 0 69.1183 8.52162 589 111.219 1249.32 481.302
2845 0 71.0803 10.1153 719 109.943 1249.36 477.299
2846 0 74.0249 10.8612 804 108.377 1249.13 476.303
2847 0 75.1322 11.4066 857 107.498 1249.5 474.678
2848 0 78.1683 10.8228 846 109.314 1249.95 474.204
2849 0 80.123 10.6586 854 109.789 1249.9 473.3
2850 0 83.0674 10.8346 900 114.866 1249.39 467.201
2851 0 87.0732 11.542 1005 111.982 1248.87 470.178
2852 0 88.098 12.0888 1065 112.255 1249.79 467.33
2853 0 92.1572 11.2417 1036 112.841 1248.8 468.468
2854 0 96.1131 11.1223 1069 114.53 1248.94 464.383
2855 0 98.0372 12.0362 1180 112.936 1248.77 463.548
2856 0 99.072 10.8002 1070 115.816 1249.07 464.315
2857 0 104.197 10.2114 1064 119.452 1248.85 459.67
2858 0 106.113 11.271 1196 118.247 1248.56 457.665
2859 0 111.266 12.4027 1380 115.451 1248.79 456.972
2860 0 111.178 12.6734 1409 116.536 1248.18 453.05
2861 0 116.223 11.977 1392 118.662 1248.53 453.367
2862 0 118.207 11.2176 1326 121.67 1248.39 450.922
2863 0 123.218 12.3439 1521 118.661 1248 451.051
2864 0 127.097 12.5573 1596 118.555 1248.59 450.12
2865 0 128.162 12.6481 1621 119.887 1247.4 447.556
2866 1 71.0951 11.1963 796 110.448 1248.75 478.452
2867 0 72.1211 11.2311 810 110.895 1248.5 479.552
2868 0 74.0861 10.8927 807 113.24 1248.6 475.793
2869 0 75.1416 11.5116 865 113.251 1249.57 473.735
2870 0 77.1544 10.5503 814 116.044 1248.79 474.025
2871 0 79.1522 11.7369 929 116.073 1248.4 470.944
2872 0 82.171 12.3158 1012 113.801 1248.34 470.601
2873 0 84.0942 11.8557 997 115.011 1248.41 471.463
2874 0 86.1292 11.6917 1007 116.247 1248.92 469.702
2875 0 89.1629 11.9556 1066 115.642 1248.87 471.013
2876 0 89.2323 10.6912 954 122.406 1248.99 465.83
2877 0 95.241 12.2111 1163 118.055 1248.86 467.948
2878 0 95.3022 12.2138 1164 120.247 1248.97 463.875
2879 0 100.242 13.3177 1335 115.7 1248.45 466.2
2880 0 99.2918 12.4884 1240 121.118 1248.74 459.659
2881 0 104.213 13.5203 1409 119.066 1248.61 459.284
2882 0 106.142 12.6057 1338 121.376 1248.97 459.431
2883 0 109.31 13.1827 1441 120.677 1248.89 456.798
2884 0 113.16 13.344 1510 120.076 1248.94 456.801
2885 1 64.1797 11.9041 764 115.686 1249.6 481.156
2886 0 66.1685 11.5765 766 117.875 1250.08 480.739
2887 0 66.0795 11.804 780 119.213 1249.42 480.764
2888 0 69.0959 12.0702 834 117.199 1249.36 477.982
2889 0 72.1169 11.3704 820 123.139 1249.74 478.294
2890 0 73.1313 11.4452 837 125.922 1250.13 477.079
2891 0 76.1208 13.2421 1008 121.125 1249.63 476.058
2892 0 76.0903 11.2235 854 126.666 1249.27 472.534
2893 0 80.1101 11.7214 939 125.116 1249.58 472.832
2894 0 83.0595 12.0998 1005 124.212 1249.24 470.517
2895 0 84.033 10.2936 865 127.754 1248.92 472.442
2896 0 86.2294 12.2696 1058 124.494 1248.67 467.538
2897 0 89.1466 11.1165 991 126.928 1248.39 466.171
2898 0 93.1117 12.6837 1181 121.262 1248.25 465.929
2899 0 93.0828 11.8282 1101 125.057 1248.66 465.296
2900 0 97.1411 11.9105 1157 123.655 1248.55 465.295
2901 0 99.1162 12.8839 1277 122.848 1247.88 461.687
2902 0 103.228 13.0294 1345 120.08 1248.99 460.048
2903 0 107.17 12.7181 1363 121.066 1248.71 455.008
2904 0 110.231 11.8388 1305 122.858 1248.12 456.659
2905 0 115.161 12.8516 1480 119.847 1248.16 454.403
2906 1 67.0933 11.2977 758 114.226 1248.68 478.916
2907 0 66.139 12.0353 796 116.446 1248.92 473.858
2908 0 70.0509 11.6201 814 114.857 1249.47 475.514
2909 0 72.034 11.4946 828 113.949 1249.9 475.54
2910 0 74.1032 11.8618 879 114.563 1249.73 473.289
2911 0 76.0854 11.1979 852 116.671 1249.18 471.231
2912 0 77.1442 11.3554 876 125.661 1249.01 470.704
2913 0 81.1308 12.6586 1027 122.041 1249.29 469.265
2914 0 84.1038 12.544 1055 121.613 1249.01 468.634
2915 0 86.1237 11.8434 1020 123.668 1249.48 466.983
2916 0 87.174 12.1366 1058 123.327 1249.77 465.346
2917 0 93.1677 12.5902 1173 118.858 1249.67 467.318
2918 0 94.1045 12.3374 1161 121.413 1249.27 464.686
2919 0 95.1139 12.6795 1206 122.289 1249.88 462.225
2920 0 97.1506 12.6196 1226 124.209 1249.13 460.684
2921 0 100.086 12.1696 1218 124.986 1248.98 462.745
2922 0 102.102 12.2132 1247 127.057 1249.27 458.182
2923 0 105.204 12.1573 1279 127.539 1249.01 458.557
2924 0 111.133 13.5424 1505 124.052 1249.26 455.441
2925 0 109.214 11.0517 1207 132.119 1248.76 454.334
2926 0 117.221 13.129 1539 125.742 1249.64 450.875
2927 0 119.167 11.7734 1403 130.229 1249.5 447.679
2928 1 63.0279 9.26573 584 124.656 1249.65 477.99
2929 0 69.0403 10.9791 758 120.112 1249.34 475.15
2930 0 71.0493 11.2457 799 120.35 1249.33 473.945
2931 0 74.0287 11.3334 839 119.277 1249.14 475.856
2932 0 75.0354 11.9277 895 119.202 1248.91 472.946
2933 0 78.0393 11.2251 876 119.492 1249.06 472.34
2934 0 80.0386 12.0067 961 119.048 1248.61 468.513
2935 0 83.0962 11.7695 978 118.353 1248.58 468.307
2936 0 85.061 11.8856 1011 117.71 1248.98 467.727
2937 0 89.1262 12.8694 1147 115.33 1248.72 466.564
2938 0 90.1188 11.5958 1045 119.253 1249.12 463.144
2939 0 94.1242 12.3135 1159 117.676 1249.79 464.67
2940 0 97.2281 12.1158 1178 119.885 1248.71 458.606
2941 0 101.184 13.0456 1320 115.69 1249.12 460.769
2942 0 105.097 14.1298 1485 113.854 1249.29 456.104
2943 0 105.165 10.8306 1139 122.519 1248.57 455.114
2944 0 111.226 11.2653 1253 120.25 1249.07 455.393
2945 0 112.193 12.2111 1370 118.953 1248.76 453.378
2946 0 117.115 13.1324 1538 116.945 1248.13 450.245
2947 0 118.352 11.8291 1400 121.29 1248.57 449.513
2948 0 124.292 13.4361 1670 117.81 1248.44 446.746
2949 0 128.205 13.65 1750 117.008 1249.12 448.286
2950 0 130.203 12.8415 1672 121.182 1248.76 443.507
2951 0 133.168 12.5631 1673 122.622 1248.68 440.24
2952 0 141.282 13.6111 1923 119.509 1248.82 441.231
2953 1 82.2065 11.0697 910 116.163 1248.81 471.016
2954 0 86.2882 12.1453 1048 114.564 1248.76 468.623
2955 0 85.1353 11.4524 975 119.279 1248.07 468.816
2956 0 90.1278 13.1258 1183 120.631 1249.04 466.422
2957 0 91.1251 12.2689 1118 123.735 1249.61 464.411
2958 0 92.1665 11.7939 1087 127.729 1249.04 461.192
2959 0 96.1557 13.083 1258 123.36 1249.08 462.203
2960 0 98.1437 13.2459 1300 124.287 1249.36 458.901
2961 0 101.231 12.2789 1243 125.867 1249.23 460.145
2962 0 104.131 12.5899 1311 124.718 1248.83 459.651
2963 0 107.137 12.414 1330 120.074 1249.29 455.789
2964 0 108.173 11.7682 1273 123.679 1248.71 454.528
2965 0 111.129 12.301 1367 122.587 1248.95 454.214
2966 0 116.096 12.4466 1445 123.128 1248.05 453.024
2967 0 118.206 12.1229 1433 126.026 1248.34 451.967
2968 0 124.308 13.3701 1662 123.709 1247.49 449.265
2969 0 127.138 13.0409 1658 125.866 1247.54 445.798
2970 0 130.129 13.2023 1718 125.819 1248.58 444.473
2971 0 133.115 13.3193 1773 126.795 1248.44 442.427
2972 0 137.303 13.7214 1884 126.562 1248.63 436.597
2973 0 141.178 12.6861 1791 128.867 1248.3 440.88
2974 0 145.25 12.5715 1826 130.782 1248.43 435.589
2975 1 83.0703 10.7259 891 123.395 1248.91 470.497
2976 0 86.06 11.2131 965 123.208 1249.25 469.49
2977 0 88.2204 13.1035 1156 119.581 1248.1 468.34
2978 0 90.1314 11.4499 1032 124.775 1248.58 464.682
2979 0 92.177 12.4977 1152 123.086 1248.05 464.811
2980 0 96.1425 12.2006 1173 125.048 1247.86 461.85
2981 0 99.1615 12.6158 1251 123.638 1247.68 462.357
2982 0 101.146 12.6154 1276 125.089 1247.97 458.856
2983 0 104.122 12.8023 1333 125.593 1248.12 458.29
2984 0 105.132 12.6127 1326 124.831 1249.34 460.155
2985 0 108.149 12.6585 1369 125.45 1249.17 456.691
2986 0 111.15 13.3423 1483 123.728 1248.57 458.036
2987 0 114.128 12.7664 1457 126.579 1248.26 454.463
2988 0 116.202 14.1134 1640 129.53 1248.26 451.937
2989 0 119.261 12.3259 1470 133.573 1248.97 453.373
2990 0 120.263 11.9405 1436 136.247 1248.2 450.124
2991 0 125.226 13.4078 1679 131.271 1248.45 448.154
2992 0 129.252 12.5182 1618 134.54 1248.4 446.27
2993 0 134.403 12.6783 1704 135.178 1247.5 443.376
2994 0 138.256 13.786 1906 131.502 1248.18 439.956
2995 0 144.278 12.6977 1832 133.253 1248.38 437.592
2996 1 84.1152 11.6269 978 125.606 1248.4 467.036
2997 0 83.1654 10.6535 886 127.885 1248.48 466.104
2998 0 88.1192 10.5085 926 120.242 1248.11 467.548
2999 0 88.1512 9.76731 861 123.151 1247.74 462.316
3000 0 94.1627 12.3722 1165 114.91 1248.12 462.181
3001 0 95.1496 10.9722 1044 117.995 1248.11 464.13
3002 0 98.1368 10.9643 1076 118.744 1247.96 461.113
3003 0 101.131 11.2626 1139 117.776 1248.9 459.465
3004 0 103.1 11.0863 1143 119.138 1248.46 459.17
3005 0 107.121 11.7998 1264 117.202 1248.33 457.506
3006 0 110.18 12.0984 1333 116.53 1248.02 452.318
3007 0 113.118 11.4748 1298 124.378 1248.24 450.467
3008 0 116.052 10.7883 1252 125.292 1248.15 448.275
3009 0 119.084 10.6479 1268 122.196 1247.93 448.961
3010 0 126.059 11.8357 1492 119.097 1247.87 448.06
3011 1 71.0955 10.085 717 114.777 1248.5 472.814
3012 0 76.0245 10.8386 824 111.86 1248.7 472.765
3013 0 78.0988 10.3715 810 112.991 1249.84 470.686
3014 0 82.0994 11.0841 910 119.025 1250.13 469.097
3015 0 81.0751 9.99074 810 122.137 1249.04 468.7
3016 0 84.1602 10.6939 900 121.156 1248.63 467.651
3017 0 89.081 12.5167 1115 116.546 1248.4 466.37
3018 0 90.1199 11.5735 1043 119.435 1248.75 466.621
3019 0 95.1405 12.3607 1176 118.385 1248.69 463.014
3020 0 97.1949 12.0274 1169 119.13 1248.54 463.502
3021 0 100.076 11.6312 1164 118.269 1247.7 464.549
3022 0 103.165 12.669 1307 116.262 1248.37 461.324
3023 0 104.05 12.0134 1250 118.783 1248.33 460.57
3024 0 105.101 11.5508 1214 121.394 1247.27 456.985
3025 0 106.111 11.2807 1197 123.275 1246.64 456.848
3026 0 110.084 12.7811 1407 118.392 1247.64 455.223
3027 0 114.145 10.8897 1243 114.764 1248.28 456.726
3028 0 118.132 11.8596 1401 115.095 1248.42 455.807
3029 0 121.155 12.2241 1481 117.471 1247.73 452.907
3030 1 69.1173 10.7064 740 106.686 1247.96 479.745
3031 0 72.1178 11.3703 820 114.501 1248.4 476.43
3032 0 74.2454 10.2498 761 112.578 1247.18 473.635
3033 0 76.1184 12.4806 950 108.973 1248.05 472.034
3034 0 77.0766 11.2485 867 117.787 1249.07 475.014
3035 0 81.0874 12.7887 1037 113.841 1249.34 474.751
3036 0 85.0771 12.6121 1073 114.746 1248.94 471.595
3037 0 87.0703 12.7598 1111 115.502 1248.68 470.172
3038 0 88.0293 11.8483 1043 118.503 1249.7 469.297
3039 0 91.057 12.3988 1129 115.512 1248.94 471.318
3040 0 92.1046 11.2589 1037 120.716 1248.89 468.272
3041 0 95.0626 11.2978 1074 120.459 1249.06 468.6
3042 0 98.1513 12.0019 1178 119.112 1248.86 465.118
3043 0 101.085 11.7723 1190 118.208 1249.76 462.37
3044 0 102.101 11.6552 1190 120.338 1249.76 460.528
3045 0 108.251 12.3417 1336 118.323 1249.72 460.353
3046 0 107.166 11.7854 1263 117.511 1249.67 456.377
3047 0 107.105 11.0265 1181 123.776 1249.6 455.77
3048 0 111.155 11.7134 1302 124.634 1249.45 456.065
3049 0 114.134 12.1436 1386 114.542 1250.13 455.576
3050 1 60.0446 7.92744 476 123.368 1250.52 481.036
3051 0 63.0628 11.655 735 119.46 1249.55 480.06
3052 0 65.0359 11.3476 738 116.24 1249.47 480.707
3053 0 65.0661 11.2962 735 116.58 1248.46 479.512
3054 0 67.06 12.2279 820 113.077 1249.65 478.773
3055 0 70.065 10.2619 719 115.675 1249.61 479.156
3056 0 72.0745 10.8638 783 113.923 1249.67 476.529
3057 0 74.1002 10.5533 782 113.56 1249.09 476.414
3058 0 77.0806 11.4426 882 112.67 1248.82 472.502
3059 0 77.0847 11.4938 886 112.321 1249.27 472.377
3060 0 81.0609 11.954 969 110.593 1248.84 472.52
3061 0 81.0823 11.3958 924 115.762 1248.64 466.97
3062 0 85.1193 11.807 1005 114.88 1248.57 468.641
3063 0 87.0989 12.8015 1115 113.792 1248 467.994
3064 0 89.1209 12.3989 1105 115.98 1248.01 465.857
3065 0 91.2256 11.9484 1090 118.688 1247.77 462.38
3066 0 94.1857 13.2504 1248 115.26 1248 461.443
3067 0 94.1925 12.4851 1176 119.668 1246.98 461.793
3068 0 94.2394 11.4496 1079 123.928 1247.89 460.646
3069 0 99.1569 12.2836 1218 121.072 1248.74 460.902
3070 0 101.232 12.2688 1242 122.185 1248.06 459.64
3071 0 102.236 11.8941 1216 123.324 1247.59 461.202
3072 0 104.165 11.4146 1189 126.74 1248.01 457.814
3073 0 111.171 10.5513 1173 127.075 1247.74 460.489
3074 0 111.186 12.2767 1365 126.782 1248.5 454.275
3075 0 112.193 12.0774 1355 126.679 1248.04 456.731
3076 0 117.32 12.9816 1523 125.571 1248.3 452.775
3077 0 120.228 12.3432 1484 127.606 1248.03 450.363
3078 1 71.1279 11.8238 841 119.502 1247.39 474.451
3079 0 73.0928 11.1092 812 122.289 1249.29 472.656
3080 0 76.1499 13.237 1008 115.766 1249.65 470.117
3081 0 77.075 12.3386 951 118.612 1249.47 470.678
3082 0 78.1044 11.3182 884 122.164 1249.61 468.305
3083 0 79.0875 11.835 936 122.38 1249.63 469.052
3084 0 83.16 13.0712 1087 118.902 1249.69 467.869
3085 0 81.1502 11.6697 947 124.459 1249.52 465.296
3086 0 85.1735 12.5978 1073 122.541 1249.92 463.256
3087 0 89.1728 13.1654 1174 120.405 1249.06 463.79
3088 0 92.1731 13.1709 1214 120.559 1249.97 463.671
3089 0 92.163 12.6515 1166 123.072 1250.06 463.213
3090 0 97.1225 12.8703 1250 122.365 1249.36 461.895
3091 0 97.1131 12.9437 1257 123.819 1249.72 459.1
3092 0 100.114 13.7343 1375 125.405 1250.32 460.552
3093 0 104.13 13.5119 1407 125.622 1249.81 461.055
3094 0 105.106 12.083 1270 130.031 1250.03 457.248
3095 0 108.097 13.4693 1456 126.28 1249.35 456.37
3096 1 60.0884 10.185 612 121.06 1248.71 474.124
3097 0 60.1267 9.38019 564 124.482 1249.02 470.498
3098 0 63.0596 10.2443 646 122.529 1248.42 469.553
3099 0 68.0794 12.3973 844 123.767 1248.28 475.077
3100 0 69.0744 12.682 876 123.075 1248.43 475.401
3101 0 70.1574 11.3174 794 126.116 1248.39 471.27
3102 0 73.0801 11.6858 854 125.82 1247.68 470.443
3103 0 77.1438 12.4702 962 122.862 1248.52 469.239
3104 0 79.0902 12.6438 1000 121.898 1248.34 469.587
3105 0 80.1584 12.3505 990 123.58 1249.01 467.718
3106 0 81.1698 12.8866 1046 144.254 1249.96 468.876
3107 0 84.0851 13.4388 1130 120.664 1248.3 465.891
3108 0 88.1473 13.2165 1165 120.846 1248.1 464.404
3109 0 89.1928 12.4898 1114 121.755 1248.82 465.501
3110 0 89.1289 12.0275 1072 125.11 1248.44 461.153
3111 0 91.1727 11.3521 1035 126.555 1247.99 460.449
3112 0 96.1741 13.0701 1257 120.407 1249.33 462.509
3113 0 98.224 13.1536 1292 120.788 1249.07 457.964
3114 0 100.339 12.677 1272 120.081 1249.1 454.785
3115 0 103.198 12.4615 1286 119.791 1249.19 453.68
3116 0 107.247 13.5855 1457 116.27 1249.33 454.289
3117 0 108.221 12.493 1352 119.641 1248.62 449.987
3118 1 62.1419 10.8461 674 115.528 1247.14 479.089
3119 0 64.0505 10.523 674 111.978 1247.91 478.26
3120 0 66.0448 11.4468 756 109.389 1247.52 474.069
3121 0 69.0578 12.323 851 104.595 1248.68 475.78
3122 0 69.0815 11.9424 825 104.23 1247.28 474.124
3123 0 71.1262 10.2213 727 102.686 1248.27 470.801
3124 0 73.1058 10.5874 774 102.54 1248.34 470.109
3125 0 78.105 11.2669 880 99.9852 1248.62 470.106
3126 0 78.0254 10.9708 856 101.65 1249.18 466.797
3127 0 79.0574 10.1572 803 104.076 1249.11 467.503
3128 0 83.1179 11.9228 991 101.318 1248.33 465.4
3129 0 86.1813 11.6847 1007 101.633 1248.14 464.037
3130 0 88.1125 11.2924 995 103.02 1248.12 463.009
3131 0 91.071 12.6495 1152 99.3741 1248.79 464.08
3132 0 93.1456 12.0564 1123 99.4248 1249.61 460.851
3133 0 94.0445 10.1122 951 104.04 1250.2 459.637
3134 0 97.0718 11.6203 1128 101.121 1250.07 458.349
3135 0 100.07 11.2921 1130 103.042 1250.09 456.927
3136 0 102.033 11.9275 1217 102.572 1249.95 453.204
3137 0 106.044 11.4198 1211 103.437 1250.37 455.095
3138 0 109.112 11.3369 1237 103.939 1249.91 453.905
3139 0 110.093 11.4085 1256 104.813 1250.26 456.943
3140 0 112.136 11.3434 1272 107.092 1250.06 454.219
3141 0 116.092 10.9827 1275 108.703 1250.09 456.607
3142 0 119.168 10.6236 1266 110.625 1249.97 454.502
3143 0 125.215 12.3548 1547 113.613 1250.44 451.091
3144 1 71.0383 10.7548 764 112.021 1249.75 479.103
3145 0 73.0331 11.4332 835 105.137 1249.71 474.089
3146 0 78.0457 12.4542 972 101.647 1249.98 474.021
3147 0 78.0683 11.4643 895 105.675 1249.54 474.497
3148 0 80.044 10.7066 857 110.585 1249.71 474.343
3149 0 81.1094 11.5893 940 108.627 1251.29 473.865
3150 0 82.1564 10.5409 866 113.67 1250.69 469.539
3151 0 86.2421 11.2242 968 112.969 1250.31 469.245
3152 0 87.1311 11.6835 1018 114.004 1249.42 467.416
3153 0 91.1717 10.9135 995 116.9 1250.01 464.837
3154 0 94.1629 11.8943 1120 115.357 1250.33 466.924
3155 0 97.1544 12.1353 1179 117.507 1249.19 464.577
3156 0 101.351 12.1558 1232 119.205 1249.8 462.771
3157 0 104.185 12.2282 1274 119.243 1250.25 461.893
3158 1 59.077 11.1042 656 116.235 1250.71 483.777
3159 0 61.065 12.151 742 113.984 1250.37 481.996
3160 0 65.1391 12.9108 841 110.395 1249.03 483.309
3161 0 63.0584 11.2277 708 117.429 1250.03 481.908
3162 0 66.144 12.367 818 113.9 1249.88 481.945
3163 0 68.1386 13.5606 924 112.43 1249.76 479.89
3164 0 69.0683 12.0026 829 117.166 1250.3 479.947
3165 0 71.14 13.5508 964 124.724 1249.6 478.74
3166 0 75.2123 13.4154 1009 120.736 1249.83 479.968
3167 0 76.1457 11.7406 894 127.738 1249.63 478.541
3168 0 77.1531 12.0799 932 125.303 1249.9 477.254
3169 0 82.1349 12.6986 1043 117.663 1249.51 474.113
3170 0 80.1602 9.93012 796 127.834 1249.43 472.49
3171 0 83.1991 13.0771 1088 121.363 1248.67 470.436
3172 0 87.1568 12.0358 1049 123.31 1248.47 471.07
3173 0 90.1576 12.7776 1152 121.318 1248.23 471.074
3174 0 91.147 11.8161 1077 124.708 1249.09 471.028
3175 0 94.1246 12.6959 1195 124.283 1248.8 467.163
3176 0 97.1056 12.2341 1188 122.953 1248.38 467.077
3177 1 55.0786 12.0555 664 114.861 1249.51 489.2
3178 0 54.0761 11.8352 640 118.117 1249.45 486.911
3179 0 57.1042 12.1707 695 119.807 1249.16 485.606
3180 0 56.1228 11.5105 646 125.885 1249.15 485.709
3181 0 60.1966 14.054 846 116.1 1249.19 484.021
3182 0 61.1155 13.5645 829 117.708 1248.72 484.49
3183 0 62.0446 13.1357 815 119.639 1248.78 481.896
3184 0 62.0316 11.4297 709 124.983 1249.17 482.26
3185 0 64.0651 12.9244 828 120.144 1249.44 480.797
3186 0 66.1006 13.6761 904 118.514 1249 480.628
3187 0 66.0976 13.9491 922 142.159 1247.94 480.923
3188 0 70.0603 14.1021 988 116.882 1247.77 477.453
3189 0 72.0565 13.2535 955 118.312 1247.94 475.721
3190 0 74.1271 13.5713 1006 117.558 1247.91 474.736
3191 0 76.0446 13.7156 1043 117.377 1248.16 475.268
3192 0 78.1856 12.2913 961 120.866 1247.36 474.085
3193 0 79.0685 12.2172 966 121.982 1247.3 471.303
3194 0 80.1845 11.6481 934 123.282 1247.21 472.163
3195 0 85.1472 12.9305 1101 119.223 1246.93 469.413
3196 0 87.114 12.3172 1073 121.236 1247.24 468.491
3197 0 88.0737 12.0581 1062 122.42 1247.51 466.621
3198 0 89.1348 12.8794 1148 120.147 1246.95 467.019
3199 0 93.1287 13.3256 1241 117.687 1247.43 467.22
3200 0 95.2036 12.1739 1159 120.596 1247.7 466.195
3201 0 100.216 13.6406 1367 117 1247.25 460.99
3202 0 103.153 13.097 1351 118.515 1247.03 461.888
3203 1 58.0356 11.1656 648 119.164 1248.19 480.491
3204 0 57.156 11.4074 652 116.679 1248.07 478.801
3205 0 61.105 12.3231 753 114.807 1248.24 477.564
3206 0 62.1327 12.0388 748 120.011 1248.17 480.295
3207 0 65.1761 13.3791 872 117.069 1247.75 478.009
3208 0 68.1573 13.058 890 116.619 1248.5 478.783
3209 0 70.1281 13.3327 935 116.86 1247.8 476.587
3210 0 71.1482 13.0432 928 117.686 1248.58 478.727
3211 0 73.1646 12.7521 933 118.817 1248.7 475.609
3212 0 75.2105 14.2001 1068 116.006 1248.06 475.077
3213 0 77.1288 12.2133 942 120.848 1247.67 474.529
3214 0 80.0543 13.4409 1076 117.657 1247.53 470.738
3215 0 82.1548 12.6225 1037 120.107 1247.79 472.932
3216 0 84.1689 12.5343 1055 120.629 1248.56 470.644
3217 0 87.0795 13.3901 1166 117.443 1247.95 471.698
3218 0 88.0815 12.1819 1073 121.308 1247.64 467.856
3219 0 89.1251 14.317 1276 117.643 1248.1 466.306
3220 0 93.1153 14.0686 1310 118.59 1248.44 466.256
3221 0 96.1217 14.1487 1360 118.133 1248.66 465.276
3222 0 98.0584 13.5939 1333 119.688 1247.38 463.843
3223 0 100.087 13.7581 1377 119.035 1247.92 461.72
3224 0 102.109 12.8197 1309 121.105 1247.52 461.781
3225 0 107.065 13.5245 1448 118.397 1249 462.268
3226 0 110.196 13.603 1499 117.372 1248.26 457.924
3227 1 61.0743 11.5269 704 115.408 1248.56 482.773
3228 0 62.0638 11.6654 724 115.863 1249.25 482.779
3229 0 66.0296 12.979 857 113.322 1247.93 480.405
3230 0 66.0733 12.5769 831 115.31 1248.04 480.893
3231 0 70.0418 12.1784 853 117.465 1248.43 477.973
3232 0 70.1035 13.8367 970 114.345 1248.04 478.505
3233 0 72.0407 12.84 925 117.391 1247.98 476.27
3234 0 74.0728 11.9882 888 119.163 1248.32 476.619
3235 0 77.0912 12.816 988 119.232 1247.55 473.361
3236 0 79.1067 12.7044 1005 119.863 1247.78 473.771
3237 0 81.0698 12.8778 1044 119.297 1247.44 473.766
3238 0 85.0913 12.7275 1083 120.318 1248.15 470.635
3239 0 87.08 13.5048 1176 118.787 1248.07 469.509
3240 0 88.0661 13.751 1211 119.088 1248.2 467.755
3241 0 91.0627 13.013 1185 120.999 1247.84 467.737
3242 0 93.0597 13.0132 1211 121.855 1247.23 465.285
3243 0 95.0778 12.6212 1200 124.408 1247.74 465.447
3244 0 97.1454 13.2276 1285 126.407 1247.82 464.24
3245 0 101.169 14.0063 1417 124.133 1247.72 461.456
3246 0 103.125 13.7406 1417 126.313 1247.78 458.836
3247 0 106.138 13.963 1482 126.87 1247.37 457.742
3248 0 110.15 13.9355 1535 128.548 1247.27 457.928
3249 0 114.089 14.1907 1619 127.726 1247.42 454.449
3250 1 63.0703 11.5427 728 135.027 1248.22 479.275
3251 0 65.0658 12.5565 817 133.087 1247.91 480.727
3252 0 68.141 13.2079 900 131.603 1247.64 476.129
3253 0 70.0439 14.1054 988 129.906 1247.41 475.809
3254 0 71.0745 13.8306 983 131.852 1247.75 474.51
3255 0 75.0686 14.0805 1057 130.056 1247.52 474.758
3256 0 76.0775 13.2234 1006 134.505 1247.67 472.588
3257 0 78.0403 13.288 1037 133.802 1248.11 473.359
3258 0 81.1008 13.4894 1094 133.569 1248.35 470.086
3259 0 85.0878 14.4557 1230 131.469 1248.23 469.385
3260 0 86.086 14.2764 1229 133.113 1248.63 467.708
3261 0 91.1497 14.2842 1302 130.267 1249.2 467.204
3262 0 91.0819 14.8548 1353 131.732 1248.38 465.261
3263 0 95.0921 15.2379 1449 131.044 1248.71 464.746
3264 0 96.1784 14.078 1354 136.154 1248.85 461.727
3265 0 99.1127 14.0749 1395 136.652 1248.36 461.829
3266 0 102.082 14.8704 1518 135.233 1248.15 458.808
3267 0 103.128 14.4965 1495 136.677 1248.07 458.427
3268 0 109.102 13.8769 1514 138.044 1248.17 458.673
3269 0 111.161 14.9693 1664 135.959 1248.69 454.98
3270 0 115.249 14.4297 1663 138.423 1248.06 453.014
3271 1 49.0913 12.6499 621 127.746 1249.3 486.689
3272 0 50.13 11.8891 596 128.725 1248.05 486.081
3273 0 52.1143 13.1826 687 126.202 1249.15 485.429
3274 0 52.1134 12.0315 627 125.037 1249.37 484.411
3275 0 55.104 12.6488 697 121.999 1248.69 485.472
3276 0 53.0233 12.0324 638 126.679 1248.68 481.867
3277 0 57.1351 11.9366 682 124.073 1249.07 484.05
3278 0 59.0278 12.1638 718 124.989 1248.86 482.113
3279 0 57.0292 11.9588 682 129.019 1248.32 480.484
3280 0 60.064 11.571 695 128.144 1248.66 480.931
3281 0 62.0599 12.2301 759 128.017 1248.6 477.53
3282 0 65.0539 11.9439 777 126.826 1248.65 478.749
3283 0 67.1004 11.9522 802 127.581 1249.28 478.319
3284 0 69.042 11.9927 828 128.855 1248.71 476.901
3285 0 70.1267 12.3206 864 127.531 1248.37 475.471
3286 0 71.1017 11.2093 797 132.448 1249.03 474.028
3287 0 74.0422 12.0472 892 129.533 1249.1 473.82
3288 0 77.1052 12.8007 987 127.672 1249.58 470.531
3289 0 77.1136 11.0875 855 133.456 1248.94 470.118
3290 0 81.1274 11.9935 973 130.957 1247.97 469.354
3291 0 85.1645 11.7185 998 131.246 1248.46 469.359
3292 0 88.1228 12.4031 1093 129.378 1248.84 467.159
3293 0 88.1228 12.4485 1097 144.004 1249.83 467.192
3294 0 94.0998 12.8587 1210 128.145 1248.76 461.669
3295 0 98.0886 12.7946 1255 126.439 1248.3 462.985
3296 0 101.227 12.4177 1257 127.771 1248.63 459.52
3297 1 53.0258 9.9197 526 127.03 1249 481.922
3298 0 55.1332 11.3543 626 123.473 1248.8 482.355
3299 0 57.0553 9.93772 567 128.323 1249.32 482.39
3300 0 59.0294 11.9771 707 127.761 1249.4 480.314
3301 0 62.0482 12.3936 769 128.056 1249.31 477.784
3302 0 64.0594 11.5518 740 133.322 1249.58 477.749
3303 0 66.0275 11.6618 770 132.348 1250.19 475.934
3304 0 68.0699 12.3696 842 128.998 1250.3 476.368
3305 0 69.1395 12.3229 852 128.891 1249.79 476.053
3306 0 71.0618 11.694 831 131.799 1249.16 473.372
3307 0 74.1738 13.1178 973 127.084 1249 472.264
3308 0 76.1812 12.2077 930 130.154 1248.6 469.124
3309 0 77.0921 10.7274 827 133.158 1248.97 469.504
3310 0 80.1732 12.024 964 130.217 1249.38 468.14
3311 0 82.1917 12.8967 1060 128.292 1248.95 466.515
3312 0 83.1224 11.5733 962 132.401 1248.6 464.848
3313 0 86.1815 11.5918 999 129.46 1249.21 467.753
3314 0 90.1588 12.7331 1148 126.557 1250.38 464.09
3315 0 90.0929 11.3438 1022 129.468 1250.14 462.084
3316 0 95.2524 11.5693 1102 127.633 1249.8 462.834
3317 0 99.1044 11.8965 1179 128.474 1249.19 458.47
3318 0 101.217 11.6878 1183 127.754 1249.53 458.15
3319 0 104.137 10.6495 1109 128.815 1248.99 458.032
3320 0 107.17 10.46 1121 129.08 1248.92 455.351
3321 0 112.116 12.1125 1358 121.742 1249.22 455.75
3322 1 60.1314 10.1943 613 119.543 1250.01 480.316
3323 0 63.0269 9.88466 623 120.636 1249.19 480.364
3324 0 65.0496 10.7149 697 120.521 1249.77 478.539
3325 0 67.0324 11.5019 771 123.423 1249.04 476.019
3326 0 68.091 12.2336 833 122.182 1248.91 476.055
3327 0 70.0943 11.5273 808 122.776 1248.75 477.224
3328 0 74.1628 12.2568 909 120.26 1249.22 476.144
3329 0 76.1298 14.0155 1067 116.565 1248.93 473.455
3330 0 77.0363 12.0073 925 122.483 1248.9 472.532
3331 0 80.0767 13.3747 1071 119.282 1247.58 470.013
3332 0 84.1125 12.8875 1084 120.24 1248.27 470.14
3333 0 83.1574 11.1115 924 124.868 1250 469.219
3334 0 90.0622 11.8696 1069 121.49 1250.02 467.307
3335 0 90.0758 11.8234 1065 123.287 1249.42 464.979
3336 0 94.0716 12.2885 1156 120.335 1249.7 465.125
3337 0 100.163 13.6577 1368 115.404 1249.37 464.594
3338 0 100.127 12.0946 1211 120.346 1249.1 461.504
3339 1 60.0897 10.7506 646 117.102 1249.68 482.658
3340 0 60.0608 10.9056 655 119.104 1248.64 479.994
3341 0 63.0848 12.2058 770 118.018 1249.95 479.288
3342 0 65.0659 13.8321 900 114.503 1250.6 478.964
3343 0 64.1066 10.4201 668 114.919 1249.55 480.738
3344 0 65.0566 10.3141 671 114.751 1248.46 480.474
3345 0 70.0634 10.2764 720 112.967 1248.91 481.126
3346 0 68.051 11.4767 781 113.489 1249.17 476.803
3347 0 70.0619 9.64861 676 115.8 1249.87 480.124
3348 0 72.036 10.1616 732 116.29 1248.76 475.652
3349 0 72.0903 9.83488 709 117.939 1249.32 473.786
3350 0 77.0993 10.8043 833 114.432 1248.62 474.532
3351 0 78.0529 10.3391 807 116.71 1249.84 473.342
3352 0 81.1618 11.5202 935 113.333 1249.54 472.888
3353 0 81.1233 10.2683 833 118.627 1249.62 469.001
3354 0 84.1604 8.86403 746 120.064 1249.64 472.092
3355 0 88.1364 10.5745 932 115.206 1249.18 472.212
3356 0 89.1215 9.76195 870 120.229 1249.45 465.688
3357 0 93.1325 10.4904 977 116.856 1249.45 467.187
3358 0 95.0412 9.59584 912 119.225 1249.41 467.239
3359 0 98.2167 11.6579 1145 117.866 1248.94 462.234
3360 0 100.104 10.9986 1101 119.974 1249.08 460.215
3361 0 105.117 13.0711 1374 115.122 1248.72 460.207
3362 0 109.101 12.1906 1330 118.547 1249.11 456.854
3363 0 111.181 11.8815 1321 120.388 1248.54 454.709
3364 0 115.123 13.1773 1517 116.834 1249.24 456.411
3365 0 114.104 9.30729 1062 127.411 1249.15 459.186
3366 0 120.131 11.1378 1338 124.647 1248.58 453.966
3367 0 126.105 11.9187 1503 121.774 1248.56 451.876
3368 0 129.137 11.329 1463 124.021 1248.65 448.897
3369 0 132.115 10.7255 1417 124.275 1248.73 449.462
3370 0 134.213 9.93196 1333 127.296 1247.85 442.083
3371 0 140.22 11.8242 1658 123.731 1247.98 436.653
3372 1 81.0606 12.8299 1040 120.306 1249.86 466.476
3373 0 86.0405 11.204 964 124.559 1249.71 467.247
3374 0 86.1009 11.5446 994 124.746 1249.05 465.748
3375 0 87.1586 11.2898 984 126.957 1248.24 462.76
3376 0 94.1833 11.9767 1128 124.625 1248.15 463.684
3377 0 97.2068 11.6864 1136 123.995 1248.31 463.874
3378 0 99.1362 11.3278 1123 125.377 1248.62 459.63
3379 0 104.091 12.4123 1292 122.687 1248.59 458.703
3380 0 105.103 12.5782 1322 122.7 1248.78 458.996
3381 0 108.152 11.4838 1242 125.677 1248.16 454.539
3382 0 113.146 13.6372 1543 118.923 1248.31 453.021
3383 0 116.232 12.0277 1398 122.027 1248.04 451.242
3384 0 120.282 13.1773 1585 119.319 1248.05 452.891
3385 0 122.24 12.5409 1533 121.133 1248.68 450.995
3386 0 125.303 13.0883 1640 120.635 1248.16 447.691
3387 0 131.291 13.4434 1765 118.555 1248.55 446.424
3388 1 71.1145 10.8557 772 118.459 1248.44 476.605
3389 0 77.1131 12.6308 974 113.666 1248.07 475.239
3390 0 79.1078 12.148 961 116.828 1248.41 470.502
3391 0 81.104 13.0696 1060 115.314 1248.79 468.269
3392 0 83.109 13.38 1112 115.76 1248.9 467.591
3393 0 84.1993 13.1355 1106 117.561 1248.64 465.286
3394 0 87.2804 13.6457 1191 116.923 1249.01 463.635
3395 0 90.2523 14.0827 1271 116.3 1249.11 464.731
3396 0 93.2115 13.6786 1275 117.216 1248.61 463.126
3397 0 95.248 14.121 1345 114.189 1248.83 465.125
3398 0 96.2676 13.1405 1265 117.976 1248.48 464.266
3399 0 98.1819 13.913 1366 117.211 1248.33 459.667
3400 0 102.185 14.1998 1451 114.988 1248.58 460.443
3401 0 103.171 14.539 1500 114.117 1248.47 460.274
3402 0 105.225 13.932 1466 115.677 1248.02 456.638
3403 0 106.135 13.1625 1397 119.057 1247.91 452.669
3404 0 110.272 12.6505 1395 119.52 1248.89 455.7
3405 0 112.35 12.737 1431 120.821 1248.3 451.806
3406 0 117.253 13.9101 1631 118.681 1248.01 447.822
3407 0 121.26 13.4174 1627 118.167 1248.39 448.038
3408 1 53.1299 11.2931 600 108.223 1247.9 480.907
3409 0 55.1188 10.6134 585 108.867 1248.31 480.246
3410 0 57.0996 11.0509 631 100.54 1249.04 482.139
3411 0 58.0613 11.9184 692 100.191 1249.28 480.974
3412 0 59.0782 10.7485 635 102.776 1249.49 482.517
3413 0 60.0735 11.0032 661 104.154 1249.3 479.932
3414 0 62.1284 11.4118 709 103.776 1248.94 477.773
3415 0 62.102 10.9336 679 105.71 1249.46 475.175
3416 0 66.0866 10.8191 715 105.487 1249.42 475.515
3417 0 66.0852 10.9707 725 106.668 1248.14 476.535
3418 0 68.0722 11.4144 777 106.587 1248.52 471.091
3419 0 70.0957 10.7139 751 107.892 1248.77 473.415
3420 0 72.0994 12.0251 867 109.532 1248.98 473.663
3421 0 75.0917 11.3461 852 110.189 1249.28 475.032
3422 0 77.0743 11.703 902 110.817 1249.22 473.738
3423 0 79.0843 11.8734 939 110.836 1248.88 473.519
3424 0 79.0788 12.81 1013 109.545 1248.26 471.582
3425 0 84.1618 12.8324 1080 108.842 1248.65 471.444
3426 0 87.1358 14.4946 1263 105.179 1248.78 470.176
3427 0 87.1689 12.8371 1119 110.223 1248.71 468.298
3428 0 88.091 11.2724 993 114.915 1248.86 466.035
3429 0 94.102 13.8679 1305 108.659 1248.75 463.554
3430 0 95.1487 12.3176 1172 112.959 1248.29 460.292
3431 0 99.0719 12.8896 1277 112.007 1248.65 458.377
3432 0 101.139 13.0711 1322 111.343 1249.38 459.436
3433 0 103.215 12.0137 1240 115.506 1248.87 452.3
3434 0 107.129 10.884 1166 118.864 1248.47 451.921
3435 0 109.235 11.4799 1254 117.699 1248.67 452.208
3436 0 113.128 11.5975 1312 120.289 1248.65 453.959
3437 0 118.186 13.318 1574 116.858 1249.16 451.084
3438 0 120.122 12.5706 1510 120.272 1249.2 447.328
3439 0 125.207 13.7692 1724 115.916 1249.03 444.717
3440 0 128.243 12.414 1592 117.575 1248.31 444.116
3441 0 133.142 12.7834 1702 115.786 1248.53 441.338
3442 0 136.115 11.2184 1527 118.873 1248.89 438.536
3443 0 142.158 13.3162 1893 113.928 1249.02 436.504
3444 0 147.124 12.7647 1878 114.415 1248.71 437.302
3445 0 150.15 11.615 1744 117.269 1248.68 434.748
3446 0 157.211 13.307 2092 114.64 1248.75 430.218
3447 1 93.1158 11.5877 1079 112.248 1248.06 460.521
3448 0 95.1536 11.2555 1071 112.614 1248.21 461.395
3449 0 100.187 12.0275 1205 110.3 1247.41 455.483
3450 0 103.103 10.8048 1114 112.639 1247.12 456.715
3451 0 102.138 11.2495 1149 112.426 1247.16 451.567
3452 0 109.106 13.0148 1420 107.456 1247.91 453.311
3453 0 113.087 10.9915 1243 110.95 1248.16 451.821
3454 0 116.123 11.0314 1281 111.4 1247.74 449.73
3455 0 118.166 11.3484 1341 111.508 1247.01 445.971
3456 0 123.146 10.8814 1340 112.275 1247.33 442.325
3457 0 127.151 12.0172 1528 108.512 1248.1 447.13
3458 0 128.152 10.784 1382 112.39 1247.69 437.593
3459 0 136.12 10.836 1475 111.422 1247.92 440.686
3460 0 139.18 12.1353 1689 110.599 1246.54 434.821
3461 0 144.171 11.5973 1672 113.338 1247.14 436.938
3462 0 150.081 13.0196 1954 110.916 1247.35 431.04
3463 0 155.158 11.2402 1744 115.409 1247.08 429.671
3464 0 161.235 12.2802 1980 112.814 1246.55 425.819
3465 1 80.0736 12.501 1001 106.486 1246.43 471.668
3466 0 80.0906 12.5733 1007 107.676 1246.29 472.063
3467 0 84.0676 13.3107 1119 106.754 1246.19 469.245
3468 0 86.1144 11.6705 1005 110.341 1246.43 465.277
3469 0 90.0964 13.8074 1244 105.635 1245.73 465.997
3470 0 92.063 12.687 1168 108.176 1247 464.89
3471 0 94.127 13.0462 1228 108.497 1247.06 461.349
3472 0 95.0792 13.0523 1241 108.696 1246.82 462.256
3473 0 96.1014 12.5076 1202 112.117 1247.32 458.422
3474 0 100.044 13.9938 1400 108.464 1247.93 459.396
3475 0 104.088 12.7008 1322 112.644 1247.52 456.246
3476 0 104.079 12.7019 1322 113.764 1246.84 455.492
3477 0 108.067 13.8155 1493 111.812 1247.29 453.414
3478 0 111.137 12.948 1439 114.02 1247.92 457.322
3479 0 113.084 12.3448 1396 116.729 1247.87 454.626
3480 0 116.121 11.7636 1366 119.794 1247.77 451.521
3481 0 122.181 12.0886 1477 119.485 1247.71 448.762
3482 0 124.164 10.9372 1358 122.392 1248.24 449.437
3483 0 130.309 12.8847 1679 117.929 1247.83 448.095
3484 0 133.084 13.0444 1736 120.855 1247.54 443.999
3485 0 137.182 12.4579 1709 123.807 1248.11 443.352
3486 0 141.128 13.0095 1836 124.981 1247.88 441.078
3487 1 82.0815 11.3911 935 124.803 1247.76 470.206
3488 0 87.1138 12.9141 1125 120.9 1247.54 468.937
3489 0 86.0978 12.5323 1079 128.209 1246.68 466.865
3490 0 89.1175 12.8145 1142 127.722 1247.65 466.71
3491 0 93.2287 13.5795 1266 126.107 1246.87 464.482
3492 0 97.0759 13.165 1278 125.969 1246.51 464.088
3493 0 97.2273 13.5662 1319 127.06 1247.14 459.852
3494 0 101.151 13.5441 1370 125.203 1246.99 463.293
3495 0 102.185 13.231 1352 127.485 1247.19 459.547
3496 0 105.128 13.1554 1383 128.005 1247.48 460.083
3497 0 108.228 13.8319 1497 128.331 1247.39 458.478
3498 0 110.124 12.713 1400 132.275 1247.31 456.898
3499 0 115.151 14.8935 1715 126.193 1247.2 456.438
3500 0 117.258 13.4745 1580 130.706 1247.43 454.582
3501 0 120.216 13.2594 1594 132.604 1247.54 448.382
3502 0 125.25 13.9162 1743 130.264 1247.52 448.493
3503 0 127.396 14.2312 1813 130.664 1247.53 448.525
3504 0 130.283 13.9542 1818 133.713 1246.88 444.811
3505 0 132.169 13.0741 1728 137.184 1246.87 445.978
3506 0 137.16 13.517 1854 137.478 1247.94 444.222
3507 0 141.237 14.5713 2058 135.761 1247.59 440.567
3508 0 143.364 14.676 2104 138.145 1247.06 437.028
3509 0 149.226 14.3541 2142 140.592 1246.6 434.656
3510 0 154.235 14.8475 2290 139.984 1246.26 433.489
3511 0 157.238 14.9963 2358 140.929 1247.13 431.358
3512 0 161.184 14.4307 2326 144.186 1246.33 428.71
3513 0 164.28 14.8527 2440 145.42 1247.48 427.714
3514 0 170.263 16.4334 2798 139.96 1247.14 426.054
3515 0 173.264 15.9064 2756 143.563 1247.1 424.493
3516 0 176.243 14.6616 2584 150.786 1247.3 421.652
3517 0 180.183 15.3954 2774 149.433 1247.88 418.552
3518 0 185.362 14.8304 2749 150.351 1247.89 420.639
3519 0 190.242 15.1596 2884 151.594 1248.28 414.827
3520 0 193.235 15.3078 2958 152.648 1247.54 407.951
3521 0 201.23 15.1717 3053 151.851 1247.6 404.385
3522 0 205.213 15.0137 3081 152.466 1248.32 403.401
3523 0 213.259 14.7614 3148 153.679 1247.61 402.937
3524 1 58.071 9.19564 534 126.165 1248.44 483.582
3525 0 59.1175 10.8766 643 121.585 1249.47 481.812
3526 0 59.1093 11.2334 664 116.465 1248.47 481.988
3527 0 61.0928 10.5577 645 119.16 1248.61 479.907
3528 0 64.1357 10.5869 679 117.769 1249.57 479.75
3529 0 66.0954 10.2276 676 118.058 1249.53 476.59
3530 0 67.1086 9.61129 645 118.991 1249.33 476.49
3531 0 70.139 10.1513 712 117.435 1249.7 475.719
3532 1 25.0081 3.79876 95 105.642 1249.19 502.579
3533 0 29.0596 8.60302 250 101.904 1248.43 497.512
3534 0 30.0115 5.96439 179 103.749 1248.06 498.48
3535 0 33.0405 7.3546 243 103.107 1248.69 495.864
3536 0 34.0042 8.44014 287 101.986 1248.59 493.899
3537 0 34.0263 7.67054 261 105.184 1248.14 494.326
3538 0 37.0147 10.1041 374 100.508 1248.22 494.267
3539 0 36.0702 8.84386 319 104.194 1248.79 493.063
3540 0 36.017 11.5779 417 99.5971 1248.77 493.165
3541 0 35.0163 10.1952 357 101.849 1248.85 493.927
3542 0 35.0824 9.34941 328 103.976 1248.91 493.506
3543 0 38.0348 9.59647 365 103.348 1248.38 493.411
3544 0 36.0684 8.20663 296 106.557 1248.62 492.74
3545 0 39.0373 9.75989 381 104.488 1248.63 491.336
3546 0 37.0324 9.5862 355 105.811 1248.12 491.431
3547 0 40.0696 10.6065 425 104.541 1248.22 490.687
3548 1 21.0146 7.32825 154 109.078 1249.05 499.292
3549 0 18.0139 6.60599 119 110.361 1248.71 498.824
3550 0 18.0109 6.60711 119 107.807 1248.97 502.605
3551 0 17.0252 6.98964 119 105.311 1249.07 502.622
3552 0 17.0267 5.6382 96 108.854 1249.39 503.552
3553 0 17.0716 8.78652 150 105.613 1249.21 504.82
3554 1 39.172 10.5177 412 111.74 1247.82 494.597
3555 0 38.2189 10.4399 399 113.271 1248.25 495.145
3556 0 39.0656 9.75282 381 115.745 1247.66 494.864
3557 0 39.1554 9.27076 363 117.989 1247.38 496.438
3558 0 39.1767 11.7417 460 111.285 1248.14 495.648
3559 0 40.2168 11.1396 448 113.915 1248.2 495.585
3560 0 40.1326 10.0168 402 115.744 1248.21 495.403
3561 0 41.2827 10.9005 450 113.867 1247.97 493.5
3562 0 40.2176 11.0648 445 115.391 1248.17 494.636
3563 0 42.2742 11.6147 491 112.607 1248.78 494.703
3564 0 45.3884 11.7871 535 112.409 1249.43 493.381
3565 0 43.1841 10.4668 452 117.646 1249.51 494.228
3566 0 42.2085 11.3721 480 119.038 1249.09 493.346
3567 0 42.1533 11.9801 505 120.642 1248.57 492.917
3568 0 42.1647 11.7159 494 123.589 1248.81 493.678
3569 0 44.1488 12.0275 531 121.328 1249.88 494.196
3570 0 45.163 12.7759 577 120.52 1249.62 491.991
3571 0 45.1571 12.224 552 121.357 1249.45 490.944
3572 0 45.1214 12.5218 565 122.288 1249.01 491.811
3573 0 47.1649 12.4457 587 122.385 1249 492.232
3574 0 44.1907 12.1066 535 126.09 1248.26 491.305
3575 0 45.0806 10.7142 483 131.13 1249.02 493.039
3576 0 45.0903 10.357 467 131.726 1248.52 493.711
3577 0 45.114 11.2604 508 130.465 1248.63 493.093
3578 0 47.1257 12.0529 568 127.6 1248.2 492.884
3579 0 46.145 10.1636 469 131.763 1248.96 493.691
3580 0 49.2625 10.982 541 128.547 1248.6 491.442
3581 0 48.1575 11.1717 538 130.587 1248.07 490.967
3582 0 48.135 11.4885 553 130.114 1248.88 490.848
3583 0 49.1226 11.6036 570 129.856 1248.84 491.537
3584 0 48.1322 10.8036 520 132.563 1247.79 490.85
3585 0 49.0969 11.1005 545 130.2 1249.12 491.15
3586 0 47.2866 10.6373 503 132.372 1249.17 490.718
3587 0 47.2097 11.3324 535 131.862 1248.79 489.757
3588 0 48.2108 11.5119 555 129.665 1247.9 491.097
3589 0 49.2684 12.3 606 127.388 1248.3 491.502
3590 0 51.2524 12.3506 633 124.878 1248.33 490.885
3591 0 50.0786 10.6233 532 129.365 1248.75 491.853
3592 0 50.0776 11.0429 553 129.107 1248.78 489.597
3593 0 50.1796 10.582 531 130.648 1248.72 490.748
3594 0 52.2129 11.0126 575 129.099 1248.67 490.174
3595 0 50.2789 10.8395 545 128.213 1248.82 492.305
3596 0 50.168 10.8236 543 130.081 1249.51 489.081
3597 0 51.1669 11.1791 572 127.879 1248.51 489.276
3598 0 52.1137 10.7266 559 129.018 1249.08 489.148
3599 0 51.1403 12.1431 621 125.704 1249.01 488.56
3600 0 52.1186 10.9366 570 127.74 1249.07 488.975
3601 0 53.2046 12.1794 648 123.65 1249.66 488.282
3602 0 53.2075 12.4419 662 122.956 1248.65 489.634
3603 0 52.2692 10.8094 565 127.814 1249.61 488.768
3604 0 51.1354 10.306 527 128.07 1249.15 490.877
3605 0 52.142 11.1235 580 125.821 1249.69 489.138
3606 1 29.015 9.61572 279 119.882 1251.23 480.043
3607 0 31.0193 10.1872 316 116.601 1251.39 482.576
3608 0 28.0546 9.55279 268 121.056 1251.23 483.175
3609 0 30.0246 10.8245 325 114.563 1251.95 485.578
3610 0 31.0627 9.01403 280 118.182 1251.42 485.939
3611 0 32.0284 10.4595 335 113.406 1250.92 485.069
3612 0 31.0758 9.84689 306 115.667 1250.92 484.376
3613 0 29.0186 9.37331 272 112.603 1251.17 482.827
3614 0 31.0616 9.46507 294 108.758 1251.71 484.874
3615 0 32.0595 10.4805 336 105.521 1251.41 485.113
3616 0 32.059 8.95225 287 108.087 1250.72 485.721
3617 0 33.0409 10.9561 362 103.494 1251.34 481.442
3618 0 32.0891 9.0685 291 107.368 1250.82 482.502
3619 0 31.0558 10.5616 328 104.756 1251.56 483.649
3620 0 32.0495 9.92214 318 105.421 1250.92 480.78
3621 0 33.0319 10.838 358 102.363 1251.81 479.182
3622 0 32.0407 10.83 347 101.715 1251.39 481.314
3623 0 32.1132 10.4318 335 102.499 1252.2 483.09
3624 0 33.0451 10.41 344 103.378 1251.06 483.814
3625 0 33.0424 9.68452 320 104.744 1251.25 483.747
3626 0 32.0161 11.5255 369 101.35 1251.49 485.111
3627 0 34.0595 10.4229 355 100.039 1251.82 487.189
3628 0 32.0109 9.9966 320 102.512 1251.17 486.019
3629 0 32.0822 11.0653 355 99.6845 1251.79 485.118
3630 0 32.0403 9.11351 292 102.38 1251.77 482.599
3631 0 33.0416 11.4099 377 97.5119 1251.29 481.305
3632 0 32.0905 9.66018 310 101.113 1251.14 482.6
3633 0 34.0262 10.9033 371 97.089 1251.13 483.59
3634 0 35.1064 11.1945 393 95.7684 1251.2 484.702
3635 0 34.0756 11.5332 393 95.2621 1251.38 484.926
3636 0 36.0551 10.5949 382 95.7094 1251.07 485.835
3637 0 34.0232 10.052 342 97.8246 1250.66 485.643
3638 0 34.0499 10.2497 349 98.5358 1251.04 485.702
3639 0 33.0302 9.99086 330 98.6485 1250.38 486.139
3640 0 35.0394 11.9294 418 93.4785 1250.84 486.172
3641 0 34.0459 8.87038 302 100.093 1251.34 487.911
3642 0 36.0494 10.8462 391 94.1739 1250.11 488.854
3643 0 36.0354 12.6542 456 91.1535 1250.3 488.496
3644 0 35.0622 9.69705 340 95.4471 1251.14 490.244
3645 0 34.1136 9.3511 319 97.4295 1251.28 490.329
3646 0 33.0748 9.76574 323 96.6316 1250.65 492.328
3647 0 33.0326 10.868 359 94.6156 1250.23 493.006
3648 0 33.1427 10.8923 361 94.9862 1250.28 492.283
3649 0 34.073 11.2993 385 92.4545 1250.33 494.275
3650 0 33.0609 10.1933 337 95.7418 1250.2 492.611
3651 0 34.052 11.5705 394 91.2183 1251.09 491.97
3652 0 36.1363 11.2353 406 90.9335 1250.55 491.012
3653 0 33.2023 9.12588 303 96.0792 1250.24 490.38
3654 0 36.1733 12.0807 437 88.1579 1250.58 491.531
3655 0 35.118 11.3332 398 90.8819 1250.45 488.998
3656 0 36.1253 10.5743 382 91.8743 1250.49 489.293
3657 0 34.0764 10.3884 354 93.7288 1250.55 488.33
3658 0 34.1234 9.90522 338 93.2811 1250.72 490.305
3659 0 35.0446 11.2428 394 91.4315 1250.37 488.784
3660 0 36.2029 11.6013 420 88.2119 1250.8 491.54
3661 0 35.034 11.8742 416 89.7452 1249.63 490.668
3662 0 34.116 10.435 356 92.6236 1249.67 492.419
3663 0 34.116 10.5229 359 138.671 1248.68 492.357
3664 0 35.0909 11.2565 395 89.9038 1249.81 493.208
3665 0 35.1203 12.0159 422 88.9953 1249.18 492.547
3666 0 37.1286 12.1739 452 86.3628 1248.79 493.92
3667 0 35.16 12.1729 428 87.2874 1249.53 495.446
3668 0 38.1935 12.3581 472 84.6292 1248.85 495.663
3669 0 35.15 11.0953 390 89.7103 1249.32 494.774
3670 0 36.2625 11.665 423 88.2364 1248.97 495.054
3671 0 38.1116 12.3585 471 85.3546 1249.17 495.535
3672 0 35.182 12.2222 430 87.507 1249.03 495.698
3673 0 36.1799 9.92265 359 89.8858 1249.41 496.844
3674 0 36.3215 11.0403 401 88.5337 1248.69 495.768
3675 0 36.2519 11.8614 430 85.686 1249.25 497.312
3676 0 35.1398 10.1594 357 89.4566 1249.53 497.636
3677 0 38.2093 12.0128 459 84.3682 1248.92 497.841
3678 0 36.163 11.7247 424 87.7618 1248.95 496.163
3679 0 36.1216 11.2952 408 86.5613 1248.16 498.4
3680 0 37.052 13.0357 483 84.1636 1248.45 497.164
3681 0 38.147 12.4518 475 84.1516 1248.37 498.505
3682 0 38.1738 12.4693 476 84.6324 1248.71 496.817
3683 0 38.1842 11.7064 447 85.5973 1248.81 498.763
3684 0 34.1582 11.0954 379 88.5989 1248.52 497.409
3685 0 34.2215 11.6886 400 87.4975 1248.67 497.912
3686 0 37.1072 11.3455 421 86.7981 1248.33 498.755
3687 0 38.097 11.8907 453 84.9161 1248.71 498.645
3688 0 35.1605 10.2103 359 89.2813 1248.75 499.721
3689 0 38.1358 12.6915 484 83.2025 1248.29 499.492
3690 0 36.0779 11.7246 423 86.6808 1247.78 499.234
3691 0 38.1123 11.6235 443 85.4357 1247.75 498.16
3692 0 35.1144 10.7363 377 87.8462 1248.34 498.745
3693 0 37.0541 12.3333 457 84.3829 1248.1 499.278
3694 0 37.0359 10.9893 407 85.3096 1248.66 500.201
3695 0 35.1542 10.269 361 88.2022 1248.8 499.321
3696 0 38.0741 10.8735 414 85.7319 1248.63 499.618
3697 0 38.0393 11.4355 435 85.3103 1247.98 498.531
3698 0 39.0487 12.574 491 82.4012 1248.82 499.458
3699 0 37.0481 12.9022 478 82.159 1248.9 500.41
3700 0 37.0282 11.4237 423 84.0544 1248.89 500.444
3701 0 36.036 11.4885 414 84.2029 1248.58 500.312
3702 0 38.1103 11.0731 422 83.3199 1248.36 500.116
3703 0 38.0326 12.7785 486 81.4897 1248.18 499.222
3704 0 39.0496 11.9592 467 81.8244 1248.54 499.193
3705 0 38.0859 12.3931 472 82.2903 1247.84 497.17
3706 0 39.0631 13.7726 538 79.0242 1249.04 496.684
3707 0 39.0926 11.8437 463 81.8618 1249.22 498.855
3708 0 38.0357 13.5136 514 78.2724 1248.32 499.582
3709 0 38.1337 10.9352 417 82.518 1248.89 499.014
3710 0 37.0425 11.4733 425 82.3906 1248.68 499.308
3711 0 39.1594 11.3383 444 81.4527 1247.65 499.631
3712 0 39.179 12.4301 487 79.6078 1247.88 497.77
3713 0 37.069 11.4112 423 82.1962 1248.03 500.017
3714 0 37.1191 11.9615 444 81.3311 1248.05 498.11
3715 0 38.0814 11.6592 444 80.6419 1248.6 499.833
3716 0 40.0759 12.4514 499 78.513 1247.9 499.339
3717 0 39.1106 13.628 533 77.257 1248.32 498.503
3718 0 37.0744 12.9199 479 80.0981 1248.2 497.081
3719 0 37.0729 11.1402 413 81.7797 1247.66 498.448
3720 0 39.0928 12.6877 496 77.1814 1248.18 498.863
3721 0 37.1423 11.4156 424 81.7689 1248.18 497.903
3722 0 38.0304 12.7004 483 78.6128 1247.64 498.311
3723 0 37.0862 11.8912 441 79.9977 1248.31 498.721
3724 0 40.1117 13.7366 551 74.8566 1247.38 499.494
3725 0 38.1159 11.5962 442 79.6674 1248.4 498.661
3726 0 38.0965 10.8934 415 81.4313 1249.07 498.778
3727 0 41.203 12.135 500 77.832 1248.48 498.286
3728 0 41.0808 12.6093 518 77.8012 1248.96 497.166
3729 0 40.1027 13.1413 527 77.2011 1249.22 495.873
3730 0 39.034 10.9392 427 80.5714 1248.64 498.021
3731 0 38.0302 11.5435 439 81.246 1248.59 494.973
3732 0 38.0304 11.9904 456 80.4825 1248.62 496.145
3733 0 38.099 12.94 493 78.7322 1249.37 494.935
3734 0 41.1143 14.2529 586 74.6126 1248.96 495.37
3735 0 40.0728 12.5522 503 78.4274 1249.42 494.877
3736 0 39.026 14.5544 568 75.3574 1249.57 495.329
3737 0 40.0327 14.2883 572 74.2482 1249.61 496.453
3738 0 37.0774 11.5164 427 80.8993 1249.69 495.119
3739 0 40.0507 13.0335 522 76.2605 1249.59 496.098
3740 0 39.1568 13.2033 517 77.1567 1249.56 494.656
3741 0 40.0548 12.0585 483 79.1408 1250.1 493.832
3742 0 40.054 12.4332 498 78.2892 1249.62 494.251
3743 0 41.0289 12.4059 509 77.9253 1249.86 494.039
3744 0 38.0376 10.8577 413 80.7288 1249.42 494.818
3745 0 39.0456 12.114 473 78.6427 1250.52 495.264
3746 0 39.033 11.7593 459 78.634 1249.56 495.667
3747 0 41.0171 13.1165 538 76.3643 1249.27 494.597
3748 0 41.0372 13.8411 568 75.1514 1249.32 494.618
