time division length width area intensity CMx CMy
0 0 44.0885 10.7965 476 141.061 1036.23 479.431
1 0 48.0522 11.5916 557 135.228 1036.69 479.404
2 0 48.0064 11.4985 552 137.701 1037.51 477.855
3 0 50.0604 12.0854 605 135.56 1037.42 478.266
4 0 49.0537 11.7015 574 139.841 1036.37 477.122
5 0 49.0537 11.6199 570 146.126 1036.36 476.991
6 0 54.0141 11.8303 639 137.991 1036.43 476.923
7 0 55.0724 11.4032 628 140.072 1036.77 476.127
8 0 57.0384 11.9744 683 135.999 1036.48 477.603
9 0 58.0234 11.0645 642 139.79 1036.4 475.832
10 0 60.0219 11.3625 682 140.021 1035.37 474.103
11 0 62.0844 11.0656 687 141.879 1036.16 473.019
12 0 63.0448 10.4053 656 142.165 1035.14 475.201
13 1 33.0396 10.2302 338 143.701 1034.57 487.612
14 0 35.0138 11.3384 397 140.297 1034.77 487.542
15 0 36.0182 11.4109 411 137.895 1035.21 487.292
16 0 36.0078 11.3586 409 138.029 1034.7 486.601
17 0 37.0609 12.5199 464 134.759 1034.78 486.101
18 0 38.0117 12.5225 476 134.559 1034.91 486.983
19 0 38.0315 12.7263 484 132.977 1035.3 487.076
20 0 39.0671 11.5186 450 136.276 1034.33 487.176
21 0 40.064 12.4551 499 134.369 1034.26 486.413
22 0 42.0198 11.8516 498 136.251 1034.18 486.769
23 0 41.0469 11.5965 476 138.324 1033.89 487.176
24 0 43.0213 12.0405 518 136.554 1032.88 486.471
25 0 44.0459 12.5324 552 135.862 1032.8 486.621
26 0 45.0303 12.1252 546 138.407 1033.47 486.161
27 0 47.0812 11.8306 557 137.095 1033.89 486.497
28 0 46.0499 12.2042 562 138.674 1032.98 485.269
29 0 49.0255 13.4216 658 135.895 1033.4 484.939
30 0 51.0386 13.3624 682 135.446 1032.56 484.387
31 0 51.0585 13.2006 674 137.786 1032.31 483.718
32 0 53.0338 13.086 694 138.493 1032.01 483.239
33 0 53.0241 13.0318 691 140.79 1032.96 482.311
34 0 56.0517 12.5063 701 141.271 1032.3 482.391
35 0 58.0491 12.834 745 141.366 1032.89 479.686
36 0 60.0369 13.4417 807 138.26 1032.61 480.243
37 0 62.0522 12.3283 765 142.923 1032.56 479.573
38 0 63.0536 12.64 797 143.556 1032.08 477.895
39 0 66.0892 12.7555 843 142.797 1032.64 477.171
40 0 68.0385 12.684 863 142.749 1032.1 474.988
41 0 73.0827 13.6284 996 137.117 1031.75 475.036
42 0 74.1003 13.0364 966 140.276 1031.67 473.275
43 0 77.0795 13.0255 1004 139.417 1032.55 472.62
44 0 79.0556 12.877 1018 138.858 1032.41 471.402
45 0 81.0908 13.3307 1081 137.132 1032.07 470.692
46 0 84.1234 12.9928 1093 138.208 1031.97 467.685
47 0 88.0572 13.389 1179 135.94 1032.41 467.531
48 0 92.0683 14.2286 1310 131.602 1031.95 465.37
49 1 49.0953 12.6081 619 140.363 1031.05 483.349
50 0 52.072 13.539 705 135.959 1031.01 482.133
51 0 51.0751 12.7264 650 134.332 1032 484.677
52 0 55.0164 12.9779 714 132.155 1031.33 483.192
53 0 59.0786 13.5582 801 127.383 1032.12 482.12
54 0 60.0617 12.9533 778 130.661 1031.65 480.575
55 0 64.056 14.2063 910 126.949 1031.83 479.979
56 0 63.0418 13.5624 855 130.681 1031.95 480.013
57 0 66.0931 12.906 853 133.232 1030.52 478.261
58 0 70.0597 13.8168 968 130.251 1031.35 475.876
59 0 72.0788 13.6517 984 132.875 1031.84 474.819
60 0 76.15 13.9199 1060 130.43 1031.83 474.11
61 0 78.132 14.5267 1135 133.823 1031.81 471.907
62 0 80.1086 14.5552 1166 135.255 1031.26 471.39
63 0 84.1687 14.7204 1239 134.735 1030.61 468.764
64 0 87.1256 14.657 1277 134.482 1031.18 468.545
65 0 90.2435 14.483 1307 134.695 1031.49 466.326
66 0 93.0889 14.0833 1311 135.491 1030.68 465.726
67 1 48.1252 12.4883 601 133.01 1031.27 487.363
68 0 49.022 11.9742 587 135.629 1030.66 486.179
69 0 50.1136 11.2744 565 127.949 1030.47 482.752
70 0 51.0711 12.649 646 126.743 1030.89 481.378
71 0 53.057 13.5892 721 122.782 1030.69 480.279
72 0 54.0281 12.7341 688 133.836 1030.17 481.265
73 0 60.0455 13.6896 822 128.378 1030.78 481.142
74 0 61.0294 13.9441 851 126.646 1031.27 479.94
75 0 64.0666 13.7981 884 124.864 1030.74 481.08
76 0 63.1715 13.4238 848 129.861 1030.49 478.828
77 0 68.0892 14.5691 992 126.015 1030.66 478.116
78 0 69.0993 13.5602 937 129.415 1030.71 476.841
79 0 70.0705 13.3437 935 130.983 1030.54 473.851
80 0 74.0984 14.2648 1057 127.64 1030.5 472.868
81 0 75.1285 13.1109 985 130.529 1030.35 471.554
82 0 78.0653 13.3606 1043 128.596 1031.41 471.976
83 0 82.0986 14.5435 1194 123.902 1031.04 470.871
84 0 84.122 14.4076 1212 123.945 1031.5 469.071
85 0 87.056 13.4052 1167 125.778 1030.99 467.752
86 0 90.1796 13.0517 1177 126.435 1030.17 465.806
87 0 93.11 13.3068 1239 125.992 1030.33 465.338
88 0 95.1448 12.4757 1187 128.294 1029.77 464.408
89 0 101.071 13.6241 1377 125.432 1029.63 460.007
90 1 52.1373 10.7792 562 125.164 1029.91 485.854
91 0 57.0604 12.8811 735 119.459 1030.36 481.563
92 0 54.0315 10.2718 555 123.78 1029.48 477.027
93 0 60.0141 13.0469 783 115.908 1029.88 482.409
94 0 62.0355 12.6702 786 116.253 1029.96 481.612
95 0 64.0358 12.1182 776 116.591 1029.54 480.425
96 0 65.0865 11.8304 770 117.703 1029.43 478.987
97 0 67.0644 12.0332 807 117.621 1029.72 475.762
98 0 70.0212 11.8393 829 116.761 1029.35 476.638
99 0 73.0692 12.5771 919 113.263 1029.69 476.802
100 0 77.0404 12.3442 951 113.848 1029.19 474.614
101 0 78.0566 11.9529 933 115.559 1029.5 471.953
102 0 82.0623 12.3077 1010 114.276 1030.14 471.404
103 0 85.0773 12.8942 1097 112.997 1030.2 469.9
104 0 89.0779 13.1346 1170 111.804 1029.69 467.128
105 0 90.0733 12.6119 1136 112.346 1029.63 466.888
106 0 93.1167 13.5958 1266 111.019 1029.43 464.205
107 0 97.1588 12.8038 1244 111.357 1029.45 463.626
108 0 98.0993 12.2835 1205 113.129 1029.59 459.608
109 0 103.07 12.865 1326 110.629 1029.03 459.281
110 1 55.0691 11.4402 630 103.749 1029.07 485.821
111 0 55.0192 11.705 644 103.575 1029.72 483.699
112 0 58.035 11.6481 676 101.038 1029.91 483.7
113 0 58.0978 11.9282 693 102.626 1029.66 480.579
114 0 62.0811 11.2595 699 102.478 1029.46 481.637
115 0 62.0998 10.8374 673 104.591 1029.7 480.386
116 0 66.0343 11.0246 728 103.89 1029.16 480.095
117 0 68.0722 11.9432 813 104.167 1029.39 476.843
118 0 71.0567 11.3431 806 105.3 1029.66 476.481
119 0 72.1096 11.9263 860 105.769 1028.9 475.212
120 0 75.0891 12.665 951 106.257 1029.27 472.933
121 0 78.0756 11.681 912 109.251 1029.06 472.844
122 0 80.2454 12.3372 990 108.696 1029.01 470.283
123 0 83.063 13.0022 1080 108.659 1029.7 467.836
124 0 87.1596 13.5958 1185 107.169 1029.45 468.481
125 0 89.0687 12.99 1157 110.123 1028.91 465.637
126 0 94.1083 12.9213 1216 110.804 1028.12 463.704
127 0 97.313 12.5163 1218 111.611 1028.43 463.844
128 0 99.1511 12.0826 1198 113.487 1028.81 461.973
129 0 103.057 12.1293 1250 113.774 1029.1 461.005
130 1 54.0525 10.1938 551 111.944 1028.8 483.294
131 0 54.0636 10.0067 541 116.226 1028.55 483.065
132 0 57.1626 11.0562 632 106.688 1028.78 483.12
133 0 60.0279 10.4618 628 108.382 1029.2 482.24
134 0 62.0712 11.2613 699 106.405 1028.4 481.511
135 0 64.0481 10.9917 704 107.462 1028.9 480.388
136 0 67.133 6.71801 451 78.7295 1029.25 485.381
137 0 68.0682 11.0477 752 108.16 1029.4 477.225
138 0 72.0603 11.2961 814 107.047 1029.53 475.371
139 0 72.1197 11.7998 851 106.511 1028.58 475.351
140 0 76.0441 12.5322 953 106.545 1029.03 470.468
141 0 78.1064 11.6124 907 108.251 1029.58 470.885
142 0 82.0721 11.7458 964 107.627 1028.92 470.156
143 0 83.0784 12.6387 1050 106.56 1029.36 467.536
144 0 88.0505 12.2316 1077 108.254 1029.48 466.119
145 0 90.0924 12.6648 1141 107.236 1029.74 465.365
146 1 45.1325 9.50534 429 108.448 1030.98 488.622
147 0 46.2708 11.1085 514 107.14 1029.17 485.368
148 0 47.1252 12.2015 575 104.741 1028.96 487.197
149 0 49.0223 11.5662 567 106.852 1029 485.351
150 0 53.011 11.9409 633 104.821 1028.46 485.613
151 0 53.0367 12.6705 672 104.862 1028.52 484.182
152 0 54.066 12.7437 689 104.676 1028.22 482.692
153 0 54.0334 11.6409 629 109.639 1028.45 482.707
154 0 56.0467 12.1506 681 104.304 1029.67 483.894
155 0 57.035 10.9933 627 107.579 1028.96 484.054
156 0 59.0575 11.5819 684 106.849 1029.92 482.148
157 0 60.0527 12.7055 763 105.22 1029.23 481.739
158 0 61.0351 11.3869 695 109.895 1029.34 481.553
159 0 64.0523 12.9894 832 107.013 1029.04 478.786
160 0 66.0194 11.2846 745 111.007 1028.98 477.341
161 0 67.0737 12.2104 819 109.618 1030.2 478.277
162 0 70.0249 12.0814 846 110.122 1029.32 476.72
163 0 72.0935 12.0538 869 111.07 1029.01 475.718
164 0 75.0816 12.7861 960 109.71 1029.24 472.583
165 0 77.1148 13.1752 1016 109.703 1029.28 474.266
166 0 81.0708 12.0635 978 112.438 1028.65 471.961
167 0 81.083 12.3824 1004 113.545 1029.06 471.58
168 0 87.0536 12.4866 1087 112.961 1029.04 468.59
169 0 89.0815 12.9881 1157 112.409 1029.09 467.056
170 0 92.1102 12.6696 1167 113.427 1028.93 464.99
171 0 92.0721 11.0131 1014 119.547 1028.61 462.129
172 0 97.1346 12.6319 1227 114.25 1028.77 461.383
173 1 51.089 10.6481 544 115.789 1029.24 484.024
174 0 53.0509 11.8377 628 110.543 1028.59 484.396
175 0 54.0722 11.3922 616 110.985 1029.42 482.865
176 0 55.0384 12.3005 677 110.616 1029.32 483.22
177 0 57.1178 10.5571 603 113.861 1029.21 481.577
178 0 59.0273 12.4857 737 109.425 1029.09 480.757
179 0 61.0237 12.405 757 108.896 1029.55 479.81
180 0 64.0598 12.5352 803 108.753 1029.28 480.019
181 0 67.0468 11.395 764 111.321 1029.39 476.406
182 0 69.0892 12.1148 837 110.693 1029.18 476.852
183 0 72.0986 13.0793 943 109.881 1029.05 475.626
184 0 75.0615 12.563 943 119.828 1027.88 472.804
185 0 80.0618 13.0524 1045 117.875 1028.12 473.116
186 0 79.0566 11.9914 948 122.861 1028.32 472.092
187 0 83.0823 12.3853 1029 123.165 1028.94 469.502
188 0 86.0494 12.9577 1115 121.331 1029.08 469.845
189 0 91.1006 12.9088 1176 122.294 1028.29 466.905
190 0 93.1023 13.2757 1236 122.1 1028.55 465.294
191 0 96.058 13.3877 1286 120.705 1028.75 464.63
192 1 49.0376 10.1555 498 117.402 1029.37 487.076
193 0 51.0203 11.2504 574 114.057 1029.36 488.071
194 0 53.021 13.0892 694 111.075 1028.72 484.983
195 0 52.0582 10.738 559 114.914 1029.84 485.345
196 0 56.0985 11.4441 642 113.023 1029.81 483.673
197 0 55.03 12.0843 665 113.023 1029.84 483.914
198 0 58.0281 12.1148 703 113.723 1029.63 481.499
199 0 58.0942 10.6379 618 117.57 1029.33 481.943
200 0 62.1546 11.6966 727 114.263 1029.16 481.099
201 0 63.1449 11.339 716 115.873 1028.95 480.608
202 0 66.0631 11.6555 770 115.286 1028.59 478.257
203 0 68.1078 11.4671 781 116.337 1029.54 477.394
204 0 72.0809 12.3056 887 113.315 1029.06 476.223
205 0 73.0872 12.6561 925 114.101 1029.94 475.226
206 0 75.0889 10.9737 824 118.4 1029.26 473.017
207 0 79.0735 12.0268 951 114.897 1028.7 471.353
208 0 82.0937 12.1447 997 114.423 1029.75 469.111
209 0 84.1164 11.5792 974 115.702 1029.59 468.266
210 0 88.124 11.4271 1007 115.015 1028.99 469.294
211 1 45.0078 10.5982 477 112.151 1030.03 487.371
212 0 47.0265 11.249 529 113.819 1029.27 488.287
213 0 48.017 11.0586 531 110.009 1029.67 484.618
214 0 50.0668 11.0253 552 115.859 1030.6 485.252
215 0 49.0858 10.4307 512 113.264 1029.74 486.172
216 0 48.0237 10.245 492 115.093 1029.5 485.382
217 0 50.0314 10.5134 526 113.118 1029.31 486.403
218 0 49.0669 9.39534 461 118.113 1029.53 484.577
219 0 53.0803 10.3805 551 114.719 1028.62 483.628
220 0 55.0816 11.9641 659 110.786 1028.74 484.243
221 0 58.0611 12.2113 709 109.79 1029.01 483.512
222 0 59.0896 10.8987 644 112.975 1028.82 483.348
223 0 60.0824 11.7838 708 111.866 1028.6 479.504
224 0 63.0331 11.2005 706 112.241 1029.03 479.442
225 0 66.1513 11.5795 766 111.023 1028.95 479.134
226 0 68.1317 12.2704 836 109.937 1029.41 477.378
227 0 70.1355 11.8485 831 112.197 1029.18 476.005
228 0 72.1167 11.1763 806 113.62 1029.1 474.933
229 0 74.0966 10.5268 780 115.076 1029.2 475.137
230 0 80.1094 11.8463 949 110.94 1029.78 473.733
231 0 81.0476 10.9565 888 113.459 1029.33 473.717
232 1 42.0323 9.80198 412 113.665 1029.25 491.789
233 0 45.0249 11.8157 532 108.453 1029.78 490.128
234 0 45.0678 11.516 519 106.121 1031.47 489.584
235 0 46.0206 12.4292 572 104.558 1031.04 489.248
236 0 46.0655 11.0712 510 107.984 1030.61 490.318
237 0 47.0235 11.4198 537 109.501 1031.07 488.97
238 0 49.0603 11.7814 578 108.13 1030.45 487.787
239 0 50.0469 11.2295 562 109.733 1030.37 487.956
240 0 52.0734 12.2519 638 107.503 1029.93 485.933
241 0 52.0575 11.8139 615 110.124 1029.98 485.922
242 0 54.057 12.6718 685 108.058 1029.62 484.396
243 0 55.0716 12.4928 688 108.805 1029.69 484.385
244 0 57.053 12.9704 740 107.458 1030.01 483.22
245 0 60.1524 12.6678 762 107.406 1029.69 483.412
246 0 61.0914 12.5059 764 108.373 1030 482.181
247 0 63.2045 12.9896 821 108.533 1030.14 480.116
248 0 64.0947 12.1695 780 110.659 1029.37 480.76
249 0 66.0558 12.2169 807 111.694 1029.8 478.85
250 0 67.0487 11.7079 785 113.413 1029.75 477.703
251 0 71.1542 12.6205 898 111.542 1030.01 476.945
252 0 71.062 12.2006 867 113.892 1029.93 474.141
253 0 77.0674 13.6893 1055 110.323 1029.81 473.992
254 0 75.1285 11.9395 897 117.347 1029.24 472.488
255 0 80.1198 13.4673 1079 113.703 1030.01 472.085
256 1 42.0512 10.7964 454 116.866 1030.28 490.826
257 0 45.0747 11.5586 521 119.207 1030.18 489.292
258 0 44.1841 9.91308 438 111.26 1029.36 485.516
259 0 45.0338 10.4588 471 114.335 1030.07 484.287
260 0 45.0274 9.77183 440 117.198 1030.08 483.768
261 0 47.0163 11.3578 534 114.157 1030.22 481.981
262 0 49.0149 10.303 505 115.133 1030.23 483.964
263 0 50.1019 10.6782 535 116.185 1030.11 482.312
264 0 53.1155 10.1477 539 115.134 1029.65 482.959
265 0 54.1518 11.0246 597 115.38 1029.47 481.117
266 0 54.0454 11.3053 611 117.025 1029.98 479.486
267 0 58.0318 10.3219 599 118.708 1030.74 479.083
268 0 60.0314 11.0775 665 116.218 1029.85 477.421
269 0 61.018 10.4068 635 118.86 1030.17 480.268
270 0 65.065 12.4491 810 122.753 1030.48 478.931
271 0 66.2634 12.405 822 124.253 1029.53 478.473
272 0 68.0991 12.0413 820 125.882 1030.3 476.107
273 0 71.1467 13.2824 945 122.779 1030.2 475.18
274 0 72.1941 12.0231 868 127.772 1029.56 472.588
275 0 76.1684 12.5511 956 124.549 1030.18 473.753
276 0 78.1026 11.5745 904 124.98 1030.29 473.267
277 0 81.1308 11.4013 925 127.729 1029.6 469.862
278 0 87.2422 13.8809 1211 96.4715 1029.21 468.96
279 1 43.0089 10.928 470 113.983 1029.37 492.619
280 0 43.0189 10.3443 445 115.13 1028.67 490.942
281 0 44.0384 11.5354 508 111.081 1028.7 490.504
282 0 44.0454 11.193 493 112.519 1028.38 488.686
283 0 46.0515 12.182 561 111.114 1029.59 490.54
284 0 46.0598 10.5081 484 115.7 1028.66 490.696
285 0 48.1032 10.6854 514 114.907 1029.01 489.778
286 0 49.0347 11.4205 560 114.402 1028.71 488.541
287 0 52.0387 13.317 693 108.13 1029.38 487.599
288 0 52.0423 12.2208 636 111.967 1028.92 486.811
289 0 53.0655 12.3621 656 111.869 1028.21 484.764
290 0 57.1211 13.8128 789 107.349 1029.15 484.364
291 0 59.0686 12.4939 738 110.996 1028.89 483.569
292 0 59.1143 11.3678 672 114.162 1029.11 482.549
293 0 63.047 12.7682 805 110.022 1029.65 482.047
294 0 65.0974 11.9052 775 112.043 1029.39 479.374
295 0 68.0673 14.089 959 106.951 1029.44 478.234
296 0 71.1231 12.9353 920 110.348 1029.25 477.791
297 1 38.0543 11.0106 419 109.68 1029.72 494.809
298 0 37.0056 10.9983 407 109.86 1030.4 492.845
299 0 38.0231 10.7829 410 111.807 1028.79 490.551
300 0 39.0388 10.861 424 106.323 1028.78 493.592
301 0 40.0098 11.9971 480 104.123 1027.88 492.019
302 0 42.0565 10.8901 458 105.972 1028.55 492.476
303 0 42.0717 11.1952 471 105.401 1028.45 490.567
304 0 44.0076 11.3844 501 104.836 1028.69 491.858
305 0 46.0084 11.737 540 104.448 1029.16 489.07
306 0 46.0219 12.9286 595 101.889 1029.33 489.921
307 0 48.0536 11.6536 560 104.011 1029.29 488.388
308 0 50.1302 12.0686 605 103.069 1029.26 486.732
309 0 52.0575 12.7935 666 100.968 1029.17 486.132
310 0 52.1181 12.5292 653 101.995 1028.7 486.248
311 0 54.0916 12.6637 685 100.905 1029.51 484.349
312 0 55.0339 13.1192 722 100.139 1029.11 484.125
313 0 57.0715 13.0012 742 100.402 1028.94 483.257
314 0 58.0795 13.206 767 100.987 1028.83 483.598
315 0 60.0711 13.2842 798 100.673 1028.33 482.916
316 0 61.0976 11.9154 728 103.253 1028.64 482.183
317 0 63.054 12.8303 809 101.482 1028.52 481.43
318 0 64.1559 13.6387 875 100.655 1028.44 480.352
319 0 68.0109 12.3657 841 103.021 1028.94 478.26
320 0 70.1132 13.5067 947 100.592 1028.63 478.404
321 0 71.1244 12.7101 904 103.284 1028.4 475.775
322 0 74.1223 12.8167 950 108.564 1028.47 474.585
323 0 74.1223 12.7897 948 129.507 1027.47 474.511
324 0 79.1778 11.5815 917 111.176 1028.21 472.492
325 0 83.144 13.8435 1151 107.453 1028.74 469.4
326 1 40.0189 10.9948 440 106.016 1027.89 492.586
327 0 41.0302 10.2851 422 96.0711 1029.9 491.166
328 0 42.0902 9.14703 385 100.582 1029.48 488.717
329 0 43.0518 10.3828 447 97.9239 1029.95 486.557
330 0 44.1365 9.74251 430 97.8953 1030 487.763
331 0 45.118 11.4145 515 98.6505 1029.94 485.068
332 0 47.0279 10.717 504 100.607 1029.49 485.105
333 0 49.0497 10.2345 502 101.287 1029.43 485.735
334 0 49.1144 12.42 610 106.408 1030.3 487.128
335 0 53.1008 11.8831 631 106.987 1029.8 486.739
336 0 52.0883 11.6725 608 142.329 1029.78 486.16
337 0 52.0851 11.654 607 141.845 1029.78 486.196
338 0 56.0738 12.5905 706 106.203 1030.48 483.054
339 0 59.0424 12.4995 738 105.509 1030.94 483.813
340 0 60.0567 12.7047 763 106.908 1030.77 482.329
341 0 61.0645 12.5932 769 107.918 1030.36 479.655
342 0 63.0898 12.5852 794 107.918 1030.88 480.971
343 0 66.0992 13.0259 861 106.906 1030.52 478.691
344 0 68.1025 11.7323 799 110.18 1030.09 476.623
345 0 70.0484 13.6905 959 106.337 1031.33 476.092
346 0 73.124 13.0327 953 107.955 1029.66 476.425
347 0 73.1152 12.323 901 112.326 1028.6 472.524
348 0 74.0296 12.8597 952 110.518 1030.78 472.894
349 0 76.0267 12.8113 974 112.813 1029.85 468.822
350 0 82.0803 13.7061 1125 109.025 1030.1 468.669
351 0 84.0805 14.0936 1185 109.654 1029.71 465.746
352 0 86.0475 11.9934 1032 114.646 1029.77 464.629
353 0 86.057 12.1199 1043 146.414 1029.74 464.705
354 1 50.0274 11.5137 576 106.571 1028.41 484.42
355 0 52.0745 10.0241 522 109.176 1028.29 483.897
356 0 53.2407 13.0351 694 105.199 1029.31 484.55
357 0 56.1922 12.4039 697 106.624 1028.82 485.377
358 0 57.0916 12.9091 737 105.411 1028.54 484.326
359 0 58.1342 12.4023 721 106.67 1029.44 484.064
360 0 61.0969 13.0285 796 105.123 1029.6 482.866
361 0 63.1009 13.6131 859 103.866 1028.9 481.464
362 0 65.211 12.8046 835 104.589 1028.7 479.152
363 0 68.1689 13.2905 906 103.429 1028.87 477.208
364 0 69.0531 13.3376 921 104.869 1028.75 476.457
365 0 72.0995 13.1901 951 104.27 1028.3 476.75
366 0 73.1724 11.8897 870 107.513 1028.75 475.617
367 0 75.0797 13.2925 998 104.576 1028.73 472.337
368 0 79.1477 12.8873 1020 104.627 1029.16 471.197
369 0 82.0508 12.7116 1043 104.519 1029.4 468.202
370 0 85.1257 13.7326 1169 102.26 1029.26 467.802
371 0 86.2302 13.2088 1139 103.79 1028.91 465.155
372 0 90.1297 12.7261 1147 105.311 1029.25 467.033
373 1 48.0399 10.6162 510 102.914 1029.51 488.776
374 0 50.1327 11.0507 554 101.787 1028.92 485.937
375 0 47.0724 10.7282 505 100.612 1030.75 490.109
376 0 49.0622 11.8013 579 99.3368 1029.5 490.629
377 0 50.0368 11.1918 560 100.121 1029.94 490.689
378 0 53.0173 11.9018 631 99.4707 1029.77 487.978
379 0 55.0097 12.3615 680 98.7088 1029.27 486.86
380 0 55.1298 12.1531 670 100.242 1030.09 486.757
381 0 57.1019 11.8735 678 100.894 1030.29 486.608
382 0 60.0461 12.7069 763 98.6461 1030.21 483.98
383 0 59.0173 11.6915 690 102.267 1030.46 483.139
384 0 61.0434 11.6311 710 102.724 1030.32 483.631
385 0 63.0223 12.2496 772 103.475 1029.97 481.149
386 0 64.1051 12.4171 796 103.122 1030.33 481.126
387 0 67.145 12.2571 823 103.885 1030.31 477.521
388 0 69.0474 11.8759 820 104.784 1030.26 479.226
389 0 72.1643 11.2382 811 107.182 1029.64 477.513
390 0 74.1196 12.8576 953 105.364 1029.12 475.518
391 0 75.0821 12.453 935 107.898 1029.95 476.852
392 0 78.0173 12.3178 961 110.739 1029.5 473.85
393 0 81.079 13.3327 1081 109.358 1029.97 473.708
394 0 83.152 13.0725 1087 110.77 1029.91 470.563
395 0 83.152 13.1206 1091 129.456 1028.93 470.464
396 0 92.0994 13.0946 1206 115.321 1029.63 469.461
397 0 91.1085 12.9077 1176 119.233 1029.4 465.714
398 0 96.167 13.5181 1300 117.025 1028.75 465.368
399 0 100.087 13.4783 1349 115.446 1030.08 463.645
400 1 53.213 10.4862 558 115.461 1029.87 484.977
401 0 55.117 10.5231 580 114.686 1029.48 483.788
402 0 58.0877 12.4123 721 105.743 1029.9 486.368
403 0 58.055 11.8164 686 109.15 1029.94 485.378
404 0 60.0705 11.3034 679 109.94 1029.67 484.074
405 0 62.0447 11.6851 725 108.913 1029.9 481.254
406 0 65.0615 13.4642 876 105.158 1030.31 480.3
407 0 67.0389 12.1869 817 106.512 1029.62 480.308
408 0 70.0783 11.4729 804 107.82 1029.89 478.354
409 0 73.1043 11.8734 868 106.031 1029.68 478.422
410 0 75.0616 11.6038 871 107.409 1029.72 474.799
411 0 77.1753 12.1541 938 106.737 1029.65 474.333
412 0 80.1979 11.3095 907 109.535 1029.11 473.03
413 0 84.1892 12.3888 1043 106.248 1029.86 472.871
414 0 87.0958 12.7216 1108 105.79 1029.08 470.291
415 0 87.0958 12.7331 1109 126.578 1028.09 470.426
416 1 44.0367 9.67374 426 107.061 1029.85 490.951
417 0 47.0186 11.102 522 106.063 1029.99 488.864
418 0 48.1649 12.3534 595 105.146 1030.12 489.61
419 0 51.1179 11.2485 575 106.024 1029.56 488.923
420 0 52.2869 11.9724 626 104.973 1029.73 488.722
421 0 52.0371 12.4142 646 107.644 1029.7 486.938
422 0 52.0361 11.223 584 110.007 1030.22 485.942
423 0 55.0735 11.639 641 109.232 1030.26 486.061
424 0 56.1106 12.4219 697 109.506 1029.85 484.93
425 0 60.148 12.569 756 107.845 1029.5 485.208
426 0 61.0429 13.2366 808 107.516 1029.7 482.512
427 0 64.1136 12.899 827 107.53 1029.03 482.129
428 0 67.069 12.927 867 107.599 1029.74 479.938
429 0 67.1104 12.1442 815 111.294 1029.41 478.621
430 0 70.1361 11.7628 825 112.195 1028.8 478.28
431 0 73.0803 12.671 926 110.239 1029.17 478.448
432 0 75.06 11.6973 878 112.616 1028.84 476.626
433 0 77.1268 12.473 962 112.278 1029.13 475.067
434 0 80.1813 11.8606 951 114.022 1029.25 474.21
435 0 83.0429 11.8975 988 113.559 1029.43 472.152
436 0 86.0567 12.1664 1047 113.39 1029.63 470.89
437 1 45.0447 10.3231 465 111.742 1028.44 491.514
438 0 48.0913 11.4158 549 109.366 1029.1 490.448
439 0 49.1416 11.1921 550 101.764 1030.57 485.549
440 0 49.0554 11.1914 549 108.523 1029.79 488.415
441 0 51.0172 11.7607 600 107.102 1029.52 488.708
442 0 53.0791 11.4923 610 106.987 1029.27 488.462
443 0 55.0692 14.5998 804 100.245 1029.82 486.995
444 0 55.0405 11.9912 660 106.609 1029 485.377
445 0 57.0463 11.9903 684 105.962 1029.69 485.836
446 0 59.0842 11.966 707 105.909 1030.71 483.963
447 0 59.0867 11.9993 709 126.777 1030.7 483.914
448 0 65.1067 12.9787 845 103.601 1030.69 482.174
449 0 66.1041 12.6467 836 104.799 1030.56 480.628
450 0 68.091 12.1455 827 106.277 1030.43 478.533
451 0 70.0318 12.4229 870 105.656 1030.89 478.377
452 0 74.0918 11.6207 861 106.76 1029.49 478.146
453 0 77.0946 13.9439 1075 102.151 1030.05 475.108
454 0 80.1227 13.2672 1063 103.774 1029.91 474.312
455 0 82.3149 12.5615 1034 106.179 1029.74 470.536
456 0 86.2112 13.0146 1122 104.801 1029.83 470.227
457 1 45.0287 11.0152 496 106.329 1029.65 490.157
458 0 44.0347 9.78773 431 99.0789 1030.16 485.84
459 0 45.0419 10.6123 478 102.18 1030.59 489.349
460 0 48.0301 11.8676 570 100.453 1030.73 489.047
461 0 50.0547 12.5463 628 98.7182 1031.18 488.154
462 0 54.0325 12.1593 657 97.7245 1030.7 488.942
463 0 54.0954 13.0695 707 97.529 1030.35 485.842
464 0 55.1207 12.9171 712 97.323 1030.94 485.982
465 0 55.0505 12.0072 661 100.463 1030.67 484.554
466 0 57.1129 12.0113 686 100.827 1030.14 486.418
467 0 60.0487 11.5406 693 101.844 1029.45 484.603
468 0 63.0951 12.1563 767 101.656 1030.15 483.492
469 0 64.0541 13.0515 836 101.611 1029.64 483.035
470 0 64.1276 12.9585 831 102.55 1029.94 480.691
471 0 67.0786 11.8667 796 104.908 1029.7 479.926
472 0 71.0535 13.1591 935 102.425 1029.58 478.912
473 0 70.0268 12.6666 887 122.384 1029.56 478.097
474 0 75.1426 13.3746 1005 104.544 1029.88 477.901
475 0 77.1633 14.0352 1083 104.478 1030.46 475.978
476 0 81.1339 14.8643 1206 103.518 1029.67 473.16
477 0 84.0906 14.1633 1191 106.605 1029.31 473.274
478 0 85.1358 13.5431 1153 115.299 1029.61 472.198
479 0 88.1166 13.9474 1229 115.269 1029.41 470.255
480 0 92.1259 13.6878 1261 115.539 1028.93 469.597
481 0 95.2347 13.556 1291 117.037 1029.04 468.398
482 0 97.0946 14.8 1437 115.67 1028.54 465.868
483 0 100.106 13.8653 1388 117.475 1029.44 466.152
484 0 103.174 14.2575 1471 117.8 1029.27 462.265
485 0 106.224 14.9025 1583 116.267 1029.18 461.223
486 0 110.106 13.923 1533 118.941 1028.74 459.062
487 0 114.102 14.4081 1644 117.094 1028.82 457.766
488 1 57.0708 11.0039 628 117.879 1028.99 486.798
489 0 60.2441 12.9971 783 116.508 1029.33 482.87
490 0 61.2038 12.4339 761 119.198 1029.07 482.171
491 0 64.1375 14.1415 907 112.344 1029.56 480.94
492 0 67.0946 13.5778 911 116.48 1029.71 481.339
493 0 68.0378 14.4331 982 115.756 1029.13 481.461
494 0 70.0827 13.8123 968 118.193 1029.25 479.761
495 0 72.0697 13.9032 1002 118.444 1029.24 477.708
496 0 74.018 13.821 1023 118.819 1028.77 477.549
497 0 76.0993 13.5481 1031 119.746 1029.09 475.854
498 0 77.1021 12.7753 985 124.088 1029.04 473.109
499 0 80.0706 13.3008 1065 122.711 1029.73 473.777
500 0 84.0995 14.1142 1187 125.083 1029.17 468.677
501 0 83.0745 12.7837 1062 132.547 1029.77 466.824
502 0 87.0727 13.2648 1155 130.461 1029.54 468.271
503 0 91.0696 13.034 1187 131.847 1030.16 466.158
504 0 94.0602 12.2156 1149 134.778 1030.03 464.762
505 0 96.2045 13.3985 1289 132.238 1030.27 462.219
506 0 99.1204 13.8518 1373 132.571 1029.16 457.686
507 0 105.073 13.5906 1428 130.784 1029.53 458.111
508 0 105.073 13.6287 1432 160.617 1028.53 458.117
509 0 113.154 14.2196 1609 128.204 1029.21 453.828
510 1 61.0452 11.9256 728 124.973 1029.19 479.839
511 0 65.1679 12.3834 807 126.813 1029.06 480.761
512 0 66.1464 12.0641 798 127.986 1029.92 481.217
513 0 68.0964 13.055 889 125.092 1029.91 480.459
514 0 73.148 14.1494 1035 121.913 1029.91 477.234
515 0 74.1328 14.0558 1042 120.705 1029.21 475.439
516 0 74.1328 14.0019 1038 137.987 1029.2 475.417
517 0 77.1414 13.4558 1038 124.033 1030.14 473.933
518 0 80.1186 13.6048 1090 122.996 1030.18 471.921
519 0 85.0511 13.1333 1117 122.779 1029.87 471.212
520 0 86.1331 14.0016 1206 121.878 1030.14 468.965
521 0 89.1684 12.7287 1135 124.5 1029.3 466.034
522 0 92.1146 13.7437 1266 121.754 1028.19 462.957
523 0 94.2163 13.2461 1248 123.118 1029.57 462.224
524 0 99.0437 14.2967 1416 119.922 1029.21 458.373
525 0 101.143 13.9802 1414 120.864 1029.53 457.31
526 0 107.145 14.0277 1503 119.826 1029.24 454.513
527 1 52.0348 10.8005 562 118.993 1029.05 484.475
528 0 54.039 11.9543 646 116.276 1029.08 484.534
529 0 57.1654 13.8895 794 112.705 1029.25 487.241
530 0 56.0458 13.2749 744 115.969 1030.03 488.161
531 0 58.0771 12.9827 754 117.036 1029.84 485.263
532 0 60.2111 12.2735 739 117.225 1029.94 486.755
533 0 65.2269 12.3569 806 114.552 1029.62 484.467
534 0 65.3111 13.4127 876 113.316 1029.33 484.763
535 0 69.2522 13.227 916 115.597 1029.81 482.961
536 0 71.2342 13.1538 937 121.223 1029.16 481.13
537 0 74.2836 13.7715 1023 119.745 1029.33 478.468
538 0 76.3073 12.8297 979 123.428 1029.28 476.799
539 0 77.3198 12.4936 966 123.975 1028.88 478.366
540 0 80.3009 13.7483 1104 122.074 1029.64 475.277
541 0 82.2797 13.7215 1129 123.464 1029.31 474.746
542 0 85.1991 13.7091 1168 122.39 1029.49 473.681
543 0 87.2094 14.1499 1234 120.09 1029.68 473.588
544 0 90.138 13.2464 1194 125.203 1029.1 472.088
545 0 92.1709 14.1368 1303 122.952 1029.66 467.81
546 0 96.2145 14.4157 1387 120.541 1029.71 470.345
547 0 98.152 14.8851 1461 120.394 1029.16 466.544
548 0 102.315 14.0351 1436 121.689 1029.54 467.462
549 0 106.278 14.048 1493 122.731 1029.42 463.691
550 0 109.439 13.6148 1490 125.358 1029.16 462.459
551 1 52.15 13.442 701 129.563 1028.69 488.987
552 0 55.1579 14.0324 774 127.041 1029.56 488.266
553 0 56.1125 14.2392 799 126.418 1029.26 487.837
554 0 59.1979 13.514 800 127.988 1028.9 486.496
555 0 60.2242 14.4294 869 127.609 1029.04 484.726
556 0 63.3116 13.8995 880 129.036 1029.19 482.752
557 0 65.3237 15.4615 1010 124.734 1028.77 482.55
558 0 67.1965 14.9264 1003 126.759 1029.02 480.537
559 0 70.2905 14.1698 996 128.851 1029.36 479.649
560 0 70.2512 15.2168 1069 126.185 1030.09 478.856
561 0 74.252 14.4239 1071 127.6 1030.2 479.522
562 0 76.2443 14.2962 1090 127.379 1029.19 477.093
563 0 77.1811 13.5007 1042 129.838 1029.27 475.856
564 0 82.2987 14.5081 1194 125.601 1029.83 474.967
565 1 41.0707 13.635 560 131.257 1029.7 494.005
566 0 42.0688 13.4304 565 132.287 1029.19 493.186
567 0 45.1517 14.3738 649 128.812 1028.45 493.086
568 0 45.0836 14.5729 657 129.25 1029.2 493.011
569 0 46.0848 14.4733 667 130.376 1028.73 491.909
570 0 47.0732 15.3166 721 127.774 1029.16 492.51
571 0 49.0152 14.6485 718 130.249 1029.23 490.76
572 0 50.0452 14.2271 712 131.11 1029 488.535
573 0 53.059 15.5487 825 126.305 1029.45 488.861
574 0 55.1453 15.849 874 125.405 1030.05 487.341
575 0 57.1093 15.6717 895 125.278 1029.49 488.141
576 0 58.1054 16.3324 949 124.544 1029.45 486.498
577 0 60.1745 16.1696 973 125.617 1028.68 485.503
578 0 61.1137 16.0357 980 126.533 1029 483.774
579 0 61.1137 16.0357 980 155.322 1028.99 483.822
580 0 66.1614 16.354 1082 124.969 1029.45 484.571
581 0 70.2333 17.5131 1230 122.37 1028.95 482.013
582 0 71.127 15.4372 1098 128.724 1029.54 481.792
583 0 74.1319 17.8466 1323 123.107 1029.15 480.094
584 0 76.1197 15.607 1188 129.551 1029.98 479.8
585 0 79.1226 16.5313 1308 127.948 1029.54 478.109
586 0 82.1175 15.9649 1311 129.867 1029.42 477.743
587 0 85.0913 16.1238 1372 128.835 1029.77 475.671
588 0 88.1379 16.2813 1435 128.417 1028.99 474.932
589 1 41.0447 13.7168 563 140.396 1029.34 495.95
590 0 43.0205 15.2486 656 137.267 1029.02 494.468
591 0 46.0778 17.1883 792 130.836 1028.6 493.121
592 0 48.1403 17.0128 819 131.05 1028.82 492.678
593 0 49.0955 15.8059 776 135.919 1029.35 491.58
594 0 51.0585 15.9621 815 134.666 1029.32 490.951
595 0 53.0315 16.1036 854 134.104 1029.02 490.632
596 0 55.1036 16.0606 885 134.157 1028.78 489.412
597 0 56.0485 16.5571 928 133.199 1028.88 488.534
598 0 58.0938 16.6455 967 133.575 1028.95 486.14
599 0 62.0656 17.3526 1077 130.033 1029.44 487.086
600 0 63.0664 16.3479 1031 135.696 1029.34 484.458
601 0 65.1102 16.234 1057 136.061 1029.19 483.385
602 0 68.0594 16.2652 1107 135.717 1028.73 483.974
603 0 69.0564 17.2323 1190 134.65 1028.54 482.927
604 0 71.0699 17.926 1274 133.198 1028.54 482.289
605 0 74.0611 15.5007 1148 141.361 1029.26 479.662
606 0 78.1186 17.7679 1388 135.197 1029.07 479.102
607 0 80.2069 17.8164 1429 135.46 1028.69 477.398
608 0 81.2159 17.2996 1405 139.142 1027.96 477.029
609 0 86.1275 17.6831 1523 137.909 1029.11 473.965
610 0 90.12 16.9219 1525 140.875 1028.46 473.115
611 0 93.0975 18.6042 1732 137.376 1028.74 470.824
612 0 96.0738 16.8724 1621 143.35 1028.6 470.191
613 0 98.2269 17.7039 1739 142.391 1028.4 467.892
614 0 102.094 16.71 1706 147.032 1029 467.163
615 0 107.124 16.7189 1791 147.546 1028.99 463.899
616 1 50.0615 15.6208 782 150.697 1028.7 492.992
617 0 50.1136 14.8662 745 157.713 1028.99 491.277
618 0 53.1788 17.1309 911 150.937 1028.94 489.067
619 0 55.1262 16.181 892 153.658 1028.92 489.914
620 0 58.08 16.0641 933 154.024 1029.23 488.707
621 0 59.1281 16.0161 947 156.562 1029.68 487.504
622 0 61.0995 17.005 1039 153.735 1028.91 485.963
623 0 63.1118 16.8431 1063 154.167 1029.29 484.777
624 0 66.1119 17.0317 1126 152.16 1028.3 483.644
625 0 68.0671 17.3946 1184 151.636 1028.49 483.274
626 0 70.0407 16.6332 1165 154.48 1028.89 482.01
627 0 70.0589 15.5298 1088 161.347 1029.26 481.263
628 0 74.0838 16.1304 1195 157.803 1028.68 479.584
629 0 77.1135 15.2113 1173 158.893 1028.13 478.811
630 0 80.1007 15.8675 1271 156.792 1028.58 476.817
631 0 85.1421 16.0907 1370 156.032 1028.25 474.936
632 1 39.0397 14.0882 550 162.975 1028.63 495.689
633 0 41.0332 14.6467 601 160.017 1028.41 495.26
634 0 40.0329 14.5131 581 165.036 1028.11 494.225
635 0 44.0917 15.4904 683 158.231 1028.57 494.963
636 0 46.0852 14.5817 672 162.493 1029.04 493.165
637 0 47.0775 14.7416 694 163.451 1028.67 491.464
638 0 48.0765 14.6017 702 164.658 1027.91 491.536
639 0 52.1352 15.7667 822 158.609 1028.85 490.759
640 0 52.1594 16.0086 835 159.188 1029.33 489.834
641 0 54.054 15.0405 813 162.186 1028.52 489.614
642 0 55.0998 15.0817 831 162.326 1028.63 488.412
643 0 57.104 14.5349 830 164.678 1027.88 487.507
644 0 58.0996 14.6989 854 164.549 1028.57 486.943
645 0 61.0515 15.0693 920 162.351 1029 485.355
646 0 61.1175 15.5765 952 161.946 1029.03 484.771
647 0 62.1389 15.578 968 163.749 1028.19 483.414
648 0 66.0565 16.2891 1076 159.478 1028.95 482.599
649 0 66.1991 16.1029 1066 161.551 1028.29 483.366
650 0 70.0399 15.9909 1120 161.229 1028.22 480.791
651 0 72.0482 15.8644 1143 161.465 1028.03 480.03
652 0 73.1057 15.416 1127 164.61 1028.16 478.637
653 0 76.0368 16.0975 1224 162.787 1028.72 478.974
654 0 77.1033 15.7192 1212 165.763 1028.61 476.296
655 0 83.0627 16.5297 1373 160.241 1028.43 475.433
656 0 84.25 15.5608 1311 165.564 1028.64 474.062
657 0 88.111 16.5814 1461 161.52 1028.34 472.151
658 0 91.0856 16.6657 1518 161.163 1028.01 470.806
659 0 95.1571 16.1312 1535 160.583 1028.35 469.865
660 0 98.2135 16.1892 1590 160.181 1028.37 466.821
661 0 103.13 16.0381 1654 160.733 1028.74 464.871
662 0 107.247 15.9352 1709 160.813 1028.4 461.998
663 1 60.0586 13.9697 839 168.007 1028.35 485.734
664 0 61.1618 13.9957 856 164.515 1028.7 485.478
665 0 63.1914 14.6855 928 161.811 1028.79 483.159
666 0 66.0934 15.6748 1036 156.989 1028.28 483.795
667 0 66.0314 15.2352 1006 161.333 1027.49 482.064
668 0 70.0933 16.8204 1179 153.56 1027.45 481.724
669 0 71.0725 15.5616 1106 159.585 1028.21 479.133
670 0 74.2261 16.0051 1188 156.43 1027.52 480.268
671 0 76.1438 16.3375 1244 155.913 1028.16 476.986
672 0 79.0685 16.9979 1344 153.202 1027.75 475.893
673 0 81.1375 16.9835 1378 153.003 1027.56 473.364
674 0 90.0978 21.4545 1933 132.565 1027.71 468.598
675 0 91.146 18.6185 1697 142.041 1028.6 467.298
676 0 98.087 20.4716 2008 134.069 1027.85 463.96
677 0 102.089 22.0297 2249 127.537 1027.84 457.628
678 0 107.161 20.1006 2154 134.078 1028.41 460.527
679 0 110.094 20.6641 2275 132.784 1028.44 456.519
680 0 112.113 21.1572 2372 134.168 1028.47 458.316
681 0 122.328 20.2325 2475 132.909 1028.26 451.451
682 0 119.133 21.6144 2575 134.707 1027.44 453.006
683 0 127.165 21.6569 2754 132.95 1027.98 448.741
684 0 134.13 23.8649 3201 125.112 1028.1 441.052
685 1 51.1501 13.783 705 150.539 1028.2 489.732
686 0 53.0831 14.3172 760 151.716 1028.03 488.005
687 0 54.0422 14.8402 802 152.475 1028.4 487.475
688 0 53.048 14.7225 781 155.912 1027.94 486.942
689 0 56.1317 14.27 801 156.64 1028.5 485.923
690 0 58.1631 14.3218 833 157.127 1028.96 485.217
691 0 59.1331 13.7148 811 160.801 1028.44 483.888
692 0 63.1589 15.1364 956 153.933 1028.47 484.161
693 0 65.168 15.4677 1008 153.024 1028.62 482.787
694 0 65.1302 14.2023 925 159.984 1028.86 482.372
695 0 68.1178 15.7374 1072 154.454 1028.82 481.451
696 0 70.1857 15.8009 1109 155.214 1028.55 480.312
697 0 72.1338 17.7032 1277 148.901 1029.11 478.915
698 0 73.1625 15.9918 1170 156.641 1028.62 478.908
699 0 74.0713 15.3096 1134 160.728 1029.27 478.444
700 0 75.1686 15.9242 1197 160.724 1028.74 477.743
701 0 78.154 15.9941 1250 159.891 1029.06 477.213
702 0 78.123 16.6532 1301 159.816 1028.47 475.583
703 0 80.1385 15.5855 1249 167.186 1028.35 472.114
704 0 81.1099 15.855 1286 167.939 1028.39 470.998
705 0 82.2586 15.4391 1270 171.391 1028.7 471
706 0 84.2652 16.5074 1391 169.593 1027.77 468.562
707 0 86.1195 16.8487 1451 169.753 1028.39 468.508
708 0 88.3319 16.4267 1451 171.505 1027.78 466.568
709 0 91.3461 17.9756 1642 166.053 1027.36 465.746
710 0 92.3281 16.5172 1525 173.681 1028.2 463.849
711 0 95.5414 17.2491 1648 171.493 1028.17 461.965
712 0 97.5214 16.1093 1571 177.387 1027.94 462.17
713 0 101.277 19.3331 1958 164.661 1027.94 459.525
714 0 104.527 18.3015 1913 168.181 1028.23 456.62
715 0 105.358 19.2296 2026 167.558 1027.54 454.735
716 0 108.146 18.808 2034 169.945 1027.39 453.917
717 0 112.553 20.0083 2252 164.099 1028.38 451.654
718 0 113.174 19.1741 2170 167.938 1027.63 447.554
719 0 118.129 21.2225 2507 158.883 1027.92 443.84
720 0 122.104 20.6381 2520 162.665 1027.49 443.528
721 0 127.151 20.3695 2590 161.493 1027.68 437.974
722 0 131.272 20.5909 2703 160.323 1027.91 434.632
723 1 59.18 14.0588 832 185.451 1028.05 474.612
724 0 59.1007 12.1149 716 173.254 1028.07 473.439
725 0 59.1049 12.7401 753 167.952 1027.44 472.923
726 0 61.1397 12.8558 786 167.436 1027.46 471.934
727 0 62.0854 12.6278 784 169.18 1028.04 470.446
728 0 64.135 10.9768 704 172.56 1028.06 470.828
729 0 65.1596 13.2904 866 164.769 1028.14 469.174
730 1 117.191 14.7792 1732 138.838 1028.95 430.936
731 0 121.174 15.5809 1888 138.18 1028.55 425.975
732 0 123.205 17.475 2153 133.376 1028.57 421.895
733 0 127.147 16.0916 2046 139.269 1028.63 422.152
734 0 132.195 16.5211 2184 138.912 1028.69 420.884
735 0 135.322 16.5532 2240 139.923 1028.84 415.653
736 0 139.302 17.5949 2451 137.596 1028.26 413.057
737 1 82.054 9.73749 799 140.364 1029.56 453.489
738 0 84.0829 11.6195 977 136.522 1029.49 453.24
739 0 84.1578 10.8605 914 138.833 1029.66 453.59
740 0 89.1552 12.7755 1139 134.176 1029.09 448.605
741 0 92.1916 13.0489 1203 135.05 1029.69 446.094
742 0 96.1394 12.5755 1209 136.02 1029.39 444.656
743 0 97.1098 11.6054 1127 140.604 1028.96 445.03
744 0 100.141 11.8234 1184 140.165 1029.45 446.059
745 1 46.0341 10.2533 472 146.422 1030.45 471.65
746 0 49.0488 10.8667 533 144.071 1029.84 470.867
747 0 53.0785 10.8519 576 143.092 1029.27 469.866
748 0 54.1574 12.833 695 136.74 1029.43 469.154
749 0 53.0244 12.7866 678 138.996 1029.38 466.413
750 0 56.1314 12.7023 713 137.669 1029.5 465.457
751 0 57.0654 12.9676 740 138.012 1029.91 465.818
752 0 59.0936 12.844 759 137.565 1029.21 466.433
753 0 61.0565 12.988 793 136.535 1030.2 465.347
754 0 62.1 12.5443 779 138.087 1029.78 465.574
755 0 65.0809 13.2297 861 135.844 1028.48 459.056
756 0 65.0459 13.6212 886 136.273 1029.39 457.308
757 0 69.082 12.7964 884 137.146 1029.63 457.042
758 0 70.1154 12.8645 902 137.401 1029.01 455.804
759 0 71.1094 11.2643 801 142.047 1029.47 457.452
760 0 76.0856 13.5374 1030 133.901 1028.4 455.433
761 0 78.0528 11.5691 903 139.399 1029.03 450.81
762 0 81.1295 11.9439 969 137.531 1028.84 449.821
763 0 84.0544 11.8019 992 138.375 1029.22 450.445
764 0 86.0904 12.3475 1063 136.488 1029.36 450.205
765 0 89.1268 11.0853 988 138.49 1029.38 449.981
766 0 79.076 8.52344 674 142.407 1028.59 452.215
767 1 0 0 0 -nan -nan -nan
768 0 46.0181 15.0593 693 145.098 1027.49 205.351
769 0 48.0576 15.5646 748 142.981 1027.44 187.305
770 0 50.0641 15.1006 756 144.433 1027.48 187.132
771 0 52.0094 16.3624 851 139.9 1027.43 186.998
772 0 50.0437 15.0269 752 149.835 1028.1 185.402
773 0 52.066 14.8465 773 151.765 1027.67 180.78
774 0 54.0247 14.9931 810 148.507 1027.96 181.659
775 0 57.168 15.5332 888 144.834 1027.68 181.625
776 0 57.0721 15.1212 863 148.232 1027.44 181.995
777 0 60.0697 17.2966 1039 139.804 1027.55 183.483
778 0 62.1257 15.2916 950 147.573 1027.65 184.681
779 0 63.041 14.8633 937 151.566 1028.1 184.316
780 0 65.0713 15.7059 1022 147.36 1027.7 185.348
781 0 68.1193 16.4124 1118 145.301 1028.27 186.742
782 0 69.0688 15.8248 1093 149.058 1027.56 186.397
783 0 72.0674 16.3874 1181 147.063 1027.78 185.699
784 0 75.1052 16.2971 1224 146.099 1027.89 184.564
785 0 77.0665 16.1419 1244 146.186 1028.19 183.255
786 0 81.0452 16.5463 1341 144.356 1028.34 182.533
787 0 82.0962 15.0677 1237 149.743 1027.17 180.395
788 0 86.0522 15.7346 1354 146.011 1027.71 180.186
789 0 90.086 16.0735 1448 142.236 1028.25 177.674
790 0 94.1835 16.075 1514 139.265 1027.42 175.232
791 0 97.1412 15.1326 1470 144.19 1027.4 173.127
792 0 103.111 15.9536 1645 144.973 1027.27 171.856
793 0 52.0964 15.2026 792 144.202 1027.44 196.452
794 0 53.0439 16.2507 862 141.35 1027.53 196.759
795 0 52.0492 15.7735 821 144.759 1028.15 196.762
796 0 56.0281 15.8849 890 141.111 1027.42 196.925
797 0 57.0109 15.4707 882 141.333 1027.57 197.011
798 0 59.0232 16.9256 999 136.162 1027.58 196.274
799 0 62.0385 16.0707 997 137.57 1027.54 197.707
800 0 64.0431 16.3171 1045 138.104 1027.81 197.441
801 0 66.0433 16.3832 1082 137.706 1027.94 197.626
802 0 68.0431 16.225 1104 138.056 1027.44 195.925
803 0 71.0698 16.5471 1176 136.783 1027.12 196.828
804 0 73.0578 16.5075 1206 138.624 1028.01 196.391
805 0 75.1079 15.9637 1199 140.218 1027.58 197.358
806 0 77.0666 16.0251 1235 141.61 1027.6 197.62
807 0 78.1868 15.9618 1248 144.15 1027.31 197.457
808 0 81.1693 16.8783 1370 139.305 1026.82 196.275
809 0 84.0944 16.3982 1379 141.552 1027.66 196.858
810 0 87.1138 17.391 1515 137.451 1027.28 195.184
811 0 90.0508 16.4352 1480 142.257 1028.45 193.343
812 0 93.0462 17.099 1591 139.727 1027.78 195.054
813 0 95.101 17.1607 1632 138.654 1027.4 195.417
814 0 97.035 16.2003 1572 143.872 1027.09 193.555
815 0 102.081 16.8788 1723 137.325 1027.17 194.452
816 0 107.129 17.0636 1828 136.359 1027.93 192.049
817 1 60.0873 12.1989 733 144.094 1026.94 219.327
818 0 62.0798 13.0477 810 145.148 1027.9 218.295
819 0 64.0816 13.3736 857 146.477 1027.71 217.482
820 0 66.0591 15.1531 1001 141.993 1027.99 218.08
821 0 69.0353 15.3545 1060 141.535 1027.39 217.686
822 0 70.0542 14.2033 995 147.008 1028.83 218.194
823 0 72.0984 14.7853 1066 144.882 1028.52 217.353
824 0 76.1339 16.6811 1270 134.039 1028.26 217.11
825 0 76.1236 15.9215 1212 139.464 1028.53 215.326
826 0 80.1 18.2647 1463 131.444 1028.67 214.926
827 0 81.2054 16.5506 1344 138.52 1028.44 215.505
828 0 85.1648 17.0375 1451 137.263 1028.84 215.785
829 0 87.1315 16.4579 1434 140.524 1028.53 214.414
830 0 91.2102 18.2216 1662 132.777 1027.98 214.419
831 0 94.2087 17.2808 1628 135.906 1027.23 214.047
832 0 95.1546 16.0686 1529 141.438 1027.83 214.128
833 0 99.1904 17.6328 1749 135.264 1028.28 213.597
834 0 102.211 16.5246 1689 139.223 1027.71 210.677
835 0 106.255 15.651 1663 141.428 1027.93 210.346
836 0 112.22 17.0023 1908 132.62 1027.6 209.175
837 0 118.348 16.9923 2011 130.237 1027.64 208.128
838 1 64.1366 12.8476 824 135.797 1028.22 236.989
839 0 65.1029 12.8258 835 136.226 1028.05 236.762
840 0 67.0844 12.0594 809 137.412 1028.47 236.969
841 0 70.1331 12.6474 887 135.021 1027.99 235.979
842 0 73.1458 12.7007 929 134.152 1028.22 236.565
843 0 78.1855 12.8668 1006 132.622 1028.07 237.811
844 0 81.1302 14.8034 1201 125.359 1027.97 235.815
845 0 82.155 14.7769 1214 127.049 1028.41 238.443
846 0 85.1462 13.6589 1163 129.288 1027.79 239.257
847 0 88.1105 13.449 1185 130.346 1027.38 239.331
848 0 90.2724 14.279 1289 129.455 1027.62 239.235
849 0 92.139 13.7076 1263 131.937 1026.79 241.816
850 1 53.2042 10.018 533 123.053 1027.2 267.255
851 0 53.3608 9.0516 483 126.671 1026.39 269.195
852 0 56.2264 10.9913 618 123.063 1026.22 269.269
853 0 56.1837 10.7326 603 117.653 1027.16 270.476
854 0 60.0707 11.3699 683 118.514 1028 274.31
855 0 62.0612 12.6327 784 116.071 1027.3 275.969
856 0 62.117 10.6573 662 121.112 1028.06 279.234
857 0 63.1253 11.4693 724 121.808 1028.01 279.196
858 0 67.0638 11.586 777 120.543 1027.58 284.302
859 0 69.1869 12.2856 850 121.322 1026.71 283.073
860 0 69.1941 12.9924 899 120.64 1026.83 284.994
861 0 72.1597 12.7356 919 123.646 1027.05 288.185
862 0 75.172 13.1831 991 121.668 1027.38 291.199
863 0 76.1624 12.0926 921 121.145 1026.7 292.566
864 0 81.1365 11.9059 966 120.505 1026.91 297.688
865 0 81.166 11.803 958 120.408 1027.38 301.247
866 0 85.19 11.9498 1018 120.231 1027.41 303.567
867 0 87.1188 10.457 911 121.296 1027.36 309.328
868 0 91.1743 11.8345 1079 119.262 1026.91 310.015
869 1 47.1085 8.97927 423 117.648 1027.33 337.917
870 0 49.07 10.4137 511 114.763 1026.42 342.658
871 0 51.1033 10.3124 527 117.569 1027.15 348.201
872 0 56.0817 12.357 693 117.54 1027.62 354.257
873 0 55.0918 11.6714 643 120.479 1028.41 358.526
874 0 57.111 11.7841 673 121.291 1027.53 364.415
875 0 57.0902 11.0877 633 123.084 1027.5 370.874
876 0 60.1594 11.3864 685 120.615 1027.44 379.092
877 0 63.1196 12.912 815 116.474 1027.96 384.379
878 0 64.0522 11.7092 750 118.129 1028.08 390.472
879 0 66.2279 11.4151 756 118.344 1027.73 397.567
880 0 68.0632 11.9889 816 116.35 1028.38 405.192
881 0 70.0566 11.5335 808 117.306 1028.07 413.421
882 0 72.1792 10.8896 786 120.104 1027.18 419.91
883 0 74.1561 11.2466 834 118.106 1027.24 425.302
884 0 76.1142 9.94558 757 121.074 1028.15 435.029
885 0 82.116 10.2781 844 119.946 1028.63 446.886
886 0 85.1093 10.8684 925 119.662 1029.09 454.453
887 0 83.2623 9.65623 804 124.767 1028.84 463.723
888 0 88.1186 10.4972 925 119.917 1028.2 468.328
889 0 89.2061 8.37387 747 121.746 1028.47 467.578
890 0 90.179 8.21699 741 119.714 1028.39 471.484
891 0 95.4528 9.35541 893 124.782 1028.04 466.785
892 1 120.212 14.4245 1734 100.132 1028.31 446.454
893 0 120.095 14.8216 1780 103.958 1027.93 443.943
894 0 114.147 10.3551 1182 121.241 1027.82 444.305
895 0 114.201 11.7599 1343 119.692 1028.34 448.41
896 1 140.185 7.64706 1072 101.478 1028.06 401.498
897 0 65.0696 14.7688 961 110.955 1027.45 329.282
898 0 67.0274 15.71 1053 109.094 1027.63 311.112
899 0 71.0802 16.5588 1177 105.461 1027.77 303.678
900 0 70.0466 14.8901 1043 112.648 1027.17 297.9
901 0 73.0317 15.5823 1138 110.096 1027.7 299.695
902 0 75.0208 14.1561 1062 114.087 1027.86 300.84
903 0 78.1115 16.8989 1320 105.983 1028.03 301.435
904 0 80.0497 15.7152 1258 109.204 1027.2 302.223
905 0 81.0449 15.2508 1236 110.665 1027.53 304.767
906 0 84.1268 15.2389 1282 111.268 1027.74 303.887
907 1 41.0084 9.36392 384 122.003 1027.61 329.88
908 0 44.0152 10.9508 482 117.689 1027.47 330.693
909 0 45.1229 11.7679 531 114.787 1026.82 330.414
910 0 47.1376 11.5407 544 116.744 1027.4 330.233
911 0 47.0264 11.2703 530 123.434 1027.47 321.691
912 0 51.0161 12.4667 636 117.336 1027.54 326.228
913 0 49.0193 11.6689 572 123.407 1027.44 329.367
914 0 53.0209 13.8059 732 115.757 1027.56 331.444
915 0 53.0857 12.979 689 120.671 1027.07 337.318
916 0 55.0538 13.0963 721 119.196 1027.19 340.946
917 0 58.0326 12.6653 735 118.592 1027.47 343.252
918 0 58.056 13.2286 768 118.802 1027.02 342.328
919 0 59.0768 12.5091 739 121.804 1027.29 345.123
920 0 60.0358 13.5419 813 119.172 1027.25 345.272
921 0 62.0271 13.5586 841 117.65 1027.28 348.54
922 0 64.062 13.4557 862 117.995 1027.53 350.658
923 0 65.0608 14.2482 927 117.559 1027.55 351.696
924 0 65.0439 13.9137 905 119.284 1026.77 352.652
925 0 69.0712 14.5647 1006 115.442 1027.72 352.353
926 0 68.0798 12.691 864 121.523 1027.21 356.021
927 0 72.1234 14.0592 1014 116.339 1027.29 357.043
928 0 74.1196 13.6671 1013 117.102 1027.35 359.244
929 0 76.1785 13.2321 1008 118.817 1027.59 360.271
930 0 79.1923 13.6629 1082 116.039 1027.89 362.356
931 0 80.3459 13.4294 1079 117.03 1027.8 361.761
932 0 82.26 13.1899 1085 117.982 1028.1 359.652
933 0 87.3375 13.9344 1217 114.382 1027.65 362.121
934 0 87.2588 12.6749 1106 117.388 1028.3 360.406
935 0 92.2631 12.3451 1139 116.274 1028.22 360.099
936 1 46.1041 10.3461 477 110.625 1029 382.099
937 0 48.1392 10.8436 522 108.374 1028.17 381.856
938 0 49.0844 10.6755 524 112.802 1027.36 381.618
939 0 54.0479 12.1744 658 111.587 1027.22 392.163
940 0 53.032 12.0682 640 112.848 1027.22 408.811
941 0 54.0775 11.7054 633 113.796 1027.23 410.085
942 0 55.0427 11.8817 654 114.055 1027.35 411.098
943 0 57.0317 13.0629 745 110.216 1027.41 415.397
944 0 58.0283 14.2517 827 109.732 1027.63 411.734
945 0 59.0584 12.276 725 114.957 1027.68 412.737
946 0 60.0748 12.8174 770 114.182 1027.3 414.052
947 0 64.0638 13.7831 883 110.9 1028.16 416.895
948 0 65.029 13.1941 858 114.505 1027.63 412.162
949 0 68.0423 14.3881 979 111.758 1027.34 413.799
950 0 67.1 12.8018 859 116.976 1027.5 416.412
951 0 72.0675 14.9998 1081 111.236 1027.73 415.61
952 0 73.0471 13.4844 985 116.029 1026.84 414.954
953 0 73.0627 13.4268 981 118.917 1026.81 413.322
954 0 76.0645 13.0021 989 120.149 1027.52 411.908
955 0 80.094 14.1209 1131 116.491 1027.86 413.103
956 0 83.1422 14.4331 1200 116.035 1027.5 411.931
957 0 86.1264 13.7821 1187 118.214 1027.46 409.711
958 0 88.0698 13.0578 1150 120.637 1027.72 409.237
959 0 92.0747 14.4557 1331 116.802 1027.48 406.808
960 0 96.0521 14.742 1416 115.322 1027.17 406.855
961 0 98.1277 13.2786 1303 119.952 1027.17 405.657
962 0 101.083 13.662 1381 118.765 1027.63 404.925
963 1 55.0381 12.1552 669 116.169 1027.31 425.704
964 0 57.0502 11.9894 684 113.063 1028.01 426.861
965 0 58.0274 12.2528 711 117.762 1027.03 428.305
966 0 60.2885 12.4734 752 116.898 1026.97 429.323
967 0 63.0962 13.7092 865 112.468 1027.24 431.092
968 0 64.1693 12.7787 820 115.289 1027.22 433.757
969 0 65.2385 12.7226 830 115.627 1026.65 434.186
970 0 68.0635 13.2523 902 113.521 1027.64 436.247
971 0 70.1808 13.8214 970 112.863 1026.88 435.768
972 0 72.2287 11.7128 846 117.378 1026.77 434.616
973 0 76.2647 13.204 1007 115.49 1027.19 430.431
974 0 77.222 12.9885 1003 116.008 1027.6 431.667
975 0 82.2621 13.7609 1132 113.208 1027.21 429.92
976 0 84.2796 13.0993 1104 115.363 1027.38 425.389
977 0 87.1386 13.1056 1142 114.213 1028.27 424.759
978 0 88.2376 12.3077 1086 115.48 1027.41 426.605
979 0 92.2283 13.4557 1241 111.26 1027.57 432.915
980 0 96.2654 13.0369 1255 113.198 1027.28 428.715
981 1 47.0768 10.3023 485 112.532 1027.26 453.15
982 0 48.0845 11.7917 567 112.503 1027.77 451.406
983 0 51.0539 12.6533 646 111.862 1027.76 448.913
984 0 51.0532 12.4772 637 113.089 1028.21 449.728
985 0 55.0795 12.9449 713 110.424 1027.43 446.93
986 0 54.0961 11.8863 643 113.877 1028.22 446.695
987 0 57.0229 12.872 734 111.49 1028.29 449.232
988 0 59.1067 12.5197 740 111.345 1028.37 449.558
989 0 59.1203 13.3626 790 111.203 1028.5 444.001
990 0 61.1974 13.53 828 111.147 1028.18 442.316
991 0 63.1129 12.7074 802 113.305 1027.97 441.817
992 0 65.0787 12.7845 832 112.912 1027.61 442.01
993 0 67.0804 12.5819 844 113.981 1028.39 437.687
994 0 69.0569 13.1631 909 113.433 1027.48 434.121
995 0 73.0854 13.0806 956 112.408 1027.63 436.254
996 0 75.2535 12.2652 923 114.202 1027.98 435.865
997 0 77.0882 13.4132 1034 111.886 1028.16 433.757
998 0 81.1519 12.5197 1016 113.936 1027.38 432.47
999 0 84.1139 13.6957 1152 111.186 1027.85 431.945
1000 0 86.0808 12.558 1081 113.072 1028.32 434.03
1001 0 89.1859 13.8699 1237 110.893 1027.38 431.178
1002 0 93.2673 13.3273 1243 111.779 1027.61 431.578
1003 1 46.1116 10.4312 481 111.744 1028.7 459.206
1004 0 49.1962 10.8545 534 111.434 1027.84 464.685
1005 0 51.0489 11.6359 594 107.71 1027.86 473.355
1006 0 51.2167 12.0664 618 109.641 1027.44 480.032
1007 0 54.1097 12.8258 694 105.847 1028.11 484.911
1008 0 57.1096 12.3097 703 107.407 1027.35 483.102
1009 0 59.1518 12.5778 744 106.769 1028.36 482.691
1010 0 59.1145 11.1648 660 110.933 1028.34 481.714
1011 0 62.073 12.0342 747 109.806 1027.57 479.833
1012 0 64.1809 13.8826 891 106.92 1027.51 475.591
1013 0 74.1151 16.8791 1251 95.5955 1027.44 466.935
1014 0 75.1368 15.1191 1136 100.044 1026.51 467.046
1015 0 74.231 14.5896 1083 104.759 1027.8 469.32
1016 0 77.1848 13.811 1066 106.602 1027.47 469.404
1017 0 80.2378 14.0582 1128 106.481 1027.92 472.308
1018 0 80.2826 13.0913 1051 110.692 1028.59 468.108
1019 0 83.1181 13.0658 1086 110.252 1028.67 471.939
1020 0 85.1332 12.592 1072 109.483 1028.11 471.102
1021 0 87.1044 12.6056 1098 108.738 1027.99 471.556
1022 0 92.1374 12.3186 1135 109.144 1028.01 468.382
1023 1 46.1182 10.0611 464 105.321 1028.1 491.584
1024 0 49.0439 12.0912 593 102.614 1028.2 489.924
1025 0 52.0233 10.7452 559 104.436 1028.95 488.939
1026 0 54.0105 12.6272 682 106.616 1027.92 485.059
1027 0 56.0439 12.4724 699 106.677 1028.7 485.089
1028 0 56.0291 12.1009 678 109.82 1027.68 483.841
1029 0 56.0615 11.6122 651 110.994 1028.16 482.422
1030 0 60.0446 13.5566 814 106.19 1028.27 482.405
1031 0 62.0282 12.8812 799 108.842 1028.55 482.186
1032 0 62.049 11.0074 683 112.862 1028.98 480.584
1033 0 66.1249 13.172 871 110.454 1028.19 476.668
1034 0 68.1245 14.6643 999 107.876 1028.16 477.131
1035 0 71.2818 13.2713 946 111.806 1028.21 476.496
1036 0 71.3537 12.8655 918 114.834 1028.34 473.979
1037 0 74.1495 11.8679 880 112.506 1028.85 475.015
1038 0 77.0676 12.794 986 110.386 1028.94 474.61
1039 0 82.1284 13.6615 1122 107.447 1028.35 472.303
1040 0 84.1019 13.1626 1107 108.308 1028.24 471.953
1041 0 86.1088 11.2648 970 114.339 1029.08 470.99
1042 0 89.0732 11.6197 1035 113.352 1027.59 469.042
1043 1 49.052 11.7426 576 105.924 1028.8 489.115
1044 0 51.0367 11.6779 596 110.523 1028.9 488.918
1045 0 54.0187 13.9767 755 105.503 1028.89 488.902
1046 0 56.0079 11.5698 648 111.485 1028.35 485.88
1047 0 58.0356 11.6136 674 112.184 1028.14 481.994
1048 0 59.0736 12.5437 741 111.333 1028.04 480.85
1049 0 61.2204 12.2182 748 113.271 1027.57 480.973
1050 0 64.1368 12.1459 779 113.772 1028.28 479.705
1051 0 65.3023 12.9705 847 112.799 1028.02 477.314
1052 0 67.4341 12.7829 862 113.561 1027.21 475.327
1053 0 70.4232 14.1857 999 109.94 1027.39 475.647
1054 0 71.3492 13.1326 937 113.362 1027.52 473.583
1055 0 74.4363 14.724 1096 109.593 1027.89 473.318
1056 0 76.4772 13.5073 1033 113.545 1027.9 471.603
1057 0 79.394 14.195 1127 111.585 1027.95 471.01
1058 0 80.3698 13.4254 1079 115.045 1028.3 466.493
1059 0 84.3177 14.1844 1196 113.376 1028.11 466.306
1060 0 87.349 12.9366 1130 117.417 1027.96 467.015
1061 0 89.3768 14.5452 1300 114.762 1027.47 464.508
1062 1 45.1141 10.5067 474 117.511 1027.8 486.38
1063 0 47.3196 11.3695 538 116.862 1027.88 486.284
1064 0 50.1565 12.0423 604 114.124 1028.22 485.833
1065 0 48.0163 12.4124 596 114.218 1028.28 486.7
1066 0 51.0377 12.2263 624 115.934 1028.78 486.615
1067 0 51.0775 13.274 678 114.202 1028.54 485.174
1068 0 53.0566 13.2123 701 115.006 1028.32 485.956
1069 0 55.0685 12.6933 699 116.086 1028.57 485.07
1070 0 55.082 13.1259 723 116.553 1028.16 485.809
1071 0 56.0104 12.337 691 119.657 1028.32 485.101
1072 0 58.0406 13.4389 780 117.637 1028.35 483.485
1073 0 58.0554 11.9885 696 121.401 1028.14 483.272
1074 0 61.0393 13.4503 821 117.213 1028.02 481.806
1075 0 64.029 13.5564 868 116.588 1028.06 481.983
1076 0 64.0561 11.9583 766 120.905 1027.89 478.698
1077 0 66.0979 12.5874 832 120.163 1027.11 476.706
1078 0 67.0605 12.6006 845 120.188 1027.44 477.773
1079 0 73.1206 13.7171 1003 116.525 1028.05 475.477
1080 0 70.0881 13.4117 940 119.799 1027.4 472.507
1081 0 76.0482 13.2022 1004 118.314 1028.32 470.228
1082 0 75.0351 11.8878 892 124.092 1027.75 470.479
1083 0 78.0662 12.1563 949 122.219 1027.18 472.379
1084 0 81.0402 12.8455 1041 120.301 1027.12 468.007
1085 0 83.1029 12.2499 1018 121.857 1027.6 468.277
1086 0 83.0651 12.3638 1027 122.155 1027.36 467.006
1087 0 86.033 12.4371 1070 121.154 1027.43 468.659
1088 0 89.1522 14.4584 1289 116.867 1028.15 463.462
1089 0 92.1153 12.0718 1112 122.06 1027.7 464.47
1090 0 95.1139 12.8478 1222 119.3 1028.43 462.646
1091 0 100.152 12.3512 1237 120.519 1028.38 459.843
1092 1 52.0733 11.6567 607 113.061 1028.35 486
1093 0 53.0743 11.3991 605 129.185 1028.34 486.159
1094 0 54.0794 10.688 578 118.943 1027.05 484.095
1095 0 59.0472 12.109 715 118.506 1026.53 482.744
1096 0 60.0165 11.93 716 117.663 1027.92 485.494
1097 0 65.0733 12.8317 835 114.104 1028.12 483.466
1098 0 65.0331 12.8857 838 116.146 1027.63 480.066
1099 0 68.0403 12.6984 864 116.409 1028.45 479.368
1100 0 70.0745 12.7721 895 116.289 1028.22 478.978
1101 0 74.0878 13.376 991 113.994 1028.33 477.76
1102 0 73.1574 12.1519 889 118.172 1028.08 477.002
1103 0 76.0839 12.4074 944 117.37 1027.98 472.97
1104 0 81.0783 13.2958 1078 114.396 1027.85 473.636
1105 0 83.1797 12.5151 1041 118.184 1027.9 471.114
1106 0 86.1353 13.2234 1139 117.639 1027.85 467.795
1107 0 88.1769 12.1574 1072 119.825 1028.71 468.244
1108 0 92.2337 12.8044 1181 116.882 1027.85 466.897
1109 0 94.2211 12.4601 1174 116.307 1028.19 466.216
1110 0 100.096 13.4771 1349 112.767 1027.92 464.745
1111 1 47.1462 11.7083 552 112.743 1027.69 489.339
1112 0 49.0964 11.6709 573 113.911 1027.96 489.874
1113 0 52.1253 13.0647 681 115.718 1028.38 486.044
1114 0 52.1641 11.7514 613 121.007 1028.4 483.281
1115 0 54.0781 12.8333 694 117.927 1028.89 483.821
1116 0 58.2146 12.0932 704 118.514 1027.7 483.06
1117 0 60.2001 12.8239 772 117.127 1027.63 482.552
1118 0 62.1731 14.1219 878 113.867 1027.74 482.043
1119 0 63.1914 13.5461 856 116.256 1028.05 481.53
1120 0 63.4097 13.121 832 118.47 1027.27 476.942
1121 0 67.149 12.7329 855 116.048 1028.06 476.928
1122 0 68.1824 12.6279 861 116.129 1027.7 476.268
1123 0 70.2298 12.5303 880 114.738 1027.16 478.736
1124 0 71.2461 12.6323 900 116.033 1027.71 475.989
1125 0 74.1351 13.9745 1036 112.766 1028.34 473.603
1126 0 75.2236 12.2169 919 116.264 1028.69 475.59
1127 0 77.0373 11.5269 888 116.919 1027.87 475.017
1128 0 79.0917 13.301 1052 111.943 1027.39 472.912
1129 0 82.0821 11.7931 968 115.115 1027.47 474.455
1130 0 84.209 12.2908 1035 114.949 1027.56 473.569
1131 0 86.0318 12.2629 1055 115.731 1027.33 471.431
1132 0 92.0911 13.769 1268 111.026 1026.96 469.838
1133 0 94.0866 13.4982 1270 112.06 1027.49 467.369
1134 0 95.1572 12.5897 1198 115.374 1027.24 466.096
1135 0 96.0723 12.0222 1155 117.38 1027.74 463.935
1136 0 100.15 12.1019 1212 117.412 1027.24 462.348
1137 0 104.074 13.1157 1365 115.225 1027.56 462.04
1138 0 106.076 13.7543 1459 114.792 1027.92 459.681
1139 0 112.149 13.9101 1560 114.288 1027.33 456.92
1140 0 115.142 12.5671 1447 117.961 1027.65 455.479
1141 0 118.185 12.7681 1509 118.693 1027.74 454.372
1142 0 122.118 14.5105 1772 115.692 1028.09 452.162
1143 0 126.145 13.6034 1716 117.808 1027.17 453.878
1144 0 131.185 14.0184 1839 118.322 1027.36 447.613
1145 0 135.135 13.5643 1833 120.334 1026.93 445.507
1146 0 140.109 14.7171 2062 118.418 1026.31 444.127
1147 0 145.169 14.087 2045 120.569 1026.7 439.919
1148 0 149.219 14.3882 2147 121.145 1026.05 435.836
1149 0 152.17 13.6623 2079 124.698 1025.94 432.367
1150 0 158.121 14.9885 2370 121.445 1025.54 430.406
1151 0 161.266 14.3242 2310 124.477 1026.01 428.416
1152 0 167.245 15.2052 2543 122.075 1025.87 427.098
1153 0 173.165 15.1359 2621 121.723 1025.94 427.212
1154 0 175.197 14.1555 2480 125.458 1025.69 424.215
1155 0 180.227 15.1753 2735 124.005 1025.73 418.049
1156 0 187.138 15.1332 2832 124.544 1025.97 414.291
1157 0 194.12 15.0062 2913 124.905 1025.69 413.183
1158 0 199.201 14.3875 2866 127.734 1025.32 409.694
1159 0 204.151 14.7832 3018 129.078 1025.91 407.726
1160 0 214.256 15.6495 3353 127.068 1026.38 404.285
1161 0 219.179 15.3162 3357 130.348 1025.37 401.407
1162 1 231.328 18.5105 4282 121.378 1025.53 387.894
1163 0 240.308 20.1325 4838 117.499 1025.81 387.55
1164 0 245.25 19.7024 4832 120.191 1025.48 382.457
1165 0 252.253 16.4042 4138 131.009 1026.29 382.466
1166 0 258.278 15.7311 4063 135.238 1026.42 382.449
1167 0 267.245 15.7384 4206 136.545 1026.3 381.191
1168 0 276.382 16.2493 4491 136.074 1026.59 374.688
1169 0 283.402 15.328 4344 140.469 1026.25 370.305
1170 0 291.413 16.873 4917 136.492 1026.09 363.958
1171 0 301.492 16.1895 4881 139.144 1026.73 360.463
1172 0 307.422 15.8219 4864 141.077 1026.38 353.113
1173 0 320.456 15.9273 5104 142.473 1026.24 351.063
1174 0 331.567 17.1579 5689 140.233 1026.39 339.954
1175 0 340.623 16.1205 5491 144.311 1025.76 340.692
1176 0 353.396 17.213 6083 141.701 1025.11 329.576
1177 0 365.433 17.4642 6382 140.164 1026.59 323.66
1178 0 377.56 16.453 6212 144.417 1026.42 315.386
1179 0 389.524 16.5741 6456 144.852 1025.54 312.477
1180 0 404.545 17.553 7101 141.869 1026.02 302.813
1181 0 416.41 16.9088 7041 144.564 1026.86 297.217
1182 0 416.586 12.7344 5305 158.48 1026.56 310.51
1183 0 417.705 11.8385 4945 160.365 1026.2 320.529
1184 0 417.664 11.1429 4654 159.955 1026.37 326.507
1185 0 376.619 18.4298 6941 145.315 1026.87 268.338
1186 0 343.472 16.7903 5767 148.974 1026.71 257.187
