time division length width area intensity CMx CMy
0 0 76.0402 14.1767 1078 125.605 731.109 373.825
1 0 77.0873 13.9452 1075 127.979 731.41 375.49
2 0 80.083 15.7212 1259 122.828 731.614 372.329
3 0 82.1105 14.785 1214 127.038 730.61 372.172
4 0 86.1288 15.1866 1308 125.099 731.854 373.644
5 0 89.1177 14.9129 1329 126.822 731.614 372.81
6 0 92.1614 15.1799 1399 125.99 731.35 373.457
7 0 94.1291 14.1189 1329 129.103 732.103 375.614
8 0 98.1172 15.6751 1538 123.059 732.557 376.27
9 0 100.164 13.4679 1349 129.403 731.904 374.821
10 1 48.0799 11.1273 535 125.68 731.553 400.647
11 0 51.0601 13.0826 668 120.817 731.503 400.576
12 0 51.0476 12.5961 643 123.463 732.922 395.226
13 0 52.0402 13.0476 679 159.532 735 396.077
14 0 55.08 13.09 721 129.026 732.488 399.895
15 0 58.0197 13.3403 774 128.267 732.705 402.154
16 0 60.0625 14.102 847 125.823 732.936 404.346
17 0 60.0696 14.0504 844 127.838 733.175 404.998
18 0 63.0709 14.0318 885 126.793 733.096 404.871
19 0 67.0243 13.8756 930 125.462 733.461 404.224
20 0 68.0681 14.5883 993 123.23 732.448 403.912
21 0 69.0501 14.3664 992 125.035 732.384 402.452
22 0 69.0265 14.0816 972 126.654 732.579 403.13
23 0 73.1444 14.6013 1068 124.131 732.691 403.396
24 0 75.0737 14.0662 1056 125.826 732.42 404.455
25 0 80.08 15.1099 1210 121.306 732.943 404.566
26 0 80.045 15.0415 1204 122.287 733.493 405.641
27 0 83.0347 14.4277 1198 124.145 732.35 404.027
28 0 85.0382 14.3582 1221 124.383 732.837 399.682
29 0 89.1674 15.1849 1354 121.528 733.369 400.117
30 0 91.1636 14.282 1302 124.244 732.967 401.901
31 0 94.1539 14.7524 1389 123.917 733.274 400.078
32 0 96.0858 13.6649 1313 125.543 733.9 399.206
33 0 99.1331 13.9711 1385 124.57 733.637 399.973
34 0 103.369 14.5789 1507 122.303 733.463 394.849
35 1 54.0639 12.3927 670 121.566 733.518 419.197
36 0 54.0241 12.7721 690 121.935 733.399 417.516
37 0 59.0648 13.4259 793 118.497 733.77 418.127
38 0 61.0602 14.1336 863 115.879 733.86 418.568
39 0 62.0542 14.3907 893 115.401 733.961 416.134
40 0 63.0516 13.6713 862 117.796 733.959 416.679
41 0 66.1089 13.5231 894 117.965 733.282 418.148
42 0 67.0936 14.368 964 117.436 733.957 417.216
43 0 68.0745 13.779 938 120.199 733.528 416.527
44 0 73.1184 14.2645 1043 118.364 734.216 415.432
45 0 74.0607 13.7725 1020 119.67 733.629 410.824
46 0 77.0817 14.4262 1112 117.292 734.284 406.763
47 0 80.0945 13.5964 1089 119.224 733.672 406.917
48 0 84.0727 15.213 1279 114.109 732.989 408.526
49 0 86.1386 13.5247 1165 120.059 732.929 409.658
50 1 44.0874 11.3865 502 121.002 733.922 430.57
51 0 45.0705 12.0478 543 119.648 733.302 431.344
52 0 48.0218 12.7234 611 117.025 733.661 434.079
53 0 46.0184 12.1908 561 117.415 733.323 436.15
54 0 49.0763 14.345 704 115.608 733.987 426.193
55 0 51.1156 14.027 717 116.527 733.738 426.252
56 0 53.1409 14.0005 744 116.782 734.035 428.083
57 0 54.129 13.2277 716 118.622 733.858 430.105
58 0 54.1185 13.4889 730 120.563 733.703 430.436
59 0 58.1605 14.3396 834 116.209 733.374 430.963
60 0 60.0775 13.8821 834 118.457 733.53 430.452
61 0 61.0397 14.7281 899 117.375 733.427 426.655
62 0 64.07 14.8587 952 115.811 733.222 427.524
63 0 66.0666 13.774 910 119.511 732.96 427.426
64 0 68.1483 14.4244 983 117.992 732.763 426.046
65 0 69.1383 13.7116 948 119.719 733.05 429.156
66 0 72.1411 13.9587 1007 118.975 733.704 427.889
67 0 74.1169 13.2089 979 121.581 733.869 429.609
68 0 76.1623 13.8126 1052 120.729 733.818 429.865
69 0 80.1523 15.1462 1214 116.054 733.268 431.146
70 0 81.1286 14.175 1150 119.112 733.968 433.163
71 0 86.0917 14.7053 1266 116.655 733.66 434.4
72 0 89.1638 13.6603 1218 119.42 734.147 435.143
73 0 91.0979 13.5129 1231 120.307 733.946 434.776
74 0 94.1281 14.4059 1356 117.816 734.023 432.38
75 0 98.1263 14.7157 1444 116.014 733.62 432.081
76 0 100.161 13.7578 1378 119.948 733.287 429.822
77 0 103.111 14.8481 1531 116.28 733.771 425.407
78 0 108.161 13.7203 1484 117.941 733.489 428.53
79 0 113.096 14.7043 1663 116.21 733.331 423.441
80 1 51.0886 12.1945 623 114.088 734.143 455.345
81 0 56.1079 13.4206 753 108.448 734.628 456.491
82 0 56.0498 12.3997 695 113.653 734.568 451.555
83 0 57.072 11.8272 675 112.787 733.742 448.401
84 0 60.0562 13.3042 799 108.567 734.483 446.885
85 0 62.1285 12.3776 769 110.732 733.222 448.031
86 0 67.132 13.5405 909 106.967 733.642 449.771
87 0 67.1553 13.4762 905 109.013 734.182 447.761
88 0 71.0863 13.0546 928 107.628 733.567 447.762
89 0 71.1734 13.2212 941 108.783 734.497 444.815
90 0 75.046 13.2452 994 107.696 733.944 446.122
91 0 78.0867 13.4466 1050 107.702 734.422 443.183
92 0 83.198 13.4378 1118 105.635 733.156 443.138
93 0 83.0478 12.2219 1015 108.346 733.843 443.757
94 0 88.1484 12.6151 1112 108.23 733.138 440.182
95 1 52.0278 12.9931 676 106.286 733.849 459.271
96 0 52.054 13.2939 692 106.22 733.84 459.146
97 0 52.0461 12.3736 644 110.042 733.884 456.53
98 0 53.0407 12.3302 654 108.969 733.899 456.431
99 0 54.0747 12.3348 667 100.696 733.559 454.192
100 0 56.032 11.6362 652 98.4908 733.905 454.328
101 0 59.036 12.7888 755 95.9934 733.641 451.058
102 0 59.0405 12.4321 734 97.8079 733.865 451.001
103 0 63.0934 12.6796 800 96.9912 734.114 450.853
104 0 64.108 11.5118 738 99.7425 733.9 450.752
105 0 68.0602 13.253 902 96.0554 733.399 450.11
106 0 68.0831 12.5435 854 99.3583 732.91 437.892
107 0 73.0378 13.2397 967 97.2885 732.361 439.494
108 0 75.0808 12.0404 904 100.624 732.646 439.875
109 0 79.2496 12.9212 1024 99.2402 732.729 439.959
110 1 40.1094 11.3938 457 102.46 733.066 457.19
111 0 43.0551 10.9627 472 99.8475 733.494 454.629
112 0 45.096 11.5309 520 101.333 733.702 454.927
113 0 47.0528 12.7091 598 98.7124 733.179 454.095
114 0 47.0842 13.4865 635 100.178 733.131 454.857
115 0 50.1088 12.413 622 102.723 733.495 457.375
116 0 53.0978 13.2397 703 100.432 733.293 459.77
117 0 53.1576 12.5852 669 103.614 733.46 458.877
118 0 55.1239 12.6805 699 103.153 733.167 451.276
119 0 56.1197 12.5981 707 104.936 733.218 452.04
120 0 56.0796 12.7854 717 105.586 733.173 455.311
121 0 60.1214 13.2399 796 103.279 731.994 456.124
122 0 59.1108 11.9944 709 109.334 732.973 454.237
123 0 61.1885 12.1265 742 108.635 733.02 452.737
124 0 63.047 11.7373 740 107.042 732.777 444.636
125 0 64.1261 10.8848 698 110.205 732.543 447.994
126 0 66.096 12.618 834 106.523 732.493 447.679
127 0 68.0797 12.7351 867 106.69 731.928 446.437
128 0 73.113 13.486 986 104.163 732.474 437.971
129 0 74.0567 12.99 962 106.625 731.927 440.451
130 0 78.1361 13.1693 1029 106.332 732.93 439.53
131 0 81.1067 12.8719 1044 106.646 732.741 438.947
132 1 42.0737 11.361 478 107.933 732.038 458.824
133 0 41.0157 10.6545 437 109.334 733.096 458.632
134 0 43.0661 11.3546 489 108.843 733.675 457.033
135 0 45.2145 11.6777 528 109.638 732.909 456.987
136 0 45.0651 12.7149 573 108.958 732.983 453.749
137 0 48.0925 12.9334 622 107.056 732.047 454.68
138 0 48.0505 12.0706 580 111.736 732.622 455.653
139 0 50.0986 11.4973 576 113.321 731.929 454.84
140 0 54.1067 12.6602 685 108.366 733.069 456.835
141 0 53.0618 11.9106 632 111.516 732.519 454.801
142 0 53.1648 11.643 619 113.46 732.624 453.62
143 0 58.1154 12.5096 727 109.535 732.832 454.345
144 0 59.0935 12.5394 741 110.277 732.684 452.663
145 0 61.1441 12.6913 776 109.103 732.209 455.479
146 0 63.0517 12.2915 775 110.768 732.872 453.759
147 0 63.082 12.5709 793 111.392 732.277 450.701
148 0 66.1673 12.5742 832 111.168 731.871 446.32
149 0 68.1146 12.1413 827 111.647 732.01 445.235
150 0 67.1538 12.1512 816 108.719 731.5 444.506
151 0 72.1169 11.5784 835 109.087 732.782 440.019
152 0 75.1103 12.2353 919 107.081 732.961 443.309
153 0 74.0578 12.6388 936 108.657 732.858 437.81
154 0 78.1966 11.9826 937 110.426 732.751 434.058
155 0 82.1372 12.6739 1041 106.737 732.827 437.546
156 0 85.3022 12.4733 1064 107.271 732.572 436.573
157 1 45.0421 11.4115 514 108.854 731.8 451.198
158 0 47.1377 11.4134 538 108.467 733.346 449.299
159 0 47.1039 11.2093 528 111.36 733.314 444.125
160 0 50.1362 11.2693 565 110.765 732.566 445.267
161 0 50.1656 10.6447 534 113.835 732.29 445.38
162 0 54.123 12.8781 697 107.007 731.587 443.677
163 0 55.1125 12.0844 666 108.872 732.285 445.416
164 0 55.0986 11.5067 634 112.137 731.114 442.691
165 0 57.2408 12.6308 723 109.16 731.214 444.545
166 0 61.0295 13.2395 808 107.321 731.776 442.421
167 0 60.0619 12.1541 730 112.607 730.786 443.301
168 0 64.0735 12.5637 805 111.078 730.949 438.729
169 0 65.0895 13.1511 856 109.961 731.228 438.439
170 0 66.1403 12.912 854 111.594 731.306 438.028
171 0 68.2198 12.9581 884 112.881 731.308 439.149
172 0 70.2173 13.0879 919 114.408 731.606 439.783
173 0 73.2118 13.7 1003 114.211 731.486 438.296
174 0 73.2503 12.8054 938 118.055 731.178 438.581
175 0 76.2196 13.8153 1053 117.252 731.132 433.65
176 0 79.1569 13.4038 1061 118.831 731.145 436.172
177 0 84.2813 13.4549 1134 117.293 731.07 436.222
178 0 86.1482 13.9179 1199 116.753 731.063 435.27
179 0 87.1775 13.6159 1187 118.631 730.708 437.036
180 1 48.227 12.7315 614 114.414 731.055 454.293
181 0 49.1759 13.4619 662 112.882 731.662 454.379
182 0 50.2679 12.513 629 117.049 732.321 453.617
183 0 49.0335 11.6451 571 123.131 732.177 451.844
184 0 51.073 11.4933 587 122.07 732.322 452.516
185 0 55.0897 12.2709 676 119.763 731.429 450.246
186 0 55.086 12.3443 680 119.985 732.074 449.493
187 0 58.0904 13.6167 791 115.814 731.145 450.047
188 0 58.3913 11.9367 697 120.968 731.56 447.026
189 0 61.1474 12.7561 780 118.094 732.296 447.965
190 0 63.2278 12.3522 781 117.69 732.294 445.416
191 0 65.1535 12.2787 800 117.757 732.121 443.774
192 0 65.2129 12.1295 791 119.459 731.643 443.449
193 0 69.2577 12.6629 877 115.823 731.511 444.698
194 0 71.1054 12.3197 876 117.187 731.275 441.853
195 0 73.3021 12.9191 947 116.615 730.811 439.109
196 0 76.4238 13.0326 996 114.908 731.21 441.649
197 0 78.2091 12.7479 997 116.029 731.022 436.187
198 0 82.3197 14.3222 1179 110.902 731.243 437.492
199 0 82.2422 12.6334 1039 116.785 730.714 436.982
200 0 83.2009 12.7763 1063 116.582 730.953 434.943
201 1 45.2566 9.67814 438 116.363 731.107 458.279
202 0 48.2205 11.1778 539 111.141 731.521 457.716
203 0 46.2867 11.4288 529 115.045 732.068 455.554
204 0 50.0828 12.2397 613 111.62 730.762 454.494
205 0 50.0473 11.629 582 114.794 730.854 453.57
206 0 51.1534 11.5339 590 115.239 731.066 453.812
207 0 55.0988 12.3233 679 112.577 730.85 451.909
208 0 54.0831 12.111 655 112.646 732.108 452.638
209 0 56.1258 11.7059 657 112.318 731.411 451.851
210 0 55.0518 11.0441 608 114.416 732.444 452.737
211 0 55.0322 10.612 584 117.14 731.906 453.238
212 0 58.0726 11.1757 649 115.265 732.151 447.388
213 0 59.0677 11.3768 672 116.086 732.04 443.576
214 0 62.2106 12.4095 772 114.838 731.297 441.237
215 0 63.0525 12.2596 773 115.787 733.819 442.712
216 0 65.0651 12.1724 792 116.534 733.587 443.162
217 0 67.0359 12.7842 857 115.688 733.789 441.958
218 0 70.1256 11.5222 808 118.698 732.532 437.923
219 0 73.051 11.622 849 119.813 732.865 434.706
220 0 75.195 11.7827 886 119.387 732.668 435.362
221 0 78.1256 12.1215 947 118.129 732.314 437.278
222 0 81.1598 11.9394 969 118.777 731.951 434.047
223 0 84.0881 12.3918 1042 116.759 732.439 434.138
224 1 45.0892 11.1113 501 119.242 733.064 452.934
225 0 48.092 11.7691 566 116.537 732.007 453
226 0 48.0852 11.9371 574 117.274 732.054 453.594
227 0 49.1128 10.5064 516 116.659 731.874 450.134
228 0 49.0435 10.8679 533 115.358 732.561 449.503
229 0 50.0686 11.7838 590 114.831 732.051 446.964
230 0 51.0337 10.4441 533 117.193 732.814 447.381
231 0 53.0666 11.1935 594 116.355 732.359 447.852
232 0 55.0631 11.1145 612 115.802 732.712 449.418
233 0 56.0577 10.7389 602 115.859 732.867 452.37
234 0 57.1062 11.8726 678 115.926 732.499 447.428
235 0 59.1391 11.3123 669 116.384 732.324 447.656
236 0 61.1338 11.5812 708 115.082 732.181 447.935
237 0 63.0971 11.5853 731 114.826 731.927 444.423
238 0 63.0862 12.2214 771 115.79 731.974 441.73
239 0 66.0956 12.3609 817 113.695 732.312 446.237
240 0 67.1301 11.798 792 115.957 732.609 444.336
241 0 70.0615 12.3891 868 115.141 732.789 436.439
242 0 74.0631 12.4353 921 113.6 732.466 438.484
243 0 77.0805 12.7918 986 116.994 732.111 434.199
244 0 80.108 13.7315 1100 116.436 731.964 431.478
245 0 84.0828 12.4639 1048 118.762 731.733 428.812
246 0 85.1656 12.4698 1062 119.77 732.138 429.642
247 0 89.1008 13.5465 1207 115.786 732.342 433.326
248 0 92.0963 13.1927 1215 115.616 732.28 433.189
249 1 49.0774 11.7977 579 114.746 733.15 456.01
250 0 49.0543 11.0082 540 117.507 731.928 448.556
251 0 52.1682 11.1946 584 116.795 731.69 448.594
252 0 54.2474 12.2218 663 112.715 732.078 450.327
253 0 57.0895 12.1388 693 111.095 732.359 446.126
254 0 57.0571 12.4612 711 111.714 731.547 444.745
255 0 57.0863 11.2637 643 112.872 731.664 444.902
256 0 61.0543 12.3333 753 106 731.879 444.918
257 0 62.0695 11.7932 732 104.656 731.954 445.361
258 0 64.1274 12.2257 784 103.573 731.758 439.631
259 0 66.0645 12.1245 801 104.517 732.529 439.009
260 0 68.0934 11.6751 795 106 732.453 438.415
261 0 73.0713 12.0567 881 104.102 732.263 438.65
262 0 74.1517 11.9755 888 104.837 732.491 437.89
263 0 76.1222 13.3207 1014 101.679 731.969 437.446
264 0 79.1108 11.7936 933 104.788 733.175 437.766
265 0 81.0998 11.9112 966 104.046 732.042 439.026
266 0 84.1921 12.1508 1023 104.76 732.741 435.076
267 0 87.0316 13.2481 1153 101.203 732.475 431.959
268 0 88.1511 11.2761 994 106.104 732.872 433.271
269 0 94.0941 13.6565 1285 101.311 732.24 426.351
270 0 98.1106 11.9253 1170 104.332 733.092 428.525
271 1 49.0467 11.1322 546 108.005 732.24 451.984
272 0 51.1048 11.5058 588 105.413 732.974 452.199
273 0 54.0948 13.1621 712 100.132 733.833 451.257
274 0 57.1527 13.1052 749 99.9092 733.581 448.79
275 0 56.0541 12.1668 682 102.718 733.361 449.956
276 0 59.0285 12.638 746 100.749 733.058 446.997
277 0 60.0931 13.0131 782 101.148 732.197 445.611
278 0 63.0443 12.4516 785 101.055 732.572 446.997
279 0 63.1384 11.9895 757 103.021 732.918 442.815
280 0 64.0595 12.5821 806 102.301 732.782 441.45
281 0 69.088 13.5479 936 98.5331 732.419 438.781
282 0 71.1611 11.9166 848 102.48 733.013 437.735
283 0 72.2357 14.0512 1015 98.866 732.796 435.418
284 0 73.2239 13.329 976 100.95 733.048 436.746
285 0 77.29 13.3135 1029 100.173 732.456 439.53
286 0 80.2407 13.2352 1062 101.419 732.188 436.714
287 0 81.1807 13.7717 1118 100.393 732.147 433.366
288 0 84.2631 12.7814 1077 103.017 732.677 435.467
289 0 86.2329 12.9881 1120 102.125 732.21 437.609
290 0 87.1693 13.0551 1138 103.875 732.076 432.58
291 0 89.1173 12.2535 1092 105.425 732.007 432.769
292 0 93.1632 11.775 1097 105.556 732.38 432.235
293 1 49.1689 11.7351 577 105.768 733.409 448.929
294 0 52.1452 12.9446 675 102.92 732.071 448.861
295 0 52.1505 11.812 616 105.006 731.706 449.419
296 0 51.1803 10.7268 549 106.23 732.339 449.182
297 0 53.1433 11.3467 603 104.015 732.308 450.101
298 0 55.0563 10.3894 572 105.318 732.642 451.229
299 0 56.1068 12.1732 683 103.461 732.997 446.921
300 0 59.1627 10.4627 619 105.851 733.679 446.616
301 0 63.1585 11.7166 740 101.858 733.245 445.658
302 0 62.1195 11.3169 703 104.344 733.252 444.343
303 0 65.0558 11.5901 754 103.224 732.525 445.546
304 0 67.0488 11.7079 785 103.354 732.589 442.902
305 0 67.1244 11.5308 774 104.66 732.911 436.965
306 0 72.0571 10.8803 784 103.393 732.832 437.3
307 0 75.0798 12.0272 903 101.668 732.26 434.332
308 0 78.1268 11.5581 903 102.071 732.772 432.315
309 0 80.14 11.6671 935 102.566 732.55 429.081
310 0 80.1546 11.2158 899 102.43 731.648 428.28
311 0 86.2023 12.7839 1102 100.815 731.868 424.105
312 0 89.298 11.68 1043 103.523 732.759 425.758
313 0 92.2565 14.2646 1316 99.0053 731.834 420.093
314 0 95.1944 12.5848 1198 102.856 732.544 417.098
315 1 48.1417 11.0092 530 106.962 733.009 438.145
316 0 54.1802 11.351 615 103.958 732.319 440.807
317 0 54.1479 11.1731 605 106.795 732.428 439.516
318 0 55.1023 12.3407 680 104.222 732.21 438.818
319 0 59.1761 12.4206 735 103.714 732.788 437.963
320 0 59.1699 12.2528 725 104.996 732.883 438.088
321 0 60.1334 11.5576 695 107.665 732.671 436.86
322 0 62.1532 11.2303 698 108.95 732.239 436.325
323 0 65.1533 12.4476 811 105.055 732.551 435.535
324 0 67.2565 13.4262 903 103.368 732.883 433.878
325 0 70.1981 14.1172 991 101.903 732.34 431.094
326 0 68.2067 13.0046 887 106.709 732.609 431.435
327 0 72.1591 12.0151 867 109.09 732.976 432.116
328 0 73.3231 12.8609 943 108.071 732.702 430.241
329 0 76.2799 13.1096 1000 107.116 733.086 433.011
330 0 77.346 12.2825 950 111.326 732.429 434.278
331 0 81.1961 13.4859 1095 106.811 732.993 438.545
332 0 84.2256 13.6894 1153 107.933 732.72 437.535
333 0 85.2432 13.045 1112 108.353 732.756 431.138
334 0 85.2911 13.0143 1110 110.546 732.37 430.549
335 0 89.2039 12.4882 1114 111.26 731.727 427.257
336 0 94.279 13.2267 1247 109.648 732.436 432.051
337 0 94.362 12.3355 1164 113.92 732.296 434.576
338 0 98.312 13.5487 1332 110.535 732.581 426.675
339 0 101.144 13.1396 1329 107.42 732.558 423.609
340 0 105.324 13.7006 1443 109.593 732.067 425.808
341 0 107.187 14.3301 1536 110.426 732.676 426.729
342 0 111.273 14.5857 1623 109.539 732.591 424.259
343 1 59.1982 12.0612 714 110.216 732.665 451.018
344 0 63.2599 11.9981 759 108.668 732.099 452.775
345 0 66.0988 12.5116 827 110.889 732.693 440.778
346 0 67.1137 12.7247 854 111.308 732.933 436.837
347 0 72.1176 12.3409 890 109.782 732.651 439.955
348 0 73.1239 11.9386 873 111.899 731.984 437.661
349 0 76.2288 12.8692 981 108.305 732.368 438.655
350 0 78.211 12.1594 951 109.774 732.285 439.857
351 0 82.1039 13.6291 1119 106.5 732.37 439.412
352 0 82.3831 13.0124 1072 109.535 731.515 436.312
353 0 84.1373 11.8021 993 109.384 731.637 430.325
354 0 89.0645 11.7218 1044 105.789 731.735 433.198
355 0 91.1211 12.7413 1161 107.451 732.07 429.817
356 1 48.0916 10.1889 490 104.998 731.486 450.363
357 0 50.13 10.9914 551 103.452 732.41 449.893
358 0 52.2378 12.0219 628 102.631 732.271 447.373
359 0 54.0378 12.6948 686 100.99 733.229 448.058
360 0 54.0652 12.7809 691 103.101 733.475 442.356
361 0 57.1249 12.0088 686 102.678 733.286 445.571
362 0 59.0684 11.8337 699 104.755 733.299 445.893
363 0 60.1085 12.3776 744 105.906 733.392 444.001
364 0 62.0806 11.7428 729 107.893 733.048 444.354
365 0 65.0711 13.1241 854 103.662 733.884 441.078
366 0 65.0933 12.797 833 104.95 732.636 439.218
367 0 70.0693 13.0014 911 102.922 732.82 434.247
368 0 68.1295 11.5075 784 108.432 732.302 434.902
369 0 74.1178 12.6825 940 103.579 732.971 432.349
370 0 74.1925 12.0363 893 105.091 733.875 432.13
371 0 76.1835 12.1286 924 106.313 731.761 429.852
372 0 79.1898 12.1733 964 106.577 732.742 430.154
373 0 81.0999 12.7497 1034 104.983 732.662 434.184
374 0 87.1184 12.9479 1128 102.889 732.739 428.712
375 0 87.143 13.1164 1143 102.451 733.186 430.152
376 0 91.1 11.5587 1053 104.942 732.545 426.926
377 0 93.1233 12.1881 1135 103.391 732.699 424.574
378 1 48.017 10.6837 513 98.7602 733.534 446.821
379 0 52.1799 9.6014 501 99.4112 734.042 448.008
380 0 51.056 10.6158 542 96.417 733.196 449.271
381 0 55.09 11.4721 632 92.557 733.997 444.989
382 0 58.0691 10.763 625 99.1568 734.04 447.309
383 0 61.0774 12.4105 758 95.3047 733.296 445.325
384 0 60.0465 12.407 745 97.0295 733.521 443.122
385 0 61.0356 12.0913 738 98.8157 732.822 444.73
386 0 63.0996 11.3471 716 102.124 733.48 444.996
387 0 66.2265 11.2644 746 100.761 732.343 443.883
388 0 67.1843 13.0536 877 96.7161 732.918 440.295
389 0 70.2993 12.4752 877 98.4173 733.099 436.09
390 0 71.1222 11.3748 809 103.099 731.879 432.816
391 0 74.1924 12.2519 909 100.651 732.414 431.288
392 0 75.1477 12.3091 925 102.255 732.166 429.619
393 0 77.1342 12.1347 936 103.387 731.69 429.616
394 0 78.1093 11.2919 882 105.026 731.888 429.833
395 0 82.2098 11.568 951 105.016 732.168 425.809
396 0 87.213 12.6472 1103 102.18 732.057 425.5
397 0 87.172 10.7145 934 107.213 731.883 425.908
398 1 47.11 10.5073 495 98.8909 732.671 447.267
399 0 48.1598 10.5275 507 97.7771 732.391 445.836
400 0 49.0736 12.4099 609 92.4877 732.404 448.034
401 0 51.0779 12.8823 658 96.5729 733.178 446.065
402 0 51.064 11.2996 577 102.752 732.57 444.475
403 0 55.1908 12.647 698 103.447 732.777 441.312
404 0 55.134 12.2066 673 107.649 732.848 439.193
405 0 57.071 11.5295 658 107.574 732.562 441.178
406 0 59.1249 12.482 738 106.629 731.892 439.881
407 0 59.1893 12.1644 720 109.5 731.14 438.769
408 0 60.1658 11.3686 684 112.01 731.864 438.466
409 0 62.1411 12.5521 780 108.701 732.36 438.273
410 0 63.1363 12.5443 792 109.981 732.144 436.933
411 0 66.1929 10.9982 728 112.868 732.327 437.908
412 0 67.1902 11.4898 772 111.92 732.282 435.754
413 0 72.2163 12.1441 877 108.273 732.504 437.267
414 0 75.1126 12.3947 931 108.983 731.667 436.755
415 0 76.2154 11.9661 912 110.228 732.139 436.559
416 0 79.1032 12.174 963 107.683 732.331 434.464
417 0 83.1565 11.1958 931 108.937 732.139 435.758
418 1 43.0656 11.0994 478 101.31 732.621 454.99
419 0 43.1805 10.7919 466 102.328 732.133 453.397
420 0 44.2671 11.2951 500 103.32 732.228 450.814
421 0 47.2678 12.5244 592 102.373 731.424 451.546
422 0 49.2633 12.3824 610 102.559 732.013 451.254
423 0 49.2927 9.85947 486 110.337 731.794 451.405
424 0 51.2514 10.4192 534 109.594 732.129 451.537
425 0 53.2484 11.3994 607 106.524 731.234 448.208
426 0 54.2007 10.701 580 109.103 731.621 450.572
427 0 54.3188 11.322 615 109.236 731.488 448.091
428 0 58.1904 11.5998 675 107.739 731.27 447.354
429 0 59.1918 11.4712 679 107.828 731.604 447.555
430 0 63.282 11.0932 702 107.228 730.564 448.679
431 0 62.259 12.6568 788 105.478 731.466 446.06
432 0 64.2272 12.7983 822 104.338 731.255 446.118
433 0 67.2058 13.0197 875 103.213 731.938 439.265
434 0 68.2149 12.7685 871 104.203 732.157 437.369
435 0 71.1073 13.2054 939 103.131 731.438 437.377
436 0 70.1507 11.5466 810 110.209 731.732 437.321
437 0 75.233 12.1622 915 107.095 730.743 438.071
438 0 75.156 11.0437 830 110.455 731.914 439.927
439 1 40.0085 10.1478 406 104.879 733.517 458.906
440 0 39.0993 9.51424 372 108.833 733.097 459.403
441 0 41.0576 11.0333 453 106.678 732.382 452.55
442 0 43.1564 11.8638 512 103.703 732.018 455.088
443 0 44.0976 11.3158 499 108.126 732.727 457.24
444 0 45.1727 10.8473 490 108.641 732.092 459.173
445 0 47.1951 12.0352 568 106.077 733.129 460.099
446 0 48.1597 10.486 505 111.263 732.853 458.796
447 0 49.1667 12.9763 638 105.61 731.966 456.1
448 0 52.121 12.7012 662 104.929 732.63 457.385
449 0 55.1633 11.4569 632 107.968 732.703 458.616
450 0 50.2271 11.2887 567 112.675 732.492 455.238
451 0 57.1911 11.9074 681 107.73 732.407 455.645
452 0 59.1675 12.8449 760 105.838 731.755 456.309
453 0 59.1367 11.1268 658 111.837 731.789 456.483
454 0 60.1369 12.7875 769 107.949 731.646 454.655
455 0 63.1822 12.646 799 107.279 732.239 451.382
456 0 62.101 12.3508 767 109.777 732.103 450.008
457 0 66.1443 13.0624 864 106.487 732.706 449.409
458 0 70.1647 12.8127 899 106.209 732.392 450.234
459 0 71.0791 13.2388 941 105.47 732.303 447.44
460 0 72.0686 12.9182 931 99.0806 731.695 438.859
461 0 75.2423 13.3834 1007 98.7686 732.5 434.27
462 0 78.0767 15.1646 1184 95.2264 731.593 431.306
463 0 78.1235 12.4162 970 102.806 731.164 434.612
464 0 80.1605 13.1736 1056 101.18 731.651 438.603
465 0 86.1143 13.5517 1167 99.8141 731.949 432.271
466 1 44.0288 11.8786 523 103.136 731.637 449.87
467 0 43.022 11.9241 513 101.881 731.653 451.596
468 0 47.0772 13.1061 617 97.6175 732.263 450.908
469 0 48.1454 11.4653 552 103.279 731.639 450.712
470 0 50.2021 12.3899 622 99.5016 732.042 451.215
471 0 49.1501 12.0854 594 99.7391 731.86 447.455
472 0 51.0677 11.6316 594 100.365 731.955 447.732
473 0 53.0486 12.1587 645 100.011 732.642 445.309
474 0 54.0714 12.539 678 98.1416 732.479 445.839
475 0 56.0786 12.8748 722 97.6745 731.555 442.852
476 0 57.1038 12.0482 688 98.8721 731.654 442.922
477 0 57.0563 12.1459 693 98.9827 731.244 441.228
478 0 58.037 12.3542 717 98.8717 731.266 440.718
479 0 62.0536 13.1016 813 97.0025 731.458 439.911
480 0 63.0359 13.2623 836 97.6699 731.632 438.388
481 0 65.0888 12.2294 796 100.771 731.954 437.791
482 0 68.0951 13.628 928 97.0119 731.409 437.278
483 0 70.0945 12.0266 843 100.452 731.521 436.586
484 0 73.0836 12.602 921 103.459 731.081 431.993
485 0 74.148 12.6908 941 104.164 730.762 428.456
486 0 74.044 12.9518 959 104.153 731.1 430.217
487 0 78.1048 13.213 1032 103.699 730.759 428.569
488 0 80.0671 13.726 1099 103.531 730.738 427.017
489 0 83.0908 12.5886 1046 105.797 731.361 425.436
490 0 85.0746 12.4479 1059 105.643 731.179 424.635
491 0 91.1848 15.2109 1387 100.097 730.5 422.355
492 0 93.2859 13.7534 1283 103.21 730.441 420.804
493 0 95.2694 13.9814 1332 103.496 731.336 418.842
494 0 99.0617 13.4966 1337 104.248 730.896 418.319
495 0 100.117 13.1246 1314 106.183 730.924 416.298
496 1 59.0658 12.0205 710 101.373 730.575 441.039
497 0 59.1286 10.8915 644 103.644 731.936 434.188
498 0 62.1354 13.0039 808 101.866 731.882 436.744
499 0 63.1438 11.6243 734 107.188 731.074 435.632
500 0 67.1816 13.5305 909 102.37 731.926 433.101
501 0 69.2365 12.9556 897 104.054 731.577 431.654
502 0 73.1985 14.0167 1026 100.569 731.904 431.013
503 0 74.2036 12.9778 963 104.247 731.161 429.432
504 0 78.1869 13.5956 1063 102.058 731.87 428.643
505 0 81.2383 13.0357 1059 102.805 732.486 429.526
506 0 83.1546 13.8778 1154 102.009 731.144 427.7
507 0 87.1633 13.6296 1188 99.266 732.42 432.247
508 0 88.1727 13.2014 1164 100.937 732.301 433.302
509 0 94.1913 14.3113 1348 96.2404 732.093 425.486
510 0 95.1754 13.7851 1312 98.6776 732.058 426.001
511 0 99.1584 13.665 1355 99.4339 730.958 422.509
512 0 102.278 14.1184 1444 98.2784 731.173 424.199
513 0 105.234 13.6362 1435 99.154 730.807 420.81
514 1 52.1412 10.4524 545 96.4257 732.971 450.793
515 0 56.1269 11.8303 664 94.4202 731.215 450.002
516 0 56.1054 11.211 629 96.8728 731.262 444.769
517 0 60.0661 11.8037 709 93.9337 730.824 443.078
518 0 57.1705 9.81275 561 93.9251 732.059 446.734
519 0 59.1583 11.7481 695 89.4777 732.351 444.883
520 0 60.1238 10.7112 644 91.5621 731.648 445.093
521 0 64.2014 12.0247 772 87.7837 731.903 444.613
522 0 65.3844 11.8989 778 88.4602 731.661 443.712
523 0 69.1912 12.5305 867 86.872 731.704 440.796
524 0 72.2283 11.2283 811 88.6313 731.947 438.63
525 0 73.2234 13.0013 952 86.5473 731.911 437.707
526 0 75.1199 10.8493 815 90.1117 731.227 439.795
527 0 79.1658 12.6065 998 85.979 731.696 439.484
528 0 80.1864 10.7749 864 90.3542 731.426 435.94
529 0 84.1673 11.097 934 88.1767 731.302 437.03
530 0 86.2342 11.863 1023 87.4692 731.116 433.93
531 0 89.1976 11.4129 1018 87.7819 731.145 433.623
532 0 92.1899 11.8017 1088 88.1241 730.735 432.87
533 0 95.4028 11.5196 1099 87.6397 730.803 436.537
534 0 100.273 11.5285 1156 88.7292 730.317 429.357
535 1 56.1634 11.6446 654 88.3716 731.904 454.541
536 0 58.0905 11.6542 677 90.4239 730.808 454.453
537 0 59.1475 10.8542 642 92.5857 731.35 450.743
538 0 60.2162 11.4753 691 92.1433 731.149 452.64
539 0 62.1818 11.3056 703 93.6899 731.158 445.293
540 0 64.1955 11.3871 731 93.0862 731.679 446.331
541 0 66.1745 12.3764 819 92.6276 731.012 439.217
542 0 67.1445 12.0486 809 94.6094 730.749 437.143
543 0 72.1482 12.4743 900 92.1978 731.277 438.621
544 0 74.1769 13.5217 1003 91.6102 731.618 434.973
545 0 75.1183 12.7931 961 93.5005 730.955 435.162
546 0 79.3212 12.96 1028 92.7014 731.816 433.945
547 0 81.1401 11.5602 938 97.2889 730.965 429.398
548 0 83.1188 11.1527 927 98.1219 732.02 430.192
549 0 88.1704 12.1016 1067 95.5736 731.456 427.875
550 0 96.1778 18.289 1759 79.589 730.642 415.789
551 0 96.1339 14.3446 1379 89.4409 731.106 421.335
552 1 51.0999 11.409 583 90.2985 731.832 447.859
553 0 51.029 11.0525 564 90.9326 732.316 447.837
554 0 52.0959 11.7668 613 92.9886 732.374 445.259
555 0 54.1468 11.5796 627 88.6284 730.9 450.407
556 0 54.1419 11.1559 604 91.9387 732.912 454.257
557 0 55.1602 11.6388 642 94.8536 732.621 451.567
558 0 55.1732 12.4154 685 85.908 732.225 452.72
559 0 52.1789 9.90822 517 95.6364 732.489 450.836
560 0 55.0583 11.2245 618 93.3398 732.697 449.943
561 0 57.1837 12.1538 695 93.377 732.184 446.727
562 0 54.0703 10.9302 591 97.956 732.171 448.398
563 0 56.1628 11.5557 649 99.3636 730.954 446.9
564 0 56.1311 12.1857 684 99.1257 731.311 445.904
565 0 59.3027 12.5458 744 97.4906 730.831 446.216
566 0 62.1823 12.8493 799 95.0939 731.482 443.432
567 0 61.2153 11.4841 703 98.2148 731.053 440.529
568 0 64.1912 11.2788 724 97.2942 731.087 441.558
569 0 67.222 12.3472 830 94.4482 731.259 441.77
570 0 67.1953 11.8758 798 95.7719 731.342 442.223
571 0 70.1692 12.3843 869 93.8677 730.863 440.18
572 0 71.1226 11.9934 853 95.3048 730.705 438.295
573 0 75.1624 12.8389 965 93.8663 730.39 438.875
574 0 74.1826 11.62 862 97.9524 730.498 438.404
575 0 77.1455 12.7292 982 96.3717 730.808 437.318
576 0 80.1492 12.6389 1013 97.9832 731.734 435.799
577 1 43.192 10.0018 432 99.963 731.544 451.583
578 0 45.2251 10.6357 481 100.669 730.946 451.472
579 0 45.1364 9.96977 450 95.6067 731.104 450.467
580 0 48.0433 10.6779 513 93.1793 730.764 448.817
581 0 47.0307 10.7589 506 96.0119 731.53 447.421
582 0 50.0897 11.2997 566 94.9594 731.882 448.435
583 0 50.0769 11.2627 564 96.5106 730.723 448.775
584 0 51.0529 10.6164 542 98.8948 730.915 449.118
585 0 54.088 11.5368 624 96.1026 730.479 444.288
586 0 55.0451 11.0092 606 97.566 730.645 445.95
587 0 55.142 10.881 600 99.0833 731.138 446.25
588 0 59.1256 12.7356 753 94.7902 731.214 442.62
589 0 61.0665 12.773 780 95.1295 731.762 441.788
590 0 60.0919 10.9499 658 101.196 731.527 442.85
591 0 64.0437 11.4141 731 100.19 730.938 439.696
592 0 66.1169 13.3551 883 97.0566 730.715 438.511
593 0 67.0714 12.1959 818 100.559 731.045 439.155
594 0 71.1197 12.7813 909 96.8075 731.254 435.415
595 0 75.1155 13.4193 1008 95.9147 731.597 434.475
596 0 75.2293 12.7211 957 99.6761 731.496 433.479
597 0 76.0348 12.1918 927 103.439 731.296 433.865
598 0 79.0695 11.395 901 105.292 731.356 432.458
599 1 41.019 9.80033 402 114.522 731.274 448.122
600 0 46.0182 12.5602 578 106.939 731.225 446.144
601 0 45.024 11.7493 529 111.641 731.743 446.115
602 0 48.0473 12.2796 590 107.429 731.553 447.602
603 0 48.0187 11.2456 540 112.983 731.781 446.252
604 0 49.0301 11.5439 566 113.256 731.295 443.749
605 0 50.0299 12.7124 636 111.722 730.976 441.695
606 0 54.1374 12.5237 678 110.018 731.35 443.257
607 0 53.2102 11.8962 633 113.003 730.724 443.615
608 0 55.1343 11.735 647 114.181 730.736 441.895
609 0 57.1709 12.6463 723 111.715 730.743 442.318
610 0 55.153 11.7491 648 110.491 730.752 444.617
611 0 56.1119 11.0672 621 109.765 731.198 447.921
612 0 58.111 11.0822 644 109.087 732.033 448.071
613 0 59.1655 12.1185 717 108.735 731.593 445.497
614 0 58.0992 10.637 618 113.128 730.597 446.146
615 0 64.1147 11.0739 710 109.814 730.944 446.545
616 0 65.0855 11.5233 750 110.313 730.739 442.4
617 0 67.0325 11.2632 755 109.71 730.923 446.209
618 0 68.087 10.4132 709 112.807 730.958 446.341
619 0 73.0609 12.9892 949 107.67 730.102 442.76
620 0 76.0776 12.8947 981 106.503 730.281 440.541
621 0 79.0636 12.4583 985 107.226 730.759 442.198
622 0 80.1109 12.7698 1023 107.993 730.138 439.856
623 0 80.0988 11.3235 907 112.49 730.452 442.81
624 0 83.0829 11.1575 927 112.135 729.223 441.78
625 0 87.066 12.4388 1083 109.066 730.222 437.006
626 0 88.2219 10.9157 963 112.098 728.863 439.404
627 0 91.1244 11.9178 1086 109.649 729.706 434.926
628 1 49.0952 11.3453 557 110.637 729.44 458.381
629 0 50.0253 10.8545 543 112.066 729.079 460.343
630 0 51.0966 11.6055 593 110.062 730.062 458.081
631 0 53.0843 10.6623 566 110.488 729.654 457.8
632 0 55.0523 12.6062 694 104.53 729.749 450.318
633 0 55.0415 11.6094 639 104.354 730.347 452.706
634 0 58.0342 10.9074 633 104.742 730.223 453.038
635 0 61.0512 11.646 711 103.596 730.211 451.29
636 0 62.0483 12.1357 753 102.401 729.673 443.66
637 0 64.0752 11.2212 719 104.552 730.179 442.349
638 0 64.0371 11.5246 738 104.913 730.618 439.813
639 0 67.0511 12.3488 828 104.146 730.545 437.174
640 0 77.0842 13.2842 1024 97.2725 729.599 432.527
641 0 77.0845 12.402 956 101.667 729.908 435.019
642 0 77.0601 12.925 996 102.378 730.04 434.157
643 0 81.0823 14.2078 1152 99.5512 730.137 431.424
644 0 84.0966 13.0802 1100 101.138 729.814 426.155
645 0 88.107 14.437 1272 98.6855 728.884 427.432
646 0 89.1017 14.0289 1250 101.069 729.152 424.681
647 0 91.1034 13.3804 1219 104.174 729.997 422.895
648 0 92.1935 13.4608 1241 106.409 729.407 418.902
649 0 96.1177 13.1922 1268 107.08 729.582 417.941
650 0 101.196 13.7654 1393 106.207 730.098 411.235
651 0 101.13 12.4295 1257 111.711 729.863 411.087
652 0 106.068 13.6422 1447 108.303 729.504 407.823
653 0 108.129 12.3186 1332 112.528 729.922 401.931
654 0 112.15 14.0616 1577 112.329 729.449 394.362
655 1 58.0285 11.4771 666 110.443 730.302 421.383
656 0 63.0493 12.7202 802 113.186 729.82 422.754
657 0 65.0898 12.6441 823 115.812 729.905 430.063
658 0 68.0526 11.6821 795 117.794 729.498 435.086
659 0 72.1071 13.369 964 110.585 729.702 433.402
660 0 72.2171 11.8254 854 114.288 729.541 433.221
661 0 75.1051 13.1016 984 111.903 729.637 435.874
662 0 79.2146 12.5229 992 113.052 730.146 436.064
663 0 81.2782 12.611 1025 111.682 730.82 434.655
664 0 84.2123 12.1479 1023 111.907 730.762 434.45
665 0 87.1416 12.451 1085 110.628 730.288 435.248
666 0 90.1004 14.2064 1280 106.446 730.832 433.017
667 0 94.0974 13.1672 1239 107.946 730.653 434.206
668 0 96.1197 11.1528 1072 112.326 730.094 433.848
669 0 102.242 13.116 1341 109.787 730.207 432.954
670 1 52.1913 10.9789 573 110.204 731.449 457.496
671 0 52.0333 10.5509 549 114.905 731.532 455.434
672 0 57.0789 12.6141 720 107.551 730.964 451
673 0 59.0249 12.4015 732 109.816 731.389 449.832
674 0 61.1141 12.5012 764 108.213 731.705 451.563
675 0 63.1147 12.406 783 109.41 731.121 448.793
676 0 66.1034 13.2822 878 105.509 732.034 443.372
677 0 67.2175 11.619 781 110.106 731.402 443.058
678 0 70.1915 13.0215 914 106.988 731.542 442.338
679 0 72.2081 13.3365 963 106.323 731.775 442.779
680 0 75.2816 12.9647 976 106.66 731.643 437.913
681 0 78.468 12.4382 976 107.602 731.642 435.361
682 0 82.315 13.0231 1072 105.497 730.635 435.114
683 0 82.1978 12.9444 1064 108.347 731.994 430.07
684 0 85.3351 11.6365 993 108.116 731.816 431.079
685 0 89.2821 12.4997 1116 105.435 731.122 426.052
686 0 90.2045 11.607 1047 106.755 731.231 423.931
687 0 95.2168 11.0275 1050 106.253 731.177 422.802
688 0 99.3395 12.7844 1270 103.154 731.304 421.569
689 1 49.1618 10.9028 536 100.231 731.334 443.849
690 0 51.1548 12.2765 628 95.6672 731.024 440.986
691 0 54.1052 11.607 628 96.1895 731.338 440.928
692 0 54.0717 10.5046 568 99.4754 730.563 441.859
693 0 56.0398 11.1706 626 99.0463 731.292 439.952
694 0 53.1286 10.3522 550 102.067 731.905 440.825
695 0 58.0696 11.1074 645 101.724 731.265 438.833
696 0 60.0757 10.5866 636 101.679 731.752 439.225
697 0 62.0282 8.99592 558 104.797 731.667 441.606
698 0 64.0561 11.0372 707 102.931 731.525 437.106
699 0 68.0562 10.3297 703 101.078 732.368 431.176
700 0 71.0627 11.5813 823 99.4265 731.428 423.738
701 0 71.1241 10.1513 722 103.112 731.31 425.064
702 0 76.0483 12.8077 974 100.035 730.573 422.808
703 0 79.0512 11.6127 918 101.873 731.347 422.07
704 0 80.054 11.2549 901 105.339 730.371 415.787
705 0 83.0721 11.0747 920 105.697 729.959 415.855
706 1 45.0573 9.85411 444 98.2207 731.158 437.234
707 0 46.0223 10.9512 504 103.413 731.603 438.774
708 0 49.0911 12.324 605 101.628 731.324 436.45
709 0 48.0761 11.8146 568 102.232 731.336 435.415
710 0 50.0687 10.8451 543 102.637 731.593 440.757
711 0 49.022 10.2403 502 102.954 731.546 439.082
712 0 52.0828 12.8449 669 100.788 731.413 440.341
713 0 54.0965 10.7586 582 104.581 731.208 440.438
714 0 55.1289 12.1352 669 102.54 731.369 436.735
715 0 58.1347 12.6431 735 101.597 731.241 434.245
716 0 61.0653 13.0352 796 101.229 731.528 433.082
717 0 62.0882 13.3842 831 102.493 731.735 434.531
718 0 63.1353 12.5445 792 105.155 731.934 435.114
719 0 66.091 13.0578 863 103.103 731.924 428.709
720 0 70.0425 13.1634 922 101.733 731.672 429.939
721 0 73.1522 14.3536 1050 100.618 731.535 427.085
722 0 73.068 12.81 936 106.253 731.579 426.822
723 0 78.0884 14.2403 1112 105.029 731.636 426.879
724 0 80.1465 13.2882 1065 110.254 731.763 429.089
725 0 83.1195 13.5829 1129 105.507 731.161 430.06
726 0 86.248 13.8438 1194 111.35 731.279 420.3
727 0 88.1029 14.1653 1248 111.433 730.653 420.445
728 0 93.1224 15.034 1400 108.826 731.52 421.729
729 0 95.1106 15.3505 1460 108.993 731.367 420.571
730 0 99.086 14.6438 1451 110.632 731.399 416.365
731 1 50.0339 11.7121 586 115.172 730.906 443.727
732 0 52.0585 11.6023 604 117.018 730.442 440.041
733 0 55.032 14.646 806 108.423 731.505 431.263
734 0 56.0677 13.8226 775 111.877 731.51 433.872
735 0 57.0644 12.8627 734 115.526 731.315 439.511
736 0 59.0504 14.0727 831 112.963 730.64 438.556
737 0 62.1375 14.6932 913 111.762 731.254 435.147
738 0 63.0262 13.772 868 115.899 731.147 434.96
739 0 64.0722 13.3755 857 119.182 730.775 434.133
740 0 67.1254 14.3463 963 116.646 731.333 430.21
741 0 68.0383 12.7722 869 122.923 730.028 431.198
742 0 72.1024 14.6458 1056 117.435 731.521 431.259
743 0 75.0589 14.3754 1079 118.151 730.886 430.476
744 0 77.133 14.8704 1147 117.139 731.421 430.59
745 0 79.0997 14.1214 1117 120.502 731.078 428.645
746 0 83.0687 14.8191 1231 118.777 730.605 428.314
747 0 84.1079 13.9107 1170 120.048 731.359 427.887
748 0 87.0802 14.0101 1220 120.388 730.963 423.743
749 0 88.1477 14.0219 1236 121.298 729.788 423.959
750 0 92.0709 14.2933 1316 119.47 730.242 426.859
751 0 95.0393 14.0889 1339 121.464 730.204 420.502
752 1 52.0428 11.7211 610 126.403 730.744 443.405
753 0 55.0753 12.6554 697 121.638 729.956 442.552
754 0 57.0175 12.996 741 120.591 730.926 440.696
755 0 58.0938 13.6503 793 120.086 730.826 437.792
756 0 60.1421 13.5679 816 119.85 730.369 438.005
757 0 64.046 14.3491 919 117.2 730.124 437.317
758 0 65.0928 13.0736 851 122.108 730.089 436.264
759 0 72.1708 15.8097 1141 111.781 729.852 433.6
760 0 71.1349 13.7204 976 119.262 730.038 431.89
761 0 75.1157 13.5924 1021 119.474 730.284 431.274
762 0 77.1151 14.6016 1126 116.417 730.131 433.17
763 0 78.1875 13.1351 1027 122.151 729.378 432.673
764 0 81.2631 13.4747 1095 120.22 729.789 431.954
765 0 85.2588 14.368 1225 116.521 730.151 431.278
766 0 89.2889 14.8059 1322 114.282 730.831 434.479
767 0 90.2374 12.8328 1158 120.482 730.802 433.675
768 0 96.1133 15.7418 1513 107.964 729.943 420.59
769 0 97.1464 12.7642 1240 117.268 729.766 423.895
770 0 101.07 13.3175 1346 117.404 729.9 425.15
771 0 104.288 13.3476 1392 120.513 729.697 423.698
772 1 55.0664 11.6223 640 117.103 730.377 452.331
773 0 57.1415 12.0228 687 116.945 731.121 451.623
774 0 59.1235 12.2794 726 115.398 730.866 444.913
775 0 60.2469 12.3658 745 115.459 729.909 445.639
776 0 61.1171 12.4024 758 114.947 730.029 444.966
777 0 66.1093 13.3113 880 111.506 729.828 444.495
778 0 67.0919 13.3548 896 110.961 730.037 438.653
779 0 71.1572 13.2524 943 110.084 729.818 437.374
780 0 72.0813 12.2084 880 112.293 730.039 436.886
781 0 75.311 12.6011 949 110.966 730.122 434.734
782 0 77.0453 12.5511 967 108.225 729.764 431.187
783 0 81.0718 13.5312 1097 104.207 730.445 429.329
784 0 82.1001 12.7405 1046 106.241 729.846 429.076
785 0 85.2631 12.5377 1069 105.572 729.704 430.898
786 0 89.1623 12.5389 1118 104.932 729.771 425.572
787 0 95.1775 12.2718 1168 103.802 729.561 427.598
788 0 95.1791 12.0089 1143 105.261 729.773 422.957
789 0 101.14 12.6854 1283 116.986 729.968 422.966
790 0 102.235 11.9822 1225 98.1469 730.185 407.903
791 0 105.285 9.48853 999 94.1872 729.505 405.499
792 0 109.184 11.9432 1304 92.0038 729.62 404.372
793 1 58.0593 11.7638 683 104.102 729.105 409.41
794 0 62.0931 13.0932 813 107.359 730.384 411.482
795 0 65.2698 13.5591 885 104.579 730.156 412.462
796 0 66.113 14.5811 964 102.611 730.302 411.156
797 0 68.1526 14.2328 970 103.572 730.286 414.084
798 0 71.1391 14.1694 1008 102.848 729.843 414.294
799 0 73.1463 13.9993 1024 102.339 730.038 423.503
800 0 75.1021 13.688 1028 102.945 728.446 430.05
801 0 78.2661 13.8885 1087 102.167 730.419 431.526
802 0 79.0601 12.6612 1001 104.687 729.755 430.739
803 0 87.0877 13.5036 1176 100.66 729.737 428.81
804 0 87.0737 13.1038 1141 103.174 729.681 427.027
805 0 91.1354 12.9039 1176 103.721 729.485 427.622
806 0 95.281 13.8223 1317 101.017 729.806 427.644
807 0 97.205 14.3511 1395 100.838 728.906 426.162
808 0 101.401 14.4772 1468 99.9802 728.835 428.454
809 0 104.206 13.79 1437 101.166 729.148 423.92
810 1 55.0724 11.5484 636 103.341 729.945 442.245
811 0 57.1089 11.1366 636 101.566 729.586 442.854
812 0 60.1656 11.9337 718 98.0501 729.397 441.127
813 0 61.0526 12.7104 776 102.061 729.534 443.179
814 0 66.0619 13.0332 861 100.301 728.688 440.876
815 0 67.1088 13.2471 889 100.912 729.432 441.737
816 0 70.072 14.5422 1019 96.4907 729.811 437.834
817 0 71.1671 13.2505 943 100.327 728.967 434.959
818 0 72.1127 13.1877 951 101.458 729.116 432.897
819 0 77.1223 13.3813 1032 100.73 729.424 432.042
820 0 79.0647 12.6605 1001 102.634 728.958 431.389
821 0 82.1048 13.1174 1077 101.891 729.117 429.621
822 0 87.213 13.725 1197 100.689 728.749 427.358
823 0 88.2017 13.129 1158 103.041 727.997 425.479
824 0 92.202 13.1125 1209 101.806 729.178 426.916
825 0 96.1763 15.1181 1454 99.4484 729.09 425.249
826 0 99.2471 14.217 1411 103.106 728.224 425.744
827 1 52.2157 11.2801 589 99.657 729.258 451.973
828 0 52.1679 10.8496 566 101.194 729.894 452.141
829 0 56.1476 12.3781 695 98.8101 729.071 446.463
830 0 58.1542 12.57 731 103.248 729.358 443.501
831 0 60.3507 13.0405 787 102.231 729.6 444.559
832 0 62.173 11.3554 706 106.814 729.3 444.132
833 0 64.3743 11.604 747 105.289 728.914 445.635
834 0 69.09 13.9383 963 99.5649 729.899 434.215
835 0 71.1992 13.5816 967 100.832 730.009 434.813
836 0 72.1338 13.0868 944 104.401 729.178 433.801
837 0 75.164 13.3575 1004 104.372 728.915 436.267
838 0 77.2591 12.2704 948 107.318 729.294 436.687
839 0 79.1785 12.6928 1005 108.04 729.541 437.158
840 0 82.2549 12.4248 1022 108.235 729.836 439.061
841 0 86.1421 13.0018 1120 108.737 729.657 438.96
842 0 89.22 12.7326 1136 109.567 729.445 440.765
843 0 93.2523 12.7182 1186 107.839 730.116 431.885
844 0 96.1605 13.1863 1268 108.257 730.039 427.905
845 1 49.0866 11.3473 557 104.469 730.151 453.149
846 0 52.1565 11.6764 609 104.236 729.854 456.056
847 0 54.1658 11.6679 632 105.055 729.712 459.927
848 0 54.1931 12.234 663 108.771 729.608 459.371
849 0 55.1584 11.0047 607 111.053 730.855 459.086
850 0 57.1491 12.1262 693 110.26 729.955 454.734
851 0 59.1867 11.6749 691 109.903 730.088 457.653
852 0 60.2625 12.4456 750 108.732 730.219 456.7
853 0 62.2351 12.8705 801 107.747 730.407 455.357
854 0 65.1369 13.1569 857 106.673 730.606 454.118
855 0 68.1515 13.47 918 106.656 730.236 452.837
856 0 69.2117 12.18 843 109.509 729.699 450.915
857 0 73.3819 12.8778 945 106.672 729.992 450.87
858 0 77.2479 12.8547 993 105.627 729.953 449.781
859 0 77.3033 13.0396 1008 105.805 729.638 444.671
860 0 81.2526 12.7257 1034 106.212 729.755 445.96
861 0 84.1788 13.3882 1127 105.142 729.339 444.851
862 0 87.2799 13.1875 1151 104.968 729.56 445.968
863 0 89.2736 12.4897 1115 107.093 729.774 452.1
864 0 92.197 12.4191 1145 107.975 728.924 449.389
865 0 95.2392 12.8624 1225 105.913 729.867 448.231
866 0 99.2236 12.9102 1281 105.532 729.453 446.492
867 0 104.242 13.0754 1363 104.09 729.434 447.726
868 1 55.2548 13.3925 740 102.872 729.547 470.665
869 0 57.3513 11.5778 664 106.762 729.136 473.645
870 0 60.2107 12.5061 753 105.09 728.902 468.835
871 0 62.3944 11.9402 745 105.581 729.705 471.984
872 0 64.241 12.2819 789 105.785 729.388 471.292
873 0 68.133 12.7104 866 103.224 729.657 469.978
874 0 69.1803 12.2723 849 105.102 729.196 468.199
875 0 73.2639 12.5983 923 103.456 729.374 466.257
876 0 75.2918 11.9269 898 106.209 730.185 463.653
877 0 78.1501 12.4376 972 104.821 729.758 461.617
878 0 81.2179 12.9897 1055 104.847 729.304 461.266
879 0 75.2243 10.9273 822 107.657 729.204 463.035
880 0 74.192 9.83934 730 111.33 729.592 461.014
881 0 74.2131 10.3351 767 109.043 729.064 462.284
882 0 73.1663 7.98181 584 110.824 729.541 466.979
883 0 74.0612 8.74953 648 110.829 729.38 464.073
884 1 52.1546 11.2358 586 106.184 730.007 472.331
885 0 55.0455 12.1718 670 105.337 729.891 468.242
886 0 57.1097 13.3778 764 102.993 729.705 464.546
887 0 60.1686 12.1326 730 107.119 730.252 466.121
888 0 59.0626 11.2085 662 110.245 730.353 466.233
889 0 63.0912 12.363 780 107.464 730.251 450.046
890 0 63.0491 10.8804 686 112.079 729.809 451.698
891 0 67.0937 12.803 859 107.274 729.722 450.745
892 0 69.1105 11.9808 828 108.756 729.97 451.46
893 0 72.1083 14.1038 1017 103.576 729.933 449.209
894 0 73.0899 12.7925 935 108.073 729.568 439.133
895 0 76.0773 13.276 1010 107.607 729.714 441.628
896 0 79.1035 12.8692 1018 107.441 729.764 443.965
897 0 83.1247 13.7865 1146 105.824 730.124 444.9
898 0 84.111 14.0172 1179 105.968 730.538 432.518
899 0 87.128 12.9006 1124 106.771 730.117 432.095
900 0 91.0908 13.3713 1218 105.315 730.47 430.273
901 0 93.1483 13.9133 1296 105.998 729.783 427.355
902 0 96.1765 14.4006 1385 104.901 729.888 427.337
903 0 100.078 14.4688 1448 104.242 729.655 426.597
904 0 102.122 12.6712 1294 110.169 730.025 420.447
905 1 58.0402 12.1812 707 105.171 730.993 448.211
906 0 59.0645 12.3763 731 107.657 730.083 443.915
907 0 59.1042 12.148 718 109.599 730.223 442.033
908 0 63.0839 13.0778 825 105.846 730.401 446.918
909 0 65.077 13.6761 890 105.062 730.538 443.751
910 0 66.1209 13.2031 873 106.97 729.755 444.574
911 0 67.1923 12.1442 816 109.594 730.086 446.006
912 0 70.1166 12.9926 911 107.564 729.203 435.969
913 0 74.1571 14.1456 1049 103.22 730.754 436.994
914 0 74.0714 13.379 991 106.666 730.646 437.202
915 0 77.0759 12.2217 942 108.608 730.298 439.834
916 0 81.249 13.6617 1110 104.733 730.536 440.258
917 0 83.0848 13.745 1142 104.366 730.085 437.095
918 0 86.1511 13.3602 1151 105.698 730.213 430.022
919 0 89.1582 13.4256 1197 103.995 731.156 432.399
920 0 92.1614 12.7494 1175 105.751 730.489 428.768
921 0 97.244 13.2245 1286 103.998 731.483 426.709
922 0 99.1106 13.2882 1317 104.339 730.003 427.762
923 1 52.1556 10.8138 564 104.518 730.457 455.945
924 0 55.1937 11.7042 646 103.497 730.543 455.461
925 0 57.2066 12.8132 733 99.9673 730.628 453.211
926 0 59.1252 11.3657 672 102.917 731.073 450.478
927 0 59.0611 11.0056 650 104.665 730.689 453.128
928 0 62.104 12.8494 798 100.39 729.561 453.098
929 0 65.1005 12.8724 838 100.061 729.842 450.447
930 0 66.1284 12.1279 802 102.094 729.707 448.226
931 0 71.142 13.3395 949 98.334 730.426 442.791
932 0 73.2199 11.923 873 101.926 730.144 444.797
933 0 74.1396 11.1546 827 103.965 730.889 443.156
934 0 76.074 11.5414 878 103.87 730.744 433.159
935 0 80.1454 12.5272 1004 101.051 730.884 438.149
936 0 85.1849 12.1266 1033 100.359 730.8 440.369
937 0 85.1235 12.382 1054 101.111 730.395 437.097
938 0 90.1979 13.2486 1195 98.8276 730.639 431.183
939 0 94.1214 12.7495 1200 99.1025 730.968 432.451
940 1 51.059 11.3398 579 97.0225 731.378 456.914
941 0 53.2548 10.8535 578 99.0986 731.097 456.611
942 0 57.3126 12.0567 691 96.5456 730.819 453.849
943 0 58.0867 11.6033 674 98.4214 730.573 452.364
944 0 62.1378 11.2975 702 98.9729 729.702 451.486
945 0 64.1837 11.6852 750 98.3027 730.523 448.575
946 0 66.1726 12.5127 828 95.5882 730.171 450.399
947 0 68.1298 11.0378 752 98.6157 730.669 447.602
948 0 69.1849 11.7367 812 97.8522 731.266 447.059
949 0 72.0867 12.5682 906 96.8466 730.8 439.969
950 0 74.1351 12.3693 917 96.9368 730.788 442.826
951 0 77.1272 11.5394 890 98.6978 730.292 441.581
952 0 81.1937 11.7374 953 98.1805 729.999 440.203
953 0 83.0609 12.545 1042 96.5221 730.58 431.615
954 0 85.0921 13.2797 1130 94.8372 730.431 431.868
955 0 87.135 11.5912 1010 98.298 730.438 430.539
956 1 46.077 10.7863 497 94.6459 730.471 450.433
957 0 47.0289 11.2059 527 91.3795 730.476 448.446
958 0 49.0847 10.7773 529 91.9679 730.635 449.287
959 0 52.0763 11.752 612 95.8627 730.307 453.405
960 0 53.144 12.6261 671 98.1088 730.203 452.776
961 0 55.1145 12.6827 699 97.814 730.474 452.132
962 0 56.118 11.3333 636 100.549 730.623 453.101
963 0 60.0884 13.0974 787 96.3329 730.205 445.994
964 0 61.1584 13.2116 808 96.6584 729.871 448.566
965 0 61.0817 13.2609 810 98.0679 730.501 448.84
966 0 63.1169 12.4848 788 99.0279 730.631 447.943
967 0 66.1305 12.6719 838 99.043 730.717 444.545
968 0 67.2173 13.3299 896 98.1384 731.472 447.644
969 0 69.0426 13.5858 938 97.1599 730.924 437.723
970 0 72.0666 13.7651 992 98.4839 730.322 432.811
971 0 73.0856 12.4785 912 101.9 730.172 434.633
972 0 75.091 14.276 1072 98.3321 730.559 431.871
973 0 80.114 13.1563 1054 99.408 730.531 432.093
974 0 85.0678 13.4599 1145 97.5991 730.49 425.028
975 0 87.1163 12.6727 1104 99.3143 730.861 417.514
976 1 43.0754 11.004 474 98.3861 731.662 438.262
977 0 46.164 11.8274 546 94.2766 731.086 438.678
978 0 46.0363 11.8819 547 96.0238 731.144 436.914
979 0 46.0348 11.3175 521 94.9021 731.228 445.129
980 0 47.0574 11.0078 518 95.5386 731.631 448.071
981 0 48.0703 11.92 573 94.6143 731.353 445.503
982 0 51.1236 11.9319 610 93.9393 730.966 443.407
983 0 52.1334 11.2979 589 94.7368 730.813 444.138
984 0 54.1559 12.4456 674 93.4777 730.429 440.636
985 0 56.0704 11.0575 620 96.1613 730.548 441.331
986 0 61.1814 11.425 699 92.8126 730.124 442.923
987 0 63.2459 12.9811 821 89.6285 729.547 437.269
988 0 65.1928 12.44 811 90.397 729.931 436.121
989 0 67.1631 12.8791 865 89.4659 730.039 434.609
990 0 69.1241 12.0219 831 90.3899 730.136 433.616
991 0 70.2025 12.2788 862 90.4988 730.233 430.954
992 0 72.1439 11.5048 830 93.1253 730.902 428.407
993 0 75.1888 12.0896 909 91.5765 730.6 431.113
994 0 79.1471 12.0409 953 91.894 730.046 426.935
995 0 82.1641 11.7813 968 91.3864 729.69 421.98
996 0 87.0876 12.9984 1132 91.3763 729.231 420.207
997 0 89.2352 11.8115 1054 95.7789 729.368 418.824
998 0 94.0978 13.2734 1249 95.8535 729.283 415.707
999 0 98.2408 12.8969 1267 95.0923 729.743 414.552
1000 0 101.099 12.0278 1216 98.2706 729.484 413.39
1001 0 104.149 12.703 1323 97.9917 729.918 410.865
1002 0 108.246 12.7395 1379 97.4083 729.892 412.801
1003 1 59.2508 11.3247 671 98.2802 730.778 438.453
1004 0 60.1642 11.0697 666 100.73 730.971 441.712
1005 0 63.3301 12.3796 784 100.496 730.825 441.11
1006 0 64.3179 12.687 816 99.6605 730.512 442.657
1007 0 70.2704 11.7688 827 99.6155 730.302 438.447
1008 0 69.0959 11.8531 819 100.85 730.27 435.227
1009 0 73.2999 11.6235 852 99.8192 730.593 437.707
1010 0 75.2111 11.6871 879 98.7531 731.237 434.785
1011 0 80.2232 13.2505 1063 94.2775 730.621 435.073
1012 0 82.2186 11.3113 930 96.0796 730.391 428.367
1013 0 88.1887 12.7454 1124 92.0943 730.897 430.876
1014 0 90.3157 11.5041 1039 93.5245 730.726 424.824
1015 0 95.1993 11.8173 1125 92.8293 730.956 427.697
1016 0 96.1133 11.0599 1063 95.0527 730.665 423.479
1017 0 100.26 12.4576 1249 93.5324 731.094 421.091
1018 0 104.254 11.8941 1240 96.9589 731.313 422.411
1019 1 54.2353 11.9848 650 99.8077 730.698 453.182
1020 0 56.318 11.4883 647 101.431 731.723 448.521
1021 0 58.2952 11.8192 689 100.798 731.177 448.228
1022 0 61.4249 12.7147 781 99.4942 730.81 448.698
1023 0 63.3301 13.248 839 98.1108 731.052 449.311
1024 0 64.064 11.7227 751 101.483 731.224 450.316
1025 0 67.1788 12.8314 862 99.6427 731.288 451.825
1026 0 69.2919 12.7576 884 99.931 731.147 446.24
1027 0 71.0959 12.6168 897 100.857 730.536 434.999
1028 0 73.233 13.1225 961 100.13 730.501 437.261
1029 0 77.3419 13.1235 1015 100.826 730.409 435.853
1030 0 78.2126 14.1793 1109 100.304 730.922 438.583
1031 0 81.4346 13.9376 1135 99.4088 730.417 429.033
1032 0 83.3788 13.3487 1113 102.274 731.052 428.254
1033 0 85.2521 13.7005 1168 102.84 730.381 423.845
1034 0 92.2653 16.1057 1486 96.3459 730.975 422.559
1035 0 94.0697 14.8401 1396 100.845 731.175 424.351
1036 0 95.1993 14.2438 1356 103.735 730.97 423.032
1037 0 96.0968 14.194 1364 105.802 731.125 422.307
1038 0 101.224 15.5694 1576 103.522 730.298 423.74
1039 0 102.189 14.1013 1441 108.281 731.816 420.711
1040 0 106.171 13.8079 1466 109.467 731.51 417.778
1041 0 115.146 17.6645 2034 97.9469 731.309 412.411
1042 0 116.256 15.8444 1842 103.852 731.322 411.078
1043 0 119.16 15.2484 1817 107.933 730.866 411.653
1044 0 123.201 13.2141 1628 113.424 731.918 409.134
1045 1 66.0373 10.6001 700 108.613 731.361 438.693
1046 0 71.1199 13.5968 967 103.522 730.382 437.054
1047 0 73.1119 13.2673 970 112.864 731.205 437.096
1048 0 73.0697 13.0423 953 115.587 731.347 436.964
1049 0 78.1216 13.5942 1062 112.817 731.083 439.218
1050 0 81.0415 14.6715 1189 110.31 731.418 436.316
1051 0 82.079 13.0118 1068 115.1 730.801 429.047
1052 0 85.0853 13.081 1113 115.64 730.645 433.184
1053 0 88.215 13.4218 1184 115.994 731.026 432.03
1054 0 92.0777 13.2605 1221 115.64 730.665 434.898
1055 0 96.1205 14.461 1390 114.351 731.019 432.398
1056 0 99.1236 13.8312 1371 116.953 731.019 430.06
1057 0 101.089 14.7296 1489 115.742 730.838 426.471
1058 0 106.099 15.118 1604 115.019 730.297 426.554
1059 0 107.161 13.2231 1417 119.555 730.963 427.602
1060 0 111.216 14.0088 1558 117.931 729.901 426.218
1061 0 115.167 14.5528 1676 117.727 730.336 425.438
1062 0 120.475 13.8535 1669 118.911 730.431 428.132
1063 0 124.149 15.2237 1890 115.953 730.943 418.225
1064 0 129.315 14.1901 1835 118.534 731.052 418.829
1065 0 133.205 14.5716 1941 118.119 730.794 415.871
1066 0 137.161 14.1731 1944 119.362 730.105 414.296
1067 0 140.292 13.7 1922 121.651 730.014 417.922
1068 0 145.173 14.4173 2093 120.854 730.348 407.718
1069 0 154.223 15.3349 2365 117.329 730.501 406.47
1070 0 156.167 14.254 2226 121.943 731.023 405.667
1071 0 162.182 15.5257 2518 119.735 730.958 404.313
1072 0 168.191 14.9948 2522 121.698 731.189 404.545
1073 0 174.262 15.1554 2641 122.289 731.186 404.183
1074 0 178.297 14.487 2583 125.879 730.751 401.643
1075 0 184.251 14.2957 2634 127.678 730.515 398.982
1076 0 190.158 14.7509 2805 128.379 730.498 390.122
1077 0 197.269 14.9796 2955 128.498 730.816 383.007
1078 0 203.221 13.8371 2812 131.99 729.856 381.966
1079 0 212.3 15.0165 3188 128.166 730.832 376.422
1080 1 164.209 12.5084 2054 131.888 730.652 402.507
1081 0 172.186 13.1021 2256 130.16 730.982 401.558
1082 0 179.148 14.3345 2568 129.199 731.252 397.037
1083 0 185.182 13.5056 2501 131.663 731.977 392.862
1084 0 192.262 13.7781 2649 131.564 731.671 384.841
1085 0 201.175 14.6092 2939 130.31 731.4 369.536
1086 0 206.129 13.6662 2817 132.897 731.603 369.328
1087 0 213.176 13.5381 2886 132.44 732.24 372.062
1088 0 223.21 14.1213 3152 132.34 731.819 361.457
1089 0 232.337 13.7171 3187 133.692 731.438 353.974
1090 0 242.253 13.2878 3219 134.383 731.634 353.774
1091 1 56.0417 9.81413 550 112.653 733.025 449.627
1092 0 58.0826 11.0016 639 111.081 731.449 451.141
1093 0 59.1042 11.6574 689 111.659 731.241 459.276
1094 0 62.1528 12.8232 797 109.156 732.149 458.388
1095 0 63.2043 11.3916 720 113.858 731.696 453.264
1096 0 63.0815 11.3504 716 115.261 732.042 451.387
1097 0 66.2291 11.1431 738 114.34 732.43 455.843
1098 0 69.2211 11.0226 763 113.78 732.114 451.007
1099 0 74.2501 12.6195 937 109.764 732.753 442.163
1100 0 76.2028 12.0074 915 110.695 732.839 445.199
1101 0 82.1244 11.446 940 111.455 732.268 437.754
1102 0 82.1376 11.4686 942 111.551 731.952 437.537
1103 0 86.2444 10.8413 935 111.772 731.982 440.952
1104 0 89.1452 11.7673 1049 109.404 731.529 432.999
1105 0 94.2438 11.7461 1107 108.685 731.888 435.333
1106 1 49.0411 10.0732 494 108.342 731.787 453.593
1107 0 52.0505 10.5282 548 106.193 730.739 441.847
1108 0 55.2288 11.4795 634 105.527 731.648 432.29
1109 0 54.1259 10.4202 564 108.817 731.917 436.119
1110 0 56.0819 10.5917 594 108.434 731.508 434.773
1111 0 60.1805 11.8145 711 103.726 731.579 438.373
1112 0 58.0444 11.4912 667 98.9445 731.504 449.018
1113 0 59.088 11.4744 678 98.8746 731.277 449.329
1114 0 59.0225 9.6065 567 104.861 731.972 442.656
1115 0 62.1184 10.802 671 102.943 732.629 441.624
1116 0 64.1542 12.844 824 98.1663 732.887 440.197
1117 0 64.1256 11.4931 737 103.212 731.796 441.246
1118 0 66.0974 11.0443 730 104.26 732.566 445.448
1119 0 70.1457 12.1747 854 101.591 732.498 438.246
1120 0 73.133 13.7968 1009 99.1497 730.725 435.702
1121 0 74.1309 11.4527 849 105.014 731.568 437.343
1122 0 77.1366 11.5898 894 104.872 731.343 433.281
1123 0 79.229 12.6469 1002 102.435 732.169 429.21
1124 0 81.0669 14.1858 1150 99.2409 732.071 430.663
1125 0 87.0937 13.9964 1219 99.6161 731.807 420.439
1126 0 91.095 15.2478 1389 96.0533 731.893 416.007
1127 0 93.128 14.421 1343 98.5726 732.46 415.661
1128 1 54.0618 10.8025 584 101.658 731.295 429.865
1129 0 53.1452 9.95386 529 102.461 731.367 421.223
1130 0 57.0566 12.1809 695 98.8791 731.229 426.623
1131 0 56.2104 11.5281 648 104.807 732.486 436.19
1132 0 61.1536 13.7523 841 98.1724 732.756 438.792
1133 0 62.1076 11.947 742 103.733 731.341 432.894
1134 0 63.0949 12.5842 794 102.584 731.699 430.937
1135 0 66.0851 12.0299 795 102.758 731.845 432.654
1136 0 66.0927 12.4825 825 102.588 731.468 431.019
1137 0 69.0851 12.4774 862 102.052 731.028 428.153
1138 0 71.1418 11.7793 838 103.358 731.578 429.895
1139 0 74.073 13.1492 974 99.4045 731.12 429.579
1140 0 75.1387 13.0825 983 99.9491 731.136 431.076
1141 0 75.049 12.8849 967 101.857 731.953 431.175
1142 0 80.275 13.1423 1055 99.5137 731.554 434.014
1143 0 81.2112 13.6681 1110 98.9685 731.66 433.021
1144 0 83.2644 12.8747 1072 101.521 731.54 431.743
1145 0 86.1223 13.2022 1137 100.269 731.917 431.515
1146 0 90.2733 13.581 1226 99.5302 731.799 430.304
1147 0 92.1585 13.2489 1221 100.449 732.516 431.256
1148 0 94.28 12.9084 1217 101.223 731.817 426.154
1149 0 98.3076 13.4476 1322 99.7542 731.745 425.449
1150 0 100.473 13.3369 1340 100.672 731.418 422.132
1151 0 105.2 12.8517 1352 101.296 731.969 422.023
1152 0 105.119 11.0065 1157 105.816 732.533 413.169
1153 0 110.39 12.7458 1407 101.316 732.616 417.966
1154 0 114.438 13.0464 1493 100.747 731.919 413.138
1155 1 68.1904 12.7584 870 95.6598 732.853 438.485
1156 0 70.2541 12.3978 871 99.1538 732.989 432.644
1157 0 72.1308 12.2694 885 97.2915 732.991 431.207
1158 0 76.0764 12.356 940 94.8021 732.795 432.649
1159 0 78.1113 12.0853 944 96.2595 732.102 429.626
1160 0 82.2519 12.1091 996 95.1918 732.919 428.007
1161 0 81.1328 11.8201 959 97.5965 731.714 425.557
1162 0 82.0501 11.9317 979 97.3166 732.238 425.773
1163 0 87.1251 11.7532 1024 96.9941 732.326 423.058
1164 0 89.1855 12.8608 1147 94.5658 732.233 422.198
1165 0 91.0865 12.0215 1095 96.1836 732.617 423.945
1166 0 95.2128 14.2523 1357 91.3434 732.274 420.899
1167 0 97.1247 11.7478 1141 96.0105 732.696 421.085
1168 0 103.107 13.9078 1434 89.91 732.299 416.035
1169 0 106.245 14.2219 1511 89.4765 732.48 417.009
1170 0 109.182 14.398 1572 89.2137 732.525 416.669
1171 0 109.089 12.3477 1347 93.7097 732.409 416.959
1172 0 113.313 12.6199 1430 93.2811 732.701 417.517
1173 0 115.096 10.261 1181 97.3489 733.174 418.478
1174 0 115.186 10.8868 1254 97.6882 732.75 414.524
1175 0 123.161 12.3578 1522 93.6275 733.321 411.937
1176 0 131.19 14.5971 1915 88.4433 731.944 403.074
1177 0 133.214 12.5287 1669 94.2804 732.168 401.582
1178 1 74.1618 11.421 847 86.66 732.943 436.796
1179 0 76.1784 10.738 818 91.0024 732.336 437.188
1180 0 79.0677 12.1541 961 90.6306 732.615 437.525
1181 0 82.2508 11.0273 907 91.8743 732.574 439.558
1182 0 84.2078 11.4835 967 92.4395 732.54 438.49
1183 0 86.3388 10.7484 928 94.4483 732.814 440.736
1184 0 88.1713 11.1488 983 93.4374 733.056 443.126
1185 0 92.1114 10.9541 1009 94.1051 733.079 446.667
1186 0 93.1139 12.3505 1150 92.7261 732.754 445.029
1187 0 99.3679 12.0864 1201 91.9001 733.094 448.35
1188 0 99.3679 12.0663 1199 128.707 734.114 448.242
1189 0 104.238 12.9607 1351 89.2598 732.369 438.68
1190 0 106.17 11.7548 1248 92.1611 733.006 439.14
1191 0 107.261 10.5351 1130 94.6018 732.729 441.333
1192 1 59.0643 9.8198 580 92.6517 732.616 468.409
1193 0 60.1394 10.0932 607 94.425 733.208 463.278
1194 0 64.1784 11.8264 759 90.834 732.793 463.155
1195 0 67.2327 11.9436 803 93.6862 732.122 462.918
1196 0 71.3154 12.8724 918 91.7146 732.278 462.418
1197 0 71.2771 11.5465 823 94.8177 732.085 460.073
1198 0 71.311 11.0221 786 96.7048 732.025 459.167
1199 0 75.3406 13.7642 1037 92.108 731.569 457.255
1200 0 75.3614 12.2476 923 95.7974 732.512 457.91
1201 0 76.1559 12.5138 953 93.5834 732.654 457.312
1202 0 77.3101 10.9041 843 97.0285 732.238 456.528
1203 0 79.1267 11.1593 883 98.4983 731.459 452.887
1204 0 84.0917 11.095 933 96.836 732.589 455.594
1205 0 86.3068 11.8994 1027 96.37 732.719 454.459
1206 0 87.1906 12.077 1053 97.0285 732.755 451.151
1207 0 91.2241 12.7708 1165 95.4481 732.75 451.55
1208 0 94.1789 11.7861 1110 99.1541 733.155 448.86
1209 0 96.1621 11.6678 1122 100.618 732.834 448.229
1210 0 100.162 12.8492 1287 97.8936 732.915 443.663
1211 0 104.194 12.3424 1286 98.4292 732.507 446.858
1212 1 61.1851 10.0515 615 102.95 732.771 464.564
1213 0 62.1231 10.4792 651 102.106 732.779 458.453
1214 0 65.1566 10.3597 675 100.681 732.613 462.071
1215 0 66.1142 10.7087 708 101.535 732.723 460.119
1216 0 71.1385 13.298 946 95.4662 732.846 456.013
1217 0 71.1861 11.3927 811 100.785 732.206 456.012
1218 0 74.2106 13.0035 965 97.0808 732.887 455.049
1219 0 74.167 11.6224 862 100.078 732.585 454.268
1220 0 78.1314 12.0694 943 98.491 732.282 455.453
1221 0 80.2485 10.4924 842 101.38 732.968 451.675
1222 0 82.1083 10.7054 879 100.25 732.838 450.579
1223 0 86.2284 12.7684 1101 94.4687 732.675 434.038
1224 0 88.3718 11.7571 1039 97.6506 732.774 434.671
1225 0 91.1838 11.8771 1083 96.4377 732.523 431.562
1226 0 94.3193 12.5849 1187 95.5249 733.141 434.004
1227 0 93.1007 12.1267 1129 97.9593 732.646 427.115
1228 0 98.1421 12.6959 1246 96.4864 732.465 428.876
1229 0 102.239 12.6174 1290 96.3814 732.502 429.657
1230 0 102.216 12.1801 1245 96.7639 733.19 425.689
1231 0 104.405 11.6565 1217 97.779 732.675 423.343
1232 0 109.327 12.4763 1364 95.4619 732.448 426.876
1233 0 111.192 11.2868 1255 98.7928 732.411 424.069
1234 0 117.231 11.0722 1298 99.4553 733.247 425.793
1235 0 120.182 11.8071 1419 98.9986 732.924 428.008
1236 0 125.325 11.0832 1389 100.876 733.387 425.748
1237 1 67.1374 10.486 704 95.4503 733.281 451.609
1238 0 68.0984 11.0135 750 95.9053 733.544 452.864
1239 0 69.0752 11.6395 804 96.4328 733.677 449.187
1240 0 74.1794 12.6046 935 95.139 733.526 453.097
1241 0 77.1877 11.6081 896 101.218 733.254 450.772
1242 0 80.153 13.2996 1066 98.515 732.526 450.352
1243 0 80.1583 11.8391 949 101.827 733.709 441.659
1244 0 84.2922 11.5076 970 100.964 733.669 442.553
1245 0 85.3193 11.6621 995 102.678 732.55 445.409
1246 0 89.2305 12.675 1131 101.06 733.215 447.174
1247 0 92.1116 12.55 1156 95.0753 733.324 431.184
1248 0 95.0614 12.5919 1197 96.2147 732.884 425.023
1249 0 96.1837 11.0934 1067 100.804 733.56 420.377
1250 0 101.124 12.4995 1264 97.3252 732.946 420.806
1251 0 104.099 13.0645 1360 95.1037 733.285 421.732
1252 0 106.159 11.106 1179 99.43 732.984 424.101
1253 0 108.057 10.9849 1187 100.693 732.596 418.43
1254 1 59.0829 12.2032 721 93.2275 733.04 444.761
1255 0 61.169 11.9995 734 97.549 732 444.437
1256 0 63.0862 12.0787 762 98.3648 732.1 448.125
1257 0 63.0692 11.6856 737 96.9634 732.193 444.138
1258 0 64.063 11.2233 719 95.3978 731.69 441.391
1259 0 64.0931 10.3755 665 98.1414 732.795 443.528
1260 0 66.0469 10.538 696 98.2098 733.407 445.379
1261 0 69.1532 11.395 788 97.3198 733.69 436.185
1262 0 71.1579 12.7744 909 95.3817 733.738 435.024
1263 0 73.1031 12.2977 899 96.9956 733.826 432.993
1264 0 74.0641 12.4757 924 97.9697 733.855 433.097
1265 0 76.1678 11.9867 913 99.9573 733.802 431.473
1266 0 79.2347 12.7974 1014 97.9635 733.517 431.289
1267 0 81.1405 11.1535 905 102.053 733.723 431.128
1268 0 83.1381 12.2086 1015 101.685 733.149 430.132
1269 0 87.1493 12.2319 1066 102.097 733.315 431.776
1270 0 89.1869 13.4325 1198 100.139 733.741 434.344
1271 0 97.2159 15.3781 1495 96.1378 732.962 418.943
1272 0 95.1785 13.4799 1283 103.419 734.009 420.542
1273 0 98.1287 13.0135 1277 105.008 734.339 421.22
1274 0 104.352 13.9527 1456 100.694 734.651 424.603
1275 0 103.345 12.6663 1309 105.336 734.615 423.405
1276 0 109.133 14.0287 1531 100.898 734.278 417.767
1277 1 62.1127 10.98 682 100.767 735.147 443.594
1278 0 62.0684 11.6162 721 99.5076 735.239 445.692
1279 0 66.123 12.3558 817 101.759 735.41 447.685
1280 0 67.1939 12.5309 842 102.343 734.021 447.178
1281 0 71.11 13.0643 929 100.531 734.425 439.207
1282 0 71.0519 12.7653 907 102.463 734.519 434.426
1283 0 72.0785 12.0008 865 104.348 734.742 432.029
1284 0 76.1196 13.7284 1045 100.117 735.125 432.666
1285 0 78.1085 13.8013 1078 100.537 735.102 431.233
1286 0 79.1937 12.8419 1017 103.44 734.921 430.758
1287 0 83.083 13.8777 1153 100.899 734.911 432.925
1288 0 86.2227 13.6507 1177 101.841 735.203 431.098
1289 0 88.2213 14.7017 1297 99.3978 735.711 428.891
1290 0 89.1677 13.4466 1199 103.209 735.053 427.687
1291 0 95.1641 14.3752 1368 98.9291 734.606 425.314
1292 0 95.1533 12.1803 1159 104.743 735.041 422.228
1293 0 99.0902 12.9175 1280 102.077 735.687 422.577
1294 0 100.091 12.9482 1296 104.498 735.553 420.503
1295 1 57.0299 11.3274 646 101.043 736.356 445.641
1296 0 58.064 11.6423 676 101.552 735.814 443.462
1297 0 63.0896 12.7596 805 97.277 735.629 442.8
1298 0 62.033 12.0097 745 100.69 735.999 445.836
1299 0 65.1373 12.6195 822 99.3394 735.425 439.271
1300 0 67.1162 12.9924 872 97.1617 734.161 438.19
1301 0 68.1151 12.8019 872 98.5378 735.212 438.038
1302 0 70.1677 13.5105 948 98.6814 734.661 435.844
1303 0 69.0782 12.3773 855 101.956 735.14 435.081
1304 0 72.1267 12.7276 918 101.044 735.059 433.84
1305 0 76.1583 13.3932 1020 99.1961 735.194 431.275
1306 0 80.0871 12.5114 1002 100.874 734.984 431.284
1307 0 80.1029 12.6712 1015 101.69 734.799 428.742
1308 0 85.1337 14.5301 1237 95.7704 734.885 426.868
1309 0 86.1424 14.1162 1216 98.3651 734.233 426.417
1310 0 89.1261 12.9255 1152 100.964 734.994 428.374
1311 0 88.0843 12.5107 1102 103.799 734.233 425.217
1312 0 93.1152 13.1021 1220 101.808 733.862 424.126
1313 0 95.0711 13.7686 1309 101.01 734.018 422.989
1314 0 100.112 12.9156 1293 102.305 734.495 420.811
1315 1 52.0916 10.0976 526 102.065 734.888 448.703
1316 0 54.0678 10.1169 547 103.914 735.576 449.161
1317 0 56.1323 10.3506 581 102.902 734.509 449.556
1318 0 58.0976 13.2708 771 96.4332 734.125 451.726
1319 0 58.0561 11.0066 639 103.438 733.828 439.207
1320 0 62.0863 13.143 816 97.9608 733.616 439.578
1321 0 63.1286 11.7538 742 100.72 733.15 441.513
1322 0 63.1348 11.7526 742 101.811 733.385 441.437
1323 0 65.157 12.6003 821 100.121 733.192 441.533
1324 0 65.1598 12.3236 803 101.056 733.03 442.848
1325 0 69.1395 11.5274 797 101.208 733.087 445.956
1326 0 68.2602 11.7492 802 102.223 733.599 445.913
1327 0 74.152 13.2835 985 97.3665 733.146 444.794
1328 0 74.1722 12.1879 904 101.363 732.885 442.85
1329 0 75.2458 13.6619 1028 99.0331 732.842 442.005
1330 0 77.1863 12.6059 973 100.894 732.836 442.57
1331 0 77.2663 11.7775 910 104.169 732.165 443.913
1332 0 81.2453 12.9977 1056 101.031 732.827 446.924
1333 0 84.2195 13.3936 1128 99.4574 732.192 450.878
1334 0 83.1979 10.3248 859 106.697 732.902 447.658
1335 0 87.275 12.6726 1106 100.92 732.884 445.736
1336 0 91.224 11.6307 1061 102.543 732.395 445.573
1337 0 93.303 12.3683 1154 101.92 732.299 441.831
1338 0 97.2428 12.2683 1193 101.515 731.484 442.616
1339 0 97.2178 12.292 1195 101.392 732.489 443.118
1340 0 102.292 11.4183 1168 104.402 731.49 444.118
1341 0 104.172 12.0666 1257 102.231 732.184 439.282
1342 0 110.196 12.6775 1397 101.49 732.344 440.687
1343 0 112.273 13.5384 1520 100.216 731.191 440.701
1344 0 109.124 10.1994 1113 106.729 731.497 434.419
1345 0 117.159 11.2497 1318 103.134 731.541 437.861
1346 0 121.356 12.418 1507 100.013 731.486 433.177
1347 0 123.338 11.6347 1435 103.095 731.247 430.151
1348 0 129.124 12.879 1663 99.92 730.898 432.393
1349 0 131.21 11.5768 1519 103.013 730.936 432.354
1350 1 75.0376 11.5142 864 101.42 730.686 439.416
1351 0 78.2107 12.5303 980 98.3276 731.042 439.367
1352 0 79.1882 11.9462 946 101.178 731.077 441.427
1353 0 80.0857 12.4991 1001 101.698 731.765 444.977
1354 0 83.1145 14.3176 1190 96.9731 730.764 432.968
1355 0 84.1161 12.887 1084 102.133 731.185 430.861
1356 0 82.0739 11.6115 953 106.833 731.487 430.665
1357 0 89.1011 13.1199 1169 102.142 731.307 427.801
1358 0 91.3671 13.2104 1207 104.698 730.689 422.565
1359 0 93.1907 12.7159 1185 104.22 730.332 425.02
1360 0 96.1168 12.3184 1184 105.933 730.34 422.608
1361 0 99.0814 12.6663 1255 105.279 730.784 425.984
1362 0 101.126 12.7761 1292 104.057 731.086 427.87
1363 1 56.0717 11.1108 623 99.9197 731.87 451.62
1364 0 58.157 11.297 657 102.86 731.199 447.088
1365 0 60.1936 11.0809 667 99.3913 730.409 445.232
1366 0 61.0939 11.245 687 97.0684 729.75 441.475
1367 0 63.1781 12.2827 776 94.3389 730.856 440.713
1368 0 64.1361 12.1461 779 95.0449 729.879 438.697
1369 0 68.1555 12.7943 872 92.8979 731.032 438.525
1370 0 68.072 12.5015 851 98.5335 730.308 441.378
1371 0 70.0601 11.4901 805 105.853 730.809 442.943
1372 0 74.0827 11.7436 870 105.126 731.375 438.201
1373 0 75.1092 11.6364 874 105.318 730.264 437.14
1374 0 77.0966 12.2703 946 104.822 729.81 435.841
1375 0 77.1132 11.8138 911 106.249 730.056 434.734
1376 0 81.1004 12.2934 997 105.327 730.282 432.488
1377 0 82.1586 12.6341 1038 103.785 730.585 433.956
1378 0 84.1475 11.5274 970 106.035 730.492 432.339
1379 0 87.0933 11.5164 1003 105.288 729.66 429.48
1380 0 88.0973 11.056 974 106.676 729.803 429.692
1381 0 91.131 12.1254 1105 103.728 729.414 429.99
1382 0 94.1935 11.126 1048 104.615 729.445 429.627
1383 0 98.0983 10.4385 1024 105.446 729.64 433.793
1384 0 97.1252 11.933 1159 102.992 729.902 430.502
1385 0 101.252 11.1406 1128 104.228 729.331 425.594
1386 0 102.148 11.2777 1152 103.517 729.939 426.396
1387 0 109.153 13.1558 1436 100.213 729.759 426.079
1388 1 59.0724 12.0022 709 98.2708 730.37 446.312
1389 0 60.1715 11.8993 716 97.5517 729.295 448.307
1390 0 63.1178 11.9142 752 98.0585 730.819 445.777
1391 0 65.1188 12.8534 837 100.08 730.14 446.124
1392 0 66.2073 12.7478 844 101.385 729.921 446.288
1393 0 68.2016 12.0818 824 102.871 730.274 447.534
1394 0 73.1367 12.7569 933 100.312 729.962 448.551
1395 0 74.143 12.5433 930 103.091 730.052 431.626
1396 0 76.0611 13.3577 1016 100.8 729.268 430.363
1397 0 80.1882 13.8923 1114 99.1293 730.604 429.338
1398 0 83.0902 14.2496 1184 98.174 729.354 431.459
1399 0 83.2153 12.3174 1025 103.645 729.414 429.634
1400 0 85.2604 13.1714 1123 102.099 729.753 428.702
1401 0 91.1246 14.2881 1302 98.8625 729.809 424.69
1402 0 92.107 13.6906 1261 101.683 730.258 424.21
1403 0 95.1276 14.2651 1357 99.7539 729.059 428.186
1404 0 97.206 14.567 1416 100.008 729.214 430.947
1405 0 100.126 13.6828 1370 103.069 728.816 421.883
1406 0 102.129 14.0312 1433 102.814 729.156 423.195
1407 0 107.155 14.8944 1596 99.943 729.311 424.286
1408 1 57.0807 11.4224 652 101.471 730.508 447.974
1409 0 60.0772 12.7336 765 99.1085 730.293 449.299
1410 0 62.0526 13.3113 826 97.6186 730.559 445.689
1411 0 58.1429 11.3513 660 97.0818 730.227 448.073
1412 0 62.1396 11.2489 699 96.9871 730.343 449.1
1413 0 66.1126 12.3123 814 93.9484 729.518 449.088
1414 0 66.1953 11.7984 781 96.6492 729.465 447.907
1415 0 69.1675 11.2625 779 98 729.655 447.896
1416 0 71.1845 12.0251 856 93.7348 729.487 448.05
1417 0 73.1684 12.4234 909 95.198 728.965 443.856
1418 0 76.2066 12.8729 981 95.157 728.961 442.81
1419 0 81.2461 13.7484 1117 95.7762 729.399 436.993
1420 0 81.1237 14.4224 1170 97.3333 729.19 436.543
1421 0 85.2581 14.0163 1195 98.5464 729.773 438.46
1422 0 85.2157 12.8615 1096 103.514 729.672 438.642
1423 0 89.2323 13.8963 1240 104.691 729.239 433.921
1424 0 92.1483 14.0534 1295 103.468 728.941 424.458
1425 0 95.193 14.4128 1372 103.511 729.353 430.469
1426 0 97.1197 13.3958 1301 106.603 729.673 431.588
1427 0 99.1486 13.2528 1314 107.913 729.626 430.253
1428 0 101.29 13.5651 1374 107.021 729.226 426.587
1429 0 106.141 14.1793 1505 105.727 729.031 424.248
1430 1 60.131 13.1214 789 99.8593 729.425 445.354
1431 0 59.1242 11.0615 654 106.604 729.355 447.7
1432 0 64.213 13.0659 839 99.261 729.007 447.567
1433 0 64.1725 12.9339 830 105.522 729.248 447.739
1434 0 66.1365 11.7182 775 103.646 729.027 449.991
1435 0 66.1681 12.4531 824 104.64 728.655 449.951
1436 0 72.3384 13.2018 955 101.573 729.195 451.686
1437 0 74.3275 13.9787 1039 104.268 729.294 439.737
1438 0 77.3553 13.1601 1018 106.453 728.944 440.565
1439 0 78.194 13.2363 1035 106.143 728.769 439.377
1440 0 81.2304 13.3694 1086 105.394 729.078 442.141
1441 0 81.1775 12.5774 1021 109.238 728.462 440.691
1442 0 86.2955 13.0714 1128 105.082 728.739 437.582
1443 0 86.2546 12.7529 1100 106.899 728.436 434.442
1444 0 89.2529 13.0416 1164 106.08 728.757 431.748
1445 0 94.1345 13.5551 1276 102.921 728.831 429.447
1446 0 96.1697 13.4866 1297 103.87 729.145 429.833
1447 0 102.109 13.6423 1393 103.023 729.278 429.211
1448 0 102.223 12.8543 1314 103.53 729.568 432.336
1449 0 106.203 13.2105 1403 104.248 728.569 429.883
1450 0 107.156 13.4103 1437 104.514 728.438 427.212
1451 0 110.313 13.5977 1500 104.751 728.929 424.715
1452 0 118.255 15.6611 1852 98.6771 728.388 414.183
1453 0 121.201 14.3893 1744 104.234 728.763 413.486
1454 0 123.381 14.2404 1757 105.97 728.701 414.729
1455 1 64.0707 11.4405 733 102.179 729.524 445.389
1456 0 66.2371 11.1116 736 103.177 729.375 441.602
1457 0 71.1433 12.9316 920 102.546 729.735 440.115
1458 0 72.0228 13.8012 994 101.815 730.308 439.77
1459 0 75.1103 12.8744 967 102.8 729.615 441.752
1460 0 75.0901 12.6515 950 102.78 729.279 444.857
1461 0 76.1433 11.439 871 106.289 729.746 445.412
1462 0 81.1414 13.7168 1113 100.854 728.532 444.474
1463 0 82.1404 13.2578 1089 102.541 728.88 441.664
1464 0 86.1092 13.8545 1193 100.882 728.052 441.857
1465 0 86.2262 12.6876 1094 103.059 728.56 440.798
1466 0 87.2791 12.8438 1121 104.642 728.707 439.902
1467 0 91.1698 12.8222 1169 103.505 728.772 439.722
1468 0 91.221 12.2011 1113 105.188 728.389 440.006
1469 0 100.189 16.7882 1682 92.635 729.473 432.008
1470 0 98.2768 13.0957 1287 103.229 728.976 431.458
1471 0 103.134 13.0317 1344 101.619 728.214 431.331
1472 0 106.168 13.1584 1397 101.295 728.788 434.024
1473 0 107.117 12.2576 1313 103.759 728.97 430.01
1474 0 111.192 12.0783 1343 104.276 728.966 431.858
1475 1 61.1142 11.6667 713 100.353 729.268 456.342
1476 0 63.094 11.3481 716 101.971 729.042 443.68
1477 0 66.0988 11.6795 772 100.339 729.127 445.85
1478 0 68.2588 12.5698 858 98.4977 729.544 449.808
1479 0 67.1433 12.4957 839 95.9106 729.726 450.808
1480 0 70.0754 11.2878 791 97.9077 729.726 448.561
1481 0 73.066 11.4691 838 96.4356 729.57 450.845
1482 0 73.11 11.3801 832 97.4976 729.292 449.296
1483 0 78.2017 12.2632 959 95.4421 728.886 447.093
1484 0 79.1638 12.5562 994 95.2042 728.547 443.916
1485 0 84.2097 12.7182 1071 94.2428 729.115 441.845
1486 0 84.2821 11.9717 1009 94.8959 729.695 446.278
1487 0 86.1232 12.1222 1044 95.796 729.395 442.658
1488 0 90.0857 12.3882 1116 95.1729 729.479 441.618
1489 0 94.1287 11.6968 1101 96.158 730.066 440.152
