time division length width area intensity CMx CMy
0 0 51.0243 11.5827 591 148.276 1264.64 474.047
1 0 54.0614 12.4858 675 145.286 1265.24 471.751
2 0 54.0182 12.5884 680 146.094 1265.18 471.526
3 0 56.0466 12.5075 701 145.67 1266.01 471.068
4 0 58.035 12.4235 721 144.592 1265.66 470.616
5 0 59.0233 12.8593 759 143.538 1265.43 470.574
6 0 60.0136 13.9135 835 140.077 1264.51 469.558
7 0 60.0113 13.9474 837 152.214 1263.51 469.527
8 0 60.0176 13.9626 838 151.624 1262.48 469.564
9 0 63.0775 12.9999 820 142.751 1264.88 467.157
10 0 66.0465 13.3542 882 140.619 1265.2 466.861
11 0 69.0524 12.4398 859 139.651 1265.11 468.467
12 0 70.0507 12.391 868 139.69 1264.45 466.219
13 0 73.0452 13.0741 955 138.723 1264 464.791
14 0 75.1178 12.7932 961 138.086 1263.86 464.585
15 0 81.1525 12.877 1045 135.176 1263.4 464.298
16 1 42.0369 12.0608 507 137.012 1263.84 480.892
17 0 44.0383 12.7389 561 134.444 1263.5 480.344
18 0 45.0404 13.832 623 131.435 1262.1 479.682
19 0 45.0802 13.8198 623 132.305 1263.03 479.825
20 0 46.0757 14.563 671 132.148 1263.01 478.492
21 0 49.0269 13.2988 652 97.8098 1263.52 478.98
22 0 50.0399 14.3086 716 131.559 1262.51 478.013
23 0 51.0313 13.286 678 134.426 1262.74 478.181
24 0 52.0467 13.4687 701 133.862 1262.93 477.161
25 0 55.0249 14.9569 823 128.625 1262.65 476.676
26 0 56.0709 13.6256 764 132.194 1262.39 475.755
27 0 56.1033 13.0474 732 127.324 1261.45 477.43
28 0 58.0494 13.0062 755 129.416 1262.49 475.779
29 0 59.0393 12.6695 748 131.242 1261.52 476.404
30 0 63.0533 15.3045 965 122.328 1260.92 474.553
31 0 64.0352 12.9616 830 130.249 1261.98 473.949
32 0 68.0465 13.77 937 126.57 1262.31 472.825
33 0 69.0344 13.9641 964 124.282 1261.58 470.828
34 0 72.1072 13.3135 960 124.945 1261.7 469.962
35 0 73.0522 14.4691 1057 125.387 1261.86 468.718
36 0 76.051 13.8723 1055 126.178 1261.28 468.883
37 0 78.1237 13.2354 1034 128.496 1261.61 468.159
38 0 80.1135 13.5433 1085 127.925 1260.91 465.76
39 0 84.0826 13.2965 1118 128.463 1261.61 463.92
40 0 88.1142 14.345 1264 124.587 1262.28 462.29
41 0 91.1393 14.8015 1349 122.636 1261.42 460.974
42 0 94.0645 14.3093 1346 124.085 1260.92 458.567
43 0 95.1327 13.0975 1246 127.01 1261.47 457.878
44 0 101.14 13.7433 1390 123.643 1261.37 456.294
45 1 52.0469 13.411 698 125.533 1260.94 479.042
46 0 54.0507 14.2089 768 123.124 1260.6 479.126
47 0 56.053 13.184 739 122.958 1260.98 480.188
48 0 55.1146 13.4447 741 126.811 1261.52 477.211
49 0 59.0345 14.4322 852 122.184 1260.33 478.373
50 0 59.0591 12.9531 765 129.778 1259.77 477.067
51 0 63.0808 14.4576 912 125.138 1259.66 475.026
52 0 64.0304 13.3218 853 129.13 1259.78 474.583
53 0 66.0277 13.4792 890 127.38 1260.28 475.13
54 0 68.0537 13.7245 934 126.132 1260 474.96
55 0 71.052 13.4268 954 126.938 1259.51 473.322
56 0 75.0492 14.7637 1108 126.384 1259.24 471.021
57 0 77.0365 14.266 1099 127.672 1259.77 471.263
58 0 82.0365 15.0908 1238 125.651 1259.83 468.725
59 0 82.1739 14.0677 1156 129.917 1259.06 467.267
60 0 88.1847 15.9892 1410 122.447 1258.96 466.767
61 1 45.0539 12.2298 551 127.423 1259.55 488.336
62 0 47.1071 12.8218 604 126.752 1260.45 486.891
63 0 46.0402 12.4022 571 122.45 1260.27 483.35
64 0 46.0174 12.517 576 127.408 1259.57 485.061
65 0 49.032 13.1343 644 122.793 1259.2 487.079
66 0 49.0169 13.0567 640 125.827 1260.2 485.027
67 0 51.0277 13.9728 713 123.898 1259.57 482.199
68 0 53.1712 13.2967 707 125.296 1258.61 482.001
69 0 57.0208 13.5214 771 123.542 1259.17 481.003
70 0 59.0886 15.5022 916 118.606 1259 480.658
71 0 61.0274 14.1904 866 122.583 1259.41 479.792
72 0 62.0292 13.945 865 124.431 1259.15 478.303
73 0 63.0755 13.5235 853 127.63 1259.04 477.284
74 0 65.0536 14.0807 916 127.944 1259.89 475.848
75 0 67.0287 14.6654 983 125.648 1259.58 474.715
76 0 71.0436 13.5691 964 128.327 1259.81 475.067
77 0 73.0717 14.6979 1074 125.044 1259.52 473.41
78 0 76.0716 14.6704 1116 125.629 1259.29 471.863
79 0 77.0744 13.3767 1031 129.619 1259.41 471.518
80 0 81.0886 14.9343 1211 123.336 1259.56 470.144
81 0 83.1189 14.4612 1202 127.296 1259.39 467.78
82 0 86.0723 13.9185 1198 128.919 1258.53 466.489
83 0 89.0516 15.0587 1341 124.098 1259.04 464.746
84 0 90.2014 13.237 1194 127.611 1259.38 461.74
85 0 97.0685 14.2889 1387 124.609 1258.97 460.652
86 1 50.011 12.4972 625 124.621 1258.35 483.478
87 0 53.0382 12.3496 655 123.609 1258.37 483.198
88 0 56.0325 14.2239 797 116.024 1258.5 483.848
89 0 54.0342 12.0849 653 117.084 1258.61 483.662
90 0 56.0273 12.6902 711 115.316 1258.53 483.215
91 0 58.1405 13.8974 808 113.119 1257.97 481.15
92 0 59.0732 12.1036 715 116.968 1258.18 480.28
93 0 61.0482 13.1208 801 114.447 1258.56 477.885
94 0 63.0521 13.1003 826 113.057 1258.01 479.424
95 0 68.0283 13.8766 944 110.324 1258.39 478.028
96 0 68.0262 12.4364 846 114.797 1258.58 475.935
97 0 71.0429 13.9916 994 110.716 1257.76 474.552
98 0 75.0718 14.7592 1108 108.542 1257.41 474.335
99 0 76.0323 12.6657 963 114.477 1257.74 473.355
100 0 75.0969 12.0511 905 117.548 1258.11 471.636
101 0 79.107 12.1734 963 116.771 1258.14 471.588
102 0 82.1621 13.2056 1085 115.517 1258.34 469.74
103 0 84.1098 12.5669 1057 116.624 1258.14 468.595
104 0 88.0873 12.9076 1137 115.529 1257.88 465.406
105 0 91.0446 13.1035 1193 114.685 1258.29 466.308
106 0 95.1517 13.1474 1251 116.203 1257.85 461.122
107 0 100.076 13.8195 1383 113.207 1257.49 462.364
108 1 51.0221 11.5636 590 117.102 1257.62 484.636
109 0 55.0788 12.3641 681 115.186 1257.06 483.724
110 0 55.0636 12.7852 704 115.21 1257.59 481.683
111 0 58.098 13.1674 765 111.43 1256.96 481.708
112 0 62.0373 13.9593 866 108.487 1256.82 479.711
113 0 63.05 12.7835 806 111.236 1257.61 479.329
114 0 64.0574 12.6293 809 111.23 1258.03 479.167
115 0 67.0927 13.7422 922 108.551 1257.67 477.937
116 0 70.0703 13.9003 974 107.974 1257.88 473.179
117 0 72.0785 13.083 943 110.898 1258 474.935
118 0 75.0374 11.9274 895 114.965 1258.24 474.01
119 0 76.1176 12.5858 958 115.843 1259.12 471.504
120 0 79.0578 13.332 1054 114.919 1259.01 471.356
121 0 81.1859 13.2658 1077 116.233 1258.39 468.334
122 0 86.0853 13.0104 1120 114.33 1257.92 468.731
123 0 88.2541 12.7699 1127 115.385 1258.59 467.309
124 0 91.076 12.4072 1130 115.768 1258.71 466.734
125 0 95.0744 12.7269 1210 114.299 1258.44 464.389
126 1 49.067 11.4945 564 114.009 1259.02 485.784
127 0 52.0502 12.3919 645 117.025 1258.36 483.91
128 0 52.066 12.2921 640 118.614 1259.16 483.377
129 0 52.0848 11.3853 593 112.428 1258.48 484.094
130 0 54.0426 11.565 625 113.218 1257.89 483.104
131 0 56.0221 11.6204 651 112.948 1258.38 480.624
132 0 58.0907 11.7747 684 113.314 1257.46 479.306
133 0 61.0868 13.0634 798 110.028 1256.83 478.05
134 0 62.0631 12.729 790 111.222 1256.85 476.67
135 0 65.1382 12.4811 813 110.677 1257.24 477.681
136 0 67.0479 12.6328 847 111.858 1257.19 474.737
137 0 69.0575 12.6706 875 112.275 1257.27 473.482
138 0 72.069 13.4316 968 109.848 1257.54 473.814
139 0 75.0404 13.9125 1044 109.237 1257.92 472.104
140 0 79.0936 13.7938 1091 109.83 1256.84 472.252
141 0 80.0796 13.2993 1065 109.996 1257.34 469.657
142 0 84.1047 13.4713 1133 109.645 1257.23 468.359
143 0 84.0943 13.3541 1123 111.678 1257.82 466.933
144 0 87.1285 13.9449 1215 109.733 1257.67 466.378
145 0 91.0649 12.9139 1176 112.477 1257.78 463.75
146 0 93.1641 13.4494 1253 112.919 1258.1 462.382
147 0 97.0923 13.7704 1337 112.625 1258.17 459.125
148 0 102.249 12.851 1314 112.604 1258.2 461.006
149 0 104.136 12.8294 1336 113.293 1257.66 458.177
150 1 54.15 12.2807 665 107.036 1256.89 481.922
151 0 55.1176 12.7908 705 104.704 1257.41 480.488
152 0 57.0478 12.6736 723 112.618 1257.08 480.866
153 0 60.0264 12.4279 746 113.757 1257.09 478.001
154 0 62.0418 12.7172 789 113.246 1257.31 477.989
155 0 64.0844 12.3899 794 107.131 1257.87 478.106
156 0 66.0591 12.4131 820 105.394 1258.61 476.499
157 0 67.1085 11.7422 788 108.282 1258.01 475.973
158 0 68.0679 11.5914 789 107.904 1258.41 475.131
159 0 70.048 12.7912 896 106.436 1258.07 472.415
160 0 74.1052 11.7401 870 107.694 1257.02 472.829
161 0 77.0415 12.331 950 106.22 1256.97 470.387
162 0 77.0852 12.0386 928 106.188 1256.83 472.084
163 0 78.0605 10.8377 846 109.2 1256.85 469.565
164 0 82.0891 11.6459 956 107.597 1257.52 467.162
165 0 84.0641 12.0622 1014 107.093 1257.58 466.658
166 0 88.067 12.0476 1061 106.246 1257.69 464.611
167 0 91.1502 11.9912 1093 105.457 1257.58 464.4
168 0 93.1779 11.3332 1056 107.232 1257.24 461.185
169 0 95.0456 10.4897 997 107.721 1257.12 461.88
170 0 99.1191 12.7725 1266 104.607 1257.17 457.904
171 0 103.119 12.0637 1244 104.847 1257.18 458.272
172 0 105.1 10.999 1156 104.772 1257.71 454.942
173 0 109.137 12.2141 1333 104.739 1257.06 451.47
174 0 112.074 11.9653 1341 105.664 1257.62 450.448
175 0 117.106 12.8004 1499 103.737 1257.73 449.918
176 0 118.203 11.5479 1365 108.041 1257.8 445.4
177 0 122.154 11.6574 1424 107.02 1258.09 445.425
178 0 127.127 11.9408 1518 106.569 1258.29 441.784
179 0 133.075 12.0007 1597 107.244 1257.9 439.422
180 0 136.081 13.0584 1777 106.819 1257.24 439.589
181 0 139.152 11.2898 1571 112.625 1257.94 436.315
182 0 144.347 12.0127 1734 114.923 1257.68 432.762
183 0 151.185 13.123 1984 111.874 1257.83 428.789
184 0 154.278 12.996 2005 113.487 1257.96 428.56
185 0 159.222 12.1843 1940 116.604 1258.11 422.245
186 0 165.37 13.0133 2152 116.499 1258.57 418.069
187 0 171.413 13.7212 2352 115.52 1258.4 417.767
188 0 177.341 13.319 2362 116.619 1257.83 416.189
189 0 179.363 12.5723 2255 121.263 1258.23 409.538
190 0 189.355 14.6075 2766 116.033 1258.31 411.95
191 0 194.435 13.8658 2696 118.84 1257.71 406.29
192 0 203.431 13.3608 2718 118.912 1257.85 404.752
193 0 209.503 13.4843 2825 118.154 1258.54 397.457
194 0 215.46 12.8284 2764 121.214 1257.58 392.058
195 1 163.356 11.5454 1886 119.687 1258.12 421.536
196 0 165.413 11.3957 1885 126.721 1258.18 416.449
197 0 175.292 13.0981 2296 121.612 1258.96 413.592
198 0 181.511 12.732 2311 121.026 1257.81 415.712
199 0 187.422 13.2802 2489 122.622 1257.02 405.207
200 0 194.446 12.929 2514 123.305 1256.65 402.541
201 0 203.423 12.796 2603 123.168 1256.98 398.796
202 0 210.421 13.1118 2759 123.133 1257.15 394.821
203 1 52.1213 10.0151 522 101.937 1256 478.534
204 0 53.0728 10.7588 571 102.299 1258.39 479.643
205 0 54.0452 10.2877 556 98.536 1259.02 477.617
206 0 56.0253 11.0843 621 98.1498 1257.17 481.755
207 0 57.0532 10.832 618 99.2023 1257.76 480.752
208 0 55.0166 8.32476 458 104.574 1257.7 478.461
209 0 60.0707 11.1868 672 98.3036 1257.41 477.548
210 0 60.0932 8.65323 520 102.61 1257.11 479.16
211 0 62.0868 9.47061 588 103.427 1256.5 476.243
212 0 65.0497 10.2844 669 101.312 1256.44 473.81
213 0 66.084 10.986 726 100.818 1255.99 472.591
214 0 69.0846 11.4932 794 96.8413 1257.32 473.688
215 0 68.1136 9.93927 677 101.112 1257.87 469.753
216 0 70.1192 8.88487 623 102.942 1256.74 470.494
217 0 75.1105 10.2116 767 98.4785 1256.8 471.665
218 0 75.0931 10.6534 800 97.7875 1256.64 470.005
219 0 80.1083 9.7493 781 99.4814 1257.45 468.595
220 0 81.2111 9.99863 812 100.725 1257.37 466.15
221 0 80.204 10.0244 804 73.7027 1257.19 467.918
222 0 84.0925 10.5122 884 102.156 1257.59 459.403
223 0 86.1893 9.87362 851 103.179 1257.33 460.412
224 0 90.0863 8.51406 767 103.39 1257.54 462.43
225 0 94.164 11.0446 1040 100.487 1256.9 460.777
226 0 95.1079 10.4933 998 100.821 1256.63 460.88
227 0 99.1672 10.1041 1002 102.181 1256.4 455.619
228 0 99.0677 9.36734 928 103.431 1256.96 454.211
229 0 104.177 11.634 1212 99.0668 1257.15 450.857
230 0 105.2 8.92584 939 102.939 1257.39 454.457
231 0 109.221 10.6939 1168 99.8382 1257.82 450.082
232 0 111.214 10.1426 1128 99.3528 1257.94 445.777
233 0 118.182 10.7461 1270 97.4291 1257.98 441.525
234 0 119.119 10.3846 1237 97.2959 1258.51 440.265
235 0 126.127 11.4488 1444 94.4363 1258.67 436.801
236 0 128.274 10.7427 1378 96.0029 1258.76 434.693
237 1 75.0519 10.3129 774 91.2662 1258.46 469.585
238 0 75.1014 10.0264 753 90.7264 1257.56 466.939
239 0 80.1357 11.206 898 88.7283 1258.33 467.569
240 0 79.1272 10.7801 853 90.8019 1258.66 462.628
241 0 84.2465 12.226 1030 90.3262 1257.97 462.393
242 0 86.1936 11.4278 985 91.3574 1258 464.002
243 0 90.1622 11.7566 1060 89.6632 1258.05 460.724
244 0 93.2142 13.0452 1216 86.0732 1258.41 461.481
245 0 95.2327 11.0046 1048 89.9561 1258.84 459.102
246 0 99.1554 12.2837 1218 88.5 1258.59 454.821
247 0 104.125 12.2065 1271 89.0543 1258.57 454.083
248 0 107.265 11.7746 1263 98.0507 1257.95 453.922
249 1 57.1344 9.85396 563 95.4529 1258.31 476.504
250 0 60.0469 9.89227 594 96.3586 1258.83 476.707
251 0 62.0523 11.3775 706 88.6742 1258.57 477.194
252 0 62.1156 12.1064 752 86.141 1258.51 473.827
253 0 62.0738 10.0203 622 90.7379 1258.56 473.997
254 0 65.1563 11.5568 753 88.4993 1258.13 473.226
255 0 67.1677 11.2852 758 90.3997 1257.66 473.214
256 0 69.078 11.5087 795 90.3774 1258.36 470.409
257 0 72.0982 12.2333 882 89.3231 1258.43 472.075
258 0 74.1766 12.2141 906 88.926 1257.94 468.89
259 0 79.1304 13.9517 1104 85.0525 1258.33 468.635
260 0 80.2246 13.0509 1047 88.638 1258.43 467.818
261 0 87.3229 11.3029 987 97.078 1258.57 466.052
262 0 87.2934 12.1659 1062 96.8239 1258.3 463.853
263 1 46.0496 10.7493 495 92.0768 1259.45 486.038
264 0 45.1466 10.4327 471 94.2335 1258.43 483.749
265 0 49.0584 11.0684 543 90.8545 1259.63 484.497
266 0 48.1031 11.9119 573 90.3089 1259.64 482.637
267 0 49.0527 12.2725 602 90.5349 1258 482.369
268 0 51.0686 12.5322 640 89.9672 1257.25 481.175
269 0 53.0847 10.8506 576 93.4601 1258 479.955
270 0 54.0632 11.69 632 93.4161 1257.7 481.269
271 0 55.0811 12.2365 674 92.7433 1257.5 479.733
272 0 57.0625 13.1435 750 91.3173 1257.83 478.499
273 0 59.0658 14.2722 843 89.7367 1257.87 477.177
274 0 60.0687 12.6189 758 93.7968 1256.67 477.959
275 0 59.1721 11.5933 686 97.3411 1256.76 476.596
276 0 63.0904 14.4872 914 90.988 1256.88 474.387
277 0 63.2229 13.5078 854 93.8115 1257.56 474.543
278 0 66.1057 13.8415 915 93.3049 1257.24 474.296
279 0 66.2154 11.6287 770 98.3623 1256.89 473.171
280 0 71.228 13.5621 966 93.3375 1256.56 471.141
281 0 71.2154 12.7781 910 96.1945 1256.73 471.384
282 0 71.1012 12.222 869 99.9298 1256.94 467.415
283 0 78.1471 9.76364 763 101.904 1256.35 471.304
284 0 78.1394 11.4667 896 100.895 1256.85 467.141
285 0 80.1906 11.3106 907 101.696 1256.47 465.579
286 0 84.2222 12.0752 1017 100.266 1257.33 465.217
287 0 86.1334 11.4938 990 102.18 1256.99 461.457
288 0 90.275 12.761 1152 99.5278 1256.65 461.039
289 1 47.1135 11.1433 525 99.68 1257.19 483.051
290 0 48.1634 11.1703 538 99.5112 1256.88 480.402
291 0 47.0363 9.58834 451 98.4146 1258.66 484.317
292 0 51.1133 11.0147 563 93.9982 1258.23 484.597
293 0 52.1483 9.85651 514 97.5623 1258.32 482.412
294 0 54.1281 9.44057 511 96.8024 1258.3 482.885
295 0 56.0781 9.71859 545 96.3982 1258.87 482.301
296 0 55.1667 11.7281 647 95.8717 1258.29 478.533
297 0 58.1266 11.9566 695 94.9885 1258.57 479.515
298 0 62.1358 11.6519 724 94.2431 1258.99 479.073
299 0 62.1578 12.42 772 93.5259 1258.84 475.904
300 0 66.2011 13.2173 875 91.3097 1258.88 475.627
301 0 67.0606 11.3181 759 95.1107 1259.13 474.601
302 0 68.1034 12.0552 821 94.9026 1257.85 473.843
303 0 72.1368 14.5418 1049 89.9571 1258.2 471.75
304 0 73.0537 12.0733 882 96.2268 1258.65 469.46
305 0 75.0968 12.1576 913 97.9737 1258.84 467.228
306 0 80.314 12.9243 1038 95.4143 1259.21 469.22
307 0 81.2436 11.6194 944 98.571 1258.9 467.255
308 0 82.167 12.0486 990 99.2768 1258.98 465.085
309 0 86.2762 11.0575 954 101.065 1259.58 461.654
310 0 91.1522 11.5521 1053 99.925 1259.26 463.329
311 1 45.0818 10.8691 490 96.249 1260.11 483.857
312 0 48.0522 11.4875 552 94.2591 1259.01 484.353
313 0 50.0879 12.2984 616 94.289 1258.73 483.14
314 0 51.0696 11.3375 579 98.7219 1258.42 481.834
315 0 52.043 11.7979 614 95.9902 1258.24 481.699
316 0 54.0467 13.5623 733 91.4106 1257.67 480.846
317 0 56.1067 12.8862 723 91.5297 1258.06 478.082
318 0 57.0777 12.8422 733 91.9154 1259.14 479.375
319 0 57.0647 11.1628 637 95.6217 1258.9 477.984
320 0 62.0568 12.2468 760 92.129 1257.94 477.189
321 0 62.2029 11.575 720 92.5167 1257.57 472.717
322 0 63.1384 10.675 674 95.0074 1257.65 472.368
323 0 65.2336 11.0066 718 94.0111 1257.67 472.036
324 0 68.0827 11.3098 770 94.5935 1257.8 468.777
325 0 69.2417 10.745 744 95.8562 1257.93 468.538
326 0 73.2185 10.4618 766 96.1449 1258.29 467.162
327 0 77.166 11.5336 890 94.3371 1258.41 467.197
328 0 80.0908 12.5732 1007 92.7786 1258.43 465.726
329 0 81.0951 11.7146 950 95.0568 1258.68 463.457
330 0 87.107 11.9853 1044 94.9033 1258.17 464.532
331 0 88.1506 12.524 1104 102.887 1257.74 464.011
332 0 90.1823 12.0977 1091 104.635 1258.07 462.05
333 0 94.3001 13.6373 1286 101.384 1256.88 459.953
334 0 97.1597 11.7024 1137 104.79 1257.06 460.643
335 1 49.0368 11.889 583 91.6964 1258.49 482.106
336 0 51.1416 10.8522 555 97.0504 1257.78 483.483
337 0 55.1141 13.2452 730 90.2712 1258.5 482.801
338 0 54.1812 11.4984 623 93.8652 1257.28 480.812
339 0 57.1396 13.6683 781 89.8233 1256.66 478.985
340 0 57.1524 13.1753 753 92.1846 1257.21 477.635
341 0 58.1441 11.7467 683 94.7262 1257.26 479.035
342 0 62.0779 12.4521 773 92.9056 1257.29 476.273
343 0 65.1095 13.1624 857 90.7853 1257.34 476.59
344 0 65.1308 12.9125 841 92.8514 1257.91 473.853
345 0 67.159 11.778 791 94.9406 1258.41 474.721
346 0 72.1427 12.7664 921 93.1379 1258.56 472.945
347 0 72.115 12.7297 918 94.8355 1258.41 472.743
348 0 76.0905 12.7348 969 95.259 1257.79 471.408
349 0 78.1436 13.5136 1056 94.6496 1258.23 471.048
350 0 80.1614 12.2129 979 98.1685 1257.65 470.224
351 0 83.1025 12.0935 1005 98.8736 1257.72 467.615
352 1 43.1123 10.6002 457 101.118 1258.7 487.096
353 0 46.087 11.4566 528 100.08 1257.94 486.004
354 0 46.0862 11.1313 513 102.702 1258.33 484.246
355 0 49.0449 12.6211 619 100.782 1259.04 483.132
356 0 51.017 12.4664 636 100.717 1259.06 483.52
357 0 52.0284 12.128 631 102.477 1258.47 482.331
358 0 54.0233 12.1244 655 102.235 1258.98 480.69
359 0 54.0767 13.2405 716 100.451 1260.03 480.906
360 0 56.1292 12.7206 714 102.011 1259.22 479.758
361 0 57.0631 11.0054 628 105.126 1259.46 479.083
362 0 60.0606 12.5373 753 101.479 1259.27 478.373
363 0 63.0418 12.8486 810 100.764 1258.47 476.663
364 0 62.0816 13.0151 808 101.769 1258.65 476.688
365 0 65.0803 11.9237 776 103.228 1258.56 473.25
366 0 67.0768 11.9415 801 103.312 1259.09 474.386
367 0 70.1066 12.6807 889 101.69 1258.43 472.538
368 0 68.1799 11.587 790 105.635 1258.6 471.69
369 0 76.1401 12.6609 964 102.643 1258.52 469.019
370 0 77.1863 12.4245 959 103.861 1257.59 468.511
371 0 78.1331 11.4548 895 106.232 1257.65 465.665
372 1 44.0563 10.6682 470 100.068 1257.94 486.838
373 0 44.08 11.706 516 97.6938 1258.12 488.083
374 0 46.0674 12.829 591 95.3316 1257.76 485.091
375 0 47.0572 11.4117 537 95.6685 1257.3 486.898
376 0 49.0441 11.7649 577 101.149 1256.33 483.426
377 0 49.0183 13.2808 651 100.003 1257.05 480.869
378 0 50.0225 11.5548 578 104.458 1256.75 480.503
379 0 53.0831 12.1508 645 101.54 1257.19 481.758
380 0 57.0486 11.832 675 101.948 1256.59 480.627
381 0 56.1096 12.4934 701 103.288 1256.79 478.499
382 0 58.0688 11.8652 689 104.681 1257.36 477.588
383 0 59.1057 10.9803 649 106.442 1257.54 477.419
384 0 61.1372 11.5478 706 105.21 1257.87 478.653
385 0 64.1108 12.4628 799 103.816 1258.13 475.154
386 0 65.0467 12.6832 825 103.739 1257.59 475.674
387 0 65.0495 12.0062 781 102.128 1258.15 475.987
388 0 68.1266 11.8896 810 101.512 1257.59 477.195
389 0 70.0795 11.2444 788 105.322 1257.09 473.756
390 0 72.1007 11.692 843 104.67 1257.64 471.898
391 0 74.1505 10.8024 801 104.995 1257.46 472.765
392 0 78.0614 10.274 802 106.833 1257.63 470.8
393 0 82.2788 11.8621 976 102.061 1258.51 471.332
394 1 44.0856 10.3662 457 100.591 1258.86 487.368
395 0 43.0655 10.635 458 99.8319 1259.32 486.943
396 0 46.1478 11.3548 524 98.2557 1259.19 485.49
397 0 47.0612 10.7732 507 97.7219 1259.14 484.98
398 0 47.0659 11.9619 563 96.5311 1258.35 484.213
399 0 50.1267 11.6305 583 96.6021 1257.74 485.34
400 0 52.0457 11.4707 597 97.2714 1257.57 483.652
401 0 53.0567 11.8929 631 96.8685 1258.97 481.407
402 0 55.1304 12.933 713 94.7153 1259.12 480.752
403 0 56.2347 12.3056 692 96.4783 1259.6 481.153
404 0 59.1813 12.7574 755 95.951 1259.39 478.755
405 0 61.1388 13.1504 804 95.8669 1259.52 477.689
406 0 61.0688 12.1994 745 99.5705 1259.48 478.596
407 0 66.1452 12.6237 835 98.1078 1259.77 477.313
408 0 68.1602 11.9571 815 108.405 1259.5 476.32
409 0 69.1885 11.7216 811 109.481 1259.04 474.487
410 0 72.2053 12.7137 918 108.191 1258.97 472.65
411 0 77.2158 13.0284 1006 106.794 1259.43 472.5
412 0 75.1672 11.9733 900 111.613 1260.1 470.847
413 0 79.1459 11.662 923 111.365 1260.04 471.572
414 0 82.125 12.4566 1023 110.071 1259.37 467.897
415 0 85.112 12.3602 1052 110.471 1259.58 465.421
416 1 45.0195 9.84018 443 110.892 1260.16 485.609
417 0 46.0261 11.3848 524 107.968 1260.38 485.202
418 0 50.0416 11.8701 594 98.8064 1259.89 485.315
419 0 48.0883 11.3125 544 101.987 1259.33 484.202
420 0 53.0341 13.1991 700 96.09 1258.5 483.729
421 0 55.0921 13.668 753 95.1979 1258.59 482.005
422 0 55.1313 11.6449 642 100.801 1258.55 481.059
423 0 57.0994 10.578 604 101.435 1258.97 479.624
424 0 58.0691 11.9857 696 100.289 1258.88 480.555
425 0 61.1256 13.595 831 96.1071 1259.29 478.995
426 0 63.0958 12.489 788 98.5914 1258.46 478.166
427 0 64.0682 11.6439 746 100.575 1258.28 476.05
428 0 66.0728 12.2441 809 98.7231 1258.12 475.188
429 0 68.0677 12.3994 844 98.9988 1258.68 474.896
430 0 71.1003 13.1786 937 97.9104 1257.83 472.847
431 0 74.0642 12.5432 929 98.9225 1257.96 472.421
432 0 75.1675 12.093 909 100.574 1258.01 471.286
433 0 79.2089 12.5617 995 99.1106 1258.24 469.185
434 0 82.1016 11.8633 974 96.8552 1257.68 465.935
435 0 85.124 12.6051 1073 95.9208 1258.22 467.183
436 0 88.0932 11.8057 1040 97.9183 1258.02 466.042
437 0 90.1118 12.3513 1113 100.421 1258.35 464.171
438 0 91.2128 12.1693 1110 99.6478 1258.78 460.311
439 0 92.1191 11.724 1080 102.987 1258.5 462.077
440 0 97.1962 12.8194 1246 101.417 1258.21 458.754
441 0 100.178 10.8407 1086 103.235 1258.71 453.133
442 0 103.119 12.025 1240 101.62 1259.27 454.533
443 0 108.085 12.3236 1332 100.677 1258.94 454.522
444 0 112.109 12.5771 1410 100.442 1259.03 451.703
445 1 55.1307 9.25074 510 101.38 1259.56 481.12
446 0 58.1441 10.7664 626 97.5 1260.21 480.947
447 0 62.0931 12.4007 770 94.8714 1257.99 477.965
448 0 62.0411 11.444 710 97.7817 1260.32 476.008
449 0 66.085 10.6983 707 98.2885 1260.04 477.949
450 0 70.0936 12.9256 906 92.7726 1259.83 474.201
451 0 71.1022 11.7296 834 95.2806 1259.97 473.621
452 0 73.0735 11.6869 854 95.5129 1259.81 473.039
453 0 74.0813 10.8799 806 97.6179 1259.44 470.978
454 0 77.1382 11.1877 863 97.7694 1259.61 470.688
455 0 81.0956 11.5913 940 95.4926 1260.12 472.466
456 0 82.1368 10.7991 887 98.6392 1259.48 467.896
457 0 85.1795 11.8221 1007 96.7527 1259.6 466.639
458 0 91.1612 12.1324 1106 95.6465 1259.79 465.976
459 0 95.1923 13.9612 1329 92.6998 1259.26 464.888
460 0 97.2181 13.0326 1267 94.0039 1259.42 464.182
461 0 98.298 12.5231 1231 97.2169 1259.58 457.868
462 0 101.239 12.9594 1312 95.6837 1259.71 456.672
463 0 105.375 10.9134 1150 96.7556 1258.82 454.785
464 0 108.138 11.4853 1242 98.4589 1258.89 454.404
465 0 113.321 12.7956 1450 96.1834 1258.88 453.088
466 0 117.273 13.6434 1600 94.5306 1258.79 450.861
467 0 119.474 12.8647 1537 96.1191 1258.64 450.967
468 0 126.239 13.2447 1672 95.9205 1258.51 444.371
469 0 131.184 13.2791 1742 95.9392 1258.3 444.762
470 1 74.1393 11.411 846 94.4031 1259.02 475.279
471 0 74.0737 12.4471 922 93.4349 1258.93 471.899
472 0 74.0464 11.6414 862 97.4211 1259.44 468.416
473 0 77.0747 11.7159 903 97.1251 1257.36 467.543
474 0 81.1304 12.7203 1032 95.5921 1256.84 469.161
475 0 83.212 12.8587 1070 95.7935 1257.34 467.841
476 0 86.1795 12.1955 1051 98.1893 1257.92 465.858
477 0 90.377 12.6249 1141 97.9088 1257.4 465.444
478 0 93.2787 11.5568 1078 101.273 1257.06 464.107
479 0 95.2657 11.2842 1075 100.727 1257.77 466.265
480 0 100.385 12.0436 1209 99.9719 1257.8 460.946
481 0 102.312 11.4844 1175 100.719 1257.98 459.677
482 1 55.1712 10.9115 602 101.372 1257.35 479.395
483 0 55.1252 10.9569 604 100.248 1256.78 477.894
484 0 54.1082 10.4051 563 95.7567 1259.29 483.901
485 0 56.219 11.1528 627 93.421 1259.65 484.086
486 0 58.1266 9.77177 568 95.3416 1259.93 481.59
487 0 58.0998 9.32877 542 97.5627 1259.63 479.788
488 0 62.1369 11.7643 731 93.1313 1259.95 478.499
489 0 66.0651 11.3524 750 93.2 1258.96 478.948
490 0 66.1394 9.9638 659 95.3642 1259.34 478.165
491 0 69.118 10.0263 693 95.316 1259.21 476.639
492 0 71.2433 10.4571 745 94.7946 1259.32 476.276
493 0 74.1878 11.8483 879 92.5768 1259.09 475.37
494 0 76.1397 12.0305 916 92.6266 1259.41 473.654
495 0 79.2319 10.8795 862 94.6114 1259.65 473.356
496 0 79.1496 10.8908 862 96.4084 1259.83 468.861
497 0 84.1338 12.7535 1073 92.3737 1259.48 466.751
498 0 89.1812 11.9196 1063 93.3518 1260.1 466.716
499 0 90.1224 10.7298 967 96.7198 1259.45 465.465
500 1 46.0364 7.97195 367 98.9918 1260.66 487.695
501 0 51.0585 9.16596 468 98.3697 1260.71 486.105
502 0 51.0526 10.166 519 97.867 1260.17 483.484
503 0 52.2826 10.8449 567 96.6367 1259.81 481.478
504 0 57.2155 11.7975 675 94.0548 1259.23 480.415
505 0 56.1709 11.5006 646 97.3173 1259.56 478.161
506 0 61.0842 10.6083 648 96.463 1260.44 481.352
507 0 61.1312 12.1542 743 95.3768 1260.48 479.518
508 0 63.141 12.4008 783 95.424 1260.42 479.313
509 0 64.2361 12.4541 800 95.5938 1259.74 478.685
510 0 64.1862 12.4326 798 96.7581 1259.2 477.5
511 0 66.1547 11.3068 748 98.9813 1258.88 475.852
512 0 68.1285 12.5351 854 95.6956 1259.43 474.103
513 0 72.1361 12.6566 913 95.8258 1259.21 474.44
514 0 72.1027 12.6348 911 97.0571 1258.65 473.988
515 0 75.1326 12.2184 918 99.3943 1259.38 472.047
516 0 76.1443 12.2662 934 99.9251 1259.48 470.057
517 0 79.1825 13.1974 1045 97.9158 1259.15 469.924
518 0 79.1825 13.1342 1040 134.98 1259.15 469.955
519 0 83.1544 13.0961 1089 99.4031 1259.37 467.588
520 0 87.1234 13.2226 1152 100.296 1259.67 464.801
521 0 91.0717 13.6047 1239 99.6618 1259.4 464.009
522 0 93.1755 13.3511 1244 100.679 1259.08 464.733
523 0 97.1527 14.575 1416 98.6328 1258.31 463.049
524 0 98.2037 14.0626 1381 101.189 1258.68 460.94
525 0 99.1298 13.7497 1363 102.669 1259.2 461.018
526 0 103.114 12.5686 1296 98.4452 1258.16 453.936
527 0 106.136 12.4086 1317 99.2118 1258.03 453.73
528 0 110.169 12.4535 1372 99.6276 1258.61 452.092
529 1 55.0761 8.47918 467 98.7259 1260.07 480.645
530 0 59.1185 11.4685 678 100.416 1259.81 480.558
531 0 60.1266 12.1078 728 103.673 1257.65 478.712
532 0 60.0657 12.4364 747 103.885 1257.07 476.159
533 0 63.1307 11.5633 730 101.122 1258.87 480.489
534 0 66.0786 12.8332 848 96.9988 1259.25 478.817
535 0 68.0399 12.4927 850 97.4635 1259.32 476.927
536 0 65.0308 10.6873 695 97.7122 1258.24 471.055
537 0 71.12 12.4016 882 93.9376 1258.23 471.279
538 0 72.1666 11.1132 802 96.8753 1258.53 471.147
539 0 74.1045 10.836 803 97.9029 1258.62 468.417
540 0 78.1519 13.4993 1055 92.6341 1258.3 467.511
541 0 79.1742 12.6177 999 95.2713 1258.78 467.243
542 0 80.1135 10.7223 859 100.041 1258.99 464.476
543 0 84.2556 11.8805 1001 97.8981 1259.15 464.272
544 0 89.2093 12.6332 1127 96.5581 1258.5 461.688
545 0 90.1215 11.7508 1059 99.6714 1258.28 460.603
546 0 94.1264 12.6638 1192 98.302 1258.2 459.238
547 0 97.1606 12.8241 1246 98.114 1258.44 459.132
548 0 100.105 11.7776 1179 100.804 1258.48 456.165
549 0 102.292 12.4644 1275 100.773 1257.57 460.584
550 1 53.1295 11.6696 620 101.54 1257.52 483.089
551 0 55.1549 10.8422 598 99.6488 1258.06 480.336
552 0 55.2497 11.8372 654 100.269 1257.87 483.171
553 0 56.1459 11.4345 642 102.484 1257.52 480.988
554 0 61.1006 12.2912 751 99.8522 1257.99 480.505
555 0 64.1218 13.2092 847 97.1771 1257.97 479.329
556 0 62.1486 10.9093 678 103.574 1257.99 477.627
557 0 66.1048 11.27 745 101.192 1258.5 477.84
558 0 70.1185 12.2792 861 99.0662 1258.36 475.988
559 0 72.1898 11.2481 812 101.097 1258.74 472.624
560 0 74.0461 12.2356 906 99.1501 1258.01 474.447
561 0 79.1133 12.2483 969 97.4324 1258.87 471.549
562 0 81.0732 12.1002 981 97.6891 1258.98 470.097
563 0 85.1146 13.4524 1145 95.11 1258.53 467.515
564 0 85.094 13.1384 1118 96.3014 1258.71 465.242
565 0 90.1289 12.2269 1102 97.0826 1258.99 464.677
566 0 91.0697 11.332 1032 99.9864 1258.64 462.856
567 0 95.1075 11.7025 1113 99.4079 1257.61 459.756
568 0 96.0787 9.38814 902 104.85 1258.24 457.967
569 0 102.131 11.1915 1143 101.025 1258.2 456.848
570 1 50.1403 10.2313 513 96.6881 1257.94 480.101
571 0 51.073 9.73116 497 97.3139 1258.46 482.525
572 0 54.0598 9.397 508 97.0354 1259.15 480.52
573 0 56.0991 10.2675 576 96.5139 1259.35 482.431
574 0 59.055 12.0227 710 93.093 1258.97 480.845
575 0 60.0303 11.9606 718 93.1254 1259.23 480.068
576 0 61.0778 10.4784 640 96.6828 1259.2 478.891
577 0 65.1207 10.9028 710 95.0803 1259.8 479.254
578 0 67.0794 10.6143 712 96.559 1259.49 477.83
579 0 70.1883 12.7514 895 93.5128 1259.04 476.723
580 0 71.1018 10.5764 752 96.7367 1259.07 472.898
581 0 75.1499 11.7099 880 94.6557 1259.24 473.241
582 0 77.1706 11.6106 896 96.2545 1259.35 471.948
583 0 81.0765 12.8767 1044 95.363 1259.56 469.835
584 0 83.1411 11.6789 971 97.7951 1259 470.936
585 0 86.1505 11.3638 979 99.287 1258.35 469.093
586 0 89.1269 11.3546 1012 99.3113 1258.35 469.075
587 0 91.1874 11.0651 1009 100.328 1258.58 465.32
588 0 94.09 10.3305 972 101.094 1257.81 465.74
589 1 53.0732 12.3226 654 95.6024 1258.03 486.078
590 0 53.0749 11.1352 591 97.7022 1258.56 482.398
591 0 53.0598 11.6472 618 99.3948 1257.89 485.884
592 0 54.126 10.3832 562 102.443 1257.56 485.865
593 0 54.0726 10.8558 587 102.681 1257.27 483.058
594 0 59.085 12.5243 740 97.9014 1256.88 483.593
595 0 61.1546 12.6728 775 97.7058 1257.03 481.008
596 0 63.0649 12.9073 814 97.2469 1257.26 479.858
597 0 65.1103 12.1025 788 98.9797 1257.82 478.378
598 0 67.1366 11.6777 784 99.861 1257.85 477.9
599 0 70.141 11.9189 836 99.5431 1257.51 474.88
600 0 71.1709 11.6621 830 99.8289 1257.96 474.616
601 0 73.1845 12.1337 888 100.126 1258.48 470.881
602 0 77.1934 12.7343 983 97.292 1258.46 473.183
603 0 80.1024 11.735 940 99.6723 1258.5 469.326
604 0 83.2101 12.7148 1058 98.3044 1258.62 469.427
605 1 45.0547 11.5859 522 97.0594 1256.63 486.096
606 0 48.2172 12.1948 588 93.8963 1256.87 485.529
607 0 49.0714 12.6143 619 92.7803 1257.25 485.102
608 0 51.075 14.8997 761 88.5466 1258.24 483.687
609 0 53.0653 12.381 657 92.8843 1258.11 483.434
610 0 53.074 12.492 663 93.4766 1258.02 483.887
611 0 55.0949 11.816 651 93.9831 1257.63 481.779
612 0 57.0633 12.1795 695 93.8173 1258.38 481.348
613 0 58.1112 12.9235 751 92.9601 1258.07 478.67
614 0 62.1378 12.6332 785 97.693 1257.85 479.702
615 0 64.0633 13.3774 857 97.4376 1258.24 478.515
616 0 65.1955 11.8873 775 100.034 1257.9 477.884
617 0 67.0931 13.2502 889 98.9854 1258.71 477.344
618 0 69.2514 12.2597 849 100.212 1258.11 474.753
619 0 70.1324 10.7368 753 104.252 1258.63 474.441
620 0 74.219 12.1263 900 102.43 1259.26 472.102
621 0 78.0839 12.0896 944 101.036 1258.58 471.163
622 0 80.0547 11.8169 946 102.195 1258.53 469.84
623 0 84.0644 11.3009 950 103.484 1257.88 469.289
624 0 86.0961 12.0331 1036 97.7008 1258.43 466.854
625 1 43.0492 11.4055 491 94.5295 1257.7 487.275
626 0 45.1433 12.5822 568 93.6708 1256.91 487.572
627 0 47.0551 13.5161 636 89.9733 1257.42 485.692
628 0 46.1219 8.65098 399 96.8271 1258.46 484.599
629 0 47.0748 10.94 515 94.2058 1258.78 482.293
630 0 50.0577 12.6055 631 91.9651 1258.31 480.865
631 0 49.078 11.0029 540 104.226 1257.65 485.491
632 0 53.0287 13.0307 691 98.2894 1258.11 483.459
633 0 54.0448 11.694 632 96.1392 1257.81 480.063
634 0 57.0639 11.7587 671 95.9359 1257.89 479.13
635 0 58.0336 10.9075 633 98.2148 1257.95 478.698
636 0 62.0671 11.407 708 96.3771 1258.61 475.489
637 0 62.0307 12.4777 774 95.7106 1258.53 473.589
638 0 66.0904 12.1198 801 95.442 1258.82 474.501
639 0 67.0578 11.7063 785 96.4688 1257.9 473.257
640 0 71.0981 11.66 829 96.3932 1258.17 472.328
641 0 71.069 12.9592 921 96.4072 1258.08 469.46
642 0 73.2071 11.7748 862 98.1624 1258.53 470.181
643 0 74.056 11.5183 853 99.5627 1258.05 467.746
644 0 78.0835 12.9093 1008 98.9157 1257.74 464.124
645 0 80.109 12.7451 1021 100.676 1258.18 463.827
646 0 84.0731 13.5121 1136 100.96 1258.47 464.267
647 0 85.1943 12.536 1068 107.238 1258.92 463.122
648 0 89.2066 14.0012 1249 102.4 1258.58 461.677
649 0 92.1798 12.4756 1150 105.73 1258.98 460.949
650 0 95.2314 13.3254 1269 104.46 1258.07 455.796
651 0 100.124 13.6431 1366 103.229 1258.19 455.734
652 0 106.172 12.7058 1349 101.351 1257.83 453.674
653 1 57.0811 11.5975 662 95.2417 1257.42 473.598
654 0 57.1809 11.1751 639 96.6542 1258.32 473.476
655 0 60.1685 9.83904 592 98.5811 1258.13 475.779
656 0 62.0456 11.556 717 96.8591 1258.02 472.462
657 0 64.1098 10.4976 673 99.367 1257.28 471.334
658 0 67.1322 11.738 788 95.3122 1257.67 473.931
659 0 70.0767 11.3447 795 96.6264 1257.7 471.551
660 0 72.1058 11.7189 845 97.0142 1257.78 468.973
661 0 75.0953 11.8516 890 97.4719 1258.3 468.471
662 0 79.1943 12.2357 969 97.8338 1258.2 465.547
663 0 83.088 11.8068 981 98.1203 1258.2 465.195
664 0 80.1857 8.81704 707 101.924 1257.67 464.307
665 0 87.2187 11.9241 1040 106.592 1257.66 465.565
666 0 92.199 13.1129 1209 105.034 1257.53 464.433
667 0 96.2107 12.5142 1204 105.64 1257.97 464.561
668 1 53.2803 11.9556 637 99.7944 1258.25 483.344
669 0 52.0291 10.8593 565 97.0442 1258.05 483.881
670 0 53.0523 10.6122 563 98.8472 1258.77 484.769
671 0 54.1387 11.7846 638 96.5564 1258.74 482.467
672 0 55.0709 10.3321 569 99.9965 1257.79 482.281
673 0 59.1298 12.9038 763 95.3224 1258.2 481.658
674 0 60.1149 11.9937 721 96.7046 1258.14 480.623
675 0 62.1748 12.4488 774 97.6667 1258.3 478.302
676 0 63.0957 12.0927 763 99.3054 1258.22 475.33
677 0 66.0432 11.9467 789 98.6477 1258.21 476.471
678 0 72.0436 12.7423 918 96.6656 1258.57 476.242
679 0 74.101 12.6314 936 97.6549 1258.34 475.169
680 0 76.0791 13.2625 1009 97.8305 1258.11 473.132
681 0 76.0607 11.8721 903 101.85 1258.92 474.373
682 0 79.1504 13.7712 1090 98.8275 1258.6 471.134
683 0 82.0727 13.1834 1082 101.158 1257.74 470.007
684 0 87.1926 14.0723 1227 100.736 1257.78 470.898
685 0 88.1284 14.0704 1240 101.829 1257.81 468.204
686 0 91.1931 14.3651 1310 102.556 1257.46 466.242
687 0 93.1059 13.6296 1269 104.284 1257.5 466.931
688 0 97.1406 13.115 1274 110.504 1258.48 463.719
689 0 99.2756 12.7222 1263 111.46 1258.04 462.207
690 1 55.1119 11.5946 639 109.192 1258.24 483.901
691 0 56.0775 11.7159 657 106.231 1257.97 483.482
692 0 58.0434 11.8876 690 102.78 1256.74 482.629
693 0 58.1047 11.7546 683 103.874 1257.88 482.016
694 0 59.1004 12.538 741 103.279 1258.1 481.144
695 0 63.1976 13.6872 865 99.9064 1258.98 479.462
696 0 64.0753 13.4529 862 101.947 1258.52 478.643
697 0 62.0754 12.3237 765 107.179 1258.87 479.176
698 0 66.1371 12.595 833 107.802 1259.12 478.028
699 0 68.1226 12.1986 831 108.385 1259.21 477.705
700 0 70.0945 12.9539 908 107.793 1259.09 473.676
701 0 73.1044 13.6928 1001 105.799 1259.44 474.632
702 0 76.0813 13.2884 1011 107.33 1258.85 472.286
703 0 77.0483 12.6804 977 109.347 1258.44 469.54
704 0 80.0722 12.6761 1015 110.215 1258.19 467.808
705 0 84.0424 13.1243 1103 109.204 1258.17 466.694
706 0 86.0995 11.9861 1032 111.415 1258.75 467.19
707 0 89.0872 12.3475 1100 110.306 1258.25 466.312
708 0 94.1076 12.2413 1152 110.49 1258.84 462.829
709 0 97.1047 12.5947 1223 109.989 1258.82 460.249
710 0 100.123 12.3748 1239 111.813 1257.91 456.286
711 1 54.0759 11.5393 624 106.772 1257.54 476.819
712 0 55.0562 10.7163 590 110.21 1257.73 475.578
713 0 59.0496 13.5987 803 109.207 1258.32 480.467
714 0 59.0835 11.2045 662 106.414 1257.63 480.482
715 0 61.0602 12.4795 762 104.238 1257.7 478.814
716 0 65.0341 12.1782 792 104.646 1258.16 477.758
717 0 66.0586 12.0196 794 106.589 1257.56 476.394
718 0 69.039 11.718 809 106.659 1257.41 474.214
719 0 71.0517 13.5817 965 102.213 1258.01 476.771
720 0 75.0981 12.3439 927 106.389 1257.4 474.329
721 0 77.0413 12.5257 965 106.867 1258.26 473.274
722 0 78.0296 12.2646 957 108.212 1257.66 472.408
723 0 81.2153 12.8055 1040 108.062 1257.56 469.142
724 0 85.0837 12.8697 1095 108.743 1256.62 467.51
725 0 90.113 12.8505 1158 107.982 1258.43 466.363
726 0 90.0924 11.9877 1080 110.863 1258.04 466.475
727 0 94.0583 12.2477 1152 111.299 1257.85 465.125
728 0 96.1278 12.8683 1237 111.661 1258.27 461.286
729 0 101.135 14.0011 1416 109.084 1258.56 459.066
730 0 104.077 12.558 1307 113.207 1258.34 459.05
731 1 56.0487 11.1332 624 109.776 1258.35 482.519
732 0 58.0348 11.4242 663 107.626 1258.07 484.401
733 0 60.0332 12.0767 725 106.549 1257.95 481.407
734 0 59.0612 11.9198 704 109.838 1258.18 480.945
735 0 64.1585 12.6406 811 114.365 1258.2 478.769
736 0 66.1365 13.1849 872 113.698 1258.62 477.302
737 0 69.1275 13.3666 924 112.042 1257.94 476.479
738 0 70.1296 11.7639 825 116.524 1258.62 475.85
739 0 73.0789 12.3976 906 114.997 1258.21 474.192
740 0 75.0952 13.2365 994 113.099 1258.6 472.996
741 0 77.0732 12.9617 999 114.538 1258.95 471.843
742 0 80.1025 13.7199 1099 113.219 1258.95 471.072
743 0 79.1048 12.2369 968 117.741 1258.42 470.304
744 0 85.1104 13.3591 1137 114.733 1258.68 469.24
745 0 84.1005 11.736 987 119.249 1258.24 468.533
746 0 88.1375 11.709 1032 119.101 1258.1 465.87
747 0 91.1011 12.1294 1105 118.75 1257.93 465.157
748 0 93.1845 13.7147 1278 114.649 1258.23 464.164
749 0 98.1748 13.863 1361 114.048 1257.03 461.339
750 0 101.056 12.7949 1293 110.408 1257.7 458.853
751 0 104.136 12.0227 1252 107.14 1258.1 463.179
752 0 106.146 11.5219 1223 108.512 1258.21 460.356
753 0 110.279 11.8064 1302 111.019 1257.87 454.372
754 1 60.0789 11.5515 694 106.957 1257.3 479.442
755 0 64.0865 11.9838 768 103.738 1258.02 475.379
756 0 67.0432 12.932 867 100.204 1258.59 475.977
757 0 70.1417 11.4197 801 103.727 1257.39 477.336
758 0 70.1174 11.1099 779 105.222 1257.08 473.893
759 0 75.0668 13.0284 978 109.641 1257.78 473.551
760 0 77.1154 12.397 956 110.961 1257.62 473.462
761 0 80.0637 11.8406 948 112.441 1258.05 471.809
762 0 83.1517 12.5554 1044 111.446 1256.97 468.938
763 0 84.2435 12.0959 1019 113.21 1256.6 466.051
764 0 87.0639 11.5318 1004 114.018 1256.89 468.361
765 0 91.1316 12.9044 1176 111.661 1257.26 463.529
766 0 94.193 12.3364 1162 112.051 1257.2 463.145
767 0 94.1752 11.1282 1048 114.512 1257.73 460.89
768 0 98.2551 11.7653 1156 113.478 1258.4 457.17
769 0 101.346 10.8736 1102 114.17 1257.68 459.016
770 0 105.18 12.2932 1293 109.781 1258.38 454.715
771 0 109.308 10.8683 1188 110.019 1258.12 455.44
772 1 56.0531 9.2234 517 103.458 1257.17 481.865
773 0 59.1427 9.48553 561 101.993 1257.63 480.235
774 0 62.0668 10.6982 664 97.6717 1258.76 480.044
775 0 62.0485 10.653 661 98.9047 1258.26 480.271
776 0 62.1007 9.03371 561 102.462 1257.77 478.216
777 0 68.1604 11.7664 802 97.0486 1258.23 476.675
778 0 68.0517 10.2128 695 100.8 1259 475.035
779 0 69.137 10.848 750 100.473 1258.1 474.376
780 0 73.1799 10.5084 769 100.458 1258.88 474.437
781 0 77.0924 10.2734 792 100.26 1259.4 472.884
782 0 79.079 12.3927 980 97.3041 1259.61 469.742
783 0 82.1038 12.0701 991 97.9051 1259.5 471.573
784 0 83.1065 9.554 794 102.366 1258.8 471.503
785 0 87.1041 10.8261 943 100.854 1258.59 468.983
786 0 91.3098 11.5869 1058 100.664 1258.82 463.792
787 1 49.0732 10.0666 494 99.0405 1259.84 488.881
788 0 50.0862 12.4186 622 99.0788 1259.58 485.756
789 0 52.0407 12.5287 652 99.4494 1259.84 485.156
790 0 54.0512 13.1727 712 93.2289 1259.35 485.376
791 0 54.113 12.0304 651 97.4654 1259.03 485.243
792 0 54.0412 10.6585 576 101.715 1259.17 485.458
793 0 54.0411 10.5845 572 103.51 1259.04 484.969
794 0 57.0618 11.6015 662 102.545 1257.93 483.544
795 0 57.1364 11.3938 651 103.846 1258.48 482.833
796 0 58.1289 11.6293 676 103.581 1259.23 482.612
797 0 62.1018 12.4473 773 102.053 1259.32 480.986
798 0 63.1745 12.7583 806 102.072 1258.82 482.373
799 0 64.1111 11.1369 714 106.731 1258.75 479.434
800 0 68.1 12.9809 884 102.793 1258.56 474.951
801 0 69.1001 12.0116 830 105.177 1258.8 478.835
802 0 72.0731 13.0839 943 103.682 1258.91 476.859
803 0 73.1417 13.1799 964 105.383 1258.39 475.003
804 0 78.0929 12.5236 978 99.137 1258.5 473.072
805 0 76.0966 13.0624 994 99.7425 1258 473.022
806 0 80.2184 12.0297 965 103.04 1258.12 470.196
807 0 82.0577 11.3944 935 105.467 1258.12 470.351
808 0 84.1217 12.0659 1015 104.614 1257.81 469.711
809 0 87.1478 12.037 1049 105.459 1257.88 465.377
810 0 88.1762 11.9533 1054 107.905 1258.92 464.495
811 0 93.3179 11.9055 1111 107.574 1258.76 464.838
812 0 95.086 12.9357 1230 107.322 1258.16 464.463
813 0 96.1452 12.5331 1205 109.354 1258.61 464.392
814 0 102.188 12.4378 1271 109.248 1257.82 462.012
815 1 55.0534 11.4616 631 110.353 1258.19 484.407
816 0 53.0532 10.6685 566 113.963 1257.65 483.712
817 0 59.0491 12.9723 766 106.48 1257.59 483.107
818 0 61.0681 12.265 749 117.227 1257.79 480.889
819 0 62.0726 11.6154 721 109.483 1258.04 482.847
820 0 63.1191 11.6763 737 109.054 1258.44 481.174
821 0 64.0998 12.2465 785 108.311 1258.63 479.567
822 0 67.1589 10.4975 705 110.109 1259.15 480.206
823 0 69.1639 12.4487 861 106.901 1259.25 477.763
824 0 73.2604 12.9265 947 105.214 1258.73 475.555
825 0 74.149 12.1512 901 108.156 1257.9 474.499
826 0 76.0872 11.592 882 108.266 1258.7 475.814
827 0 78.1408 12.3879 968 108.355 1259.45 471.616
828 0 82.2406 12.7553 1049 107.257 1259.06 470.949
829 0 85.1217 11.6539 992 114.189 1258.07 469.516
830 0 88.1543 12.9999 1146 111.3 1257.35 466.451
831 0 90.0433 13.4602 1212 110.971 1257.03 464.166
832 0 95.1371 13.7276 1306 109.801 1256.74 463.954
833 0 96.0799 10.6266 1021 116.808 1256.71 463.032
834 1 56.0355 11.3856 638 111.596 1256.6 482.42
835 0 56.0922 12.5864 706 111.048 1256.73 479.474
836 0 61.0699 12.543 766 108.222 1257.19 480.491
837 0 62.0441 12.7007 788 108.212 1256.5 479.273
838 0 65.0296 12.502 813 109.354 1256.24 478.071
839 0 65.0469 12.1758 792 110.809 1255.74 477.182
840 0 67.1242 12.2906 825 111.153 1256.13 474.532
841 0 71.0655 12.7629 907 107.821 1256.19 475.134
842 0 75.1622 12.9453 973 107.45 1256.12 473.459
843 0 76.1677 11.8817 905 110.656 1255.5 470.828
844 0 78.0945 12.2288 955 104.308 1257.56 472.889
845 0 78.073 10.17 794 108.421 1258.19 471.647
846 0 85.2112 12.4866 1064 102.395 1258.18 468.628
847 0 88.0952 11.3968 1004 103.411 1258.27 467.883
848 0 92.0984 11.6289 1071 104.036 1258.27 467.064
849 0 95.1091 11.9126 1133 103.09 1258.92 467.891
850 0 98.2621 11.1946 1100 106.815 1257.97 460.52
851 1 53.0334 10.6348 564 105.254 1259.06 483.262
852 0 56.0563 10.1683 570 105.323 1258.48 482.712
853 0 59.0612 11.6659 689 96.9332 1256.28 483.376
854 0 60.1171 13.1077 788 94.5876 1256.29 481.462
855 0 61.085 12.0979 739 98.2165 1256.25 480.85
856 0 64.0463 13.2404 848 95.5424 1256.63 479.198
857 0 66.1012 11.9514 790 98.5747 1256.84 477.673
858 0 68.0539 13.7979 939 95.4089 1256.38 477.198
859 0 68.1766 12.2183 833 100.031 1256.71 476.746
860 0 71.2366 12.5778 896 100.122 1256.46 474.825
861 0 74.1091 11.7934 874 102.683 1256.43 474.932
862 0 76.0716 13.1061 997 100.405 1257.17 472.902
863 0 77.0458 10.8637 837 104.524 1257.17 474.245
864 0 81.0916 12.8743 1044 99.1245 1256.18 471.442
865 0 84.0999 12.8775 1083 99.3878 1255.94 471.464
866 0 85.0541 12.7213 1082 101.032 1256.12 469.375
867 0 92.1372 13.4148 1236 98.7961 1256.54 468.652
868 0 94.185 13.7602 1296 100.013 1256.73 466.341
869 0 98.2286 13.9572 1371 99.6404 1256.18 462.985
870 0 101.11 14.8255 1499 100.982 1256.96 462.179
871 0 102.187 14.8062 1513 102.262 1256.93 459.889
872 1 53.0325 11.9927 636 107.017 1255.77 484.316
873 0 58.0221 13.357 775 103.671 1256.31 481.561
874 0 57.0562 12.8119 731 104.975 1255.9 480.483
875 0 61.1194 14.6762 897 103.445 1256.19 480.766
876 0 63.1417 13.9686 882 103.498 1256.67 481.947
877 0 65.1595 14.0578 916 104.692 1256.73 478.921
878 0 65.1708 13.5183 881 107.413 1256.37 478.889
879 0 69.1645 14.1113 976 105.165 1255.93 476.932
880 0 70.128 13.9602 979 106.271 1256.28 475.517
881 0 72.1284 14.5297 1048 104.899 1256.14 474.853
882 0 74.0856 13.8489 1026 107.128 1256.15 473.483
883 0 78.0397 13.6597 1066 106.024 1256.3 474.408
884 0 78.1178 13.7869 1077 107.51 1256.28 470.746
885 0 82.1271 13.4182 1102 107.697 1256.03 470.515
886 0 84.0622 14.1562 1190 107.212 1256.49 468.404
887 0 88.1952 13.4361 1185 107.454 1256.62 468.323
888 0 91.0697 14.5273 1323 105.416 1256.76 466.156
889 0 94.181 14.8862 1402 104.901 1256.67 464.031
890 0 95.141 13.8847 1321 108.174 1256.78 462.262
891 0 101.066 13.8721 1402 106.748 1256.37 461.971
892 0 103.25 15.6319 1614 103.09 1256.67 461.852
893 0 105.191 14.4309 1518 106.516 1255.88 457.913
894 0 108.13 14.4271 1560 106.272 1256.46 454.316
895 0 112.295 14.9784 1682 105.061 1256.35 454.627
896 1 61.0949 11.9814 732 104.168 1256.56 481.283
897 0 61.2268 11.9392 731 104.211 1256.76 479.434
898 0 64.1426 13.3764 858 97.8158 1257.41 479.073
899 0 63.066 11.5118 726 91.2094 1257.79 474.591
900 0 68.204 13.2837 906 89.745 1258.88 478.233
901 0 69.094 12.5481 867 91.2272 1258.76 477.406
902 0 72.0868 12.4711 899 90.9043 1258.85 477.299
903 0 74.2114 12.9091 958 91.3038 1258.65 474.39
904 0 74.236 12.11 899 94.0756 1258.85 472.663
905 0 79.1272 14.6979 1163 88.5881 1257.5 471.893
906 0 81.1638 12.9738 1053 91.6657 1257.82 471.001
907 0 84.1934 12.3288 1038 92.4412 1257.94 470.21
908 0 85.1307 12.2283 1041 93.5014 1257.68 469.297
909 0 88.1723 11.0919 978 95.0736 1257.73 466.521
910 0 93.1128 14.4448 1345 89.4944 1257.56 464.143
911 0 95.2204 12.4028 1181 92.8865 1257.78 466.332
912 0 97.2012 12.2426 1190 94.9714 1257.58 460.766
913 0 101.18 14.835 1501 89.5057 1257.58 459.035
914 0 102.141 12.0814 1234 95.2577 1257.39 456.831
915 0 106.155 11.3136 1201 102.514 1257.15 455.836
916 0 111.231 12.2269 1360 97.1346 1257.28 452.926
917 0 116.305 12.0115 1397 96.3472 1257.28 452.76
918 0 116.247 11.2261 1305 98.7923 1257.53 453.24
919 0 121.194 11.6755 1415 99.6502 1257.32 446.719
920 1 64.1638 11.6888 750 91.4827 1257.36 479.707
921 0 65.0852 10.6015 690 93.1493 1257.36 479.283
922 0 67.1227 12.3952 832 91.7428 1257.49 474.637
923 0 68.1213 11.7878 803 92.675 1257.44 478.117
924 0 71.2312 11.6662 831 93.4801 1257.57 475.172
925 0 74.1954 12.0627 895 91.943 1257.07 473.923
926 0 78.1716 12.076 944 88.0138 1257.47 471.021
927 0 80.1421 12.5652 1007 87.143 1257.11 470.614
928 0 82.2438 10.858 893 92.3505 1257.27 468.811
929 0 84.1682 11.6196 978 89.6145 1257.77 466.127
930 0 88.1612 11.1954 987 91.4792 1258.27 467.436
931 0 89.0487 10.8592 967 91.5967 1257.97 465.95
932 0 93.2142 12.5839 1173 88.6513 1257.86 464.313
933 0 95.1664 12.0526 1147 90.1813 1257.48 461.956
934 0 97.1393 10.418 1012 91.3785 1257.38 462.439
935 0 100.1 10.999 1101 91.3724 1257.07 455.855
936 0 107.181 11.6812 1252 89.4569 1257.22 456.853
937 0 110.084 11.7456 1293 89.7695 1257.14 454.769
938 1 58.2037 10.6523 620 85.9403 1257.27 478.255
939 0 62.1601 11.7921 733 87.3151 1257.75 475.329
940 0 64.1478 11.5982 744 87.9436 1257.95 475.493
941 0 64.1445 9.79039 628 89.008 1257.93 477.973
942 0 65.081 9.72635 633 90.2686 1257.96 474.624
943 0 69.0802 11.8413 818 86.7665 1258.23 470.752
944 0 71.1505 11.7779 838 88.0143 1257.88 472.783
945 0 74.1201 11.8591 879 89.116 1258.21 470.759
946 0 75.1113 11.5029 864 90.9375 1258.16 468.851
947 0 79.1036 9.83521 778 94.7892 1257.73 468.81
948 0 82.0978 11.2914 927 94.2255 1258.52 465.438
949 0 87.1425 13.2427 1154 91.6014 1258.89 465.36
950 0 89.0914 11.7183 1044 97.4818 1258.27 461.277
951 0 93.0867 12.1714 1133 97.0644 1258.79 463.237
952 0 97.1636 12.2886 1194 97.7663 1257.52 460.144
953 0 99.2132 12.1758 1208 99.7732 1257.88 454.392
954 0 103.201 11.3952 1176 101.077 1258.04 456.62
955 1 53.1207 10.4103 553 96.3779 1258.09 479.973
956 0 57.1735 11.1066 635 95.2976 1258.61 479.531
957 0 62.0479 12.3775 768 92.6081 1258.67 480.237
958 0 63.0749 13.7614 868 91.0518 1258.39 478.092
959 0 64.1084 12.8376 823 93.3366 1259.39 478.566
960 0 66.1577 12.969 858 93.7797 1259.21 477.307
961 0 69.1258 12.2386 846 94.7187 1259.33 476.753
962 0 73.1078 11.572 846 96.1773 1258.71 474.196
963 0 75.1834 12.5959 947 94.5618 1258.86 473.126
964 0 78.2322 12.9742 1015 94.5172 1258.25 469.9
965 0 80.1112 12.3578 990 97.4414 1258.53 467.927
966 0 83.0841 12.7341 1058 96.5558 1258.74 470.75
967 0 86.2381 12.651 1091 95.1888 1258.05 466.063
968 0 89.0872 12.6505 1127 96.8279 1258.13 466.1
969 0 92.126 12.7651 1176 97.5561 1258.12 463.792
970 0 95.1829 12.3447 1175 99.3694 1257.88 462.425
971 0 98.1304 13.5228 1327 97.6285 1258.2 461.136
972 1 51.05 10.9109 557 98.9084 1258.38 484.894
973 0 53.0481 11.6687 619 100.055 1258.28 484.832
974 0 54.2885 12.2862 667 100.93 1257.29 479.12
975 0 59.0479 12.5999 744 109.452 1255.93 479.605
976 0 60.0315 12.7933 768 108.552 1256.7 481.513
977 0 63.0563 13.4324 847 107.519 1257.15 479.279
978 0 65.0634 11.4965 748 113.107 1257.35 480.437
979 0 65.0909 13.5196 880 108.917 1257.33 477.242
980 0 66.0843 12.3176 814 112.249 1257.17 477.935
981 0 69.093 12.997 898 110.847 1256.96 475.597
982 0 71.1534 13.0141 926 110.015 1257.97 475.675
983 0 72.1837 12.205 881 113.421 1258.15 474.099
984 0 75.1941 12.7936 962 111.799 1257.77 472.304
985 0 78.1667 13.7399 1074 110.142 1258.21 470.062
986 0 79.2079 12.1074 959 114.371 1258.92 470.738
987 0 82.176 14.5906 1199 108.552 1259.07 467.88
988 0 85.2398 14.4885 1235 108.972 1259.08 468.304
989 0 86.1941 13.1448 1133 113.045 1258.54 467.533
990 0 89.1797 12.5477 1119 113.86 1257.98 465.045
991 0 93.164 12.9986 1211 112.462 1258.04 464.975
992 0 95.1797 14.5094 1381 110.772 1257.88 461.278
993 0 99.2002 13.9516 1384 110.54 1258.56 460.835
994 0 102.18 13.946 1425 109.774 1258.43 460.924
995 1 57.1223 10.5213 601 109.855 1259.98 482.421
996 0 59.1413 10.4495 618 99.9045 1259.45 479.642
997 0 59.1088 11.1489 659 103.684 1259.74 481.226
998 0 61.148 10.5972 648 99.3657 1258.3 474.904
999 0 65.0814 12.3384 803 95.8082 1257.84 476.625
1000 0 65.1543 11.9255 777 97.5096 1257.94 475.611
1001 0 67.1018 11.7732 790 99.8228 1257.91 475.758
1002 0 71.0896 11.8864 845 102.395 1258.03 475.503
1003 0 74.135 12.5986 934 101.147 1257.49 474.084
1004 0 74.1436 12.759 946 101.03 1257.49 473.788
1005 0 75.101 12.117 910 102.57 1257.82 471.707
1006 0 78.0889 11.5125 899 104.524 1257.7 470.295
1007 0 81.1408 12.0531 978 104.307 1257.28 469.401
1008 0 85.1212 13.005 1107 101.996 1256.99 468.286
1009 0 90.2084 13.5132 1219 100.596 1257.01 465.122
1010 1 46.0726 10.3966 479 104.23 1257.19 486.616
1011 0 49.0586 11.4557 562 99.2687 1257.51 483.706
1012 0 49.122 11.502 565 115.697 1256.36 484.586
1013 0 51.0229 10.8971 556 107.079 1258.91 486.808
1014 0 52.1083 10.9579 571 108.158 1259.24 484.271
1015 0 53.1825 10.3606 551 108.88 1258.91 485.074
1016 0 56.11 12.0478 676 106.34 1258.68 482.09
1017 0 57.09 10.8075 617 108.6 1258.2 482.178
1018 0 59.0619 10.853 641 108.384 1258.82 482.139
1019 0 62.1385 12.0215 747 105.487 1258.98 480.436
1020 0 62.116 10.7541 668 109.033 1258.54 479.945
1021 0 66.0461 11.1437 736 106.341 1258.83 481.164
1022 0 67.1661 12.015 807 104.937 1258.28 478.237
1023 0 70.1087 12.3095 863 105.701 1258.59 475.147
1024 0 71.0593 10.3716 737 110.636 1258.92 475.058
1025 0 75.0974 11.6515 875 107.224 1258.81 472.203
1026 0 77.1648 11.7411 906 107.458 1258.74 472.461
1027 0 81.1343 12.6704 1028 103.732 1258.09 470.097
1028 0 83.1442 12.1355 1009 106.825 1258.41 467.274
1029 1 45.0531 10.7651 485 107.307 1258.52 486.175
1030 0 47.0594 11.2624 530 107.828 1258.2 487.449
1031 0 52.0331 11.2621 586 105.659 1258.69 488.191
1032 0 53.1911 11.6373 619 106.36 1257.8 484.958
1033 0 53.1942 12.4826 664 107.283 1257.13 481.803
1034 0 56.0946 13.2098 741 103.455 1258.48 484.178
1035 0 53.0661 10.1194 537 113.959 1259.13 485.074
1036 0 55.0745 12.0746 665 109.678 1258.76 483.379
1037 0 58.0878 11.6203 675 109.319 1258.37 484.281
1038 0 59.087 11.17 660 112.756 1258.14 482.183
1039 0 62.0747 11.8728 737 109.946 1258.12 481.726
1040 0 64.1698 13.4331 862 105.579 1257.77 479.896
1041 0 64.1468 12.5649 806 107.804 1258.16 480.767
1042 0 65.139 11.13 725 111.669 1258.18 479.988
1043 0 69.1309 12.2377 846 108.787 1258.01 476.222
1044 0 71.119 12.0081 854 108.461 1258.46 476.129
1045 0 75.0976 14.4345 1084 101.437 1257.81 476.587
1046 0 77.0402 14.1355 1089 103.067 1258.57 473.299
1047 0 80.1604 12.5623 1007 105.558 1258.83 474.633
1048 0 81.1462 13.3832 1086 104.687 1258.24 471.28
1049 0 86.2124 13.026 1123 104.054 1257.92 471.904
1050 0 87.0478 11.6717 1016 101.666 1258.07 467.386
1051 0 92.1798 12.02 1108 100.993 1258.23 465.946
1052 0 95.151 12.5064 1190 100.483 1258.32 464.219
1053 1 50.107 10.8767 545 103.415 1258.62 486.881
1054 0 55.0993 12.1599 670 102.66 1258.53 485.303
1055 0 57.1794 13.7462 786 100.668 1258.31 484.296
1056 0 55.1346 10.9913 606 99.005 1258.11 479.847
1057 0 57.114 11.3457 648 96.8272 1257.2 479.181
1058 0 59.0945 11.5408 682 97.2903 1257.21 477.811
1059 0 63.0825 12.5074 789 95.5602 1256.8 476.815
1060 0 64.1716 13.2457 850 94.7482 1257.4 475.654
1061 0 64.1291 11.1026 712 99.9902 1257.33 471.215
1062 0 68.1118 12.5676 856 96.9416 1257.34 472.554
1063 0 69.2143 13.1042 907 96.5502 1257.29 471.282
1064 0 72.0866 11.2087 808 98.4616 1258.07 472.446
1065 0 75.2868 12.9239 973 96.3165 1257.91 470.731
1066 0 77.0887 12.5699 969 97.679 1257.61 467.884
1067 0 81.1264 12.3388 1001 100.08 1257.98 468.156
1068 0 83.2346 12.8552 1070 98.9981 1257.77 464.393
1069 0 84.0644 12.4547 1047 99.1939 1258.22 465.961
1070 0 88.1459 13.1487 1159 97.1424 1257.56 462.718
1071 0 89.0999 11.5039 1025 101.338 1256.8 462.723
1072 0 94.2461 12.1703 1147 100.108 1256.87 463.121
1073 0 95.0977 11.2726 1072 102.711 1257.49 458.398
1074 1 49.0913 11.5295 566 94.8216 1257.8 482.774
1075 0 53.064 11.684 620 102.705 1258.13 483.837
1076 0 55.0788 13.0903 721 100.677 1257.6 482.147
1077 0 57.1728 12.4535 712 92.5309 1257.45 478.928
1078 0 59.0486 12.2103 721 93.4563 1257.36 476.316
1079 0 59.1253 12.1775 720 94.4944 1256.67 476.496
1080 0 61.086 11.7539 718 94.89 1257.24 475.734
1081 0 65.1748 13.4868 879 90.2719 1256.93 475.77
1082 0 68.0718 12.6337 860 91.6454 1256.98 474.334
1083 0 69.0473 11.8759 820 93.411 1257.08 474.548
1084 0 71.1616 12.1133 862 93.1995 1257.7 471.966
1085 0 69.0983 11.2593 778 96.2828 1256.85 469.378
1086 0 74.1282 11.2912 837 95.2509 1257.23 470.986
1087 0 78.1743 11.9349 933 100.167 1257.14 474.823
1088 0 80.1127 13.1565 1054 99.4023 1256.87 471.868
1089 0 83.1178 12.7289 1058 101.11 1257.09 470.494
1090 0 85.1397 13.378 1139 100.855 1256.96 469.277
1091 0 89.2022 13.8562 1236 99.7969 1257.15 467.244
1092 0 90.2238 14.0318 1266 101.928 1257.43 464.343
1093 0 93.0874 14.8463 1382 99.3292 1257.76 465.353
1094 0 94.0849 13.4453 1265 104.612 1257.64 462.284
1095 0 96.1265 13.0661 1256 106.155 1257.02 459.457
1096 0 100.137 13.5714 1359 105.121 1257.09 458.483
1097 0 102.13 12.9638 1324 107.076 1257.28 455.337
1098 0 108.071 14.0278 1516 104.413 1257.06 453.825
1099 0 109.108 13.0329 1422 108.136 1256.66 450.952
1100 1 57.0762 11.3532 648 102.33 1256.32 476.991
1101 0 60.0765 11.4853 690 99.4609 1257.25 475.578
1102 0 63.0335 13.6277 859 93.7544 1258.08 477.846
1103 0 64.0707 12.1897 781 99.105 1257.21 475.137
1104 0 66.1016 12.5716 831 98.2335 1257.66 475.31
1105 0 69.0589 12.902 891 98.9091 1257.6 472.698
1106 0 71.1404 12.0185 855 111.685 1258.4 472.512
1107 0 75.1362 13.4822 1013 112.986 1257.27 473.346
1108 0 77.1434 13.0406 1006 114.15 1256.79 473.084
1109 0 78.1777 13.5589 1060 113.704 1257.25 472.564
1110 0 81.1392 12.6326 1025 115.273 1256.94 469.759
1111 0 84.159 13.023 1096 115.203 1256.61 465.516
1112 0 86.4247 13.5031 1167 112.186 1256.58 463.6
1113 0 87.1748 12.0907 1054 115.507 1256.75 459.391
1114 0 90.2359 13.7528 1241 112.94 1257.87 458.617
1115 0 96.3895 13.5803 1309 111.699 1257.26 457.5
1116 0 99.2354 14.773 1466 109.035 1257.36 455.923
1117 0 103.401 14.7774 1528 108.732 1257.07 456.987
1118 0 106.194 13.5601 1440 111.49 1257.05 451.874
1119 0 112.423 13.7605 1547 110.783 1256.76 450.71
1120 1 56.2182 10.4415 587 113.405 1256.63 478.3
1121 0 59.704 11.2723 673 89.4978 1256.46 476.155
1122 0 61.1355 12.6113 771 102.981 1256.94 479.527
1123 0 64.0856 11.6095 744 103.591 1257.07 477.825
1124 0 67.112 13.2316 888 102.214 1256.78 474.964
1125 0 69.0892 12.549 867 105.646 1256.75 472.092
1126 0 70.3365 10.5777 744 114.37 1256.62 473.637
1127 0 73.313 10.8985 799 113.494 1257.21 470.029
1128 0 74.395 11.3852 847 112.311 1257.62 468.14
1129 0 79.4326 12.6648 1006 109.639 1257.55 466.418
1130 0 79.2639 11.4302 906 113.518 1256.99 464.55
1131 0 85.4856 12.8092 1095 109.515 1257.01 464.233
1132 0 84.368 11.272 951 113.228 1256.93 466.196
1133 0 90.4298 12.33 1115 112.153 1257.63 461.187
1134 0 91.5834 11.9236 1092 114.24 1257.23 460.988
1135 0 95.2003 12.4054 1181 112.73 1256.81 458.049
1136 0 97.3644 12.5302 1220 113.086 1257.39 457.868
1137 0 103.392 12.7186 1315 111.665 1257.57 457.341
1138 0 105.337 13.8034 1454 111.332 1256.81 453.437
1139 0 105.262 12.8346 1351 116.526 1256.55 453.159
1140 1 62.2666 12.1574 757 111.729 1256.14 477.908
1141 0 62.1913 13.1851 820 113.823 1256.56 473.667
1142 0 66.2386 12.7871 847 114.205 1256.84 473.282
1143 0 68.3605 13.6921 936 112.1 1257 472.012
1144 0 71.274 13.4411 958 113.383 1257.09 471.447
1145 0 73.1859 13.049 955 115.771 1256.24 470.49
1146 0 76.2978 13.2245 1009 115.495 1256.52 469.471
1147 0 79.1579 13.631 1079 115.833 1255.99 465.786
1148 0 82.2297 13.292 1093 117.262 1256.44 465.668
1149 0 85.2256 14.4557 1232 114.932 1255.96 464.999
1150 0 87.3508 13.4744 1177 117.929 1255.32 464.197
1151 0 92.2422 14.115 1302 116.571 1255 462.881
1152 0 94.3875 13.1797 1244 119.433 1255.03 461.134
1153 0 98.2104 13.522 1328 118.065 1254.78 461.577
1154 0 101.294 14.5123 1470 116.298 1254.89 458.726
1155 0 103.305 14.0651 1453 118.117 1255.31 457.092
1156 0 108.279 14.6566 1587 115.883 1255.42 453.866
1157 1 60.4287 10.922 660 118.856 1255.27 478.756
1158 0 62.1835 12.5435 780 117.265 1255.84 475.772
1159 0 67.2909 13.2559 892 115.824 1255.84 474.232
1160 0 68.1752 12.9079 880 118.932 1255.54 472.257
1161 0 70.147 14.0277 984 117.26 1255.7 471.087
1162 0 73.203 15.4502 1131 115.16 1255.69 470.47
1163 0 76.1974 13.885 1058 119.295 1255.59 469.09
1164 0 77.1672 13.1403 1014 122.144 1255.88 466.817
1165 0 80.2613 13.2692 1065 121.544 1255.82 466.277
1166 0 85.1917 14.4615 1232 117.681 1255.98 465.494
1167 0 87.2239 13.2762 1158 122.428 1255.54 461.478
1168 0 89.2208 14.2344 1270 121.343 1256.44 458.805
1169 0 91.2593 14.2013 1296 122.148 1256.2 459.64
1170 0 93.2733 14.5701 1359 121.598 1256.56 458.241
1171 0 99.1481 13.2932 1318 123.808 1255.46 456.948
1172 0 100.336 13.8136 1386 124.361 1256.3 454.384
1173 0 103.15 13.7372 1417 125.211 1256.65 453.492
1174 0 107.159 14.4831 1552 122.954 1256.86 449.175
1175 0 110.252 14.1222 1557 122.771 1256.66 447.062
1176 0 109.161 14.0068 1529 124.67 1256.82 442.579
1177 1 60.036 8.54488 513 121.945 1257.04 468.031
1178 0 60.1407 10.6417 640 118.805 1256.63 465.056
1179 0 69.105 11.7358 811 113.772 1256.58 474.236
1180 0 71.1296 12.1328 863 114.902 1256.28 471.663
1181 0 72.0848 11.8888 857 117.254 1256.58 469.758
1182 0 74.129 11.8442 878 117.215 1256.9 469.849
1183 0 78.0581 12.7341 994 117.233 1257.63 468.386
1184 0 80.0806 11.9754 959 120.014 1257.64 467.621
1185 0 81.0968 11.5788 939 122.471 1257.65 466.222
1186 0 84.1307 12.5519 1056 121.771 1258.45 463.283
1187 0 85.0411 12.1706 1035 123.414 1258.05 464.598
1188 0 88.1502 11.038 973 127.207 1257.52 463.282
1189 0 89.1149 10.6043 945 129.03 1257.81 460.806
1190 0 94.0532 12.461 1172 125.379 1257.58 458.883
1191 0 95.1018 12.576 1196 126.557 1257.56 459.548
1192 0 99.1586 11.3656 1127 131.117 1256.99 455.567
1193 0 101.213 11.3326 1147 130.693 1257.73 454.921
1194 0 106.265 12.5442 1333 128.762 1256.72 450.597
1195 0 109.135 12.2692 1339 129.623 1257.34 451.265
1196 0 113.167 11.9027 1347 129.143 1257.38 445.565
1197 0 117.281 12.0991 1419 129.369 1256.95 444.093
1198 1 67.1439 10.7232 720 121.95 1257.59 474.207
1199 0 68.1108 11.9952 817 121.135 1256.94 471.135
1200 0 68.1182 10.1882 694 118.463 1257.97 472.807
1201 0 71.1409 10.3878 739 118.499 1257.72 471.855
1202 0 73.1206 9.58691 701 120.006 1257.96 472.662
1203 0 74.1679 10.5976 786 120.289 1257.39 468.214
1204 0 79.2241 10.0475 796 120.928 1257.56 469.637
1205 0 80.2285 11.8786 953 118.561 1257.86 466.838
1206 0 82.1952 11.6795 960 120.853 1258.11 465.174
1207 0 85.1016 11.3159 963 122.768 1257.96 463.832
1208 0 90.2816 11.8075 1066 120.642 1257.69 463.875
1209 0 91.167 11.5941 1057 121.996 1257.92 461.284
1210 0 94.1587 11.778 1109 121.24 1257.34 462.072
1211 0 96.1424 11.7846 1133 122.611 1257.46 457.314
1212 0 99.1923 10.9182 1083 124.36 1256.67 457.106
1213 0 101.168 10.3393 1046 124.841 1257.39 458.709
1214 0 105.168 10.8873 1145 124.213 1257.71 456.003
1215 0 108.074 10.9462 1183 125.118 1257.41 450.583
1216 0 113.031 9.97954 1128 118.365 1257.81 451.544
1217 0 118.147 10.4531 1235 116.301 1257.09 450.668
1218 0 116.215 11.4443 1330 130.172 1256.23 449.521
1219 0 118.344 10.5202 1245 123.639 1256.91 449.59
1220 0 120.204 10.7401 1291 122.814 1256.58 449.952
1221 0 124.241 11.0672 1375 122.118 1256.44 446.28
1222 0 129.376 11.3932 1474 122.078 1256.33 442.625
1223 0 134.205 10.9832 1474 122.206 1256.39 439.313
1224 1 75.0488 10.1001 758 110.541 1256.84 473.132
1225 0 76.061 10.9649 834 111.285 1257.12 469.613
1226 0 78.0684 9.67101 755 112.958 1257.09 471.342
1227 0 80.0616 10.0548 805 114.039 1257.54 466.728
1228 0 83.1382 10.681 888 112.675 1257.72 465.61
1229 0 84.0845 8.94338 752 110.594 1257.22 457.082
1230 0 89.1165 10.5704 942 106.349 1257.76 458.2
1231 0 91.1542 9.64301 879 107.638 1257.71 454.202
1232 0 91.211 9.81241 895 108.069 1257.91 451.732
1233 0 94.2034 10.0421 946 109.291 1257.06 451.284
1234 0 100.271 10.3919 1042 112.703 1256.68 457.635
1235 0 103.262 9.80031 1012 114.866 1256.44 455.664
1236 1 60.1466 10.2583 617 103.6 1256.07 479.645
1237 0 61.1474 11.088 678 103.434 1255.63 479.686
1238 0 64.1756 11.7958 757 102.39 1255.85 477.996
1239 0 65.1192 11.978 780 100.926 1255.41 476.676
1240 0 66.082 10.8502 717 104.187 1255.38 473.63
1241 0 69.0452 11.5142 795 102.223 1255.51 474.985
1242 0 72.0492 11.5754 834 99.8585 1255.45 472.324
1243 0 74.066 10.9767 813 100.568 1255.45 468.982
1244 0 76.0773 11.2517 856 100.325 1255.92 468.986
1245 0 77.1113 11.5418 890 101.829 1256 467.167
1246 0 80.1069 11.0477 885 103.794 1255.32 466.582
1247 0 81.2406 11.2136 911 104.564 1255.54 465.369
1248 0 85.1905 11.5741 986 106.351 1254.99 465.934
1249 0 87.1124 12.2256 1065 105.015 1255.56 461.469
1250 0 89.1169 12.1301 1081 105.904 1255.99 461.742
1251 0 90.1342 11.1944 1009 105.471 1255.69 461.46
1252 0 92.2449 11.3827 1050 105.951 1255.95 458.102
1253 0 94.1584 10.408 980 109.183 1255.82 458.064
1254 0 99.0994 11.1807 1108 107.171 1255.66 456.155
1255 0 102.271 11.5086 1177 107.704 1256.77 455.622
1256 0 104.316 11.2447 1173 110.193 1256.78 451.079
1257 0 103.244 9.10463 940 117.667 1256.72 450.048
1258 0 106.283 10.2932 1094 116.583 1256.35 444.154
1259 0 110.207 10.5801 1166 115.172 1256.52 446.548
1260 0 112.29 10.9271 1227 115.191 1255.93 441.684
1261 0 114.335 10.9328 1250 115.999 1256.22 442.454
1262 0 118.318 11.3593 1344 115.026 1256.07 442.67
1263 0 122.27 11.2456 1375 115.132 1256.34 439.901
1264 0 123.227 11.2962 1392 115.34 1256.77 436.826
1265 0 130.197 11.5594 1505 114.278 1256.99 437.618
1266 0 138.389 12.6239 1747 112.202 1256.42 436.126
1267 0 141.289 12.6408 1786 113.269 1256.64 439.3
1268 0 146.314 11.7214 1715 115.269 1257.08 436.994
1269 0 150.199 12.803 1923 114.702 1257.03 430.731
1270 0 153.304 12.5176 1919 115.307 1256.37 430.225
1271 0 158.201 12.6927 2008 115.51 1256.51 426.624
1272 0 162.273 11.1664 1812 119.329 1256.79 425.274
1273 0 167.302 11.6914 1956 118.693 1256.75 420.078
1274 0 171.287 11.6179 1990 119.062 1256.71 420.837
1275 0 179.245 12.3686 2217 117.02 1256.35 419.429
1276 0 186.327 12.6606 2359 116.432 1256.33 416.088
1277 0 191.159 12.7119 2430 117.651 1256.71 407.154
1278 0 195.31 11.8478 2314 119.851 1257.07 402.643
1279 0 202.27 11.3067 2287 121.53 1257.02 404.979
1280 0 209.348 11.9848 2509 120.127 1256.87 402.431
1281 0 215.286 12.5507 2702 119.09 1257.17 400.64
1282 0 222.473 11.943 2657 119.697 1257.02 396.425
1283 0 228.314 11.4053 2604 121.659 1257.07 390.71
1284 0 237.198 13.0692 3100 121.104 1257.05 384.88
1285 0 243.399 13.4594 3276 123.134 1256.25 378.45
1286 0 249.288 12.8767 3210 117.047 1256.57 373.059
1287 0 258.489 13.6718 3534 114.895 1256.25 367.93
1288 0 267.41 13.6457 3649 113.351 1256.22 367.27
1289 1 52.0579 6.30068 328 97.3262 1256.29 475.765
1290 0 55.125 10.7029 590 92.978 1255.78 474.437
1291 0 60.0934 11.4322 687 102.812 1257.9 476.809
1292 0 60.0639 9.90611 595 99.395 1259.32 480.365
1293 0 60.1725 11.251 677 98.3338 1259.26 476.646
1294 0 61.1081 8.7877 537 102.97 1258.3 476.966
1295 0 67.0868 11.8056 792 96.8422 1258.48 474.385
1296 0 67.0857 11.1648 749 99.4566 1258.59 473.394
1297 0 69.1083 9.76728 675 101.453 1258.46 472.979
1298 0 70.0743 9.78961 686 101.813 1258.16 473.243
1299 0 76.1281 13.3197 1014 95.2653 1257.27 470.225
1300 0 78.1224 12.7108 993 97.4058 1257.62 469.002
1301 0 77.1405 10.3836 801 101.594 1257.18 468.21
1302 0 82.1826 10.4158 856 100.953 1257.25 466.72
1303 0 83.295 9.1482 762 103.84 1258.06 466.916
1304 0 86.1387 10.7733 928 102.409 1256.92 463.636
1305 0 92.1396 12.0903 1114 95.0386 1257.75 461.298
1306 0 93.1686 9.9819 930 101.278 1257.53 458.058
1307 0 98.107 10.9268 1072 101.071 1258.33 459.551
1308 1 56.2861 12.2055 687 91.9243 1258.32 481.196
1309 0 56.2899 11.0499 622 95.2315 1257.91 481.339
1310 0 59.1178 13.3801 791 87.8508 1257.93 479.062
1311 0 60.0765 11.6352 699 91.9771 1257.65 479.75
1312 0 60.1996 11.7443 707 91.6054 1257.83 478.174
1313 0 64.0967 12.3875 794 89.7468 1258.07 477.759
1314 0 64.1709 12.794 821 89.2814 1258.62 476.368
1315 0 65.1644 12.1385 791 91.7762 1258.41 474.193
1316 0 68.0821 11.1777 761 93.2654 1257.64 474.657
1317 0 68.159 11.6346 793 93.9571 1257.06 472.923
1318 0 70.2306 12.7295 894 92.0593 1257.12 471.596
1319 0 71.1777 12.9675 923 92.1473 1257.66 471.482
1320 0 73.2221 11.0076 806 95.5149 1256.67 472.055
1321 0 77.0738 11.7939 909 94.4598 1257.28 470.463
1322 0 76.1037 12.3384 939 95.2673 1257.44 467.995
1323 0 80.1437 13.2886 1065 92.2732 1256.9 469.474
1324 0 83.151 12.6757 1054 94.8235 1256.65 465.51
1325 0 83.1758 11.6741 971 97.2987 1257.54 463.746
1326 0 87.1992 12.1675 1061 97.0641 1257.95 461.882
1327 0 90.1516 12.1018 1091 97.659 1256.97 461.934
1328 0 93.1258 12.9824 1209 97.3267 1257.11 459.57
1329 0 91.1647 11.6822 1065 101.421 1256.52 457.992
1330 0 95.2508 12.5668 1197 99.7109 1256.79 457.016
1331 0 98.2421 10.7184 1053 103.15 1256.58 460.212
1332 0 102.258 11.8426 1211 101.578 1256.4 457.645
1333 0 105.142 11.6129 1221 103.077 1256.94 453.527
1334 0 109.091 12.0909 1319 101.532 1257 453.752
1335 1 56.1022 9.85701 553 100.161 1255.72 475.834
1336 0 59.0603 12.4957 738 88.7832 1256.42 471.996
1337 0 65.0782 13.9371 907 94.3947 1256.13 477.739
1338 0 65.0706 13.7543 895 96.1888 1256.17 475.855
1339 0 67.1187 12.4704 837 99.7945 1255.06 471.651
1340 0 70.1014 14.0939 988 96.2257 1255.47 469.775
1341 0 73.0911 13.5995 994 97.1549 1255.54 467.647
1342 0 77.0407 13.4994 1040 95.7327 1255.79 472.12
1343 0 79.0358 14.2847 1129 95.7015 1255.51 468.268
1344 0 83.1097 13.9334 1158 96.8903 1255.43 467.314
1345 0 84.1009 13.567 1141 99.0745 1255.59 465.506
1346 0 87.1389 14.299 1246 98.4518 1255.48 462.41
1347 0 87.1041 14.2473 1241 99.9355 1255.8 458.949
1348 0 91.1649 13.2068 1204 101.81 1256.45 460.423
1349 0 95.1092 15.0354 1430 98.3175 1256.38 458.902
1350 0 97.1542 14.5439 1413 99.8896 1256.43 457.144
1351 0 101.223 14.147 1432 101.149 1256.91 454.302
1352 0 103.187 13.868 1431 102.419 1257 452.136
1353 0 106.333 13.8997 1478 102.988 1257.18 452.078
1354 0 107.193 13.5083 1448 104.712 1257.12 448.195
1355 0 111.177 14.6433 1628 101.549 1257.35 442.193
1356 0 116.221 12.8376 1492 103.806 1256.96 445.269
1357 0 119.308 13.8633 1654 102.804 1257.18 441.595
1358 0 125.305 13.6627 1712 103.693 1257.38 439.323
1359 1 69.0694 10.96 757 101.024 1256.87 468.59
1360 0 70.1703 11.7856 827 98.081 1256.56 466.863
1361 0 72.2991 12.393 896 90.625 1256.01 462.7
1362 0 73.1622 11.9324 873 93.1363 1255.69 464.672
1363 0 73.1407 10.4593 765 96.0118 1256.03 460.154
1364 0 80.1498 12.5265 1004 92.2122 1256.23 462.671
1365 0 79.1776 11.531 913 95.4907 1256.09 459.485
1366 0 84.2804 11.5092 970 95.1969 1256.1 459.974
1367 0 88.196 12.8804 1136 94.9313 1256.09 459.193
1368 0 91.0974 13.0739 1191 100.875 1255.91 460.761
1369 0 94.1351 13.64 1284 100.998 1256.17 458.868
1370 0 96.1801 13.6411 1312 100.383 1255.83 457.893
1371 0 100.142 13.0016 1302 101.541 1256.1 457.127
1372 0 105.1 15.4328 1622 95.9908 1255.76 452.897
1373 0 106.041 14.1832 1504 99.764 1255.32 449.39
1374 0 110.189 13.5495 1493 101.082 1255.57 448.661
1375 0 115.141 14.1565 1630 98.8975 1256.1 447.261
1376 0 117.268 12.0493 1413 103.047 1256.11 444.974
1377 1 63.1809 11.0476 698 105.642 1255.34 470.706
1378 0 69.1137 12.3275 852 100.593 1256.2 471.904
1379 0 70.0355 13.6074 953 98.4008 1256.57 471.871
1380 0 74.0335 12.7105 941 99.4283 1256.35 471.324
1381 0 77.1376 12.2508 945 100.765 1256.32 469.876
1382 0 79.0911 12.6942 1004 100.618 1256.35 469.607
1383 0 81.1268 13.7069 1112 99.268 1256.22 466.281
1384 0 83.0666 13.6517 1134 99.4048 1255.65 467.713
1385 0 86.1349 12.7358 1097 102.185 1256.02 463.411
1386 0 86.0677 12.281 1057 104.684 1255.72 463.104
1387 0 92.1002 12.7687 1176 102.387 1256.03 461.456
1388 0 93.058 13.1423 1223 103.455 1256.36 462.073
1389 0 96.1051 11.9036 1144 107.027 1256.38 460.131
1390 0 99.0594 13.6181 1349 103.381 1257.53 457.93
1391 0 101.073 12.2288 1236 106.77 1255.7 456.909
1392 0 104.17 12.1052 1261 106.565 1255.71 452.775
1393 0 108.172 11.6666 1262 107.01 1256 453.69
1394 0 115.138 13.9051 1601 101.052 1256.87 449.971
1395 0 118.289 12.0637 1427 104.523 1256.68 446.289
1396 0 120.116 10.8729 1306 106.622 1256.51 448.07
1397 1 68.1584 12.3389 841 106.142 1256.17 473.262
1398 0 70.1366 13.1886 925 104.405 1258.35 468.097
1399 0 73.1619 13.6136 996 104.227 1257.2 468.819
1400 0 75.1819 13.6868 1029 103.711 1256.37 469.465
1401 0 77.1246 12.6289 974 104.731 1256.3 466.848
1402 0 81.0751 13.0373 1057 104.507 1256.43 465.3
1403 0 83.1491 13.9629 1161 103.693 1256.55 462.842
1404 0 86.1685 13.4156 1156 105.458 1256.44 461.866
1405 0 89.1351 13.6983 1221 106.093 1256.42 460.405
1406 0 91.0822 14.2509 1298 106.125 1255.47 457.653
1407 0 95.1584 14.6072 1390 105.415 1255.45 454.631
1408 0 93.0574 13.2714 1235 110.249 1254.92 451.474
1409 0 99.1288 14.0222 1390 106.019 1255.18 453.976
1410 0 102.221 14.0578 1437 108.445 1256 448.355
1411 0 107.199 14.8695 1594 105.673 1255.94 445.89
1412 0 108.151 13.4626 1456 111.212 1256.22 446.209
1413 0 111.255 14.1656 1576 109.826 1256.36 440.295
1414 1 62.1684 12.3214 766 111.928 1256.37 468.918
1415 0 63.0885 11.6503 735 114.951 1254.95 466.811
1416 0 67.0839 13.9676 937 109.128 1256.8 469.895
1417 0 69.1025 14.0371 970 109.93 1255.05 468.425
1418 0 72.3209 14.9473 1081 107.577 1255.13 467.592
1419 0 74.1187 14.5577 1079 109.032 1255.57 464.624
1420 0 77.126 14.4698 1116 109.504 1255.6 464.715
1421 0 78.3444 14.832 1162 108.796 1255.15 464.303
1422 0 82.3275 13.6771 1126 109.742 1255.35 459.745
1423 0 83.2482 14.1144 1175 110.249 1254.85 455.467
1424 0 82.1504 11.9172 979 117.516 1255.86 454.667
1425 0 87.4423 12.4997 1093 115.465 1256.55 457.177
1426 0 87.2653 12.9834 1133 116.199 1257.08 454.327
1427 0 93.3049 13.0111 1214 115.792 1257.52 451.239
1428 0 97.3346 12.082 1176 118.134 1256.46 449.922
1429 0 98.5907 12.7801 1260 118.044 1255.95 448.808
1430 0 98.1068 13.5567 1330 117.049 1256.09 447.095
1431 0 101.244 12.1489 1230 121.175 1256.48 444.517
1432 0 109.371 12.8736 1408 118.172 1256.9 442.121
1433 0 114.329 13.4349 1536 115.026 1256.68 442.318
1434 0 120.49 13.9845 1685 113.993 1256.87 438.354
1435 0 123.34 12.9155 1593 116.594 1256.72 435.491
1436 1 71.2096 10.9395 779 115.429 1256.23 461.947
1437 0 72.1123 11.7594 848 118.466 1256.42 463.093
1438 0 75.2021 12.7523 959 116.747 1256.65 462.602
1439 0 80.1067 14.4432 1157 112.577 1257.35 460.354
1440 0 80.1635 14.0463 1126 114.903 1256.96 458.36
1441 0 84.26 13.043 1099 116.399 1257.24 457.746
1442 0 87.3974 13.2155 1155 117.862 1256.64 456.226
1443 0 89.3076 12.7089 1135 118.876 1256.51 454.913
1444 0 92.6729 12.7761 1184 118.747 1256.58 454.904
1445 0 96.2722 13.3995 1290 117.376 1257.24 452.768
1446 0 96.336 12.5498 1209 119.919 1257.35 450.543
1447 0 101.214 13.6542 1382 115.083 1256.68 450.161
1448 0 104.211 13.4534 1402 116.723 1256.85 447.41
1449 0 109.195 13.5446 1479 116.9 1256.37 446.872
1450 0 110.159 13.6076 1499 117.813 1256.12 446.66
1451 0 114.171 13.6637 1560 117.943 1256.12 443.992
1452 0 117.223 12.9412 1517 117.547 1257.01 444.967
1453 0 121.137 13.2164 1601 116.929 1256.33 439.861
1454 0 127.303 15.3571 1955 111.608 1255.94 435.277
1455 0 132.395 13.4748 1784 116.736 1255.89 430.563
1456 1 68.299 12.006 820 116.841 1255.93 460.706
1457 0 73.2782 11.9271 874 114.081 1257.16 462.769
1458 0 76.255 13.5335 1032 109.286 1256.97 462.725
1459 0 78.1429 12.5923 984 111.236 1256.83 463.534
1460 0 76.1377 12.438 947 114.23 1257.6 461.087
1461 0 81.2183 11.9431 970 114.216 1257.24 459.777
1462 0 84.2396 13.6159 1147 111.044 1256.55 457.066
1463 0 87.2614 12.7319 1111 112.776 1256.38 456.527
1464 0 88.2101 12.7083 1121 114.74 1256.7 454.666
1465 0 92.2417 13.6489 1259 113.198 1256.89 451.736
1466 0 94.1552 11.4279 1076 118.988 1256.95 450.283
1467 0 96.1898 11.4981 1106 119.122 1256.96 450.392
1468 0 101.213 12.1032 1225 117.616 1256.84 447.774
1469 0 104.302 12.1186 1264 116.905 1257.07 450.371
1470 0 104.366 12.3124 1285 118.336 1257.13 444.981
1471 0 110.44 13.7088 1514 113.178 1257.07 446.832
1472 0 112.275 11.3738 1277 120.009 1256.32 443.5
1473 0 116.172 11.7928 1370 118.38 1256.75 442.085
1474 0 118.265 11.2628 1332 120.135 1256.61 436.709
1475 0 122.32 13.0641 1598 115.963 1256.9 433.153
1476 0 126.323 12.5393 1584 117.862 1256.71 431.851
1477 0 131.383 12.787 1680 116.433 1257.13 430.322
1478 0 141.421 12.233 1730 115.913 1257.13 427.418
1479 1 72.1559 11.5445 833 112.175 1256.98 460.116
1480 0 74.3075 12.3002 914 111.956 1257.33 458.104
1481 0 76.2004 12.6246 962 110.436 1257.25 457.985
1482 0 78.2327 11.568 905 113.461 1257.39 456.253
1483 0 80.2754 11.1989 899 115.638 1257.32 454.882
1484 0 83.2028 11.3698 946 116.418 1256.56 454.573
1485 0 83.1444 11.9671 995 117.828 1255.7 454.094
1486 0 87.1893 12.146 1059 117.247 1256.81 451.655
1487 0 90.1287 11.6722 1052 118.15 1255.99 452.641
1488 0 96.1763 12.0092 1155 115.627 1256.06 451.87
1489 0 99.2697 13.1662 1307 113.666 1256.43 449.017
1490 0 100.481 11.6241 1168 114.867 1256.34 447.201
1491 0 105.295 12.6027 1327 112.622 1255.76 445.969
1492 0 108.416 13.0147 1411 115.476 1255.72 446.381
1493 0 107.414 11.4603 1231 120.153 1256.11 447.979
1494 0 115.521 12.9933 1501 115.815 1256.58 443.102
1495 0 120.3 12.7016 1528 117.269 1256.15 439.56
1496 0 122.353 11.7121 1433 119.663 1256.19 438.187
1497 0 125.385 11.7717 1476 117.531 1255.9 437.306
1498 0 132.283 12.1104 1602 116.603 1256.04 432.434
1499 1 76.3448 9.74527 744 109.516 1256.83 465.5
1500 0 79.1736 11.1653 884 106.586 1257.08 463.836
1501 0 83.1714 10.4122 866 103.452 1256.47 463.226
1502 0 86.1621 9.99279 861 104.85 1255.91 462.534
1503 0 89.0814 9.71022 865 100.679 1255.77 460.056
1504 0 90.1013 10.9543 987 99.7761 1255.54 459.26
1505 0 92.0925 10.7609 991 100.545 1255.98 461.322
1506 0 92.0497 10.7225 987 101.387 1255.49 461.047
1507 0 91.0697 9.53116 868 110.105 1256.3 462.301
1508 0 94.1399 10.7393 1011 108.56 1256.38 459.042
1509 0 95.1856 12.3338 1174 108.434 1256.38 457.405
1510 0 98.1949 11.2124 1101 110.144 1256.5 459.256
1511 0 101.133 10.8174 1094 111.934 1255.96 455.523
1512 0 105.233 11.1752 1176 108.877 1255.93 454.947
1513 0 109.418 11.1042 1215 107.951 1255.31 452.817
1514 0 111.29 11.0432 1229 108.743 1255.3 448.533
1515 0 117.31 10.9113 1280 107.396 1255.1 451.478
1516 0 119.282 12.8016 1527 104.917 1255.35 448.012
1517 0 121.306 10.8733 1319 109.594 1255.07 446.084
1518 0 126.306 12.4143 1568 107.612 1255.41 441.69
1519 0 129.399 11.4066 1476 111.121 1255.79 438.663
1520 1 74.2099 11.5887 860 101.81 1255.93 471.038
1521 0 74.2284 11.1009 824 105.316 1255.92 468.826
1522 0 77.1339 9.2696 715 111.82 1256.21 470.82
1523 0 79.1877 10.4814 830 111.417 1255.28 465.345
1524 0 81.2245 12.1761 989 109.945 1255.47 464.404
1525 0 84.2618 11.6186 979 111.416 1255.13 463.854
1526 0 86.491 10.5907 916 115.634 1254.91 461.458
1527 0 87.386 11.3405 991 116.587 1254.24 460.171
1528 0 89.4646 10.5405 943 117.53 1254.53 461.65
1529 0 93.2527 11.6887 1090 116.456 1254.12 459.464
1530 0 93.3952 10.6751 997 121.012 1254.61 458.479
1531 0 97.2124 12.0046 1167 118.398 1254.64 458.352
1532 0 100.274 11.5284 1156 120.484 1254.26 458.019
1533 0 100.322 10.5959 1063 125.278 1254.45 455.296
1534 0 106.235 12.9241 1373 120.232 1254.45 452.974
1535 0 109.241 12.2115 1334 122.336 1255 452.943
1536 1 56.2418 11.8239 665 112.956 1254.02 479.508
1537 0 57.3311 11.0237 632 115.617 1254.5 477.763
1538 0 58.135 10.2864 598 119.102 1254.21 476.196
1539 0 55.1757 10.0588 555 117.838 1255.75 474.213
1540 0 55.0812 10.076 555 121.773 1254.95 470.62
1541 0 59.1994 11.3177 670 117.83 1255.77 469.779
1542 0 61.2828 11.2593 690 119.448 1256 469.639
1543 0 66.0383 11.9173 787 121.319 1254.41 473.583
1544 0 68.096 11.0286 751 123.828 1253.89 475.31
1545 0 70.2528 12.2415 860 121.588 1255.21 471.651
1546 0 71.2922 11.6282 829 124.239 1256.44 468.633
1547 0 74.4482 13.2172 984 119.195 1255.95 470.94
1548 0 75.3458 11.5998 874 125.217 1255.88 467.685
1549 0 75.2385 12.467 938 125.264 1255.4 465.487
1550 0 80.1961 12.1203 972 124.711 1255.12 467.131
1551 0 82.2104 12.6505 1040 123.964 1254.8 465.561
1552 0 83.3288 12.4927 1041 125.913 1254.9 465.43
1553 0 86.2352 12.6862 1094 127.287 1254.67 461.325
1554 0 89.3271 13.9823 1249 125.058 1254 459.583
1555 0 91.2334 13.3285 1216 127.572 1254.75 458.22
1556 0 93.3214 12.9874 1212 129.213 1255.08 456.885
1557 0 97.2649 13.8488 1347 126.407 1254.88 457.969
1558 0 99.2585 14.4774 1437 126.744 1255.13 456.255
1559 0 101.298 14.6597 1485 127.013 1254.77 453.694
1560 0 103.242 13.3667 1380 131.038 1255.84 453.624
1561 0 105.238 12.8661 1354 131.84 1255.2 452.244
1562 0 109.168 14.3907 1571 128.031 1255.37 449.941
1563 0 112.277 14.0011 1572 128.624 1255.7 446.655
1564 0 115.144 13.305 1532 130.018 1255.05 447.826
1565 0 118.278 13.5782 1606 130.537 1254.72 444.559
1566 0 120.188 14.91 1792 127.496 1253.85 440.661
1567 0 124.192 13.8898 1725 129.91 1254.67 440.286
1568 0 130.195 14.2401 1854 128.23 1254.36 438.468
1569 0 134.266 14.2329 1911 127.711 1255.09 436.083
1570 0 138.4 13.461 1863 130.604 1254.78 432.234
1571 0 143.258 14.3727 2059 127.787 1254.73 428.989
1572 0 146.234 14.6819 2147 126.681 1254.64 427.729
1573 0 150.241 13.3452 2005 129.481 1254.56 421.899
1574 0 151.441 14.4808 2193 125.266 1254.04 415.821
1575 1 90.0528 11.8708 1069 114.644 1254.27 461.934
1576 0 92.0636 10.9164 1005 115.973 1254.55 462.28
1577 0 95.1194 10.7549 1023 115.396 1253.67 463.172
1578 0 96.0982 10.2187 982 115.545 1254.43 462.712
1579 0 99.1244 10.0076 992 117.903 1254.66 457.112
1580 0 104.128 10.7848 1123 115.615 1254.61 455.802
1581 0 107.182 11.4105 1223 112.191 1255.1 455.565
1582 0 110.129 9.67047 1065 114.939 1255.38 452.882
1583 0 113.183 10.24 1159 112.41 1255.12 449.952
1584 0 119.125 10.3085 1228 110.139 1255.47 448.995
1585 0 123.298 9.70005 1196 110.274 1255.49 448.383
1586 0 126.246 11.0578 1396 110.975 1255.38 442.784
1587 0 131.331 10.0814 1324 108.578 1254.43 443.61
1588 0 133.214 8.15228 1086 113.472 1254.23 434.962
1589 0 136.47 10.7569 1468 110.874 1254.32 436.576
1590 0 140.491 11.1253 1563 109.751 1254.31 438.433
1591 0 144.328 10.3445 1493 112.114 1254.5 435.555
1592 0 147.445 11.2788 1663 110.411 1254.23 434.79
1593 0 153.657 9.96374 1531 113.308 1254.03 432.411
1594 0 156.521 10.152 1589 115.07 1254.1 424.307
1595 0 164.416 11.2215 1845 112.822 1253.71 426.328
1596 0 166.448 11.445 1905 113.447 1253.54 423.731
1597 0 172.449 11.4816 1980 114.252 1253.97 419.254
1598 0 177.323 9.97616 1769 117.942 1254.34 417.116
1599 0 180.505 10.2712 1854 117.602 1254.42 417.465
1600 0 187.574 11.6061 2177 115.207 1253.91 407.014
1601 0 195.391 12.1449 2373 113.465 1254.49 410.547
1602 1 110.172 9.64856 1063 108.05 1254.12 454.561
1603 0 115.18 9.9323 1144 107.869 1254.71 451.886
1604 0 116.086 11.3967 1323 105.933 1254.95 449.694
1605 0 118.226 9.19423 1087 109.981 1254.8 451.42
1606 0 127.175 8.72813 1110 110.621 1254.63 448.929
1607 0 126.197 9.22365 1164 109.326 1254.92 444.93
1608 0 125.087 8.49012 1062 110.492 1254.18 449.34
1609 0 135.172 11.7036 1582 105.98 1254.49 440.877
1610 0 138.108 11.1362 1538 108.622 1254.17 438.8
1611 0 141.129 10.0475 1418 110.835 1254.89 437.822
1612 0 148.176 9.52248 1411 112.179 1254.58 436.8
1613 0 153.165 9.92391 1520 112.984 1253.75 432.857
1614 1 85.0527 9.40594 800 109.712 1254.94 464.742
1615 0 91.1152 11.1398 1015 114 1254.76 463.914
1616 0 92.1769 9.43837 870 109.495 1254.6 464.791
1617 0 92.1285 8.71608 803 112.255 1254.65 461.177
1618 0 98.1119 10.8753 1067 107.946 1254.65 459.287
1619 0 99.082 9.15403 907 110.969 1254.3 458.512
1620 0 106.186 11.3669 1207 107.156 1255.36 457.458
1621 0 110.099 11.6078 1278 108.239 1254.94 455.862
1622 0 111.176 11.8911 1322 111.322 1253.68 456.75
1623 0 114.221 11.8717 1356 112.072 1254.8 450.583
1624 0 119.312 12.9911 1550 110.69 1254.76 445.095
1625 0 122.439 11.4996 1408 114.274 1255.17 445.07
1626 0 126.298 12.1142 1530 113.622 1254.88 442.11
1627 0 128.371 12.0354 1545 114.634 1254.52 440.813
1628 0 132.216 11.9274 1577 115.176 1254.97 439.538
1629 0 138.263 12.4835 1726 113.601 1255.28 438.855
1630 1 72.1236 11.0227 795 103.014 1254.7 474.82
1631 0 72.2035 10.872 785 106.191 1253.79 472.185
1632 0 75.1528 10.8446 815 106.32 1253.35 471.292
1633 0 77.1737 11.1048 857 106.597 1253.27 468.335
1634 0 80.1026 12.871 1031 103.431 1253.66 468.149
1635 0 78.2528 11.4245 894 107.819 1253.96 466.229
1636 0 82.1672 12.4746 1025 104.694 1253.73 466.536
1637 0 86.1083 12.5424 1080 104.921 1254.74 464.213
1638 0 88.1709 12.1469 1071 105.673 1254.08 465.717
1639 0 92.1014 11.8999 1096 106.434 1253.95 462.811
1640 0 90.1995 11.5965 1046 110.421 1254.29 458.157
1641 0 94.1021 12.4227 1169 109.126 1254.25 457.81
1642 0 96.1772 11.3748 1094 111.771 1254.59 458.282
1643 0 100.235 11.922 1195 110.551 1254.4 456.087
1644 0 102.189 12.2323 1250 109.18 1254.39 456.803
1645 0 102.252 9.7406 996 116.174 1254.43 451.059
1646 0 107.421 12.1113 1301 110.377 1254.39 452.421
1647 0 108.295 10.5729 1145 114.303 1254.11 449.942
1648 0 113.243 11.259 1275 112.964 1254.23 449.436
1649 0 115.348 12.5013 1442 109.978 1254.72 448.879
1650 0 119.285 10.8731 1297 113.652 1254.8 445.821
1651 0 123.343 13.3449 1646 109.2 1254.05 444.696
1652 0 127.296 12.6791 1614 110.769 1253.84 442.524
1653 0 132.213 11.2999 1494 112.549 1253.98 443.876
1654 0 136.307 12.736 1736 111.352 1253.79 437.823
1655 1 76.1468 10.5454 803 106.772 1253.85 470.037
1656 0 80.1835 10.8751 872 107.796 1253.96 464.281
1657 0 81.1929 10.629 863 106.591 1253.34 463.572
1658 0 85.2167 11.9577 1019 106.653 1253.17 461.222
1659 0 87.1319 12.1655 1060 106.59 1253.93 460.867
1660 0 89.162 11.8885 1060 107.968 1253.55 459.149
1661 0 92.1037 11.0093 1014 108.807 1254.31 465.072
1662 0 94.1321 11.6113 1093 109.879 1255.03 459.652
1663 0 98.1119 12.3125 1208 108.98 1255.53 457.652
1664 0 102.283 12.1818 1246 108.909 1254.23 455.031
1665 0 104.287 13.1943 1376 108.698 1253.67 453.279
1666 0 106.195 12.4206 1319 113.638 1253.41 450.657
1667 0 109.131 12.5812 1373 112.725 1253.9 450.699
1668 0 114.243 12.2371 1398 112.657 1253.85 451.109
1669 0 117.34 13.7037 1608 110.739 1253.95 445.833
1670 1 67.1518 11.2432 755 106.812 1253.25 473.028
1671 0 68.1167 11.6712 795 110.065 1253.92 471.043
1672 0 71.1074 12.5444 892 115.029 1254.15 466.58
1673 0 75.1153 12.2079 917 115.373 1253.1 468.293
1674 0 77.2231 13.3898 1034 112.943 1253.23 466.236
1675 0 80.2009 13.5036 1083 113.307 1253.53 465.12
1676 0 83.1505 14.2032 1181 111.994 1253.76 463.49
1677 0 83.0868 13.191 1096 116.373 1253.77 461.204
1678 0 87.2114 14.4362 1259 112.386 1253.97 460.584
1679 0 89.2684 12.7369 1137 116.004 1254.57 460.17
1680 0 93.316 13.7168 1280 114.091 1254.69 457.505
1681 0 96.1333 14.1158 1357 113.104 1254.34 456.108
1682 0 97.2086 13.2601 1289 115.929 1254.25 453.938
1683 0 101.294 12.3699 1253 117.544 1254.72 453.134
1684 0 106.304 13.5084 1436 114.184 1254.17 449.778
1685 0 108.22 12.2528 1326 115.144 1254.2 448.529
1686 1 57.0661 8.42882 481 107.99 1253.36 470.568
1687 0 62.2583 10.9222 680 102.941 1252.82 470.318
1688 0 66.0903 10.8185 715 112.866 1252.94 476.032
1689 0 69.1567 12.1463 840 108.71 1252.33 475.699
1690 0 72.1892 13.243 956 107.865 1252.99 471.189
1691 0 73.2287 12.3312 903 111.186 1252.97 469.736
1692 0 77.2052 12.7582 985 109.494 1253.34 470.621
1693 0 79.2572 12.6929 1006 109.732 1253.59 471.201
1694 0 79.1464 11.5988 918 114.007 1253.2 466.093
1695 0 83.2039 13.0042 1082 110.395 1253.66 468.506
1696 0 84.2926 12.6227 1064 113.86 1253.54 465.156
1697 0 89.0685 12.7318 1134 112.631 1253.58 465.564
1698 0 91.1943 12.5775 1147 112.313 1253.79 464.896
1699 0 93.1515 12.6031 1174 114.349 1253.82 462.307
1700 0 97.1566 12.6188 1226 114.493 1253.55 461.034
1701 0 100.16 11.851 1187 116.014 1254.12 458.764
1702 0 101.153 11.3491 1148 115.375 1253.37 457.633
1703 0 107.205 12.6393 1355 112.723 1253 454.701
1704 0 109.17 12.4484 1359 111.663 1253.62 452.451
1705 1 61.0573 11.956 730 107.686 1252.65 477.26
1706 0 65.1357 11.5758 754 105.805 1252.53 479.416
1707 0 65.1016 9.8615 642 104.044 1255.15 475.569
1708 0 66.1641 11.8947 787 100.555 1254.84 472.568
1709 0 68.0858 12.2199 832 107.032 1253.58 473.852
1710 0 72.1205 12.4236 896 106.674 1253.06 470.486
1711 0 74.1182 11.5491 856 108.395 1252.55 472.537
1712 0 76.128 12.0192 915 107.362 1253.11 469.766
1713 0 78.1206 12.8135 1001 106.136 1253.09 469.163
1714 0 82.1147 13.3472 1096 103.87 1252.85 468.264
1715 0 82.163 12.7186 1045 103.211 1252.37 468.051
1716 0 85.1518 12.4131 1057 105 1252.02 466.722
1717 0 88.2526 15.1837 1340 98.3052 1252.88 465.104
1718 0 92.1337 13.5564 1249 101.853 1252.64 465.47
1719 0 94.2064 13.5235 1274 102.197 1252.65 463.668
1720 0 96.411 13.7536 1326 102.962 1252.75 460.498
1721 0 97.1808 13.3257 1295 104.349 1253.69 459.91
1722 0 100.365 13.1819 1323 104.622 1254.26 456.476
1723 0 104.267 13.0051 1356 105.035 1254.15 454.602
1724 0 107.341 14.1978 1524 102.154 1253.96 454.562
1725 0 110.316 13.7423 1516 103.277 1254.1 454.934
1726 0 114.36 13.5886 1554 103.235 1253.9 453.461
1727 0 117.304 13.0174 1527 104.261 1253.36 450.316
1728 0 116.146 11.5974 1347 109.637 1253.02 449.248
1729 0 122.191 10.9746 1341 109.594 1253.96 445.681
1730 0 124.177 11.7896 1464 107.381 1253.41 444.65
1731 1 66.0952 9.5771 633 104.57 1252.78 463.06
1732 0 69.0299 11.1691 771 102.584 1253.33 466.825
1733 0 72.2843 10.1682 735 99.0816 1253.9 462.644
1734 0 73.1928 9.45448 692 94.1127 1254.16 465.134
1735 0 72.1872 10.1957 736 96.6508 1253.66 460.043
1736 0 77.0701 10.1985 786 95.2735 1253.61 461.768
1737 0 74.0731 8.2891 614 101.215 1253.76 454.881
1738 0 82.242 8.20749 675 99.5807 1253.48 457.784
1739 0 84.2264 10.3649 873 96.7262 1253.44 458.001
1740 0 88.2338 11.2202 990 96.2121 1253.42 456.411
1741 0 91.1625 10.9036 994 96.3592 1253.98 455.664
1742 0 92.2122 11.4952 1060 97.0472 1253.43 449.97
1743 0 99.2403 11.326 1124 98.4039 1252.72 449.359
1744 0 100.232 11.3337 1136 100.181 1253.25 447.07
1745 0 108.27 12.6351 1368 99.2412 1253.68 447.115
1746 0 110.286 12.1774 1343 102.867 1252.84 445.482
1747 0 115.232 15.2301 1755 96.098 1253.02 439.671
1748 0 118.226 12.1039 1431 103.115 1252.6 439.783
1749 1 65.1952 10.9517 714 101.221 1252.66 466.87
1750 0 65.1244 10.1498 661 105.25 1252.86 465.643
1751 0 72.0893 11.0419 796 103.069 1252.9 467.454
1752 0 74.0806 11.8925 881 102.254 1252.89 466.078
1753 0 76.0848 12.7884 973 100.55 1253.37 464.466
1754 0 77.1045 11.7762 908 101.037 1253.47 464.806
1755 0 79.0526 12.1691 962 101.729 1252.86 462.147
1756 0 84.0743 12.0251 1011 101.897 1253.09 460.925
1757 0 85.0738 11.8721 1010 103.07 1252.34 459.895
1758 0 86.0461 12.7374 1096 102.453 1253.01 454.814
1759 0 92.1037 13.2568 1221 100.861 1253.27 456.518
1760 0 93.1494 12.6141 1175 103.338 1253.42 453.624
1761 0 97.1624 13.2253 1285 101.705 1253.46 454.955
1762 0 99.0706 14.7672 1463 99.2563 1253 452.138
1763 0 100.145 13.0311 1305 103.256 1253.01 451.753
1764 0 102.138 12.6496 1292 105.159 1253.22 446.01
1765 0 107.073 13.8784 1486 102.034 1253.68 447.054
1766 0 107.104 12.9501 1387 103.666 1253.56 441.585
1767 0 114.087 13.9105 1587 100.311 1253.17 443.853
1768 0 110.12 12.0869 1331 104.068 1253.62 442.81
1769 0 115.136 11.3779 1310 105.773 1253.73 439.824
1770 0 120.25 11.393 1370 105.358 1254.03 438.05
1771 0 123.331 11.5542 1425 104.771 1254.56 437.43
1772 0 132.32 13.2859 1758 99.2378 1254.9 435.282
1773 1 80.2172 10.1225 812 100.14 1254.1 462.754
1774 0 81.252 10.9413 889 100.309 1253.8 459.63
1775 0 85.193 11.3742 969 99.42 1254.02 458.065
1776 0 84.1602 11.4544 964 100.576 1253.34 455.846
1777 0 87.2675 12.5247 1093 97.8948 1253.75 457.048
1778 0 94.2811 12.7703 1204 96.4651 1254.13 455.549
1779 0 96.2965 13.5623 1306 95.8032 1253.9 453.946
1780 0 98.2259 12.4713 1225 99.489 1253.96 449.537
1781 0 100.282 12.9335 1297 98.7024 1253.29 449.082
1782 0 105.29 12.0809 1272 100.092 1253.99 447.333
1783 0 109.364 13.9533 1526 96.6822 1253.86 448.518
1784 0 113.291 14.2377 1613 96.2294 1254.5 445.691
1785 0 116.444 13.792 1606 97.853 1254.42 442.115
1786 0 120.5 13.5436 1632 98.9197 1254.19 442.914
1787 0 123.538 13.5182 1670 99.8311 1253.52 440.152
1788 0 128.396 12.8587 1651 102.445 1253.93 435.074
1789 0 128.558 11.9557 1537 104.312 1254.34 431.939
1790 0 135.239 12.8809 1742 100.144 1254 433.665
1791 0 137.416 12.5385 1723 98.9965 1254.6 431.97
1792 1 78.3049 10.6507 834 93.2422 1254.84 461.777
1793 0 77.144 9.48874 732 89.0833 1254.57 461.798
1794 0 79.0993 9.08984 719 91.3463 1254.6 459.968
1795 0 82.1396 10.8961 895 89.3251 1253.75 458.117
1796 0 85.279 10.7529 917 90.0534 1253.66 458.08
1797 0 86.1628 7.834 675 95.4089 1254.71 454.493
1798 0 91.3216 11.0708 1011 91.2285 1254.16 454.533
1799 0 90.2158 8.3134 750 96.4413 1255.21 450.896
1800 0 97.1571 10.447 1015 92.9025 1254.42 451.778
1801 0 99.2302 8.74734 868 96.2293 1254.31 450.949
1802 0 100.096 8.62176 863 97.9664 1254.15 449.036
1803 0 106.282 10.4157 1107 96.3912 1254.65 445.628
1804 0 108.113 10.563 1142 96.6716 1255.21 448.405
1805 0 114.232 10.6187 1213 98.3759 1254.82 444.938
1806 0 114.253 10.8006 1234 100.102 1255.12 443.393
1807 0 123.3 11.6788 1440 99.8236 1255.71 438.901
1808 1 70.1343 9.01128 632 95.5032 1256.74 467.35
1809 0 74.135 11.5195 854 96.9016 1256.19 468.938
1810 0 78.2062 12.9401 1012 92.5751 1256.9 469.031
1811 0 80.2069 10.7472 862 95.978 1256.78 468.754
1812 0 84.1645 13.5687 1142 89.9221 1256.3 468.462
1813 0 86.1063 12.3104 1060 93.2924 1256.03 464.11
1814 0 89.1682 12.5045 1115 92.0341 1255.22 463.707
1815 0 88.1167 12.3813 1091 93.5069 1255.63 464.523
1816 0 93.1172 11.856 1104 93.6051 1255.95 462.745
1817 0 96.087 13.29 1277 91.1331 1255.48 460.713
1818 0 99.1307 12.4482 1234 93.0081 1256.04 458.842
1819 0 102.084 12.5974 1286 92.6687 1256.47 458.443
1820 0 104.149 11.618 1210 94.8818 1256.02 457.733
1821 0 108.17 13.1552 1423 93.0562 1256 451.909
1822 0 112.103 12.8096 1436 93.0111 1255.99 452.023
1823 1 64.0794 12.7498 817 91.4578 1256.22 477.7
1824 0 65.1067 10.6901 696 96.0704 1255.6 478.352
1825 0 68.0913 12.3804 843 92.0237 1254.85 473.549
1826 0 66.1597 11.3816 753 88.8313 1255.71 466.024
1827 0 69.198 11.1853 774 89.7196 1255.86 465.665
1828 0 72.2093 11.7298 847 88.477 1254.99 466.469
1829 0 71.0758 10.7069 761 91.6807 1255.04 463.922
1830 0 75.1352 11.8852 893 88.8567 1255.18 466.056
1831 0 76.1491 11.4775 874 90.3993 1255.19 462.654
1832 0 78.2678 11.3968 892 90.5661 1255.29 460.962
1833 0 82.1672 11.2697 926 91.933 1254.95 457.503
1834 0 83.2495 13.0091 1083 89.4681 1254.8 458.312
1835 0 85.233 10.6531 908 93.6806 1255.25 459.645
1836 0 89.2139 11.3659 1014 93.9103 1254.32 453.413
1837 0 91.2701 12.4575 1137 92.5075 1255.29 455.894
1838 0 94.1447 12.9375 1218 92.9926 1254.92 453.683
1839 0 97.3633 12.5612 1223 94.5192 1254.79 453.985
1840 0 99.3199 13.0387 1295 94.861 1254.49 450.963
1841 0 102.189 12.1931 1246 97.9446 1254.66 450.77
1842 0 102.28 13.8346 1415 97.7018 1254.97 448.658
1843 0 106.214 13.5858 1443 99.4373 1254.95 448.768
1844 0 109.197 15.8613 1732 96.7154 1254.63 448.587
1845 0 109.191 13.1238 1433 105.329 1254.72 444.685
1846 0 116.293 14.601 1698 101.263 1254.96 445.122
1847 0 118.27 14.0442 1661 103.169 1254.82 442.837
1848 0 126.292 14.4664 1827 101.236 1255.75 440.114
1849 0 128.345 14.9753 1922 100.986 1255.51 439.39
1850 0 135.201 14.7411 1993 101.249 1254.87 436.398
1851 0 140.301 13.9415 1956 103.794 1254.12 431.698
1852 1 76.0476 10.0332 763 108.439 1255.12 464.017
1853 0 77.1573 10.6665 823 109.273 1254.51 460.358
1854 0 81.1315 11.6108 942 105.607 1254.45 463.13
1855 0 83.1044 10.4206 866 107.417 1254.99 463.727
1856 0 84.0657 9.84944 828 111.703 1254.48 457.958
1857 0 91.1438 11.5203 1050 108.453 1254.06 457.231
1858 0 93.0651 9.90704 922 112.406 1254.32 453.113
1859 0 97.2253 11.5608 1124 107.632 1254.41 454.08
1860 0 97.1058 12.3268 1197 108.119 1254.21 450.688
1861 0 101.195 10.5539 1068 112.545 1253.94 449.349
1862 0 103.158 10.2561 1058 112.926 1253.97 449.706
1863 0 106.132 11.2124 1190 112.556 1253.96 445.258
1864 0 109.107 10.9159 1191 113.12 1254.04 443.951
1865 0 109.091 12.1183 1322 112.232 1254.77 439.004
1866 0 111.138 10.2845 1143 114.64 1253.97 440.862
1867 0 120.258 11.5003 1383 111.456 1254.45 437.194
1868 0 122.118 9.90027 1209 115.165 1255.05 433.382
1869 0 126.236 11.2884 1425 112.103 1254.27 433.118
1870 0 132.215 11.7612 1555 110.417 1253.89 429.711
1871 0 136.307 10.6011 1445 111.206 1254.43 431.18
1872 0 140.324 10.939 1535 109.611 1254.85 428.011
1873 0 145.282 11.4123 1658 108.627 1254.46 425.778
1874 0 151.43 10.7773 1632 109.751 1254.53 424.841
1875 0 156.326 12.5955 1969 106.5 1254.59 423.297
1876 0 159.289 11.8276 1884 108.691 1254.47 424.354
1877 0 165.332 11.4981 1901 110.451 1254.37 417.956
1878 0 169.36 13.0904 2217 107.381 1255.23 420.401
1879 0 175.355 12.392 2173 109.888 1254.58 414.832
1880 0 181.281 12.3785 2244 109.189 1254.68 415.235
1881 0 185.293 11.5492 2140 112.567 1254.26 407.806
1882 0 190.238 11.7589 2237 113.415 1254.53 405.183
1883 0 198.365 12.4871 2477 113.528 1254.41 404.861
1884 0 204.347 13.6434 2788 111.671 1255.01 400.883
1885 0 209.318 12.8417 2688 112.644 1254.73 400.525
1886 0 214.328 12.3316 2643 113.328 1254.62 396.068
1887 0 222.202 12.4166 2759 113.599 1254.84 392.268
1888 0 229.287 12.818 2939 113.052 1253.93 387.924
1889 0 238.436 13.5214 3224 110.452 1254.06 385.06
1890 0 244.281 13.1652 3216 112.348 1253.68 381.631
1891 0 251.489 12.9509 3257 113.887 1254.52 374.498
1892 1 202.31 10.914 2208 111.56 1253.69 403.183
1893 0 212.398 13.5265 2873 108.48 1253.39 401.576
1894 0 218.271 12.9335 2823 111.82 1253.75 396.143
1895 0 227.211 12.6886 2883 114.353 1254.47 389.516
1896 0 234.319 11.6209 2723 116.218 1254.41 388.018
1897 0 242.411 11.8477 2872 116.14 1253.92 380.124
1898 0 252.373 11.8396 2988 114.774 1254.21 378.342
1899 1 296.261 21.3832 6335 87.7788 1254.02 341.972
1900 1 199.339 12.5515 2502 106.645 1254.9 406.489
1901 0 203.315 12.0306 2446 110.502 1253.86 408.009
1902 0 211.39 12.6307 2670 110.109 1253.71 397.966
1903 0 216.402 11.4232 2472 113.106 1253.52 396.379
1904 0 225.456 12.1665 2743 111.688 1254.27 394.882
1905 0 233.517 12.6243 2948 110.811 1254.41 385.981
1906 0 239.388 11.7466 2812 112.053 1254.04 386.393
1907 0 247.418 13.944 3450 106.789 1253.8 385.619
1908 0 254.543 12.6894 3230 109.738 1254.31 378.732
1909 1 200.374 11.2041 2245 108.211 1254.89 409.692
1910 0 206.559 12.1563 2511 109.544 1254.97 400.039
1911 0 218.529 14.2544 3115 104.324 1254.2 405.35
1912 0 222.488 12.8996 2870 109.46 1254.12 396.014
1913 0 226.428 12.6574 2866 111.22 1253.61 390.196
1914 0 236.545 13.1349 3107 110.03 1254.47 390.398
1915 0 243.501 13.7002 3336 110.063 1253.98 383.3
1916 0 252.459 13.4557 3397 110.687 1254.03 378.724
1917 0 258.433 12.5642 3247 112.287 1254.22 380.945
1918 0 267.324 12.6924 3393 113.01 1254.58 373.668
1919 0 277.486 13.5971 3773 111.73 1254.13 368.232
1920 1 213.453 13.5955 2902 109.804 1254.79 402.749
1921 0 222.367 13.6621 3038 109.901 1254.08 399.411
1922 0 228.642 14.7567 3374 107.839 1254.46 384.848
1923 0 232.462 13.0903 3043 113.291 1254.07 383.208
1924 0 241.388 14.6154 3528 109.755 1253.62 380.3
1925 0 247.363 13.3973 3314 113.355 1253.72 381.109
1926 0 255.365 12.8287 3276 114.652 1254.11 376.464
1927 0 265.582 13.5664 3603 113.382 1253.76 370.162
1928 1 204.456 12.3156 2518 115.879 1254.65 397.715
1929 0 211.371 12.9772 2743 113.681 1255.02 398.173
1930 0 217.482 13.7391 2988 112.796 1254.68 391.542
1931 0 224.491 12.6108 2831 117.327 1254.27 387.983
1932 0 233.494 12.9297 3019 118.351 1254.67 387.323
1933 0 239.551 13.3709 3203 118.649 1254.3 379.019
1934 0 243.683 12.467 3038 121.702 1254.67 367.211
1935 1 14.0592 5.69023 80 80.2125 1256.36 491.412
1936 0 12.0025 6.49863 78 81.9359 1256.76 492.09
1937 0 15.0504 5.38191 81 83.6667 1256.85 493.099
1938 0 19.146 6.581 126 83.8413 1256.32 496.492
1939 0 18.096 5.69187 103 87.8641 1255.75 495.311
1940 1 73.0657 9.94994 727 96.9739 1253.81 475.882
1941 0 74.174 10.8798 807 98.6344 1253.41 470.126
1942 0 77.0656 11.5097 887 93.9955 1253.79 469.301
1943 0 77.044 9.89045 762 97.5722 1253.79 468.831
1944 0 82.1642 10.9658 901 96.2875 1254.14 468.579
1945 0 85.1382 11.6516 992 95.4476 1254.58 465.695
1946 0 87.1266 11.0873 966 96.7723 1254.94 465.006
1947 0 88.1333 11.1649 984 97.5346 1254.91 463.751
1948 0 91.0877 12.219 1113 97.8589 1255.03 462.536
1949 0 94.1024 12.0932 1138 100.178 1254.12 461.79
1950 0 95.1749 10.5595 1005 104.903 1253.58 459.322
1951 0 98.0806 12.1839 1195 103.145 1254.93 458.572
1952 0 101.11 12.3331 1247 104.273 1254.82 456.072
1953 0 104.153 10.9839 1144 116.142 1254.19 454.823
1954 0 109.107 11.4108 1245 113.079 1254.3 452.693
1955 0 109.276 11.4481 1251 115.153 1254.49 450.859
1956 0 114.157 12.1499 1387 113.03 1256.3 449.935
1957 0 115.147 11.4463 1318 147.175 1258.31 450.85
1958 0 120.092 11.7326 1409 115.821 1256.65 448.317
1959 0 121.191 13.6562 1655 113.853 1255.7 445.734
1960 0 125.296 13.3364 1671 115.085 1255.86 441.275
1961 0 127.073 13.5827 1726 116.346 1255.49 441.236
1962 0 129.16 12.8368 1658 119.99 1254.86 440.113
1963 0 133.206 12.8448 1711 119.357 1254.94 441.408
1964 0 138.318 13.4401 1859 118.181 1254.54 435.67
1965 0 138.328 12.1089 1675 120.38 1255.2 434.323
1966 0 143.402 13.4099 1923 117.09 1255.69 430.16
1967 0 152.622 18.2936 2792 102.812 1255.47 421.447
1968 0 152.597 13.0605 1993 118.692 1255.29 421.492
1969 0 156.524 13.8445 2167 116.477 1255.61 425.129
1970 0 161.522 13.1561 2125 118.149 1255.5 417.618
1971 0 163.54 12.7492 2085 120.965 1255.97 415.113
1972 0 169.529 12.6822 2150 120.799 1255.44 415.266
1973 0 172.521 11.8362 2042 123.482 1255.64 411.872
1974 0 179.414 13.9844 2509 117.886 1255.49 409.377
1975 0 186.507 14.7019 2742 117.314 1254.66 406.153
1976 0 187.463 13.1332 2462 123.009 1254.33 398.799
1977 0 194.544 14.0123 2726 120.897 1254.51 398.468
1978 0 200.483 14.0012 2807 120.585 1254.86 400.49
1979 0 204.411 13.106 2679 123.958 1254.97 395.388
1980 0 207.377 12.282 2547 128.036 1255.25 385.857
1981 0 216.435 13.9164 3012 123.657 1254.69 386.971
1982 0 220.378 14.035 3093 125.133 1254.82 386.118
1983 0 229.471 15.2002 3488 120.277 1254.51 382.02
1984 0 236.456 14.0703 3327 123.997 1253.78 378.997
1985 0 243.302 14.8827 3621 124.685 1253.8 373.602
1986 0 251.277 14.8243 3725 127.761 1253.77 368.953
1987 1 56.0454 5.54907 311 103.476 1254.1 460.068
1988 0 68.2546 9.97736 681 102.552 1254.11 473.113
1989 0 65.1663 8.37856 546 103.932 1255.72 473
1990 0 68.1154 9.5573 651 106.467 1256.26 474.172
1991 0 70.0965 8.51683 597 111.173 1255.45 471.415
1992 0 70.0818 10.3736 727 108.875 1254.94 472.724
1993 0 73.0904 9.75504 713 112.569 1254.91 467.903
1994 0 73.0645 10.1965 745 112.142 1254.78 469.919
1995 0 78.1863 10.6668 834 111.837 1254.67 465.303
1996 0 81.2939 11.7106 952 109.602 1253.39 463.859
1997 0 82.3661 10.5747 871 114.145 1253.25 462.766
1998 0 83.2859 9.19724 766 115.952 1253.76 465.956
1999 0 87.4253 8.36143 731 121.607 1254.51 457.416
2000 0 97.4357 8.51844 830 117.108 1254.37 461.869
2001 0 96.5025 9.79249 945 115.578 1254.29 457.234
2002 0 96.4556 10.6163 1024 114.596 1254.66 454.765
2003 0 98.4172 10.2421 1008 116.819 1254.47 449.165
2004 1 37.4393 8.17322 306 94.1274 1254.91 485.359
2005 0 37.1708 6.48358 241 95.722 1254.95 491.203
2006 0 38.2723 6.6889 256 97.2617 1253.59 489.754
2007 0 39.1503 8.53122 334 94.6168 1254.35 486.195
2008 0 37.3127 6.99494 261 96.6782 1255.41 484.751
2009 0 27.1049 6.16124 167 99.4731 1257.13 489.246
2010 0 36.309 5.53582 201 93.0199 1255.04 477.368
2011 0 39.4518 9.17576 362 85.2127 1255.72 481.428
2012 0 40.3079 5.40837 218 93.0046 1256.67 482.674
2013 0 37.3261 6.91205 258 87.7558 1256.24 480.915
2014 0 43.166 8.36306 361 86.5651 1256.98 480.92
2015 0 43.1492 9.0384 390 87.6897 1257.25 481.362
2016 0 44.0348 7.31239 322 91.1366 1255.88 487.578
2017 0 44.0985 7.98213 352 93.0312 1254.38 484.159
2018 0 44.0616 8.32924 367 95.8038 1257.26 488.648
2019 0 45.0568 8.36722 377 95.4642 1256.78 486.345
2020 1 85.1228 10.7609 916 97.0033 1255.41 467.723
2021 0 85.1277 8.82204 751 102.767 1255.58 465.33
2022 0 85.2632 9.39445 801 104.363 1254.74 459.145
2023 0 88.2269 10.133 894 103.819 1254.91 462.35
2024 1 52.1331 7.80695 407 99.4398 1256.56 479.87
2025 0 54.1034 8.35437 452 97.5288 1256.48 483.644
2026 0 52.0729 7.18225 374 101.366 1256.31 482.594
2027 0 55.0702 8.93406 492 98.2764 1256.24 480.175
2028 0 53.1142 7.11674 378 101.979 1256.54 479.844
2029 0 54.1229 7.8525 425 101.645 1256.58 478.581
2030 0 57.0765 9.14562 522 100.994 1256.17 477.956
2031 0 57.0829 8.26868 472 101.034 1255.25 480.977
2032 0 58.1131 8.03605 467 103.06 1254.05 477.54
2033 0 59.1558 8.67201 513 102.329 1253.59 475.932
2034 0 59.0863 8.51297 503 103.686 1254.22 475.012
2035 0 63.2082 9.82467 621 100.997 1253.85 473.554
2036 0 63.2181 9.4435 597 100.779 1253.54 473.898
2037 0 65.2954 7.94849 519 102.212 1253.17 474.746
2038 0 71.2236 7.7362 551 102.472 1253.97 473.094
2039 0 69.2237 9.56319 662 100.997 1254.23 469.101
2040 0 68.2542 8.43904 576 100.764 1254.13 474.443
2041 0 68.1589 8.64157 589 102.637 1254.24 470.435
2042 0 71.2339 9.23718 658 103 1254.15 467.632
2043 1 11.0059 6.63283 73 89.3425 1251.6 496.315
2044 0 9.00125 1.55534 14 96.0714 1251.36 496
2045 0 11.01 4.08719 45 90.5333 1250.8 496.911
2046 0 13.0147 4.99436 65 88.6615 1251 496
2047 0 12.0138 6.2428 75 87.4267 1251.77 495.733
2048 0 12.007 3.24811 39 89.0769 1250.92 497.18
2049 0 12.0084 4.74669 57 87.9474 1252.44 495.579
2050 0 8.0005 3.87476 31 91.871 1251.87 495.387
2051 0 10.0013 6.29918 63 87.0794 1251.79 494.048
2052 0 9.00191 1.66631 15 93 1251.67 495.4
2053 0 12.0138 4.82779 58 87.931 1252.14 494.638
2054 0 10.0061 3.99754 40 87.575 1252.92 496.675
2055 1 182.611 12.8853 2353 113.058 1254.79 411.074
2056 0 187.32 12.823 2402 114.593 1254.61 406.838
2057 0 191.432 11.4035 2183 118.928 1254.13 404.605
2058 0 198.509 13.0624 2593 116.217 1253.69 397.982
2059 0 205.625 13.0772 2689 116.317 1253.68 395.345
2060 0 212.597 13.114 2788 116.442 1253.63 389.336
2061 1 151.378 8.15839 1235 116.441 1254.36 419.336
2062 0 155.402 10.6627 1657 110.565 1254.84 423.178
2063 0 162.394 11.392 1850 108.291 1254.56 419.03
2064 0 162.379 9.04059 1468 113.962 1254.67 409.353
2065 0 172.506 11.1706 1927 108.006 1254.81 415.742
2066 0 177.459 10.2897 1826 110.298 1254.27 409.431
2067 0 182.577 11.984 2188 107.628 1254.41 410.38
2068 0 186.399 11.6524 2172 108.685 1254.24 407.066
2069 0 190.439 12.8072 2439 107.393 1253.73 405.67
2070 0 195.565 11.229 2196 111.679 1253.93 402.458
2071 0 200.209 12.7317 2549 109.14 1253.93 397.292
2072 0 207.202 12.8329 2659 108.547 1254.34 398.349
2073 0 211.458 10.6594 2254 114.142 1254.44 391.95
2074 0 221.444 12.0753 2674 113.05 1254.27 387.219
2075 1 56.1155 9.92596 557 96.0162 1256.06 476.248
2076 0 57.1063 10.2616 586 94.186 1256.13 478.038
2077 0 54.0321 8.1248 439 91.3827 1255.05 478.497
2078 0 54.1238 8.55446 463 91.879 1254.42 475.97
2079 1 256.6 12.1551 3119 115.359 1253.47 364.719
2080 0 265.669 12.0601 3204 114.997 1253.65 364.571
2081 0 272.63 11.6825 3185 115.554 1253.61 368.381
2082 0 280.769 12.4088 3484 116.853 1253.38 351.247
2083 0 286.743 9.91131 2842 122.827 1253.66 343.955
2084 1 66.2375 10.6737 707 94.5601 1254.83 471.373
2085 0 67.0465 10.9029 731 94.87 1255.08 471.416
2086 0 68.0613 8.94782 609 101.378 1254.49 469.916
2087 0 70.1696 9.84756 691 101.622 1254.75 469.473
2088 0 74.0354 9.29285 688 103.035 1254.55 468.975
2089 0 78.0519 10.8389 846 100.348 1255.2 471.022
2090 0 79.1992 12.2855 973 100.42 1255.29 468.762
2091 0 79.1089 10.5424 834 104.335 1255.15 468.312
2092 0 78.1425 9.841 769 108.575 1254.77 465.306
2093 0 81.2324 9.06042 736 108.72 1253.06 463.717
2094 0 85.1064 11.703 996 104.994 1253.86 462.052
2095 0 86.1825 9.45668 815 111.421 1253.6 460.978
2096 0 90.1691 10.7132 966 108.537 1254.03 461.546
2097 0 92.117 12.5818 1159 106.33 1254.32 459.317
2098 0 95.1146 12.3115 1171 108.825 1253.16 459.613
2099 0 96.1723 12.54 1206 110.287 1253.27 455.503
2100 0 98.1901 13.4841 1324 109.587 1252.49 455.636
2101 0 102.267 12.7412 1303 110.483 1253.13 454.685
2102 0 101.157 10.8248 1095 117.81 1252.67 450.696
2103 0 106.149 11.8042 1253 116.017 1252.98 449.985
2104 0 114.121 13.0388 1488 111.644 1253.27 446.034
2105 0 116.131 13.5451 1573 110.843 1253.03 448.93
2106 0 119.287 13.7651 1642 111.138 1253.54 444.382
2107 0 124.218 14.8288 1842 107.491 1253.14 442.349
2108 1 73.0315 10.4065 760 113.255 1254.46 468.495
2109 0 68.0319 9.27506 631 113.602 1255.19 436.079
2110 0 71.108 10.927 777 101.189 1253.96 426.372
2111 0 71.108 11.0536 786 126.908 1253.97 426.433
2112 0 76.1205 10.1287 771 103.913 1253.61 449.49
2113 0 74.1279 10.1311 751 104.746 1253.84 457.293
2114 0 80.0859 10.8758 871 101.641 1254.85 456.982
2115 0 85.1169 10.6912 910 99.8648 1254.73 456.937
2116 0 83.1897 9.92911 826 103.453 1254.21 454.498
2117 0 89.1791 12.5926 1123 97.236 1254.29 456.74
2118 0 89.1716 12.6049 1124 99.718 1254.42 453.046
2119 0 94.1084 12.7619 1201 99.2673 1253.76 453.083
2120 0 97.173 11.8654 1153 102.297 1253.79 450.197
2121 0 97.1094 10.2359 994 106.288 1254.47 449.792
2122 0 99.0841 11.4347 1133 104.906 1254.47 448.169
2123 0 104.063 12.9921 1352 100.495 1254.69 449.268
2124 0 104.171 12.2106 1272 104.315 1255.04 446.898
2125 0 108.079 11.6211 1256 110.49 1254.11 455.428
2126 0 111.065 11.8489 1316 111.782 1253.09 451.795
2127 0 115.173 12.6766 1460 109.286 1253.62 450.085
2128 0 118.07 12.9669 1531 108.754 1253.52 448.72
2129 0 120.112 12.58 1511 110.547 1253.08 445.081
2130 0 124.121 12.3428 1532 109.373 1252.64 447.333
2131 0 125.138 12.3064 1540 112.349 1252.61 440.634
2132 0 132.146 12.6754 1675 110.634 1252.57 439.439
2133 0 136.199 13.8987 1893 107.741 1252.93 438.759
2134 0 139.176 12.5093 1741 111.575 1252.81 435.414
2135 0 144.141 13.4452 1938 112.008 1253.45 434.658
2136 0 148.243 12.8505 1905 116.725 1253.59 434.434
2137 0 153.247 13.7425 2106 115.706 1253.42 427.247
2138 1 90.1781 10.0911 910 111.086 1253.57 462.951
2139 0 92.1663 10.8174 997 110.624 1253.47 458.603
2140 0 97.1723 12.4315 1208 106.715 1253.64 461.393
2141 0 98.11 11.691 1147 105.865 1252.79 460.768
2142 0 99.1441 11.8514 1175 106.61 1252.84 457.308
2143 0 104.118 12.966 1350 103.78 1252.74 453.33
2144 0 107.198 12.2297 1311 106.712 1252.51 453.675
2145 0 110.122 12.8222 1412 106.159 1252.43 448.711
2146 0 114.053 12.8712 1468 106.178 1252.69 447.96
2147 0 118.1 13.497 1594 104.859 1251.85 445.911
2148 0 121.183 13.3517 1618 105.119 1252.36 445.629
2149 0 124.226 12.3967 1540 107.856 1252.14 440.883
2150 0 128.169 13.2871 1703 105.164 1252.28 442.089
2151 0 132.103 11.4683 1515 109.35 1252.74 437.82
2152 1 79.0494 11.4612 906 102.9 1252.15 464.444
2153 0 72.088 10.9172 787 107.409 1254.3 456.908
2154 0 75.0756 10.9756 824 106.427 1254.5 457.567
2155 0 79.312 10.9315 867 107.228 1253.66 452.612
2156 0 80.1715 11.65 934 104.351 1254.08 455.329
2157 0 83.1232 11.104 923 106.945 1253.72 452.168
2158 0 85.1511 10.3698 883 108.824 1254.08 448.362
2159 0 89.2684 10.6645 952 108.082 1253.96 449.27
2160 0 98.1486 11.3807 1117 104.095 1253.74 451.682
2161 0 100.198 10.9683 1099 106.364 1253.24 447.55
2162 0 98.2198 11.7084 1150 105.936 1253.06 442.77
2163 0 102.223 11.0444 1129 108.317 1253.25 438.705
2164 0 107.113 12.0153 1287 106.014 1253.13 436.789
2165 0 110.237 10.042 1107 105.751 1253.71 439.274
2166 0 115.184 11.677 1345 106.356 1253.76 446.56
2167 0 121.157 12.8841 1561 104.443 1253.61 441.951
2168 1 69.0915 8.91572 616 102.765 1253.76 466.094
2169 0 65.1699 9.52894 621 101.161 1254.06 457.886
2170 1 75.1198 10.4367 784 106.713 1252.48 465.107
2171 0 76.1026 10.0128 762 99.773 1251.93 468.332
2172 0 82.0894 11.9626 982 95.7475 1251.7 468.614
2173 0 83.1864 9.97759 830 99.4892 1252.1 467.341
2174 0 87.103 12.6861 1105 95.6769 1252.52 464.617
2175 0 88.123 10.2016 899 101.172 1252.56 464.19
2176 0 89.1471 10.2864 917 101.706 1252.27 463.638
2177 0 94.2084 11.188 1054 100.087 1252.52 463.05
2178 0 95.0496 11.8359 1125 100.316 1252.61 460.372
2179 0 97.0705 9.81761 953 104.427 1252.51 459.742
2180 0 101.161 11.4767 1161 100.568 1252.52 457.849
2181 0 104.183 10.3664 1080 103.709 1252.75 455.385
2182 0 108.261 11.4076 1235 102.189 1252.94 452.581
2183 0 111.237 11.417 1270 102.442 1252.76 453.824
2184 0 113.102 11.3438 1283 103.394 1252.05 452.231
2185 0 118.179 11.9565 1413 102.79 1253.26 447.889
2186 0 121.155 12.9504 1569 99.863 1253.39 444.119
2187 0 127.184 13.2485 1685 98.289 1254.5 443.678
2188 0 130.213 11.8115 1538 101.652 1253.87 443.348
2189 0 134.21 12.9275 1735 100.371 1253.79 441.331
2190 0 138.304 12.928 1788 100.522 1254.57 440.619
2191 0 141.26 13.5495 1914 99.2231 1254.07 438.863
2192 0 143.191 12.2773 1758 103.764 1253.72 434.175
2193 0 147.275 11.8961 1752 105.531 1253.82 433.262
2194 0 153.242 13.1687 2018 103.309 1254.15 427.789
2195 0 155.264 11.3613 1764 108.218 1254.16 426.909
2196 0 163.352 12.2741 2005 107.243 1253.28 430.669
2197 0 167.2 13.0503 2182 106.548 1252.69 420.944
2198 0 171.301 12.6386 2165 108.818 1252.61 417.146
2199 0 177.282 11.4619 2032 111.363 1252.33 419.795
2200 0 183.23 11.5429 2115 111.901 1252.71 412.925
2201 0 187.35 11.8068 2212 111.041 1252.88 413.54
2202 0 193.265 11.1402 2153 113.607 1253.24 410.966
2203 0 199.273 11.1305 2218 114.412 1252.6 407.913
2204 0 205.31 12.844 2637 112.309 1252.85 393.181
2205 0 212.339 13.0546 2772 113.494 1253.16 395.896
2206 0 219.512 13.6712 3001 111.039 1254.14 395.129
2207 0 228.325 13.9363 3182 111.841 1253.77 386.342
2208 1 173.203 10.7619 1864 112.349 1254.2 417.976
2209 0 181.306 11.3896 2065 109.893 1254.27 419.316
2210 0 186.276 12.2829 2288 111.04 1253.71 410.263
2211 0 190.151 11.6854 2222 113.441 1253.48 406.106
2212 0 198.433 13.5159 2682 109.878 1252.98 404.152
2213 0 205.237 12.0982 2483 113.691 1253.1 396.499
2214 0 212.329 12.9987 2760 111.98 1252.19 396.981
2215 0 221.492 14.154 3135 109.144 1252.58 393.662
2216 0 228.529 13.5037 3086 110.884 1253.03 389.439
2217 0 235.643 13.7199 3233 110.465 1253.08 387.08
2218 1 64.3252 9.7318 626 101.794 1253.89 470.43
2219 0 64.1776 10.5333 676 95.4778 1253.03 466.516
2220 0 64.1217 10.9011 699 95.6223 1252.57 469.376
2221 0 64.0405 9.29099 595 100.659 1251.95 465.316
2222 0 69.1244 12.0073 830 93.2241 1252.23 464.9
2223 0 70.1002 11.0271 773 96.925 1252.31 465.327
2224 0 75.0346 12.3943 930 100.955 1251.46 469.108
2225 0 78.0771 12.2443 956 101.438 1251.67 469.496
2226 0 80.1784 13.1332 1053 99.8775 1252.18 468.726
2227 0 79.0434 9.43785 746 99.3968 1252.15 469.063
2228 0 82.1088 11.57 950 95.4316 1252.4 468.551
2229 0 84.1055 10.9505 921 96.8447 1251.9 466.746
2230 0 87.1167 11.0312 961 95.2674 1251.98 469.07
2231 0 87.0807 9.807 854 100.612 1251.94 461
2232 0 89.0918 10.6632 950 100.145 1251.89 461.607
2233 0 95.1492 11.1929 1065 98.6479 1252.43 460.532
2234 0 97.1439 11.9925 1165 97.3236 1252.82 456.85
2235 1 115.094 14.701 1692 86.9344 1252.92 451.833
2236 0 117.119 18.1354 2124 82.7166 1252.55 448.992
2237 0 113.122 14.8777 1683 91.7944 1252.18 447.415
2238 0 119.213 15.8791 1893 90.663 1253.34 446.602
2239 0 122.194 14.8371 1813 91.9123 1252.86 443.36
2240 0 122.447 11.7112 1434 98.9979 1252.38 448.568
2241 0 124.337 12.0398 1497 97.7522 1251.62 447.412
2242 0 127.289 11.1007 1413 99.0778 1254.26 446.427
2243 0 126.227 10.4494 1319 106.407 1254.55 450.39
2244 1 74.0709 12.164 901 97.6138 1255.37 469.215
2245 0 83.0852 16.8381 1399 84.6733 1254.6 464.657
2246 0 86.0868 14.648 1261 89.1562 1254.81 465.182
2247 0 81.0877 10.4208 845 101.084 1255.4 468.735
2248 0 84.1679 11.4058 960 99.6625 1255.18 467.297
2249 0 86.0952 10.6045 913 101.502 1255.29 467.54
2250 0 87.0462 11.9017 1036 99.7886 1254.9 465.782
2251 0 90.1403 12.9354 1166 98.5394 1255.21 461.828
2252 0 92.0777 12.9673 1194 98.2052 1254.81 464.125
2253 0 95.1206 12.8153 1219 99.4438 1254.54 460.661
2254 0 99.0548 13.1644 1304 98.4847 1254.27 457.745
2255 0 102.097 13.8103 1410 97.1064 1254.14 457.515
2256 0 105.104 14.519 1526 96.291 1254.21 454.72
2257 0 108.056 13.2987 1437 97.833 1254.29 456.093
2258 0 110.167 12.9894 1431 99.7421 1254.02 453.781
2259 0 112.173 12.9889 1457 100.047 1253.95 449.69
2260 0 118.15 13.212 1561 99.148 1253.6 445.928
2261 1 68.0935 11.3227 771 100.467 1254 470.783
2262 0 69.1544 10.9176 755 101.864 1254.05 471.454
2263 0 71.0343 12.135 862 101.281 1253.84 469.882
2264 0 73.0782 11.7819 861 103.281 1253.58 471.13
2265 0 73.0824 9.83822 719 108.68 1253.43 471.339
2266 0 73.1203 10.7084 783 108.065 1252.5 469.488
2267 0 77.1665 11.7408 906 106.404 1251.61 471.829
2268 0 82.1031 13.0689 1073 102.591 1251.02 472.826
2269 0 81.1212 10.4905 851 110.908 1250.35 469.73
2270 0 85.2889 11.5607 986 108.409 1251.01 469.257
2271 0 85.2827 11.5616 986 111.999 1250.96 465.889
2272 0 90.2051 12.9815 1171 107.959 1250.96 467.676
2273 0 95.1819 12.8281 1221 109.157 1250.25 463.93
2274 0 97.3764 12.272 1195 112.044 1249.96 461.153
2275 0 100.307 12.6811 1272 112.752 1249.33 461.204
2276 0 104.299 13.864 1446 110.95 1249.56 464.793
2277 0 109.27 13.7733 1505 111.641 1249.09 462.38
2278 0 112.206 14.0634 1578 111.953 1248.71 458.755
2279 0 115.122 14.9233 1718 109.492 1248 452.031
2280 0 118.138 14.3815 1699 109.865 1247.84 448.109
2281 0 123.216 15.5418 1915 106.972 1247.26 447.528
2282 1 68.0506 11.4327 778 112.942 1247.16 479.545
2283 0 68.089 10.6185 723 116.783 1246.79 479.864
2284 0 72.0544 12.3795 892 113.066 1246.81 475.779
2285 0 75.0666 13.135 986 114.342 1246.95 478.379
2286 0 78.0442 13.4027 1046 113.465 1247.06 476.636
2287 0 83.0717 13.3499 1109 112.333 1246.77 477.785
2288 0 85.0907 14.2084 1209 111.305 1245.7 474.657
2289 0 85.088 13.5154 1150 114.322 1246.06 474.518
2290 0 89.1881 14.4078 1285 111.717 1246.73 473.946
2291 0 91.1319 12.9044 1176 115.804 1246.44 471.672
2292 0 95.2834 13.6435 1300 114.678 1246.27 467.632
2293 0 97.2131 13.1361 1277 115.54 1247.64 466.848
2294 0 99.1293 13.7901 1367 114.402 1247.18 466.239
2295 0 105.072 14.5995 1534 112.152 1247.79 465.774
2296 0 108.12 14.4746 1565 111.866 1248.33 465.578
2297 0 111.376 14.1234 1573 113.612 1248.56 458.98
2298 0 114.268 14.6061 1669 112.424 1248.13 459.017
2299 0 119.323 14.6995 1754 111.223 1248.15 462.341
2300 0 122.267 14.4029 1761 112.929 1248.07 458.685
2301 0 126.176 13.9012 1754 113.794 1248.04 457.577
2302 0 133.133 14.9851 1995 110.783 1247.92 455.395
2303 0 136.342 15.0577 2053 109.65 1247.44 447.063
2304 0 141.601 14.5408 2059 106.477 1247.36 446.983
2305 1 78.2604 13.4423 1052 106.329 1248.36 477.133
2306 0 79.4568 13.0637 1038 109.66 1248.16 475.744
2307 0 81.3261 14.4357 1174 107.101 1248.15 473.871
2308 0 84.3743 13.1201 1107 110.099 1247 473.067
2309 0 88.0472 15.0601 1326 102.383 1246.97 478.701
2310 0 90.2382 13.42 1211 107.518 1246.55 473.742
2311 0 94.1968 13.5036 1272 106.619 1246.38 474.393
2312 0 97.2041 15.1331 1471 104.761 1246.49 472.462
2313 0 97.2045 13.4665 1309 109.726 1247.08 469.172
2314 0 102.31 15.2087 1556 105.767 1246.66 469.501
2315 0 103.254 14.1495 1461 109.862 1246.9 464.135
2316 0 105.19 13.642 1435 111.469 1246.21 464.167
2317 0 107.253 14.7129 1578 109.684 1246.41 462.166
2318 0 112.335 15.0621 1692 109.111 1246.37 460.244
2319 0 115.227 14.3629 1655 110.451 1246.75 458.891
2320 0 117.384 14.2438 1672 111.578 1247.13 457.709
2321 0 118.145 13.7881 1629 113.076 1246.76 454.324
2322 0 125.293 14.5738 1826 109.766 1247.34 453.342
2323 0 131.474 14.6873 1931 109.068 1247.39 453.356
2324 0 132.317 13.9816 1850 111.333 1247.54 448.128
2325 0 138.295 13.7171 1897 111.3 1247.75 447.896
2326 0 141.437 13.172 1863 112.907 1248.2 445.871
2327 0 147.33 13.5682 1999 111.178 1247.39 442.744
2328 0 152.42 13.1741 2008 111.692 1247.3 437.821
2329 1 89.2935 12.8229 1145 109.246 1247.59 469.555
2330 0 90.3314 13.539 1223 106.471 1247.42 469.443
2331 0 93.3448 13.3805 1249 106.645 1248.23 467.407
2332 0 96.3262 14.4924 1396 102.37 1248.04 467.11
2333 0 99.2235 12.7792 1268 105.647 1247.65 465.964
2334 0 102.268 13.7678 1408 102.974 1248.32 463.423
2335 0 105.32 14.2802 1504 102.352 1247.48 458.726
2336 0 109.417 13.9101 1522 102.447 1247.6 457.825
2337 0 113.374 13.0983 1485 103.371 1247.25 457.398
2338 0 112.251 11.7772 1322 108.008 1247.02 455.852
2339 0 119.222 11.4995 1371 107.799 1247.1 454.813
2340 0 121.231 12.5958 1527 105.764 1247.24 454.648
2341 0 127.426 13.71 1747 103.567 1247.78 445.846
2342 0 132.333 14.063 1861 102.491 1247.72 444.077
2343 1 74.2928 12.7199 945 105.034 1247.93 472.12
2344 0 77.3084 13.6596 1056 103.261 1248.56 469.808
2345 0 79.2534 12.6304 1001 106.417 1248.25 469.255
2346 0 80.2614 11.8239 949 108.688 1248.97 467.73
2347 0 84.2428 13.7697 1160 105.542 1248.73 465.103
2348 0 87.377 14.7751 1291 103.675 1249.09 463.485
2349 0 89.2361 14.2431 1271 105.759 1248.7 461.043
2350 0 95.2838 14.7035 1401 104.176 1249.01 461.01
2351 0 93.3273 12.8044 1195 110.723 1249.04 458.986
2352 0 100.294 13.3707 1341 109.014 1248.99 456.629
2353 0 101.174 14.0748 1424 108.768 1249.91 452.306
2354 0 104.279 14.0393 1464 109.433 1250.35 452.57
2355 0 107.219 14.0087 1502 110.015 1250.16 451.258
2356 0 106.136 12.6536 1343 115.511 1250.14 450.958
2357 0 112.257 12.1151 1360 116.303 1249.71 450.698
2358 0 115.194 13.1343 1513 114.892 1250.02 447.436
2359 0 117.29 12.2091 1432 117.351 1250.75 448.381
2360 0 120.178 13.7963 1658 115.059 1250.61 440.486
2361 0 127.176 14.5704 1853 111.259 1250.7 439.801
2362 0 129.163 13.1849 1703 115.477 1249.95 439.44
2363 0 135.259 13.0786 1769 113.728 1250.24 439.571
2364 0 139.328 11.5627 1611 116.844 1250.18 437.161
2365 1 81.1526 12.6675 1028 115.234 1249.65 463.739
2366 0 83.1566 14.3344 1192 112.409 1250 460.565
2367 0 86.2364 13.6137 1174 113.551 1250.49 460.204
2368 0 88.1502 14.3959 1269 111.275 1250.79 459.512
2369 0 90.1367 14.7554 1330 112.077 1250.33 457.844
2370 0 95.276 13.5711 1293 113.729 1250.07 458.346
2371 0 99.1563 14.8755 1475 110.62 1250.33 454.837
2372 0 102.141 14.5876 1490 111.805 1250.7 452.974
2373 0 104.204 14.6635 1528 111.415 1251.17 452.931
2374 0 110.17 14.9859 1651 110.184 1251.18 450.42
2375 0 112.217 15.4166 1730 109.699 1251.54 448.431
2376 0 115.179 14.7336 1697 112.374 1251.24 445.089
2377 0 117.265 13.9854 1640 115.063 1250.88 445.819
2378 0 123.257 15.1715 1870 111.701 1251.22 441.826
2379 0 124.252 13.7543 1709 116.33 1251.24 439.105
2380 0 130.187 14.0106 1824 113.929 1251.23 438.681
2381 0 137.25 13.9381 1913 112.92 1251.21 438.163
2382 0 140.363 13.4722 1891 113.599 1251.78 434.709
2383 0 146.276 14.3906 2105 111.232 1251.8 432.407
2384 1 76.1521 11.7922 898 120.994 1251.71 464.791
2385 0 78.0906 13.9069 1086 117.828 1251.57 462.92
2386 0 81.1041 14.204 1152 116.602 1251.98 462.306
2387 0 86.1119 14.7018 1266 114.263 1252.91 461.489
2388 0 87.1093 14.3613 1251 117.436 1252.73 458.566
2389 0 89.1509 14.3128 1276 118.443 1252.52 457.433
2390 0 92.1127 13.9937 1289 118.832 1252.7 457.306
2391 0 95.0788 14.6089 1389 118.562 1251.92 451.991
2392 0 97.1055 13.7067 1331 122.325 1251.77 453.026
2393 0 102.116 14.6011 1491 119.781 1251.43 450.793
2394 0 107.095 15.1828 1626 116.884 1252.26 452.053
2395 0 109.1 14.7662 1611 119.374 1252.33 448.73
2396 0 109.189 13.7285 1499 124.515 1252.55 450.308
2397 0 112.064 13.3941 1501 126.084 1252.13 445.947
2398 0 117.064 13.3261 1560 125.79 1252.09 445.08
2399 0 120.183 13.7208 1649 125.559 1251.09 442.987
2400 0 126.13 13.9459 1759 124.308 1251.75 440.861
2401 0 129.102 14.0199 1810 124.699 1251.83 439.244
2402 1 73.0847 13.6691 999 126.662 1251.56 465.585
2403 0 76.0652 13.8828 1056 126.447 1251.86 465.091
2404 0 75.128 13.7232 1031 128.474 1252.41 464.421
2405 0 80.1039 15.1304 1212 124.303 1251.93 461.151
2406 0 81.2366 16.1996 1316 121.012 1252.02 459.336
2407 0 85.1204 15.0963 1285 123.862 1252.11 458.988
2408 0 87.1629 14.731 1284 124.714 1252.06 458.004
2409 0 87.084 14.1128 1229 128.434 1252.49 454.662
2410 0 91.1656 14.9508 1363 125.938 1252.33 454.238
2411 0 94.1232 14.311 1347 127.886 1251.78 454.44
2412 0 97.1648 14.2747 1387 127.84 1252.05 451.059
2413 0 102.074 15.8806 1621 122.382 1252.76 450.374
2414 0 104.303 14.7263 1536 125.754 1252.71 447.465
2415 0 108.187 15.0295 1626 124.776 1252.46 444.402
2416 0 111.298 15.4271 1717 122.924 1252.27 446.678
2417 0 115.24 16.4439 1895 118.928 1252.12 442.997
2418 0 121.274 15.3784 1865 119.89 1252.23 442.406
2419 0 124.173 14.1174 1753 123.141 1252.31 439.398
2420 0 129.216 14.2784 1845 122.243 1251.86 438.692
2421 1 67.0932 12.6689 850 131.934 1251.64 461.773
2422 0 70.0188 13.9248 975 127.328 1251.73 461.402
2423 0 77.0656 14.2865 1101 122.96 1251.91 461.603
2424 0 77.1289 13.7951 1064 125.303 1251.95 461.036
2425 0 82.1931 15.2689 1255 120.624 1251.73 458.968
2426 0 85.2039 14.3655 1224 122.463 1252.03 457.944
2427 0 86.0837 15.4268 1328 121.059 1252.33 455.326
2428 0 87.1126 13.6375 1188 127.03 1251.9 455.758
2429 0 91.1191 14.8706 1355 123.838 1251.68 453.308
2430 0 93.1625 14.8772 1386 124.664 1252.26 452.531
2431 0 96.145 14.6862 1412 125.503 1252.46 451.452
2432 0 99.3509 14.3431 1425 126.356 1251.76 449.985
2433 0 101.206 14.4952 1467 127.026 1251.52 448.224
2434 0 105.104 15.8605 1667 122.894 1251.67 446.886
2435 0 109.048 14.975 1633 126.202 1251.35 444.682
2436 0 114.142 15.1653 1731 124.631 1252.51 443.714
2437 0 114.212 13.7464 1570 131.019 1251.96 442.516
2438 0 120.103 14.9371 1794 126.949 1251.43 437.392
2439 0 124.12 15.7992 1961 124.055 1251.89 437.635
2440 0 128.069 15.4057 1973 126.175 1251.86 434.314
2441 0 130.085 14.3752 1870 130.725 1251.75 432.505
2442 0 134.113 14.361 1926 130.875 1252.12 431.884
2443 0 140.2 13.7732 1931 132.661 1251.57 428.62
2444 0 144.106 13.8578 1997 134.762 1251.65 423.357
2445 0 149.129 15.671 2337 129.407 1251.33 425.711
2446 0 157.265 14.7204 2315 133.665 1251.5 420.797
2447 0 160.163 15.0659 2413 134.869 1250.87 416.354
2448 0 166.352 14.5174 2415 138.489 1251.01 413.231
2449 0 171.144 15.7295 2692 135.559 1250.84 408.801
2450 1 96.2023 11.9956 1154 137.669 1251.43 449.921
2451 0 96.141 11.9616 1150 141.923 1251.44 445.356
2452 0 102.267 13.367 1367 136.68 1251.66 443.842
2453 0 105.171 13.0549 1373 138.967 1251.62 440.417
2454 0 111.089 15.0419 1671 131.45 1251.35 437.473
2455 0 113.249 14.1635 1604 134.111 1252.31 436.521
2456 0 116.282 12.3923 1441 139.821 1252.01 435.76
2457 0 119.202 14.2028 1693 135.137 1252.13 431.722
2458 0 124.211 14.419 1791 134.682 1252.46 430.647
2459 0 126.211 13.1446 1659 139.102 1252.29 428.215
2460 0 134.269 14.2847 1918 134.967 1252.08 425.624
2461 0 138.141 13.906 1921 136.95 1251.81 422.188
2462 0 145.322 13.7419 1997 136.455 1251.73 421.287
2463 0 149.27 14.0953 2104 136.119 1252.53 420.126
2464 0 153.248 14.9626 2293 134.729 1251.61 414.117
2465 0 157.264 13.9828 2199 136.669 1251.89 414.153
2466 0 165.398 14.2686 2360 135.279 1252.26 411.867
2467 0 166.495 13.7061 2282 137.813 1252.62 410.102
2468 0 173.276 15.9515 2764 132.271 1252.72 405.275
2469 0 177.367 15.0084 2662 136.972 1252.63 402.602
2470 0 182.33 14.3366 2614 139.872 1252.94 399.8
2471 0 190.294 14.3147 2724 138.171 1252.62 397.108
2472 0 197.312 14.4188 2845 135.63 1252.67 394.123
2473 0 204.508 14.8307 3033 134.072 1252.88 387.116
2474 0 212.482 14.3824 3056 135.506 1252.81 384.084
2475 0 218.54 13.6314 2979 139.071 1252.36 378.878
2476 0 228.316 15.3647 3508 133.576 1252.9 376.964
2477 0 235.562 14.3996 3392 137.64 1252.2 372.037
2478 0 244.334 14.3042 3495 135.557 1252.19 375.417
2479 0 254.51 15.4022 3920 133.962 1252.25 362.576
2480 1 197.301 12.7217 2510 137.09 1252.83 393.644
2481 0 204.543 13.0731 2674 138.665 1252.33 383.164
2482 0 212.481 14.0907 2994 135.759 1251.84 379.615
2483 0 219.568 13.6769 3003 137.366 1252.18 380.129
2484 0 228.615 13.6824 3128 137.433 1252.16 371.816
2485 1 79.3053 10.7433 852 117.58 1252.02 450.245
2486 0 82.2209 10.3745 853 118.225 1252.05 448.082
2487 0 83.2666 9.60769 800 120.239 1252.38 450.606
2488 0 84.3226 8.94185 754 123.253 1252.06 448.552
2489 1 29.1611 3.63497 106 96.2924 1254.02 480.745
2490 0 28.0536 2.85168 80 99.25 1255.55 478.912
2491 0 28.0057 2.85656 80 96.35 1254.99 477.838
2492 0 30.0669 5.72058 172 95.6454 1254.16 473.483
2493 0 27.06 4.80414 130 97.2154 1254.36 472.731
2494 0 33.0135 5.78551 191 94.3717 1254.81 473.791
2495 0 36.014 4.47049 161 95.7578 1255.07 472.932
2496 1 111.453 9.31337 1038 130.997 1251.76 427.796
2497 0 112.462 10.3324 1162 129.645 1251.87 423.711
2498 0 119.431 11.8228 1412 124.017 1252.34 426.719
2499 0 117.441 10.2604 1205 131.545 1252.41 423.194
2500 0 123.324 11.3765 1403 126.826 1252.9 426.479
2501 0 123.327 8.51398 1050 140.729 1252.28 414.13
2502 0 128.43 10.3324 1327 133.779 1253.1 416.244
2503 0 131.317 9.54944 1254 139.179 1252.45 409.613
2504 0 133.336 10.5223 1403 136.319 1252.52 411.101
2505 0 142.257 11.198 1593 132.69 1252.13 413.195
2506 0 146.304 9.25469 1354 140.531 1251.88 406.606
2507 0 149.359 10.0295 1498 138.708 1251.77 405.261
2508 0 153.319 10.1162 1551 139.867 1252.76 401.172
2509 0 158.203 10.5813 1674 138.532 1252.51 401.716
2510 0 163.231 12.2342 1997 133.507 1252.74 405.721
2511 0 169.307 11.9723 2027 135.196 1252.91 401.437
2512 0 174.362 12.0668 2104 135.193 1252.7 399.633
2513 0 178.299 12.3837 2208 135.136 1252.64 393.945
2514 0 179.375 12.2091 2190 137.437 1252.96 395.603
2515 0 186.357 11.5316 2149 141.615 1252.7 390.837
2516 0 189.266 10.6622 2018 147.539 1253.09 381.371
2517 0 198.425 12.6143 2503 139.326 1253.03 390.727
2518 0 203.277 12.2247 2485 143.239 1252.8 382.556
2519 0 208.276 11.4943 2394 147.927 1252.48 379.035
2520 0 214.429 11.8361 2538 147.799 1252.44 377.557
2521 0 219.369 11.6698 2560 149.992 1253.26 369.526
2522 0 227.341 13.8382 3146 142.18 1253.06 373.733
2523 0 233.415 12.6513 2953 148.652 1253.33 366.222
2524 0 239.524 12.5123 2997 151.079 1252.63 360.493
2525 0 247.36 12.3787 3062 152.105 1252.62 347.914
2526 0 251.417 12.7517 3206 152.018 1253.01 345.22
2527 0 261.377 13.3141 3480 149.663 1252.84 344.747
2528 0 264.312 11.5923 3064 158.646 1252.28 330.313
2529 1 95.345 4.75117 453 107.466 1255.04 458.589
2530 0 95.3526 4.58299 437 107.703 1255.05 455.032
2531 1 34.1763 4.6816 160 101.7 1254.21 480.375
2532 0 30.1568 6.1346 185 100.789 1254.53 481.778
2533 0 30.0778 4.25563 128 102.523 1254.88 482.617
2534 0 31.1403 4.65635 145 96.9379 1254.99 485.697
2535 0 25.055 5.78727 145 98.4828 1255.3 487.262
2536 0 18.0204 4.38392 79 97.7975 1255.66 489.354
2537 0 24.0228 5.03688 121 88.4876 1252.72 488.595
2538 0 25.0097 7.87695 197 86.3452 1252.45 489.259
2539 0 26.0015 5.69199 148 90.8649 1253.3 491.074
2540 0 25.0255 4.55535 114 93.079 1253.18 488.307
2541 0 27.0488 6.72858 182 89.7253 1252.95 488.357
2542 0 28.0089 8.39019 235 87.5319 1253.74 488.277
2543 0 21.042 8.12661 171 93.0058 1255.36 490.047
2544 0 26.0355 7.60501 198 93.9192 1255.22 490.631
2545 0 29.0164 8.65029 251 90.9004 1254.81 488.988
2546 0 27.0349 9.24729 250 92.1 1255.5 489.172
2547 0 27.1145 8.11373 220 95.6273 1255.26 488.786
2548 0 28.0871 7.61915 214 96.8551 1254.91 489.762
2549 0 29.0943 7.73348 225 97.6178 1255.46 489.707
2550 0 30.0411 9.32057 280 94.5357 1255.01 489.143
2551 0 30.025 8.45962 254 97.9094 1254.76 489.437
2552 0 32.2691 9.48276 306 95.4608 1252.76 488.222
2553 0 32.1598 9.85704 317 93.6688 1255.5 489.467
2554 0 32.0327 8.83472 283 97.9823 1255.11 489.254
2555 0 32.0729 10.6009 340 94.4 1255.42 489.215
2556 0 33.1122 9.09032 301 96.4485 1254.95 489.804
2557 0 33.0918 10.3651 343 95.3469 1255.24 489.187
2558 0 33.0747 10.6426 352 94.9347 1255.07 488.912
2559 0 31.11 9.51461 296 99.3514 1254.43 489.922
2560 0 35.0826 10.404 365 94.8356 1254.6 489.844
2561 0 34.0837 9.91677 338 95.7811 1254.88 488.787
2562 0 35.1685 11.061 389 92.671 1254.56 490.314
2563 0 34.1214 9.99373 341 96.9619 1254.8 490.375
2564 0 36.1411 11.2338 406 92.5813 1254.83 489.82
2565 0 36.0537 11.3164 408 93.3358 1254.62 489.176
2566 0 35.1786 10.2903 362 96.2845 1254.63 489.028
2567 0 37.0466 10.4733 388 94.4278 1255.69 488.466
2568 0 36.0888 10.8344 391 94.8005 1254.4 489.627
2569 0 34.1066 8.97186 306 100.722 1254.14 490.908
2570 0 34.2598 10.7415 368 96.106 1253.49 487.753
2571 0 35.3434 9.33697 330 100.158 1253.03 481.042
2572 0 34.4767 11.718 404 95.2648 1252.71 482.926
2573 0 35.4123 10.3354 366 97.2213 1252.94 483.011
2574 0 34.3817 10.3543 356 97.9438 1252.1 485.522
2575 0 36.0197 12.1045 436 93.0367 1251.49 486.323
2576 0 35.0764 11.0616 388 95.0258 1251.1 489.113
2577 0 36.1565 11.6715 422 92.5924 1251.52 487.964
2578 0 37.1771 12.4539 463 90.5205 1251.82 486.974
2579 0 37.3068 11.8745 443 91.6117 1251.46 486.02
2580 0 50.9248 13.7654 701 72.9458 1251.09 481.464
2581 0 48.0622 11.8596 570 81.5386 1251.78 485.586
2582 0 45.485 13.3011 605 78.5289 1252.08 483.405
2583 0 45.2184 18.1342 820 70.1207 1251.68 481.756
2584 0 44.1285 13.1434 580 81.1483 1251.75 487.007
2585 0 43.2484 13.0409 564 81.5532 1251.68 484.832
2586 0 42.1096 12.23 515 84.8097 1251.05 486.965
2587 0 45.2502 14.2983 647 76.9258 1251.59 485.485
2588 0 42.1287 14.8592 626 78.0687 1251.77 486.837
2589 0 41.1044 15.1322 622 79.4148 1251.63 485.891
2590 0 40.0776 13.2243 530 84.1849 1251.89 485.142
2591 0 39.1158 13.2172 517 85.8859 1252.2 488.25
2592 0 38.1099 11.7292 447 90.4676 1251.83 487.718
2593 0 36.1244 12.1248 438 90.4247 1251.96 488.05
2594 0 38.0378 11.3571 432 91.787 1251.88 489.72
