time division length width area intensity CMx CMy
0 0 51.0431 11.2846 576 139.526 1043.51 393.957
1 0 52.0609 12.1396 632 135.019 1043.92 392.922
2 0 52.0716 11.6954 609 137.617 1043.67 393.187
3 0 56.0814 13.6944 768 129.461 1043.64 392.195
4 0 58.1091 11.7882 685 133.962 1043.57 392.428
5 0 59.0725 12.6286 746 131.865 1044.09 391.268
6 0 59.0236 13.2828 784 130.284 1043.92 389.432
7 0 60.0464 13.1065 787 130.586 1043.3 390.938
8 0 63.0799 13.1104 827 129.781 1042.73 389.817
9 0 63.0463 12.0705 761 133.104 1042.64 389.321
10 0 66.0708 12.4109 820 131.349 1042.38 389.016
11 0 69.0567 13.0473 901 128.57 1042.46 387.706
12 0 72.0197 13.177 949 128.24 1041.65 386.592
13 0 73.0798 13.1089 958 130.301 1041.98 386.656
14 0 74.0841 13.0392 966 159.12 1041.99 386.722
15 0 77.0662 13.5987 1048 128.498 1041.32 384.59
16 0 79.1024 12.6798 1003 131.391 1041.73 382.828
17 0 84.1292 14.454 1216 129.594 1041.81 383.905
18 0 86.1541 14.4973 1249 136.605 1041.39 378.438
19 0 91.2282 14.1513 1291 134.799 1041.24 380.617
20 0 92.1725 13.6158 1255 131.305 1040.69 378.873
21 0 94.1373 13.4909 1270 132.28 1041.1 380.398
22 1 46.0357 12.5772 579 139.693 1040.65 401.971
23 0 49.021 12.974 636 138.077 1040.84 401.406
24 0 51.0826 13.762 703 135.209 1039.97 400.047
25 0 53.1477 13.2837 706 137.193 1040.76 399.222
26 0 54.0769 12.6117 682 138.897 1040.63 399.739
27 0 55.1965 12.7544 704 140.446 1040.63 398.524
28 0 57.1331 14.0024 800 137.444 1040.74 396.958
29 0 59.1258 14.1732 838 138.753 1040.22 396.436
30 0 62.1846 13.1383 817 141.982 1040.27 396.361
31 0 65.0961 15.0854 982 136.949 1039.89 394.665
32 0 67.1422 14.5959 980 139.953 1040.07 394.019
33 0 68.0542 14.7676 1005 141.674 1040 392.606
34 0 71.0919 13.6162 968 144.591 1040.99 391.423
35 0 73.1296 14.8914 1089 142.759 1040.75 390.228
36 0 78.144 15.7018 1227 140.338 1040.76 390.124
37 0 79.0711 15.543 1229 142.462 1039.98 386.092
38 0 82.0816 15.6308 1283 141.204 1039.87 385.159
39 0 85.054 15.2727 1299 142.092 1039.4 384.662
40 0 87.0921 14.9153 1299 142.615 1039.84 382.386
41 0 90.0924 15.3953 1387 140.594 1039.96 381.611
42 0 93.0768 15.6537 1457 140.391 1039.71 380.04
43 0 97.0456 16.9096 1641 134.422 1039.76 378.674
44 0 100.157 15.5556 1558 138.132 1039.28 375.626
45 0 103.177 15.3038 1579 137.87 1038.73 373.891
46 0 107.14 15.4284 1653 135.988 1038.96 374.325
47 1 57.1604 13.2434 757 136.271 1038.8 399.647
48 0 60.0822 13.0987 787 136.879 1038.8 396.835
49 0 61.1282 14.216 869 136.816 1038.57 395.276
50 0 64.0391 13.5386 867 139.512 1038.44 394.579
51 0 66.0209 13.7229 906 137.376 1038.33 393.276
52 0 69.0257 13.8354 955 136.062 1038.42 392.866
53 0 71.0922 14.5867 1037 133.069 1038.43 390.7
54 0 74.071 13.4466 996 135.296 1037.96 389.954
55 0 77.1492 13.9859 1079 131.866 1037.88 388.41
56 0 79.1015 13.4384 1063 134.165 1038.21 384.506
57 0 83.1993 13.702 1140 131.236 1037.76 384.986
58 0 87.2162 14.4583 1261 127.297 1037.89 385.22
59 0 90.1306 14.2904 1288 128.286 1038.14 383.185
60 0 92.1628 14.2357 1312 129.111 1038.02 381.224
61 0 95.3688 14.3443 1368 128.342 1037.32 381.781
62 0 100.141 14.0402 1406 128.683 1036.9 379.685
63 0 104.392 13.7079 1431 130.124 1037.52 378.292
64 1 55.1242 13.3154 734 125.909 1036.44 401.054
65 0 56.1813 13.5276 760 126.137 1037.24 398.042
66 0 57.11 12.8524 734 128.424 1037.72 397.995
67 0 57.11 12.8349 733 169.104 1038.74 398.06
68 0 59.0873 13.387 791 119.913 1038.52 402.714
69 0 62.0809 13.4985 838 119.507 1038.13 399.666
70 0 64.0837 13.2015 846 120.706 1038.32 398.869
71 0 67.0736 13.3436 895 120.994 1038.24 397.998
72 0 70.0743 13.3002 932 121.072 1038.3 397.643
73 0 71.0757 13.6193 968 122.153 1038.56 394.226
74 0 73.1374 13.4405 983 122.8 1038.5 393.189
75 0 78.1229 13.8884 1085 120.508 1038.47 393.701
76 0 80.096 13.9458 1117 124.98 1038.88 391.308
77 0 85.0769 13.9286 1185 123.648 1039.16 390.072
78 0 86.1311 13.5143 1164 125.23 1038.47 390.012
79 0 89.0777 13.7184 1222 125.002 1038.14 387.917
80 0 93.0636 14.6351 1362 119.273 1037.72 387.233
81 0 96.2657 13.1719 1268 125.354 1038.19 384.909
82 1 51.0384 11.7755 601 120.233 1038.41 406.952
83 0 52.0437 13.162 685 118.343 1037.95 405.797
84 0 54.0976 12.995 703 121.317 1037.31 402.892
85 0 53.1313 12.4785 663 122.932 1038.62 404.582
86 0 54.0961 12.6626 685 118.025 1037.82 405.58
87 0 56.1842 12.0319 676 119.027 1037.74 406.164
88 0 59.1008 13.4347 794 115.248 1037.8 405.224
89 0 58.0985 11.6526 677 121.103 1037.82 404.261
90 0 61.0676 13.133 802 118.212 1037.36 402.552
91 0 63.1025 12.2024 770 118.681 1037.49 403.925
92 0 63.1084 12.0269 759 120.225 1037.59 402.57
93 0 67.1263 12.6031 846 119.29 1037.59 401.26
94 0 70.1234 13.9611 979 117.121 1037.82 400.253
95 0 71.1271 13.3423 949 119.065 1037.66 397.723
96 0 74.1565 13.9435 1034 117.432 1036.97 398.142
97 0 77.1604 14.2171 1097 116.986 1037.75 394.55
98 0 80.158 13.6605 1095 119.22 1037.74 393.474
99 0 81.2377 12.7896 1039 123.301 1037.69 391.795
100 0 84.1203 13.8968 1169 123.633 1037.31 390.958
101 0 88.1595 14.2242 1254 122.763 1037.4 389.549
102 0 92.137 14.663 1351 121.32 1037.41 387.822
103 0 94.1757 13.2093 1244 124.62 1036.8 386.513
104 1 51.0425 12.088 617 118.6 1037.3 408.326
105 0 50.1832 11.1193 558 122.384 1036.32 405.937
106 0 52.1379 11.9107 621 121.224 1035.78 404.316
107 0 56.1897 13.3476 750 121.692 1036.01 401.511
108 0 57.1566 13.8042 789 119.62 1036.74 406.198
109 0 59.1063 14.0256 829 119.349 1037.13 405.182
110 0 60.1367 12.4716 750 124.189 1036.9 404.088
111 0 59.197 13.7845 816 117.071 1036.9 403.305
112 0 63.1209 13.1652 831 116.466 1037.11 402.7
113 0 65.1315 11.9758 780 119.403 1037.23 402.27
114 0 66.1158 12.8109 847 117.992 1037.34 399.835
115 0 67.1367 12.7054 853 119.035 1037.36 400.118
116 0 70.1039 11.8538 831 120.888 1037.08 397.757
117 0 74.1633 13.5377 1004 115.656 1037.21 396.752
118 0 76.0844 12.8147 975 118.147 1037.34 395.388
119 0 78.0707 13.1035 1023 118.235 1037.02 392.76
120 0 81.0989 13.7117 1112 115.118 1036.83 394.306
121 0 81.1233 12.6844 1029 118.106 1036.64 392.063
122 0 85.1688 13.0329 1110 116.714 1036.63 388.155
123 0 90.0562 12.3367 1111 117.544 1036.6 388.135
124 0 94.226 14.5289 1369 112.478 1037.4 387.667
125 0 97.2464 13.9028 1352 114.936 1036.53 385.299
126 0 99.1638 13.9265 1381 116.558 1036.34 381.586
127 0 104.178 14.9264 1555 113.643 1036.46 380.717
128 1 53.2005 12.4059 660 113.338 1037.52 405.432
129 0 53.1634 11.3048 601 115.496 1037.44 404.742
130 0 55.1379 12.1695 671 111.019 1037.19 404.568
131 0 57.2215 11.7613 673 113.572 1037.74 404.643
132 0 58.1366 12.4706 725 113.206 1037.6 404.503
133 0 60.0917 12.6973 763 109.277 1037.51 402.797
134 0 62.1492 13.178 819 108.408 1037.61 402.252
135 0 63.1672 14.0579 888 107.193 1037.31 401.392
136 0 66.1961 13.173 872 109.068 1037.28 400.456
137 0 67.1594 11.9864 805 113.697 1036.73 398.968
138 0 67.129 11.396 765 115.906 1037.07 397.995
139 0 72.0736 12.737 918 111.637 1037.21 397.812
140 0 73.0785 13.3008 972 111.467 1037.75 396.324
141 0 75.1597 12.6797 953 112.338 1037.15 395.862
142 0 79.1746 14.0197 1110 110.276 1036.93 392.81
143 0 79.1678 11.9493 946 115.848 1037.03 393.771
144 0 82.1969 13.6745 1124 113.46 1036.89 390.781
145 0 87.2139 13.8739 1210 111.956 1037.76 391.037
146 0 87.2139 13.8166 1205 151.887 1038.77 391.179
147 0 94.383 13.1274 1239 115.028 1036.99 387.47
148 0 96.4206 13.7004 1321 113.919 1037.65 386.927
149 0 98.2691 13.3206 1309 115.349 1037.76 383.121
150 0 103.288 13.0122 1344 115.952 1037.92 381.484
151 0 107.255 14.8805 1596 111.378 1037.53 380.144
152 0 109.235 14.0614 1536 112.35 1037.34 374.665
153 0 112.149 15.2832 1714 110.306 1037.59 375.169
154 0 114.204 14.2551 1628 113.299 1038.15 373.86
155 0 120.199 14.1765 1704 112.94 1037.27 371.034
156 0 123.172 13.7532 1694 113.123 1037.64 367.442
157 1 59.1025 10.5072 621 108.539 1037.92 401.375
158 0 64.0799 12.2659 786 102.427 1037.73 402.137
159 0 67.1312 13.6896 919 99.84 1037.45 400.453
160 0 69.2015 12.6731 877 102.633 1037.62 397.758
161 0 69.1166 13.4266 928 103.068 1037.4 395.071
162 0 73.1882 14.1006 1032 100.016 1037.69 397.156
163 0 74.1357 12.0725 895 105.317 1037 395.305
164 0 76.309 12.6197 963 105.507 1037 391.58
165 0 76.1505 11.5167 877 112.491 1037.13 390.561
166 0 76.1505 11.4904 875 144.711 1037.14 390.517
167 0 85.1731 14.0068 1193 104.97 1038.02 392.415
168 0 86.2558 13.7034 1182 107.789 1037.46 387.151
169 0 90.2756 12.8938 1164 108.061 1037.89 386.707
170 0 93.1381 12.3795 1153 107.479 1037.92 386.755
171 0 96.1248 12.8479 1235 105.868 1037.14 384.05
172 0 99.2851 13.7785 1368 104.824 1037.1 381.743
173 0 101.093 13.0474 1319 105.741 1037.04 384.25
174 0 105.194 14.2404 1498 104.611 1036.99 378.374
175 0 108.21 12.4203 1344 106.673 1037.03 380.634
176 0 114.214 11.9601 1366 108.858 1036.76 375.043
177 1 64.068 11.2849 723 102.325 1037.11 400.761
178 0 66.2164 11.4624 759 105.08 1036.76 397.145
179 0 68.2383 13.4822 920 106.35 1035.7 393.971
180 0 70.3194 12.1446 854 104.222 1035.93 396.111
181 0 72.419 13.0215 943 103.474 1037.21 393.334
182 0 74.3656 13.2319 984 103.328 1036.04 392.895
183 0 75.214 13.2289 995 104.824 1036.37 390.97
184 0 76.369 13.0027 993 106.082 1036.21 389.54
185 0 80.2666 13.8788 1114 103.092 1036.41 389.086
186 0 81.189 11.8982 966 107.172 1036.48 390.389
187 0 85.1923 13.358 1138 105.366 1036.33 387.352
188 0 89.3186 13.7709 1230 106.015 1036.32 386.241
189 0 90.3452 12.253 1107 114.076 1036.51 382.8
190 0 96.2508 13.9947 1347 109.221 1035.63 381.869
191 0 97.2301 14.6971 1429 108.917 1036.1 382.05
192 0 99.3276 12.3027 1222 114.227 1036.17 379.453
193 0 105.425 16.0209 1689 105.925 1037.35 379.361
194 0 108.252 13.2746 1437 112.409 1037.35 377.811
195 0 111.164 14.717 1636 106.152 1036.77 365.283
196 1 56.0291 9.70925 544 101.43 1036.65 389.268
197 0 60.188 11.4142 687 103.128 1037.47 402.568
198 0 59.2342 12.5265 742 104.104 1037.78 404.528
199 0 62.168 12.4019 771 105.288 1037.44 402.25
200 0 62.3324 12.1766 759 107.017 1036.92 400.611
201 0 65.2509 11.8159 771 106.261 1036.37 402.185
202 0 67.218 12.1694 818 106.681 1036.26 399.466
203 0 67.1491 12.3159 827 106.684 1036.42 399.325
204 0 69.2091 11.9348 826 108.331 1036.81 397.82
205 0 72.182 12.0806 872 107.904 1036.35 397.475
206 0 75.2123 13.1627 990 107.04 1036.29 395.357
207 0 75.1149 13.2597 996 107.114 1036.05 391.973
208 0 78.2592 13.4936 1056 106.537 1036.09 390.804
209 0 79.1018 12.073 955 110.473 1036.35 390.044
210 0 83.1062 13.7776 1145 106.762 1036.58 387.089
211 0 85.1022 11.5626 984 111.936 1036.17 385.927
212 0 88.2191 12.3896 1093 109.809 1036.24 382.765
213 0 91.0927 14.2712 1300 107.199 1035.78 377.133
214 0 93.1215 12.9508 1206 109.991 1035.75 375.283
215 0 95.1125 12.3223 1172 112.261 1035.71 373.561
216 1 53.0503 11.8567 629 103.362 1036.87 394.456
217 0 55.0173 11.3237 623 107.652 1036.66 396.051
218 0 54.1036 12.7163 688 102.571 1036.92 402.795
219 0 56.1415 12.326 692 102.938 1036.41 403.717
220 0 58.1617 12.0354 700 103.146 1036.76 402.63
221 0 60.1584 11.8022 710 104.399 1037.33 403.707
222 0 61.1066 10.5553 645 107.113 1036.62 401.808
223 0 64.1503 11.7225 752 104.199 1036.61 402.787
224 0 66.0867 13.3461 882 103.303 1037.38 399.337
225 0 68.0967 12.9962 885 104.594 1037.21 399.252
226 0 69.1225 12.731 880 106.58 1037.3 399.967
227 0 72.1248 12.6725 914 106.836 1037.04 398.484
228 0 75.1499 12.7079 955 107.595 1036.9 398.116
229 0 76.1371 13.1999 1005 107.889 1037.12 395.85
230 0 78.1219 12.8389 1003 110.828 1036.98 394.004
231 0 80.1173 11.5705 927 113.634 1036.99 394.578
232 0 82.2245 13.7185 1128 110.562 1037.18 392.302
233 0 85.1492 12.0964 1030 115.929 1037.42 390.884
234 0 86.165 13.184 1136 117.364 1037.39 387.533
235 0 91.1679 15.093 1376 113.264 1036.92 386.758
236 0 92.1488 13.4782 1242 118.932 1036.87 382.904
237 0 96.257 14.0769 1355 116.433 1036.59 383.258
238 0 99.2654 14.4461 1434 116.327 1036.49 381.084
239 0 102.177 14.1617 1447 117.46 1036.48 379.252
240 0 106.094 13.6765 1451 114.815 1036.54 370.057
241 1 54.062 10.0625 544 108.522 1035.82 393.309
242 0 56.0594 11.6127 651 105.375 1036.41 390.805
243 0 60.0848 13.6141 818 105.359 1036.94 404.005
244 0 60.0969 11.5147 692 110.685 1036.95 402.004
245 0 62.0954 13.7047 851 106.193 1037.32 401.184
246 0 65.0776 13.9833 910 106.254 1037.15 401.5
247 0 65.0491 13.0824 851 110.643 1036.89 399.145
248 0 69.1514 13.1162 907 109.342 1037.38 399.873
249 0 70.0384 12.536 878 112.104 1037.56 399.585
250 0 70.1089 12.5091 877 114.991 1038.11 396.255
251 0 74.1002 13.5492 1004 112.951 1037.05 393.084
252 0 76.1972 14.1606 1079 110.502 1035.63 393.698
253 0 79.208 13.7865 1092 112.673 1035.52 391.757
254 0 81.1114 14.4369 1171 111.851 1036.09 391.726
255 0 83.1638 13.7199 1141 115.707 1036.26 385.802
256 0 85.345 14.3887 1228 114.705 1036.34 388.128
257 0 89.4404 14.1994 1270 115.792 1036.35 388.084
258 0 89.1384 14.169 1263 115.678 1036.94 376.234
259 0 92.0532 14.0028 1289 116.756 1037.15 374.821
260 0 95.0983 13.4913 1283 119.382 1037.3 372.154
261 0 100.105 14.2351 1425 116.902 1037.35 367.584
262 0 103.101 14.3549 1480 117.486 1037.2 367.972
263 1 56.0382 11.7777 660 114.185 1037.53 392.832
264 0 56.0885 11.3036 634 115.091 1037.15 391.806
265 0 57.0323 11.7828 672 114.908 1036.91 391.412
266 0 59.1327 13.0723 773 115.109 1038.07 405.833
267 0 60.0883 12.9642 779 112.733 1038.41 405.551
268 0 61.1531 11.5775 708 117.405 1038.5 402.931
269 0 63.1279 12.7361 804 113.985 1038.01 403.203
270 0 66.133 11.5374 763 117.529 1037.71 401.865
271 0 69.1997 14.0174 970 111.653 1037.58 399.94
272 0 69.1245 13.6276 942 113.62 1037.4 400.294
273 0 71.1625 12.2396 871 118.268 1036.78 398.619
274 0 74.1579 13.296 986 116.963 1036.91 396.186
275 0 78.1732 14.0329 1097 114.424 1037.21 396.012
276 0 80.2414 13.2351 1062 116.674 1036.92 393.077
277 0 84.3223 13.8516 1168 115.58 1036.55 391.768
278 0 86.2326 13.7883 1189 117.621 1036.63 391.118
279 0 88.1551 12.6935 1119 121.371 1036.8 390.575
280 0 93.1322 14.925 1390 119.176 1036.68 388.188
281 0 95.2938 12.813 1221 124.461 1037.07 386.804
282 0 99.244 13.3006 1320 121.208 1036.63 384.451
283 1 51.1732 11.7835 603 116.556 1037.04 407.746
284 0 54.2639 13.7845 748 112.996 1037.32 406.013
285 0 56.1224 13.2211 742 118.588 1036.37 404.973
286 0 57.2373 12.7889 732 119.624 1037.17 404.611
287 0 61.1623 12.7202 778 118.772 1036.68 403.478
288 0 62.1421 13.2438 823 117.651 1037.76 401.971
289 0 64.1881 13.3202 855 117.605 1037.79 401.952
290 0 65.1202 13.7131 893 116.772 1037.62 400.634
291 0 67.1741 12.7728 858 120.128 1037.68 400.015
292 0 67.2681 12.8739 866 116.672 1036.71 401.45
293 0 69.3317 12.3753 858 119.737 1036.92 399.647
294 0 73.3362 13.104 961 118.263 1036.9 397.524
295 0 74.2456 12.6337 938 120.075 1036.85 397.89
296 0 76.2446 12.6829 967 122.538 1037.1 395.046
297 0 78.2479 13.8023 1080 122.657 1036.58 393.183
298 0 88.2835 13.9777 1234 87.3768 1036.97 392.784
299 0 84.1433 15.331 1290 118.105 1037.07 391.538
300 0 88.141 13.4784 1188 122.799 1037.39 389.94
301 0 89.1511 13.3033 1186 123.712 1037.32 385.721
302 0 90.1578 14.1973 1280 149.854 1038.34 387.386
303 0 96.1559 14.0709 1353 120.13 1036.65 386.307
304 0 100.187 13.8042 1383 121.179 1036.94 382.708
305 1 56.2292 11.4353 643 117.213 1036.91 405.602
306 0 58.2003 11.9931 698 113.126 1037.61 406.178
307 0 58.2125 10.4445 608 113.179 1037.27 403.553
308 0 58.1967 11.2549 655 111.656 1037.52 404.093
309 0 60.0857 10.718 644 113.3 1037.96 401.87
310 0 62.1064 11.3837 707 111.272 1036.89 401.511
311 0 63.0914 12.5849 794 108.788 1037.2 400.001
312 0 66.1649 13.6024 900 106.35 1036.91 398.778
313 0 67.1105 13.0382 875 107.197 1036.91 398.665
314 0 69.1063 13.0524 902 108.509 1036.47 395.891
315 0 71.1042 12.8544 914 109.068 1036.46 395.43
316 0 74.1292 13.0043 964 108.443 1035.56 393.199
317 0 77.1501 12.0155 927 110.246 1036.32 394.567
318 0 80.0926 13.0973 1049 107.841 1036.24 392.214
319 0 82.1189 14.0163 1151 106.474 1035.94 390.55
320 1 45.0562 10.6978 482 107.932 1037.07 411.602
321 0 45.029 12.9694 584 104.832 1037.53 409.702
322 0 46.0665 12.3951 571 106.644 1037.71 410.226
323 0 45.0261 12.9925 585 106.88 1036.83 407.598
324 0 48.0562 11.5906 557 107.779 1036.25 408.339
325 0 47.1039 11.6763 550 108.438 1036.82 408.2
326 0 51.0806 12.1573 621 105.646 1036.99 407.155
327 0 53.0865 11.7167 622 106.232 1037.04 406.362
328 0 52.0483 11.9697 623 105.986 1036.96 408.159
329 0 55.0839 13.1254 723 103.434 1037.75 406.028
330 0 54.084 12.1847 659 133.126 1038.59 404.677
331 0 57.0978 12.067 689 105.922 1037.41 404.952
332 0 60.1406 12.504 752 104.665 1037.07 403.052
333 0 62.1281 11.4441 711 106.451 1037.11 400.973
334 0 64.0824 13.4826 864 102.47 1037.35 399.802
335 0 65.2219 12.9558 845 103.586 1037.24 398.947
336 0 66.1538 12.4709 825 105.434 1036.9 397.886
337 0 70.1599 12.8563 902 103.554 1037.26 397.118
338 0 72.1298 12.2973 887 104.096 1037.39 396.94
339 0 73.2153 13.2076 967 103.741 1037.1 392.802
340 0 77.1418 14.4798 1117 101.75 1036.9 392.585
341 0 79.2252 13.4301 1064 104.496 1036.82 392.927
342 0 82.3064 12.4049 1021 111.023 1037.08 391.318
343 0 87.2433 13.6515 1191 107.372 1037.64 389.786
344 0 88.2098 14.0461 1239 107.304 1037.48 386.608
345 1 46.1038 11.7995 544 105.691 1038.01 409.265
346 0 48.3209 11.5892 560 106.461 1037.33 407.25
347 0 50.1289 11.6699 585 105.01 1037.31 405.858
348 0 50.1721 10.8825 546 104.63 1037.65 406.934
349 0 53.0759 12.8495 682 100.999 1038.2 406.343
350 0 50.0792 10.3836 520 107.237 1038.37 404.987
351 0 56.1514 13.2855 746 100.186 1037.63 403.878
352 0 57.1793 11.6825 668 103.374 1037.42 403.936
353 0 62.1095 12.4458 773 100.22 1037.83 404.043
354 0 63.0735 12.3824 781 101.02 1037.58 402.311
355 0 63.1429 11.4344 722 104.539 1037.95 398.802
356 0 67.0942 12.0428 808 102.735 1036.93 398.015
357 0 69.1367 11.7014 809 102.942 1037.47 399.337
358 0 72.2165 12.2133 882 101.837 1038.07 396.466
359 0 76.2092 13.2661 1011 100.168 1038.34 394.873
360 0 77.1756 12.2966 949 103.242 1037.74 394.462
361 0 81.1909 11.9718 972 102.764 1038.03 394.567
362 0 84.1463 12.2049 1027 101.993 1037.79 391.078
363 0 87.2765 12.1797 1063 101.757 1038.32 392.249
364 0 92.1146 12.8861 1187 100.597 1037.94 388.912
365 1 48.0985 11.6843 562 101.737 1038.2 410.004
366 0 52.211 12.0856 631 99.4818 1038.54 409.044
367 0 52.1508 13.1158 684 98.4547 1038.35 408.444
368 0 53.2585 11.6226 619 101.725 1038.16 406.383
369 0 54.1156 11.42 618 103.476 1038.59 406.914
370 0 57.0915 12.2435 699 101.817 1038.55 406.255
371 0 58.1024 12.0821 702 102.516 1039.13 406.382
372 0 59.0414 11.077 654 105.962 1038.77 405.554
373 0 61.1048 12.7486 779 103.736 1038.66 403.633
374 0 61.0962 10.819 661 109.649 1038.49 401.3
375 0 64.1534 12.6416 811 106.274 1038.69 401.645
376 0 67.067 11.8836 797 108.395 1038.79 401.348
377 0 71.1874 13.0501 929 105.973 1038.31 400.56
378 0 74.0864 13.6867 1014 106.118 1037.78 398.938
379 0 76.062 13.0157 990 108.916 1038.46 397.765
380 0 77.0359 12.5656 968 111.544 1037.67 394.791
381 0 80.0649 12.3275 987 112.129 1037.87 395.826
382 0 83.0227 13.5264 1123 112.169 1037.82 392.605
383 0 87.1329 14.0705 1226 111.093 1038.02 391.954
384 0 89.1412 11.8352 1055 115.945 1037.71 391.943
385 1 46.0384 12.2289 563 111.115 1037.88 411.478
386 0 47.0954 11.9757 564 116.273 1038.24 410.936
387 0 49.0556 12.3941 608 115.066 1038.28 410.576
388 0 50.1124 12.4321 623 113.607 1038.79 409.764
389 0 52.11 12.9534 675 112.767 1037.85 408.93
390 0 53.1338 12.0827 642 115.431 1037.79 408.952
391 0 54.1757 12.6994 688 113.192 1037.88 409.151
392 0 57.1835 13.1856 754 114.07 1038.16 405.468
393 0 56.0674 12.2353 686 118.257 1038.3 404.924
394 0 60.0858 13.0147 782 116.357 1037.57 404.426
395 0 62.1852 13.492 839 115.364 1037.58 403.459
396 0 63.038 12.9763 818 115.587 1037.36 404.7
397 0 66.094 14.6307 967 111.925 1038.3 400.867
398 0 66.0316 11.6762 771 118.789 1037.61 402.354
399 0 71.0338 14.7254 1046 110.83 1037.48 400.86
400 0 70.1578 12.5574 881 117.052 1037.35 400.366
401 0 73.1806 12.476 913 118.166 1037.14 398.221
402 0 76.1606 13.6422 1039 122.356 1038.29 397.018
403 0 80.1817 14.0306 1125 122.354 1037.67 394.754
404 0 82.0719 14.8163 1216 120.799 1037.12 393.427
405 0 84.0757 14.4869 1218 123.659 1037.3 391.414
406 0 87.1214 14.6233 1274 124.206 1036.98 387.83
407 0 89.1708 14.8928 1328 124.879 1037.53 386.133
408 0 95.3015 14.5328 1385 124.408 1037.94 385.336
409 0 99.2157 14.3022 1419 124.376 1037.19 383.942
410 0 101.361 14.8873 1509 123.646 1037.69 377.48
411 0 105.199 14.1541 1489 125.19 1037.66 378.136
412 0 108.199 13.7987 1493 126.433 1037.33 376.872
413 1 55.2247 11.5347 637 122.943 1037.28 401.166
414 0 57.3545 11.333 650 122.398 1037.71 402.962
415 0 57.3195 12.0901 693 122.326 1038.12 401.278
416 0 60.203 12.5907 758 110.369 1039.13 406.777
417 0 61.183 12.3237 754 109.629 1038.76 407.947
418 0 65.125 12.5144 815 109.633 1037.97 403.417
419 0 66.1425 11.6264 769 109.949 1039.04 405.999
420 0 68.1133 12.1122 825 111.536 1038.65 400.921
421 0 71.0972 12.926 919 110.101 1038.5 400.063
422 0 72.1183 11.9665 863 112.572 1038.49 399.855
423 0 74.1024 12.2803 910 111.949 1039.1 398.598
424 0 78.1988 12.7624 998 110.517 1038.11 396.763
425 0 80.1381 12.9277 1036 110.448 1037.76 395.56
426 0 82.1931 12.8478 1056 111.58 1038.11 393.142
427 0 85.1583 13.8096 1176 109.131 1038.3 392.502
428 0 88.1659 12.3857 1092 113.788 1037.82 389.082
429 0 92.1942 12.3652 1140 113.496 1037.52 389.555
430 0 95.1459 14.5566 1385 112.058 1038.02 386.697
431 0 96.1391 13.7821 1325 111.352 1038.61 389.164
432 0 100.211 13.1821 1321 114.295 1038.06 383.036
433 0 102.15 12.462 1273 116.192 1037.91 380.711
434 0 107.238 13.9503 1496 110.93 1037.97 383.836
435 0 108.186 11.8869 1286 117.298 1038.09 378.968
436 0 111.157 12.181 1354 117.117 1038.19 377.85
437 0 114.209 12.8186 1464 115.198 1037.81 377.843
438 0 119.182 13.6766 1630 113.388 1037.34 376.975
439 0 123.146 13.4069 1651 113.991 1037.62 372.85
440 0 128.168 13.771 1765 112.352 1038.12 370.251
441 0 131.132 13.2309 1735 113.971 1037.94 368.965
442 0 137.133 13.9208 1909 112.753 1037.66 368.527
443 0 139.14 12.0382 1675 118.608 1037.95 367.424
444 1 87.0751 12.9658 1129 111.987 1038.41 392.932
445 0 90.2226 11.527 1040 116.813 1038.52 389.818
446 0 93.1602 12.6986 1183 109.43 1038.64 391.48
447 0 94.1654 11.724 1104 112.914 1038.19 390.579
448 0 98.1512 12.3075 1208 111.358 1038.51 387.714
449 0 101.195 12.7476 1290 110.181 1038.12 386.757
450 0 105.21 13.0026 1368 110.609 1037.93 383.724
451 0 107.141 12.4509 1334 113.325 1038.17 377.996
452 0 111.203 13.5787 1510 110.656 1038.52 380.607
453 0 114.299 12.1961 1394 114.994 1038.56 377.13
454 0 121.326 13.3442 1619 113.13 1038.16 375.504
455 0 124.127 13.5265 1679 113.113 1038.77 373.884
456 0 128.164 13.0146 1668 114.905 1038.34 371.697
457 0 133.183 14.161 1886 113.17 1038.47 369.478
458 0 136.148 12.5525 1709 115.993 1038.46 370.318
459 0 141.125 13.6971 1933 114.099 1038.41 365.87
460 0 146.295 13.7804 2016 113.898 1038.25 361.392
461 0 148.153 12.5276 1856 117.471 1037.89 361.808
462 0 155.184 13.4228 2083 114.719 1037.85 363.3
463 0 162.19 15.0071 2434 112.084 1037.65 358.089
464 0 164.195 13.8737 2278 115.623 1038.61 360.172
465 0 170.234 13.4051 2282 118.152 1038.41 343.136
466 0 178.269 13.7433 2450 117.55 1037.36 342.058
467 0 183.179 13.1183 2403 122.767 1037.89 341.12
468 0 183.179 13.1511 2409 169.045 1037.88 340.889
469 1 103.08 12.9123 1331 119.748 1038.78 387.411
470 0 105.04 12.738 1338 121.729 1038.27 382.465
471 0 108.149 13.167 1424 121.654 1037.9 380.355
472 0 111.147 13.4776 1498 122.704 1038.12 379.047
473 0 117.106 14.3032 1675 120.215 1038.32 378.59
474 0 120.156 14.6143 1756 119.143 1038.28 374.722
475 0 124.198 13.6073 1690 122.163 1038.36 375.804
476 0 128.144 14.5461 1864 119.6 1038.28 373.404
477 0 131.191 14.1092 1851 121.597 1037.81 371.303
478 1 60.0433 9.55977 574 117.037 1038.45 405.749
479 0 64.1005 11.0296 707 112.04 1038.1 404.967
480 0 64.2439 12.8261 824 107.508 1038.56 404.629
481 0 68.2621 12.5399 856 109.645 1038.16 403.757
482 0 68.2657 11.4259 780 111.594 1039 403.653
483 0 70.2113 12.5336 880 108.745 1038.51 400.409
484 0 74.1716 12.2284 907 109.529 1038.9 400.467
485 0 77.1132 13.4089 1034 105.084 1038.72 398.26
486 0 76.1853 12.1414 925 109.164 1039.29 397.131
487 0 78.1685 10.4134 814 110.222 1039.97 398.016
488 0 82.0983 12.2049 1002 104.962 1039.65 397.4
489 0 84.1301 11.0781 932 109.063 1038.93 393.381
490 0 86.1594 12.6626 1091 104.896 1038.7 394.44
491 1 52.0401 12.2021 635 101.521 1039.02 411.142
492 0 52.0205 11.111 578 103.792 1039.59 409.349
493 0 53.0596 11.6284 617 106.454 1039.53 408.441
494 0 54.1104 12.3266 667 100.643 1038.85 408.459
495 0 56.0692 11.468 643 102.252 1038.83 408.435
496 0 58.1074 10.3257 600 104.233 1039.44 408.748
497 0 61.1003 11.1129 679 104.029 1039.91 405.558
498 0 61.0705 11.0037 672 104.938 1039.55 404.729
499 0 62.1046 11.5289 716 105.687 1039.28 402.799
500 0 64.0747 12.8756 825 105.726 1039.78 402.108
501 0 65.1662 11.6165 757 110.771 1038.74 403.601
502 0 68.1861 13.0085 887 109.389 1038.1 400.425
503 0 67.0832 10.7329 720 115.072 1038.98 400.957
504 0 67.0745 10.7343 720 143.914 1040.01 401.074
505 0 73.1254 12.9504 947 111.063 1038.51 396.635
506 0 75.1833 11.5052 865 113.59 1038.51 397.217
507 0 80.0973 12.722 1019 109.035 1038.78 396.649
508 0 80.1485 12.9884 1041 109.915 1038.4 395.635
509 0 82.2309 12.4527 1024 112.225 1038.98 391.509
510 0 87.0474 13.8315 1204 107.319 1038.2 392.957
511 1 48.1465 10.925 526 111.696 1038.31 409.962
512 0 48.1673 11.7092 564 114.711 1038.89 409.122
513 0 50.3037 12.5836 633 112.705 1038.79 407.88
514 0 51.1058 11.6034 593 114.255 1038.63 409.187
515 0 54.1357 12.912 699 110.572 1038.64 408.046
516 0 55.063 11.5141 634 115.139 1038.3 408.159
517 0 52.0587 11.391 593 118.4 1038.34 407.101
518 0 58.106 13.4065 779 112.692 1038.45 403.94
519 0 59.067 12.7482 753 115.15 1038.74 403.011
520 0 59.0586 13.3427 788 116.429 1038.3 399.645
521 0 64.0633 13.1901 845 114.768 1037.71 401.135
522 0 63.0465 12.2766 774 116.736 1037.91 401.266
523 0 64.1307 11.7416 753 118.944 1037.47 399.624
524 0 67.2452 13.6367 917 114.556 1038.19 396.975
525 0 69.0876 13.0125 899 116.758 1037.72 397.287
526 0 69.0876 13.0125 899 148.049 1037.74 397.414
527 0 76.2609 13.598 1037 115.692 1037.11 393.518
528 0 77.1351 13.9755 1078 116.147 1037 391.955
529 0 80.2138 14.2868 1146 115.8 1037.7 389.249
530 0 84.1667 15.4337 1299 112.921 1037.68 389.64
531 0 87.1583 14.858 1295 116.019 1038.29 387.131
532 0 89.1353 14.4163 1285 117.044 1038 380.841
533 0 91.124 14.0029 1276 119.482 1038 378.374
534 0 94.0975 14.5169 1366 119.178 1038.2 376.499
535 1 52.1713 11.3664 593 117.971 1037.58 399.167
536 0 52.0277 12.1282 631 119.48 1037.92 394.366
537 0 55.0438 12.0813 665 116.806 1037.76 395.953
538 0 55.0408 12.627 695 117.114 1038.26 405.4
539 0 58.1398 12.5215 728 117.069 1037.8 404.437
540 0 60.1312 13.2876 799 115.275 1038.05 402.942
541 0 61.0575 12.6602 773 117.732 1037.96 402.563
542 0 63.0562 13.1787 831 117.454 1037.95 402.223
543 0 67.0734 12.9709 870 117.821 1037.98 402.107
544 0 70.0659 14.6434 1026 116.124 1038.02 399.22
545 0 71.0544 14.5522 1034 120.014 1038.16 398.16
546 0 73.1695 15.3069 1120 118.618 1037.99 396.192
547 0 75.2153 13.9599 1050 122.269 1037.53 395.309
548 0 76.066 14.6715 1116 120.421 1038.07 395.473
549 0 79.0792 14.593 1154 121.404 1037.86 391.652
550 0 82.0565 15.2334 1250 120.514 1037.57 389.87
551 0 85.1883 14.1921 1209 121.722 1037.97 391.321
552 0 89.0609 15.3491 1367 119.857 1037.31 387.446
553 0 90.2074 14.9766 1351 121.753 1037.44 384.282
554 0 94.1723 15.9601 1503 117.941 1037.64 383.059
555 0 95.0503 15.4024 1464 119.639 1037.74 383.163
556 0 101.071 15.6028 1577 119.176 1037.67 381.677
557 0 104.204 14.1934 1479 123.867 1037.74 379.261
558 1 54.0982 12.2 660 125.185 1037.77 401.924
559 0 59.0876 12.2868 726 123.187 1038.08 404.974
560 0 59.0814 14.3023 845 120.002 1037.89 401.73
561 0 60.0865 13.8134 830 115.582 1038.28 403.614
562 0 63.06 13.9074 877 115.311 1038.1 401.862
563 0 65.0466 13.9438 907 115.578 1038.13 401.62
564 0 67.0628 13.0624 876 117.401 1038.24 401.895
565 0 69.078 12.884 890 120.585 1038.41 399.946
566 0 73.0767 13.5748 992 119.8 1038.47 398.558
567 0 76.109 15.596 1187 116.714 1038.13 397.251
568 0 78.1544 14.3434 1121 119.662 1037.87 396.533
569 0 78.1341 13.8608 1083 122.99 1037.7 394.242
570 0 82.1412 13.5864 1116 124.334 1037.44 393.798
571 0 83.1428 14.421 1199 123.959 1037.64 392.931
572 0 87.1772 14.7286 1284 123.856 1037.89 390.135
573 0 90.1169 14.803 1334 125.99 1038.14 389.03
574 0 92.1225 14.2419 1312 131.951 1038.17 388.441
575 0 95.1866 14.8655 1415 129.233 1037.68 387.853
576 0 99.1796 15.6081 1548 126.678 1037.77 384.248
577 0 104.212 15.0175 1565 127.962 1038.21 382.442
578 1 54.1898 12.5669 681 126.799 1038.49 408.232
579 0 56.1762 12.532 704 127.43 1037.86 406.497
580 0 60.0404 13.0412 783 123.163 1038.75 406.103
581 0 61.153 12.4442 761 120.531 1038.34 404.41
582 0 64.0785 12.5783 806 118.14 1037.74 404.998
583 0 65.1125 12.8393 836 120.018 1037.76 401.719
584 0 67.0945 13.2202 887 118.471 1037.13 401.302
585 0 69.0561 13.0474 901 120.818 1037.89 399.139
586 0 70.0574 12.9037 904 122.556 1037.96 397.785
587 0 74.1083 12.0229 891 123.128 1037.69 397.354
588 0 76.0582 12.4115 944 121.27 1037.95 398.007
589 0 78.1488 13.1544 1028 121.707 1037.83 393.954
590 0 81.0561 13.2994 1078 121.338 1037.98 395.416
591 0 83.0703 12.0019 997 125.329 1037.91 392.507
592 0 85.1782 12.5619 1070 123.424 1037.82 392.637
593 0 89.0584 12.475 1111 123.533 1037.87 391.073
594 0 92.1227 13.8294 1274 121.44 1037.36 388.535
595 0 94.0641 13.9267 1310 122.104 1037.92 385.911
596 0 98.1437 13.1644 1292 123.312 1038.05 387.385
597 0 99.1905 11.7652 1167 128.977 1038.25 385.874
598 0 104.207 13.1565 1371 127.556 1037.39 382.472
599 0 109.077 14.1368 1542 124.964 1037.5 380.359
600 0 110.099 13.4606 1482 128.441 1037.97 378.449
601 0 115.248 13.0935 1509 130.723 1038.16 373.003
602 1 63.266 11.2857 714 126.504 1038.24 400.462
603 0 65.0832 13.3675 870 123.114 1037.87 397.412
604 0 69.0704 12.4945 863 123.846 1038.24 397.165
605 0 70.1423 12.3463 866 123.607 1037.98 399.789
606 0 72.1558 13.4293 969 123.49 1037.89 395.644
607 0 74.1906 14.6919 1090 120.578 1038.24 395.671
608 0 74.0985 12.5644 931 121.707 1038.15 396.859
609 0 79.2645 12.7548 1011 119.529 1037.83 394.696
610 0 79.0553 12.4976 988 120.683 1038.08 392.882
611 0 85.1698 13.1737 1122 119.422 1037.82 390.413
612 0 88.0716 12.3763 1090 119.164 1037.83 390.318
613 0 91.1368 11.7735 1073 121.691 1038.22 389.497
614 0 94.1549 12.2989 1158 122.034 1038.51 384.908
615 1 50.0126 10.2174 511 120.438 1038.46 409.886
616 0 52.059 12.2745 639 116.023 1037.66 407.405
617 0 52.0199 11.8801 618 118.495 1038.66 406.458
618 0 55.2096 12.2624 677 119.613 1037.56 407.458
619 0 58.167 13.2206 769 118.316 1037.79 403.371
620 0 59.1236 12.939 765 119.124 1038.51 404.001
621 0 58.0988 11.6526 677 121.92 1038.23 404.783
622 0 61.1352 11.7117 716 122.31 1037.79 400.798
623 0 65.1543 12.8004 834 118.93 1037.24 401.277
624 0 65.1404 13.3865 872 118.29 1037.06 400.704
625 0 69.1625 15.3985 1065 113.298 1037.16 398.874
626 0 68.1633 13.8198 942 150.705 1038.18 400.711
627 0 71.1633 13.0545 929 112.207 1037.29 399.985
628 0 75.0747 13.107 984 111.743 1036.86 399.22
629 0 73.1387 12.1276 887 116.283 1037.13 397.626
630 0 78.0838 11.5389 901 116.193 1037.17 397.868
631 0 80.2028 12.5806 1009 115.693 1037.48 395.335
632 0 82.1192 13.2977 1092 115.402 1037.31 394.255
633 0 87.1113 12.6505 1102 115.579 1037.56 392.697
634 0 88.0923 12.6458 1114 116.288 1037.71 390.237
635 0 90.1023 12.2305 1102 117.15 1037.72 389.953
636 0 94.1427 12.7997 1205 117.866 1037.36 388.057
637 0 99.2332 13.2516 1315 121.262 1037.47 384.532
638 0 101.158 12.9698 1312 122.263 1038.03 384.555
639 1 50.0543 11.2078 561 120.314 1038.03 407.961
640 0 55.0478 12.0077 661 110.405 1037.07 407.634
641 0 54.0296 11.4382 618 113.107 1037.97 406.749
642 0 56.072 12.698 712 112.787 1037.06 406.987
643 0 58.1687 12.6013 733 115.269 1036.73 404.581
644 0 58.1402 12.5215 728 112.342 1036.88 405.201
645 0 58.1082 12.0293 699 114.831 1037.06 404.662
646 0 62.1921 13.3297 829 111.776 1037.62 404.521
647 0 65.1194 12.3619 805 113.509 1037.03 404.21
648 0 67.2824 12.6631 852 114.021 1036.59 400.737
649 0 68.2721 12.4209 848 115.344 1036.77 402.302
650 0 70.2114 12.9609 910 115.908 1036.75 399.181
651 0 72.1663 13.455 971 114.523 1036.58 399.146
652 0 73.2734 13.6202 998 114.76 1037.14 397.713
653 0 76.1883 13.5979 1036 115.69 1036.74 396.432
654 0 80.2758 13.4038 1076 116.877 1037.19 394.323
655 0 84.1322 12.6943 1068 120.732 1037.29 392.63
656 0 87.2069 13.2788 1158 117.999 1037.65 391.365
657 0 91.1336 13.8807 1265 116.722 1037.22 389.799
658 0 92.1118 12.5283 1154 120.022 1037.36 388.944
659 0 95.1455 13.2639 1262 118.72 1037.22 385.36
660 0 98.1795 13.1799 1294 117.807 1037.4 386.498
661 0 103.154 14.2796 1473 115.162 1037.28 384.948
662 1 52.0472 9.95251 518 117.674 1037.2 409.317
663 0 56.0258 11.7981 661 112.88 1037.53 407.631
664 0 58.0505 11.9723 695 113.088 1037.52 404.096
665 0 58.149 12.1412 706 111.096 1038.01 406.381
666 0 58.1423 12.3834 720 111.558 1037.98 407.314
667 0 61.1313 12.9557 792 109.064 1038.06 406.544
668 0 63.1277 13.1004 827 111.411 1037.4 403.115
669 0 66.1393 11.5514 764 115.982 1037.56 403.266
670 0 69.1149 13.2244 914 112.059 1037.24 404.003
671 0 71.136 13.4672 958 113.636 1036.72 400.963
672 0 70.1304 12.8903 904 116.244 1036.81 400.426
673 0 73.1107 12.0092 878 118.478 1036.96 399.104
674 0 75.1627 13.7967 1037 116.209 1036.85 395.788
675 0 78.1021 14.1994 1109 115.144 1037.19 396.593
676 0 81.0857 12.419 1007 120.473 1037.04 394.779
677 0 87.102 12.8929 1123 117.859 1037.18 394.644
678 0 89.1233 13.0942 1167 118.373 1037.28 392.179
679 0 92.0658 11.9263 1098 120.518 1037.03 394.043
680 1 51.1803 11.7037 599 119.633 1036.89 409.526
681 0 50.1108 12.9114 647 120.804 1036.57 406.247
682 0 55.0816 13.2712 731 117.981 1037.24 407.372
683 0 56.1108 14.008 786 116.67 1036.73 409.538
684 0 57.2353 13.5755 777 119.562 1037.7 408.795
685 0 56.135 13.6279 765 120.591 1037.16 408.207
686 0 59.2122 13.0041 770 122.216 1037.15 406.735
687 0 62.1314 13.8899 863 120.107 1037.04 405.63
688 0 63.1358 13.6214 860 121.688 1036.73 404.72
689 0 65.2767 13.4198 876 121.837 1036.62 402.877
690 0 66.2148 14.2717 945 119.692 1036.98 404.403
691 0 69.2143 12.9309 895 122.988 1037.38 401.087
692 0 70.1693 13.1539 923 122.293 1037.53 401.705
693 0 74.1985 13.8413 1027 119.663 1037.35 398.602
694 0 75.201 13.803 1038 119.281 1037.12 399.071
695 0 78.146 13.0269 1018 114.31 1036.9 396.237
696 0 79.1478 12.6472 1001 115.624 1037.52 395.67
697 0 82.1305 12.8576 1056 114.449 1037.95 394.595
698 0 85.0871 14.2325 1211 111.675 1038.06 393.306
699 0 86.0599 12.3519 1063 116.584 1037.85 391.637
700 0 91.1029 12.3706 1127 115.736 1037.75 389.866
701 0 94.2291 12.65 1192 114.602 1037.54 387.505
702 1 47.0279 10.9084 513 114.934 1037.29 410.179
703 0 50.0418 11.0508 553 115.123 1037.85 407.514
704 0 50.0121 11.1373 557 113.314 1037.29 408.395
705 0 52.1278 11.5294 601 110.334 1036.67 408.647
706 0 51.1265 11.3835 582 112.204 1037.24 407.493
707 0 56.0817 11.715 657 109.07 1036.74 407.731
708 0 57.1496 12.1611 695 108.668 1036.86 406.176
709 0 60.1431 12.8859 775 106.577 1036.79 404.45
710 0 59.1364 11.5665 684 109.971 1037.12 403.496
711 0 62.0923 11.2574 699 109.908 1036.83 404.565
712 0 65.1406 11.6057 756 108.676 1037.04 402.716
713 0 67.0858 13.207 886 106.23 1037.19 401.237
714 0 69.0716 12.2626 847 108.006 1037.63 400.916
715 0 69.1396 11.2381 777 111.175 1037.27 398.933
716 0 73.1477 12.5773 920 107.437 1037.37 397.426
717 0 76.2348 12.4615 950 106.947 1038.07 398.346
718 0 78.1459 12.5023 977 109.639 1038.05 394.948
719 0 79.1213 12.841 1016 109.406 1037.62 392.613
720 0 83.2057 14.398 1198 105.049 1037.76 393.892
721 0 86.0998 13.1127 1129 107.33 1037.83 391.942
722 0 89.1444 12.4741 1112 107.664 1037.25 391.54
723 0 91.1454 13.1219 1196 108.495 1036.72 387.005
724 0 96.1472 14.1346 1359 108.464 1036.8 386.854
725 0 98.2495 13.2927 1306 114.161 1036.86 385.698
726 1 51.0819 11.9416 610 109.88 1037.35 408.3
727 0 54.0229 12.976 701 104.866 1036.87 407.555
728 0 53.05 12.1206 643 106.798 1037.11 407.774
729 0 55.2337 12.0941 668 103.174 1036.72 405.413
730 0 58.1634 13.7028 797 99.6211 1036.73 405.939
731 0 58.057 12.4533 723 103.773 1037.05 405.581
732 0 61.1159 12.7463 779 102.25 1037.29 405.931
733 0 62.1585 13.723 853 100.986 1037.07 403.761
734 0 65.1255 10.8406 706 106.8 1036.92 405.545
735 0 67.1724 13.711 921 101.594 1036.66 402.831
736 0 68.1271 12.5941 858 105.005 1037.68 401.767
737 0 70.1225 13.7331 963 102.004 1037.47 402.204
738 0 72.2987 13.2921 961 104.421 1037.15 400.23
739 0 73.1287 12.4301 909 108.061 1036.95 398.714
740 0 74.203 12.2906 912 109.837 1037.33 396.48
741 0 79.2006 13.8509 1097 106.104 1036.93 396.571
742 0 83.2416 13.4908 1123 107.716 1036.63 394.499
743 0 83.1631 13.9004 1156 108.686 1036.88 393.661
744 0 88.1503 13.8287 1219 113.752 1037.02 392.829
745 0 89.2443 13.435 1199 115.326 1036.5 392.552
746 0 91.248 13.9839 1276 116.491 1036.27 389.274
747 0 95.2092 14.2948 1361 116.791 1036.24 388.196
748 0 99.1528 14.8861 1476 115.601 1036.22 387.844
749 0 103.409 13.7222 1419 119.099 1036.52 386.5
750 1 55.1061 13.1927 727 114.015 1036.98 407.41
751 0 56.1196 13.5247 759 117.287 1036.93 405.729
752 0 57.0998 12.627 721 111.89 1037.47 407.469
753 0 59.1248 11.7886 697 114.627 1037.54 406.772
754 0 61.099 11.3259 692 116.951 1037.73 404.757
755 0 63.1906 13.4039 847 112.757 1037.68 403.153
756 0 66.0649 12.8359 848 115.275 1037.41 402.561
757 0 67.1329 13.1232 881 113.838 1037.4 402.814
758 0 69.08 11.8269 817 117.084 1037.44 401.474
759 0 72.0729 12.8758 928 114.361 1037.55 400.418
760 0 74.115 13.7084 1016 115.054 1036.7 398.161
761 0 74.0953 12.7404 944 119.961 1036.63 397.385
762 0 78.1795 14.083 1101 117.988 1036.81 396.52
763 0 80.2594 14.341 1151 121.513 1036.58 396.182
764 0 85.1752 14.476 1233 120.464 1037.2 395.295
765 0 86.1181 14.8633 1280 121.805 1036.95 392.184
766 0 88.1705 13.6327 1202 124.993 1037.16 390.799
767 0 93.1361 14.3017 1332 121.019 1036.72 388.511
768 0 95.1525 14.1877 1350 119.875 1037.14 387.451
769 0 98.1151 13.688 1343 121.159 1036.99 384.835
770 0 101.087 13.9582 1411 120.292 1037.57 384.271
771 0 105.052 14.0216 1473 120.479 1037.41 384.135
772 1 56.0407 11.4024 639 121.748 1037.84 407.479
773 0 59.0207 13.724 810 115.584 1037.71 406.437
774 0 59.0223 13.7406 811 144.602 1036.77 406.577
775 0 60.1711 13.1292 790 125.262 1037.22 403.73
776 0 62.0824 13.2727 824 115.647 1037.37 404.488
777 0 63.2205 13.3026 841 116.205 1037.99 402.136
778 0 63.2117 12.7983 809 119.747 1037.58 404.702
779 0 67.2618 13.3657 899 118.496 1037.42 402.38
780 0 67.2285 11.9443 803 122.285 1037.2 401.843
781 0 72.2242 13.3889 967 119.235 1036.44 400.253
782 0 73.2125 13.454 985 119.141 1036.27 399.514
783 0 78.2329 13.4598 1053 117.943 1036.41 399.022
784 0 79.223 12.9382 1025 119.369 1036.83 397.549
785 0 84.2316 13.1779 1110 119.457 1037.09 394.48
786 1 42.1251 11.1335 469 116.501 1037.39 414.996
787 0 43.1009 11.6935 504 115.155 1037.2 413.633
788 0 45.079 13.7093 618 111.618 1037.2 412.144
789 0 48.1236 13.7147 660 111.639 1036.75 413.05
790 0 47.0764 12.1505 572 118.502 1037.5 411.829
791 0 49.0492 12.4976 613 116.754 1037.09 412.158
792 0 51.0713 13.2756 678 115.304 1036.96 410.044
793 0 51.0358 13.5983 694 114.725 1037.21 409.886
794 0 52.078 12.3085 641 118.184 1037.17 409.872
795 0 54.1085 13.0109 704 116.378 1036.99 407.534
796 0 53.0925 11.3952 605 121.06 1036.76 407.623
797 0 57.2282 13.0181 745 115.397 1036.87 406.148
798 0 60.1232 13.1563 791 115.957 1036.7 405.037
799 0 60.0686 12.7854 768 118.193 1037.08 404.525
800 0 63.0607 13.3205 840 116.524 1036.8 403.443
801 0 65.0929 13.6728 890 116.176 1036.9 402.743
802 0 67.0944 13.4139 900 118.094 1036.34 399.601
803 0 70.1885 13.8484 972 116.297 1037.06 399.826
804 0 71.1605 15.5985 1110 113.125 1037.1 400.029
805 0 74.1698 14.9657 1110 115.132 1036.34 397.729
806 0 76.1377 13.4887 1027 120.98 1036.46 396.6
807 0 80.0483 14.5412 1164 120.688 1037 393.596
808 0 83.2465 14.5952 1215 121.933 1036.35 392.252
809 0 85.2024 13.2038 1125 126.791 1036.23 390.772
810 1 46.0412 12.5322 577 119.497 1036.79 409.452
811 0 47.0372 12.9047 607 118.946 1037.14 408.651
812 0 49.0491 12.8443 630 117.868 1035.7 408.395
813 0 51.0799 15.1919 776 115.564 1036.77 405.903
814 0 54.0332 14.3986 778 117.213 1037.35 406.724
815 0 52.0199 14.6098 760 120.128 1036.9 402.126
816 0 54.0367 13.6019 735 123.351 1036.79 400.661
817 0 54.0344 14.1947 767 121.368 1036.74 404.218
818 0 57.0785 13.8932 793 123.58 1036.88 405.501
819 0 59.0869 14.301 845 122.246 1037.42 404.169
820 0 59.0731 14.3212 846 154.927 1037.44 404.209
821 0 63.0525 14.9716 944 119.255 1037.12 401.702
822 0 64.065 13.9077 891 124.229 1036.94 400.383
823 0 67.0487 15.7945 1059 118.534 1037.02 400.024
824 0 67.0867 14.4291 968 123.208 1037.17 400.363
825 0 69.0579 13.7421 949 124.967 1037.12 399.27
826 0 72.1228 14.8219 1069 121.923 1037.17 396.628
827 0 76.1007 14.7962 1126 121.598 1036.67 396.011
828 0 78.0631 15.4618 1207 120.019 1037.32 396.007
829 0 80.0376 14.3807 1151 123.546 1036.8 392.604
830 0 81.0925 13.4784 1093 126.42 1036.83 392.591
831 0 84.0704 14.9755 1259 121.849 1036.25 391.919
832 0 88.1785 14.5047 1279 122.077 1036.2 390.457
833 0 90.063 14.6786 1322 122.998 1036.2 387.541
834 0 93.1481 14.6111 1361 121.784 1036.09 385.653
835 0 96.1272 13.8879 1335 123.844 1035.53 384.684
836 0 101.092 14.0367 1419 121.342 1036.26 382.886
837 0 104.11 14.0717 1465 121.055 1036.01 380.21
838 1 55.0097 12.9795 714 114.675 1036.38 406.308
839 0 57.0848 13.3486 762 112.765 1036.33 405.228
840 0 58.0681 12.3992 720 114.306 1036.98 406.239
841 0 60.0401 12.6082 757 113.285 1036.67 404.646
842 0 62.0782 12.5809 781 113.188 1036 402.933
843 0 65.046 12.6372 822 112.302 1035.77 401.637
844 0 68.0879 13.7469 936 108.223 1036.19 402.325
845 0 69.1123 12.6461 874 110.849 1036.59 402.728
846 0 71.1622 13.1952 939 110.637 1036.51 398.289
847 0 72.1839 11.7755 850 112.714 1035.87 398.396
848 0 74.1586 12.6621 939 110.972 1035.36 394.948
849 0 79.1643 13.0741 1035 108.399 1036.08 393.714
850 0 81.1463 12.4343 1009 109.834 1035.46 392.711
851 0 83.165 12.7337 1059 110.277 1035.98 387.565
852 0 87.2398 12.437 1085 112.206 1036.29 386.03
853 0 90.1856 11.5761 1044 113.085 1036.61 387.036
854 0 95.3612 13.3807 1276 108.355 1036.67 384.908
855 1 49.1197 11.8486 582 104.162 1036.85 409.136
856 0 48.0567 11.6113 558 104.068 1036.98 408.439
857 0 51.0417 11.2065 572 104.021 1037.36 409.516
858 0 51.054 11.6347 594 105.121 1037.32 407.768
859 0 53.0472 11.5746 614 105.331 1036.85 406.669
860 0 58.041 11.7848 684 104.616 1037.34 407.107
861 0 58.1575 13.6526 794 103.838 1037.05 404.125
862 0 59.0366 12.6701 748 106.638 1036.66 402.857
863 0 63.145 13.8095 872 104.774 1036.63 402.209
864 0 62.12 11.9446 742 110.969 1036.33 400.016
865 0 66.0969 11.5285 762 112.068 1036.4 400.093
866 0 67.064 13.2858 891 110.119 1036.4 397.047
867 0 70.0902 12.1415 851 112.667 1036.11 396.663
868 0 72.0514 12.5744 906 111.81 1036.03 396.593
869 0 74.1302 12.505 927 113.712 1035.65 393.961
870 0 78.1722 12.7539 997 112.563 1036.11 395.69
871 0 78.1221 12.5317 979 114.834 1036.23 394.166
872 0 82.1264 12.359 1015 115.433 1036.29 393.603
873 0 87.1411 13.5757 1183 113.12 1036.08 392.32
874 0 89.204 12.2977 1097 116.004 1035.83 392.809
875 0 92.0496 14.1011 1298 119.755 1036.77 387.408
876 0 95.0862 14.6814 1396 117.373 1036.81 387.501
877 0 98.0795 14.1926 1392 119.809 1036.55 384.132
878 0 102.227 14.8786 1521 117.667 1036.24 383.095
879 0 103.118 13.3246 1374 123.095 1036.11 382.62
880 0 109.163 15.7654 1721 118.463 1036.04 379.856
881 0 110.197 14.4377 1591 122.476 1035.75 377.594
882 0 115.267 15.5898 1797 120.003 1035.07 373.607
883 1 63.1095 12.201 770 111.814 1035.23 396.017
884 0 66.0775 12.6367 835 110.65 1035.67 394.794
885 0 65.0749 11.9862 780 153.099 1035.56 393.853
886 0 70.2111 13.1461 923 118.174 1035.79 398.961
887 0 73.2126 13.372 979 117.62 1035.57 397.711
888 0 74.1067 12.9003 956 120.138 1035.79 398.134
889 0 78.1809 13.6862 1070 119.021 1035.52 395.276
890 0 77.0846 12.5836 970 123.808 1035.72 394.114
891 0 84.1688 14.162 1192 118.346 1036.06 393.174
892 0 84.1208 13.017 1095 124.637 1035.9 390.719
893 0 87.1599 14.3759 1253 120.65 1036.4 391.132
894 0 93.1122 13.9402 1298 120.41 1036.56 389.924
895 0 94.1044 14.3458 1350 121.584 1035.77 385.856
896 0 96.1785 13.6725 1315 123.993 1036.02 385.819
897 0 101.188 14.0926 1426 121.73 1036.36 383.515
898 0 103.133 13.2159 1363 122.466 1036.05 382.526
899 0 106.154 13.0941 1390 123.337 1035.78 377.791
900 1 57.1079 12.4151 709 113.006 1036.51 406.284
901 0 57.1228 11.0289 630 116.184 1036.68 404.7
902 0 60.0973 11.498 691 112.685 1036.66 403.915
903 0 60.1402 10.7249 645 115.808 1036.27 404.138
904 0 65.1523 13.8598 903 108.078 1036.72 401.284
905 0 64.0956 11.3424 727 114.558 1035.71 401.631
906 0 67.0865 11.3585 762 116.175 1036.33 400.134
907 0 70.0795 13.1708 923 111.811 1036.5 398.959
908 0 72.1148 12.9377 933 113.622 1036.07 397.4
909 0 75.1695 11.9729 900 115.511 1036.33 397.18
910 0 78.1383 11.3517 887 116.435 1035.66 395.826
911 0 80.1489 12.5267 1004 115.465 1035.91 392.511
912 0 86.1128 13.0294 1122 112.951 1036.25 392.784
913 0 88.1325 12.9578 1142 113.394 1036.22 390.582
914 0 92.1531 12.3382 1137 119.12 1036.61 387.361
915 1 50.0948 11.6579 584 109.57 1037.11 409.188
916 0 50.0215 11.4951 575 111.826 1036.83 406.633
917 0 51.1582 11.6697 597 116.593 1035.84 408.759
918 0 52.1529 12.5209 653 113.386 1036.04 408.168
919 0 53.081 11.7933 626 114.548 1036.47 408.673
920 0 55.0559 11.2068 617 114.24 1037.05 409.835
921 0 57.1756 12.173 696 113.828 1036.92 405.718
922 0 59.1374 12.547 742 112.399 1036.2 404.286
923 0 61.0514 12.7597 779 112.761 1036.06 403.068
924 0 64.0898 12.7321 816 112.185 1036.25 402.586
925 0 64.0969 13.4328 861 112.859 1035.83 400.78
926 0 69.147 12.5385 867 113.94 1036.39 400.411
927 0 72.0864 13.0815 943 112.514 1035.89 399.193
928 0 72.1824 13.8677 1001 111.296 1035.58 398.695
929 0 75.0895 12.8913 968 114.187 1036.58 397.717
930 0 77.1226 12.4866 963 115.948 1036.56 396.251
931 0 82.0809 13.1456 1079 114.182 1036.33 394.628
932 0 82.0969 11.2306 922 120.735 1037.33 394.405
933 0 85.0955 12.6446 1076 118.23 1037.39 391.603
934 1 48.0579 11.3613 546 116.24 1037.75 410.599
935 0 49.1594 12.2459 602 117.188 1037.45 409.806
936 0 51.048 12.2826 627 115.735 1037.61 409.013
937 0 50.0941 12.0174 602 114.327 1037.56 409.86
938 0 52.1162 13.8537 722 109.49 1037.81 408.586
939 0 54.1126 13.0469 706 112.038 1037.16 406.636
940 0 54.0567 11.6174 628 116.167 1037.69 407.253
941 0 58.103 12.7188 739 111.677 1037.33 406.268
942 0 58.1077 11.7024 680 113.31 1037.15 405.871
943 0 61.0701 12.9523 791 110.339 1036.99 404.202
944 0 63.1538 13.9184 879 108.44 1036.86 402.827
945 0 64.1502 12.0498 773 112.232 1036.51 401.996
946 0 65.0993 12.5501 817 111.159 1036.58 401.636
947 0 68.0317 12.7 864 109.772 1036.32 399.676
948 0 72.0748 12.7784 921 108.378 1036.59 398.113
949 0 74.066 11.5843 858 110.667 1036.48 398.232
950 0 76.0623 12.5949 958 108.379 1036.62 395.548
951 0 78.1839 12.4706 975 108.377 1036.75 394.896
952 0 82.144 12.1007 994 108.811 1036.89 393.114
953 0 84.1577 12.5122 1053 110.468 1037.34 391.229
954 0 86.0694 12.699 1093 110.896 1037.16 388.07
955 0 89.0883 12.5494 1118 111.325 1036.99 387.93
956 0 92.1685 12.9003 1189 110.675 1037.32 384.272
957 0 96.0946 12.9768 1247 108.164 1037.49 385.122
958 0 98.1354 11.26 1105 112.539 1037.04 385.3
959 1 54.1117 10.7555 582 108.483 1038.05 406.082
960 0 54.0629 11.4126 617 105.721 1037.67 405.36
961 0 56.0609 12.6826 711 102.449 1037.88 405.432
962 0 57.0543 11.4277 652 104.926 1037.74 403.75
963 0 58.0527 11.5929 673 105.899 1037.7 404.58
964 0 60.0618 11.4049 685 106.721 1037.7 403.594
965 0 61.1107 11.3237 692 108.669 1037.05 401.941
966 0 67.0583 10.4536 701 107.485 1037.19 400.933
967 0 66.0715 11.0789 732 106.9 1036.9 399.511
968 0 68.0639 11.548 786 106.407 1037.04 399.477
969 0 72.1804 10.7231 774 107.983 1036.74 396.877
970 0 75.0586 11.4844 862 106.094 1037.08 396.865
971 0 78.1338 12.5298 979 104.796 1036.62 395.067
972 0 79.0451 11.5124 910 109.273 1036.12 391.915
973 0 83.2081 12.2344 1018 108.813 1036.71 390.515
974 0 86.073 12.3965 1067 108.961 1036.76 388.785
975 0 88.0818 10.7514 947 113.851 1037.46 388.416
976 0 94.2294 12.13 1143 110.814 1037.15 384.814
977 0 97.15 12.4653 1211 110.365 1037.39 384.856
978 1 52.0933 12.3432 643 111.337 1037.91 405.877
979 0 53.1592 12.9987 691 111.373 1037.25 404.593
980 0 56.0777 13.9271 781 108.307 1037.4 404.65
981 0 56.1247 12.7039 713 109.912 1037.03 405.52
982 0 56.0809 13.6232 764 110.418 1037.16 404.334
983 0 60.0907 11.932 717 114.317 1036.73 404.149
984 0 62.1024 13.5582 842 109.843 1036.73 401.581
985 0 63.0668 13.5412 854 111.139 1036.84 402.438
986 0 65.1667 13.4885 879 110.992 1036.8 402.474
987 0 66.1471 13.0769 865 113.045 1036.72 400.171
988 0 68.099 12.4084 845 114.615 1037.24 399.966
989 0 70.2584 12.5394 881 114.663 1036.82 398.615
990 0 71.0935 12.4765 887 113.843 1037.42 397.935
991 0 74.1106 12.4139 920 113.918 1036.84 395.762
992 0 80.11 13.2318 1060 109.697 1037.08 393.597
993 0 84.1166 12.7561 1073 110.361 1037.05 393.316
994 0 84.0686 11.7761 990 113.633 1037.2 391.626
995 0 88.106 11.8834 1047 113.372 1037.6 390.073
996 1 45.0874 10.4686 472 112.833 1037.43 410.163
997 0 48.0901 11.7488 565 112.52 1037.35 407.94
998 0 51.0754 12.8633 657 110.992 1037.1 407.481
999 0 47.0527 11.349 534 112.56 1037 407.691
1000 0 51.0635 11.4563 585 109.92 1037.1 408.164
1001 0 52.1275 13.4094 699 107.195 1037.29 406.279
1002 0 52.039 11.0494 575 113.115 1036.93 404.746
1003 0 56.0587 11.8804 666 109.817 1037.49 404.862
1004 0 57.0548 11.8833 678 109.912 1037.06 404.432
1005 0 59.1248 11.6702 690 110.033 1036.97 403.27
1006 0 60.0827 11.351 682 111.359 1037.02 402.032
1007 0 62.1058 11.5609 718 111.156 1037.4 400.905
1008 0 65.0867 12.8598 837 107.847 1037.1 400.711
1009 0 68.1252 12.5945 858 108.328 1036.32 398.476
1010 0 70.1286 11.9637 839 109.111 1037.13 397.927
1011 0 71.0693 12.931 919 108.183 1037.01 397.76
1012 0 73.1008 12.8316 938 107.439 1036.74 396.935
1013 0 77.2114 13.2623 1024 111.218 1037.01 394.124
1014 0 80.2288 12.4893 1002 113.046 1036.8 390.528
1015 0 83.103 13.4411 1117 110.72 1036.74 389.36
1016 0 84.2243 12.8704 1084 111.43 1036.64 390.196
1017 0 86.1448 13.3032 1146 110.997 1036.8 385.512
1018 0 91.1692 13.623 1242 109.73 1037.04 385.931
1019 0 93.2013 13.4226 1251 111.301 1036.76 384.38
1020 1 46.1945 12.2092 564 106.422 1034.99 404.917
1021 0 50.2541 11.3623 571 105.844 1035.56 407.625
1022 0 49.0937 12.7104 624 105.559 1036.91 408.449
1023 0 51.0587 12.4562 636 107.987 1037.34 406.321
1024 0 53.1989 12.8198 682 106.96 1036.83 407.053
1025 0 52.0567 12.0253 626 110.113 1036.31 403.812
1026 0 55.0959 13.6126 750 106.827 1036.38 403.12
1027 0 58.0913 13.5132 785 105.451 1036.16 403.563
1028 0 59.0597 13.8165 816 106.308 1036.24 401.099
1029 0 61.2169 13.7544 842 104.938 1035.96 403.004
1030 0 63.1155 12.5009 789 109.536 1036.12 400.564
1031 0 67.1083 13.59 912 107.527 1036.38 400.139
1032 0 68.0716 13.0451 888 108.282 1036.3 400.275
1033 0 68.1976 12.5224 854 112.317 1035.91 397.331
1034 0 73.1478 14.1631 1036 109.444 1035.5 396.572
1035 0 76.291 14.0515 1072 112.546 1035.69 395.167
1036 0 77.2182 13.1575 1016 110.575 1036.52 393.62
1037 0 81.2674 13.4002 1089 110.253 1036.39 394.187
1038 0 82.2086 13.7334 1129 109.244 1036.36 393.185
1039 0 85.1075 14.6638 1248 112.647 1036.53 388.885
1040 0 87.1422 12.9444 1128 116.042 1035.69 390.254
1041 0 90.2471 13.5517 1223 115.538 1036.08 386.291
1042 0 93.1454 15.0517 1402 108.521 1036.44 385.787
1043 0 94.1405 12.8531 1210 113.752 1036.01 383.212
1044 0 98.1264 11.689 1147 115.197 1036.41 382.838
1045 0 99.0897 11.8781 1177 113.713 1036.53 383.134
1046 0 102.11 12.937 1321 112.539 1036.4 377.472
1047 0 105.083 12.3427 1297 113.054 1036.38 378.678
1048 0 108.097 13.0531 1411 110.589 1035.67 377.227
1049 0 113.121 14.5155 1642 107.366 1035.62 373.806
1050 0 114.232 12.2032 1394 113.114 1035.46 375.289
1051 0 119.21 12.6331 1506 111.625 1036.31 371.292
1052 0 119.168 12.2768 1463 115.109 1036.02 365.215
1053 0 125.141 13.3849 1675 111.83 1036.38 369.146
1054 0 129.23 12.5899 1627 114.741 1036.24 364.321
1055 0 134.236 12.1204 1627 114.461 1035.66 365.395
1056 0 139.227 13.8479 1928 113.109 1035.98 357.858
1057 0 144.256 13.0116 1877 113.124 1035.64 353.414
1058 0 148.249 13.2884 1970 112.473 1036.22 349.982
1059 0 156.357 12.6761 1982 112.82 1036.09 348.571
1060 0 158.169 12.474 1973 113.766 1035.62 339.825
1061 0 165.296 12.3415 2040 113.236 1035.77 330.287
1062 0 170.256 13.4562 2291 111.382 1036.36 332.336
1063 0 175.183 11.4109 1999 114.785 1036.63 335.912
1064 0 182.294 12.8693 2346 111.83 1036.86 334.624
1065 0 189.282 12.3995 2347 113.074 1036.5 333.386
1066 0 195.298 13.7533 2686 108.711 1036.47 336.52
1067 0 202.305 14.6215 2958 109.202 1036.87 326.881
1068 0 208.337 14.0733 2932 111.306 1036.18 317.362
1069 1 60.0342 12.0431 723 104.093 1035.1 396.827
1070 0 60.161 12.5995 758 97.7098 1037.21 401.894
1071 0 62.0868 12.1765 756 98.9828 1037 399.951
1072 0 65.1364 13.2952 866 95.9758 1037.12 400.136
1073 0 65.1352 11.6834 761 100.126 1037.34 396.784
1074 0 68.1357 11.4331 779 99.3068 1036.75 398.311
1075 0 71.0323 12.1072 860 98.1058 1036.64 395.405
1076 0 72.0544 11.5329 831 99.1829 1036.87 395.267
1077 0 77.0788 11.6634 899 98.703 1036.68 393.019
1078 0 78.064 12.1695 950 97.839 1036.7 391.305
1079 0 83.1257 12.4991 1039 98.5996 1036.69 392.05
1080 0 90.1704 15.0825 1360 94.739 1036.63 383.088
1081 1 45.1206 9.79597 442 98.914 1035.76 400.959
1082 0 48.1238 12.2185 588 90.3231 1036.94 403.359
1083 0 49.0957 11.9155 585 95.453 1036.58 405.797
1084 0 48.096 11.2067 539 96.6772 1037.44 405.62
1085 0 50.0749 10.9236 547 98.5576 1036.71 402.863
1086 0 52.0709 10.793 562 98.7616 1036.83 405.897
1087 0 52.0829 10.9825 572 99.9615 1037.16 404.519
1088 0 55.0861 12.1083 667 96.7901 1036.49 405.15
1089 0 58.1414 12.0224 699 97.5651 1036.94 403.808
1090 0 60.1276 12.5733 756 97.9709 1036.47 400.737
1091 0 63.0959 13.3606 843 95.2064 1037.32 401.775
1092 0 64.115 11.7913 756 98.8743 1036.91 401.349
1093 0 67.0862 12.9237 867 98.06 1036.58 399.202
1094 0 70.0928 13.9387 977 96.1525 1036.54 398.524
1095 0 72.1617 13.2619 957 98.9666 1035.84 395.38
1096 0 74.1358 13.8665 1028 99.0039 1035.84 395.035
1097 0 76.165 13.0112 991 101.689 1036.07 395.902
1098 0 79.1495 14.0494 1112 100.28 1036.24 392.097
1099 0 84.1076 13.7205 1154 100.656 1036.29 390.923
1100 1 43.0739 14.9511 644 98.3556 1036.72 409.623
1101 0 47.0625 13.4927 635 100.846 1036.49 409.181
1102 0 47.0823 14.2729 672 101.368 1036.71 408.592
1103 0 47.0575 15.2792 719 101.331 1036.67 408.784
1104 0 49.0314 11.7272 575 108.758 1037.18 409.332
1105 0 52.0578 13.85 721 103.282 1036.98 409.542
1106 0 51.067 12.983 663 107.825 1037.07 407.644
1107 0 53.0554 13.7592 730 107.656 1036.44 404.442
1108 0 54.052 12.5435 678 109.642 1036.73 405.976
1109 0 56.0708 12.6626 710 110.518 1036.07 405.566
1110 0 58.0809 14.3593 834 107.408 1036 403.181
1111 0 58.076 13.5856 789 110.726 1036.24 402.387
1112 0 59.0314 13.7046 809 109.978 1036.23 402.461
1113 0 63.0682 13.9056 877 108.583 1035.67 400.755
1114 0 63.0661 14.794 933 108.257 1036.08 399.098
1115 0 64.1202 13.7866 884 110.482 1035.89 399.264
1116 0 66.1408 13.3503 883 111.686 1035.58 396.712
1117 0 70.0545 13.3182 933 109.701 1036.34 398.318
1118 0 71.0409 13.457 956 110.291 1036.36 396.203
1119 0 74.0983 15.1825 1125 106.876 1036.28 393.421
1120 0 76.076 14.8799 1132 108.319 1036.87 391.329
1121 0 77.1168 12.9544 999 111.905 1036.02 392.234
1122 0 81.0684 13.1617 1067 111.119 1035.96 392.883
1123 0 84.0522 14.0032 1177 109.001 1036.21 389.53
1124 0 85.1208 12.5116 1065 113.407 1036.3 389.007
1125 0 88.0856 12.9193 1138 112.605 1036.73 387.044
1126 0 92.0417 11.8099 1087 113.701 1036.6 386.67
1127 1 49.0548 12.5778 617 112.836 1036.65 405.31
1128 0 53.0339 12.7466 676 112.874 1036.44 403.216
1129 0 51.0537 13.4173 685 108.569 1036.55 405.08
1130 0 54.0343 13.5284 731 107.378 1036.78 403.601
1131 0 56.0737 13.2861 745 108.536 1036.7 402.219
1132 0 56.0615 12.3971 695 111.512 1036.99 401.314
1133 0 61.0784 13.0979 800 109.804 1037.21 400.045
1134 0 63.1189 13.4825 851 108.168 1036.47 399.961
1135 0 63.0823 12.6818 800 111.642 1036.54 398.118
1136 0 68.0835 13.4541 916 113.455 1036.52 397.455
1137 0 70.1086 14.5061 1017 112.128 1036.4 393.604
1138 0 74.1364 14.244 1056 111.033 1036.24 393.83
1139 0 75.1817 14.1657 1065 111.293 1036.62 392.63
1140 0 77.0946 13.1656 1015 114.411 1036.71 391.305
1141 0 80.0627 13.1147 1050 113.775 1036.39 391.583
1142 0 85.0834 14.0333 1194 112.737 1036.13 387.642
1143 0 88.0868 14.5652 1283 110.264 1036.84 389.214
1144 1 44.0499 13.3485 588 108.393 1036.54 409.588
1145 0 45.0582 13.183 594 108.049 1037.11 407.65
1146 0 47.0552 12.921 608 110.503 1036.87 407.331
1147 0 46.0681 13.5018 622 117.106 1035.75 406.003
1148 0 50.0905 12.9765 650 116.762 1035.18 407.023
1149 0 53.0609 12.4951 663 116.95 1034.66 406.276
1150 0 51.0944 13.113 670 117.993 1034.76 405.536
1151 0 56.0835 13.7295 770 114.206 1034.36 403.994
1152 0 55.0417 12.8811 709 117.687 1035.17 404.109
1153 0 58.1032 15.4552 898 111.469 1035.06 401.057
1154 0 60.0351 14.1084 847 114.391 1034.96 400.576
1155 0 62.0804 13.9335 865 114.616 1035.02 400.247
1156 0 66.0643 14.4253 953 112.537 1034.74 400.019
1157 0 66.1187 13.9446 922 114.875 1035.6 397.576
1158 0 69.0942 13.6046 940 114.485 1035.45 398.37
1159 0 71.2262 13.8573 987 116.358 1035.44 397.37
1160 0 72.1881 14.0466 1014 117.585 1035.09 395.414
1161 0 74.2613 13.7488 1021 120.251 1035.71 395.273
1162 0 77.0932 14.1387 1090 119.637 1035.53 393.468
1163 0 79.1791 14.5872 1155 118.921 1035.41 392.503
1164 0 80.0702 13.5256 1083 122.112 1035.76 392.578
1165 0 84.2401 15.254 1285 118.195 1035.72 390.324
1166 0 87.1545 12.736 1110 124.107 1036.35 390.733
1167 0 89.2421 13.0656 1166 123.261 1035.58 391.021
1168 0 93.2446 14.2636 1330 122.788 1036.02 387.112
1169 0 96.1431 13.6775 1315 124.078 1034.99 387.344
1170 1 51.1133 13.1081 670 120.752 1036.41 407.848
1171 0 52.0861 12.1146 631 124.054 1035.32 402.669
1172 0 56.0911 14.4051 808 117.444 1035.66 403.217
1173 0 59.08 14.675 867 121.552 1035.93 401.445
1174 0 60.0988 13.8106 830 124.582 1035.89 400.371
1175 0 63.0781 14.7912 933 121.294 1035.81 399.347
1176 0 66.0663 14.6973 971 121.646 1035.18 397.311
1177 0 67.0551 13.6306 914 125.239 1035.18 396.748
1178 0 70.0405 16.0478 1124 119.638 1035.28 394.97
1179 0 72.1517 14.6913 1060 122.913 1035.37 394.927
1180 0 74.1183 13.6943 1015 126.38 1035.86 393.227
1181 0 78.097 15.9801 1248 118.998 1035.56 394.194
1182 0 79.0709 14.9866 1185 123.092 1035.42 389.446
1183 0 84.2061 15.5689 1311 120.735 1035.15 389.609
1184 0 84.1761 14.6122 1230 124.464 1035.59 387.433
1185 0 90.1314 14.3124 1290 122.885 1035.75 388.89
1186 0 91.1315 15.9111 1450 120.192 1035.9 387.33
1187 0 94.0657 14.6387 1377 124.194 1035.65 385.084
1188 0 97.2593 14.8983 1449 124.598 1035.44 383.219
1189 0 99.198 14.9096 1479 124.748 1035.24 379.778
1190 1 52.0814 13.2485 690 124.439 1035.17 402.372
1191 0 55.1498 13.1823 727 122.649 1035.56 404.191
1192 0 55.1458 13.2195 729 125.272 1035.52 400.956
1193 0 61.0786 14.2276 869 123.052 1035.73 400.768
1194 0 63.1187 14.4648 913 125.527 1035.97 401.092
1195 0 65.1385 14.6764 956 125.949 1035.6 399.687
1196 0 67.2116 14.7147 989 124.619 1035.97 398.59
1197 0 70.1378 13.0885 918 127.854 1035.64 399.045
1198 0 73.1583 15.0632 1102 123.808 1036.46 396.006
1199 0 75.3516 14.93 1125 123.98 1036.33 394.368
1200 0 77.0788 14.9847 1155 125.306 1036.56 393.237
1201 0 81.2131 15.2315 1237 123.268 1036.18 393.621
1202 0 83.302 15.5338 1294 124.576 1036.13 390.797
1203 0 86.3715 15.526 1341 125.152 1035.77 389.715
1204 0 90.1847 16.0116 1444 124.414 1035.79 389.053
1205 0 93.1463 15.2556 1421 126.617 1035.41 387.908
1206 0 96.576 15.6664 1513 126.325 1036.02 386.767
1207 0 96.5808 15.5621 1503 161.134 1037.03 386.794
1208 0 103.336 15.6673 1619 129.009 1035.7 382.405
1209 1 54.0791 13.4988 730 134.511 1035.85 404.999
1210 0 55.2335 13.8684 766 134.822 1035.77 404.008
1211 0 59.0954 14.1635 837 133.08 1035.7 403.096
1212 0 62.2113 14.8044 921 129.836 1035.55 402.296
1213 0 62.1333 13.3584 830 136.965 1036.1 399.989
1214 0 67.1803 15.8231 1063 127.842 1035.63 400.088
1215 0 68.1539 14.3939 981 131.805 1035.57 399.274
1216 0 69.2137 13.9712 967 133.222 1036.02 398.58
1217 0 72.1175 15.6411 1128 129.183 1036.1 396.829
1218 0 74.2156 14.9699 1111 130.622 1036.08 397.046
1219 0 76.2044 14.8154 1129 132.631 1035.53 393.818
1220 0 80.1225 15.651 1254 130.002 1036.57 392.916
1221 0 84.1064 16.919 1423 126.15 1036.53 390.964
1222 0 86.2356 15.9331 1374 130.308 1036.08 390.031
1223 0 89.156 14.7158 1312 133.141 1036.13 389.582
1224 0 94.0812 16.0819 1513 127.708 1035.96 389.88
1225 0 95.1035 14.6262 1391 135.576 1035.73 383.586
1226 0 100.243 15.632 1567 131.126 1035.69 383.136
1227 1 53.0813 13.1685 699 130.67 1036.6 407.579
1228 0 57.0616 13.8973 793 129.972 1036.22 404.555
1229 0 60.1731 13.7104 825 130.599 1035.4 404.332
1230 0 62.0691 14.5322 902 128.733 1035.52 400.317
1231 0 61.0568 12.9224 789 133.355 1035.13 399.087
1232 0 64.1012 14.1651 908 129.033 1035.28 398.808
1233 0 65.0481 14.0665 915 131.294 1035.66 397.51
1234 0 68.0409 13.7417 935 130.109 1035.58 398.035
1235 0 70.0897 13.6397 956 132.435 1035.76 395.377
1236 0 73.066 14.7675 1079 128.589 1034.92 395.019
1237 0 75.0662 13.8944 1043 131.107 1034.46 393.923
1238 0 79.1154 14.8391 1174 128.035 1034.51 392.763
1239 0 81.0766 15.5285 1259 126.538 1034.83 392.998
1240 0 85.1492 14.2338 1212 130.615 1034.38 390.217
1241 0 89.1922 14.1716 1264 130.986 1034.44 387.94
1242 0 92.1954 14.4801 1335 129.979 1034.56 386.897
1243 0 97.0822 15.2654 1482 128.804 1034.74 384.225
1244 0 98.1295 13.6452 1339 133.349 1034.78 380.772
1245 1 53.0396 13.1034 695 127.963 1035.41 404.669
1246 0 55.0986 12.4141 684 131.931 1035.52 404.037
1247 0 54.0771 13.0554 706 126.13 1035.54 405.504
1248 0 56.1011 12.9231 725 125.87 1035.29 405.116
1249 0 59.1104 13.6693 808 123.8 1035.82 404.349
1250 0 61.1354 14.5906 892 122.648 1034.92 402.337
1251 0 63.0792 12.6666 799 126.471 1034.53 402.307
1252 0 65.0532 13.9424 907 125.248 1035.37 399.583
1253 0 67.0696 14.6266 981 123.75 1034.93 398.992
1254 0 69.1798 14.166 980 125.831 1035.26 398.238
1255 0 71.0509 13.2018 938 128.87 1036.04 398.519
1256 0 75.1115 15.1907 1141 128.911 1035.8 395.907
1257 0 74.164 13.2814 985 131.639 1035.38 394.193
1258 0 79.216 13.8103 1094 129.685 1035.28 392.96
1259 0 81.1721 15.153 1230 126.359 1035.22 392.606
1260 0 85.2362 14.8059 1262 126.825 1035.49 391.458
1261 0 87.1163 14.7274 1283 130.701 1035.82 390.453
1262 0 93.0997 14.7799 1376 130.491 1035.44 388.901
1263 0 94.1154 14.3228 1348 132.62 1035.5 386.209
1264 0 98.2096 15.416 1514 129.792 1035.43 383.16
1265 1 52.1754 11.4805 599 126.295 1036.28 408.382
1266 0 52.1046 12.4365 648 120.795 1035.81 407.318
1267 0 50.1047 11.1965 561 150.037 1034.7 405.697
1268 0 55.0794 14.3611 791 116.781 1036.39 405.303
1269 0 55.0529 12.1883 671 123.295 1036.46 405.432
1270 0 59.0459 13.1592 777 118.92 1035.53 404.606
1271 0 62.1012 12.3025 764 121.241 1035.59 402.012
1272 0 61.1506 11.7415 718 125.196 1034.66 398.331
1273 0 64.1059 13.0097 834 120.736 1034.95 398.318
1274 0 66.1741 13.3889 886 120.267 1035.89 400.957
1275 0 69.1749 12.8081 886 123.37 1035.23 399.22
1276 0 73.1288 13.5514 991 119.16 1035.35 398.065
1277 0 75.1848 13.7395 1033 119.409 1035.62 394.936
1278 0 79.1475 13.797 1092 118.806 1035.06 393.886
1279 0 83.1044 13.9944 1163 119.232 1034.94 392.123
1280 0 85.3516 13.8134 1179 121.961 1035.28 390.798
1281 0 88.1486 12.842 1132 124.792 1034.96 389.221
1282 0 88.2895 12.8215 1132 125.654 1035.14 388.056
1283 1 47.1404 10.5005 495 126.683 1035.99 405.921
1284 0 52.0368 12.5873 655 119.502 1036.57 406.704
1285 0 51.1408 12.7882 654 122.645 1035.17 402.258
1286 0 54.0997 13.0869 708 114.527 1036.11 405.853
1287 0 54.0694 13.0203 704 117.169 1035.7 404.729
1288 0 55.0896 13.4327 740 117.512 1035.48 404.546
1289 0 55.0831 11.1286 613 123.693 1035.67 404.364
1290 0 60.1232 13.0066 782 118.315 1035.87 404.297
1291 0 59.0894 11.068 654 125.601 1035.66 403.281
1292 0 62.1386 13.3894 832 121.498 1035.85 401.514
1293 0 64.186 13.0091 835 123.072 1035.93 401.127
1294 0 64.1724 13.1365 843 141.185 1035.93 401.223
1295 0 67.0978 12.8469 862 127.459 1035.86 400.125
1296 0 70.1786 14.6198 1026 123.522 1035.99 399.698
1297 0 72.1814 13.9925 1010 129.022 1035.41 395.365
1298 0 74.1532 13.2159 980 131.566 1035.35 395.816
1299 0 76.3372 14.4229 1101 130.311 1035.43 393.842
1300 0 80.3414 14.5504 1169 128.417 1035.36 394.914
1301 0 82.3422 13.0188 1072 134.405 1035.47 393.683
1302 0 84.2707 14.9874 1263 129.45 1035.48 392.85
1303 0 85.2302 13.751 1172 134.724 1035.61 392.246
1304 0 89.3077 13.3919 1196 136.117 1035.4 391.591
1305 0 94.2741 14.1184 1331 135.639 1035.05 387.526
1306 0 96.3347 15.2282 1467 133.526 1035.72 386.214
1307 0 99.2615 15.6657 1555 132.372 1035.16 383.979
1308 0 101.344 15.2648 1547 134.734 1035.32 378.276
1309 0 105.314 14.5849 1536 136.283 1036.1 375.117
1310 0 107.239 15.2463 1635 135.505 1035.43 374.142
1311 0 115.318 17.7683 2049 127.952 1035.41 368.058
1312 1 60.1149 12.8753 774 136.819 1035.79 398.446
1313 0 64.2728 13.0537 839 132.64 1035.2 401.718
1314 0 67.1513 13.7153 921 129.042 1035.39 399.422
1315 0 68.1527 13.5725 925 131.652 1035.1 399.655
1316 0 71.0886 13.8559 985 131.988 1036.06 396.823
1317 0 72.1046 13.633 983 131.505 1035.97 398.076
1318 0 76.1223 14.1877 1080 129.902 1035.8 396.183
1319 0 76.1929 11.904 907 136.787 1036.03 395.923
1320 0 78.1779 14.1856 1109 132.58 1035.04 391.591
1321 0 82.2021 14.0629 1156 132.826 1035.73 390.806
1322 0 84.1917 13.4099 1129 131.88 1035.67 391.974
1323 0 88.2602 15.3863 1358 127.866 1035.24 388.878
1324 0 92.1041 14.6573 1350 130.05 1035.62 387.051
1325 0 94.2505 13.8355 1304 133.612 1035.44 384.465
1326 0 95.2664 13.541 1290 135.391 1035.41 383.479
1327 0 101.146 14.2764 1444 131.112 1035.58 382.431
1328 1 54.1012 9.38982 508 131.057 1036.26 407.382
1329 0 57.1603 11.354 649 127.866 1036.07 404.347
1330 0 58.1534 12.2607 713 122.805 1036.17 402.55
1331 0 62.0764 13.6928 850 120.561 1035.58 401.112
1332 0 62.0488 12.9253 802 124.153 1035.58 399.113
1333 0 67.0648 13.2409 888 121.632 1035.25 400.622
1334 0 68.0646 13.208 899 122.068 1035.36 399.575
1335 0 71.0942 13.3626 950 122.641 1035.26 397.384
1336 0 74.101 14.0619 1042 119.421 1035.05 396.288
1337 0 73.0704 12.7138 929 126.13 1035.27 393.799
1338 0 79.0655 12.4327 983 125.247 1035.64 394.497
1339 0 81.1449 12.7426 1034 123.42 1035.69 394.293
1340 0 84.0827 13.3916 1126 123.422 1035.91 391.796
1341 0 86.1894 12.7742 1101 126.45 1035.47 387.777
1342 0 89.0939 12.8179 1142 123.377 1035.69 388.813
1343 0 93.0644 13.8721 1291 121.176 1035.97 386.847
1344 0 95.0971 13.4389 1278 125.709 1035.59 383.021
1345 0 99.1423 14.1615 1404 122.056 1035.86 383.191
1346 0 103.135 15.5039 1599 118.441 1035.8 381.846
1347 1 55.1219 12.173 671 122.942 1035.7 405.466
1348 0 58.0659 13.5191 785 122.396 1034.55 400.878
1349 0 58.1822 12.8562 748 118.643 1035.65 404.095
1350 0 57.1814 10.9651 627 122.772 1036.3 403.043
1351 0 60.1211 11.1608 671 120.945 1036.23 402.586
1352 0 63.1597 11.8747 750 119.183 1036.23 401.837
1353 0 65.0745 12.6624 824 116.373 1036.67 402.242
1354 0 67.1479 12.9714 871 115.939 1035.69 400.039
1355 0 68.1257 12.4623 849 117.625 1035.1 398.707
1356 0 71.2088 13.6781 974 114.742 1035.49 396.535
1357 0 74.1368 12.2476 908 117.796 1035.53 396.053
1358 0 75.1374 12.0047 902 118.765 1035.8 395.626
1359 0 75.1374 11.9514 898 137.461 1035.78 395.543
1360 0 82.0736 13.2808 1090 116.074 1035.51 393.136
1361 0 84.0568 13.2886 1117 116.372 1034.72 391.943
1362 0 85.0877 11.7173 997 122.174 1035.34 389.672
1363 0 89.058 12.4413 1108 122.508 1035.19 386.979
1364 0 91.1044 12.4473 1134 120.736 1034.8 384.758
1365 0 94.1303 12.0578 1135 119.256 1035.21 387.203
1366 0 94.1158 12.0171 1131 144.458 1035.22 387.208
1367 0 102.11 12.7313 1300 121.588 1035.59 378.741
1368 1 56.1207 11.2971 634 121.284 1034.21 400.8
1369 0 49.1491 10.0917 496 124.948 1035.74 392.28
1370 0 58.2054 13.7444 800 112.096 1034.6 401.671
1371 0 63.4039 12.9803 823 119.166 1035.4 400.643
1372 0 62.1182 12.8626 799 113.156 1035.62 401.951
1373 0 64.1307 13.722 880 110.743 1035.74 402.945
1374 0 64.1007 11.8875 762 117.938 1035.12 401.247
1375 0 68.1194 13.4763 918 112.908 1035.09 400.917
1376 0 70.0946 12.8826 903 114.172 1035.73 400.738
1377 0 71.2436 12.8152 913 115.547 1035.25 399.491
1378 0 73.1461 12.6049 922 117.075 1035.2 396.715
1379 0 76.1026 12.9431 985 116.51 1035.42 396.73
1380 0 78.1578 11.8094 923 118.523 1036.02 396.041
1381 0 81.0727 13.087 1061 116.109 1035.97 394.229
1382 0 86.1389 12.7933 1102 116.267 1036.11 394.303
1383 0 87.061 12.1065 1054 119.866 1035.04 391.19
1384 0 89.102 12.6709 1129 119.268 1035.09 389.009
1385 0 94.1818 12.667 1193 118.246 1035.37 388.542
1386 0 98.1448 13.5718 1332 117.327 1035.97 385.35
1387 0 100.134 13.0125 1303 119.278 1035.9 385.648
1388 1 54.0638 11.357 614 120.524 1036.77 409.023
1389 0 56.0577 11.6665 654 122.503 1036.39 406.034
1390 0 59.0575 13.6985 809 116.524 1037.41 404.471
1391 0 58.0619 12.3661 718 121.216 1036.07 405.053
1392 0 61.0829 12.966 792 120.162 1035.9 403.098
1393 0 64.0622 12.5503 804 121.049 1035.78 402.75
1394 0 65.1085 12.5636 818 121.8 1035.75 403.006
1395 0 68.0606 12.5623 855 121.229 1035.05 400.487
1396 0 71.0755 12.3671 879 120.187 1035.17 399.68
1397 0 71.0675 12.8188 911 119.783 1035.56 398.506
1398 0 74.0376 13.4256 994 118.689 1034.99 395.448
1399 0 73.1096 12.1188 886 122.972 1035.16 395.404
1400 0 77.0409 12.409 956 121.298 1035.2 395.167
1401 0 79.1732 13.1105 1038 120.979 1035.34 391.992
1402 0 82.0565 11.9917 984 123.514 1035.55 393.076
1403 0 82.0601 12.0278 987 149.444 1036.52 393.283
1404 0 89.1236 12.679 1130 122.136 1035.12 387.501
1405 0 93.1176 13.8857 1293 118.971 1034.79 384.671
1406 0 96.1303 12.9304 1243 119.778 1034.59 386.025
1407 0 97.1235 12.6025 1224 120.926 1034.8 384.001
1408 0 101.112 12.8669 1301 122.799 1034.56 381.31
1409 1 56.1022 11.1404 625 122.23 1035.32 402.2
1410 0 56.1106 12.7605 716 112.751 1033.96 392.221
1411 0 58.1909 12.7855 744 120.222 1034.74 401.921
1412 0 59.052 13.6659 807 111.931 1034.65 401.975
1413 0 59.1181 13.1432 777 113.754 1034.78 401.091
1414 0 63.052 11.3398 715 115.483 1034.91 401.386
1415 0 64.1061 12.3701 793 114.103 1034.89 397.789
1416 0 66.0361 12.8869 851 113.589 1034.89 396.427
1417 0 67.0455 12.3797 830 114.61 1034.92 395.804
1418 0 71.107 12.4038 882 113.947 1034 393.492
1419 0 75.1095 13.274 997 110.563 1034.17 394.234
1420 0 74.0695 11.1112 823 116.925 1034.36 393.211
1421 0 79.2141 13.129 1040 113.076 1034.31 389.343
1422 0 81.0807 12.4444 1009 113.344 1034.12 390.961
1423 0 82.1439 11.419 938 116.288 1034.34 387.11
1424 0 87.1193 13.1544 1146 111.301 1034.78 387.554
1425 0 88.1 12.6788 1117 115.572 1034.98 384.462
1426 0 94.2243 14.0197 1321 112.866 1035.89 382.871
1427 0 95.1337 10.932 1040 119.052 1035.48 384.507
1428 1 52.1777 11.7483 613 112.512 1035.79 404.551
1429 0 51.0886 11.6464 595 117.923 1035.25 400.271
1430 0 55.0364 14.4086 793 109.815 1036.07 401.406
1431 0 55.3338 12.8312 710 113.354 1035.6 401.57
1432 0 56.1447 12.7171 714 114.099 1035.37 399.588
1433 0 58.1151 11.959 695 115.931 1035.32 399.106
1434 0 61.1627 14.4369 883 110.128 1035.21 396.812
1435 0 63.1778 12.9001 815 114.294 1035.33 395.348
1436 0 64.139 13.346 856 113.312 1035.58 394.416
1437 0 67.1251 13.4972 906 113.007 1035.49 394.926
1438 0 70.1534 14.8959 1045 109.487 1035.34 395.239
1439 0 69.1972 13.7578 952 113.23 1035.29 393.268
1440 0 71.1249 13.2162 940 114.48 1034.92 392.564
1441 0 74.192 12.5755 933 115.973 1034.92 389.021
1442 0 77.2357 13.4005 1035 114.265 1035.19 388.798
1443 0 79.2133 12.7504 1010 115.812 1035.2 388.823
1444 0 79.0454 13.2455 1047 108.649 1035.7 389.255
1445 0 80.0565 13.0283 1043 111.075 1035.45 386.685
1446 0 84.0492 11.6479 979 112.598 1035.33 387.589
1447 0 86.0656 12.0606 1038 112.053 1035.72 385.844
1448 0 89.1195 13.0275 1161 112.251 1036.2 382.67
1449 0 94.1818 13.389 1261 109.758 1036.31 384.094
1450 0 96.1236 13.181 1267 111.158 1036.13 383.863
1451 0 103.14 14.8052 1527 105.747 1035.63 379.129
1452 0 103.14 14.7664 1523 133.039 1035.64 379.018
1453 1 54.1393 12.2093 661 109.953 1036.28 401.788
1454 0 55.1004 11.2885 622 110.868 1035.9 404.969
1455 0 57.1077 11.7147 669 112.016 1036.21 401.072
1456 0 61.0726 12.7389 778 108.111 1036 401.771
1457 0 61.1401 11.9725 732 112.101 1035.92 398.725
1458 0 65.0921 14.2875 930 105.483 1035.99 399.541
1459 0 65.1193 12.9455 843 109.95 1036.11 399.773
1460 0 68.1286 13.7094 934 108.67 1035.74 397.74
1461 0 70.1639 13.4257 942 109.887 1036.48 397.324
1462 0 73.0521 14.0174 1024 108.585 1035.96 396.838
1463 0 75.1722 14.2606 1072 110.113 1036.03 394.474
1464 0 76.1733 13.8106 1052 112.836 1035.75 392.875
1465 0 79.0947 13.0224 1030 115.206 1036.35 393.85
1466 0 82.2239 14.0348 1154 113.986 1036.14 391.925
1467 0 85.085 13.2456 1127 116.862 1035.71 391.017
1468 0 88.272 13.8889 1226 116.332 1035.17 389.347
1469 0 91.2447 15.179 1385 95.6303 1036.07 389.438
1470 0 91.2447 15.2557 1392 152.332 1036.05 389.417
1471 0 98.2671 13.0359 1281 122.61 1036.47 385.839
1472 1 52.0776 12.9998 677 118.555 1036.25 407.041
1473 0 56.1867 13.6865 769 116.895 1035.97 405.23
1474 0 57.1699 14.0808 805 116.769 1035.74 403.873
1475 0 57.0845 13.0859 747 120.004 1035.82 403.052
1476 0 58.1709 12.7555 742 121.394 1036.22 402.635
1477 0 60.1079 13.0099 782 121.336 1036.2 401.348
1478 0 64.1346 12.7856 820 120.926 1036.2 401.363
1479 0 65.0992 13.6254 887 119.289 1036.16 399.554
1480 0 67.0768 14.3865 965 117.742 1035.95 399.524
1481 0 70.1715 14.3933 1010 119.548 1035.16 396.609
1482 0 72.0642 13.6129 981 120.637 1035.19 396.781
1483 0 73.199 13.1286 961 124.294 1035.05 394.685
1484 0 76.1597 13.301 1013 123.339 1034.99 394.788
1485 0 78.2075 13.6943 1071 123.671 1035.33 392.344
1486 0 79.0672 13.6846 1082 128.683 1035.3 389.983
1487 0 84.1641 14.5668 1226 124.19 1035.05 390.252
1488 0 86.1851 13.3782 1153 127.268 1034.79 388.189
1489 0 91.2753 15.7984 1442 120.637 1035.38 386.731
1490 0 91.1632 14.0627 1282 125.829 1035.03 386.041
1491 0 96.1487 15.008 1443 122.58 1035.29 383.877
1492 0 99.2482 14.5191 1441 124.888 1034.69 384.341
1493 0 100.152 13.5394 1356 128.861 1035.27 382.219
1494 0 106.17 14.6463 1555 125.985 1035.08 380.305
1495 1 57.1958 12.973 742 124.032 1034.89 402.722
1496 0 59.2203 13.0023 770 122.499 1034.92 401.829
1497 0 60.1113 13.3253 801 126.566 1034.84 402.222
1498 0 60.0737 13.9662 839 125.898 1034.65 399.451
1499 0 66.0556 13.2313 874 125.023 1034.87 400.506
1500 0 66.2062 13.3371 883 126.398 1034.58 398.095
1501 0 69.066 13.4799 931 124.219 1034.11 399.206
1502 0 71.0854 13.2376 941 124.903 1034.43 396.427
1503 0 71.0456 13.062 928 117.87 1034.56 392.134
1504 0 75.0802 13.8252 1038 116.71 1034.74 392.617
1505 0 74.093 13.9554 1034 118.627 1034.79 391.761
1506 0 74.0605 13.1109 971 122.398 1034.29 392.081
1507 0 76.0798 14.051 1069 125.363 1034.87 389.61
1508 0 78.0732 13.7563 1074 126.721 1034.7 391.126
1509 0 80.1776 15.1414 1214 123.935 1034.36 392.825
1510 0 83.1355 14.3621 1194 125.741 1034.67 390.474
1511 0 86.0941 13.915 1198 123.798 1034.64 389.222
1512 0 87.0608 13.7835 1200 123.54 1034.6 387.56
1513 0 90.1769 12.3646 1115 124.049 1034.44 386.343
1514 0 92.1598 12.6736 1168 121.342 1034.91 385.878
1515 0 95.074 11.9591 1137 120.933 1034.6 385.403
1516 1 52.0459 10.9903 572 116.818 1034.47 401.895
1517 0 54.163 10.9484 593 118.826 1033.64 401.342
1518 0 56.0626 11.9688 671 117.289 1035.04 403.107
1519 0 60.0543 13.7376 825 113.844 1034.57 400.822
1520 0 62.0544 13.3754 830 117.612 1034.8 402.498
1521 0 62.1384 12.7457 792 121.371 1034.83 401.376
1522 0 65.2541 13.0567 852 121.756 1034.62 398.656
1523 0 65.137 12.7731 832 123.839 1034.46 398.909
1524 0 68.0977 14.1414 963 121.66 1034.48 397.939
1525 0 70.1249 13.476 945 125.235 1035 395.833
1526 0 71.0436 12.795 909 128.304 1034.86 394.789
1527 0 75.0573 13.4697 1011 126.062 1034.32 394.738
1528 0 77.1575 13.6474 1053 127.201 1033.88 392.891
1529 0 76.0402 12.8222 975 132.994 1034.14 390.864
1530 0 81.1091 13.5497 1099 130.399 1034.17 389.846
1531 0 82.042 12.9202 1060 133.296 1034.26 389.312
1532 0 85.1541 12.9647 1104 134.105 1034 387.421
1533 0 90.067 13.5344 1219 132.147 1034.2 386.883
1534 0 92.0755 13.0979 1206 133.673 1034.72 386.776
1535 0 96.0947 14.6314 1406 130.489 1034.66 383.952
1536 0 98.1211 15.0324 1475 131.449 1033.8 379.765
1537 0 100.183 13.1459 1317 135.345 1034.11 381.144
1538 0 105.111 13.1861 1386 133.366 1034.6 382.053
1539 1 57.0233 11.4865 655 128.108 1034.49 405.727
1540 0 59.066 12.867 760 128.889 1034.2 401.625
1541 0 63.0516 13.0211 821 131.068 1033.76 397.61
1542 0 64.1369 12.8943 827 132.83 1034.18 398.903
1543 0 66.0928 12.0285 795 133.999 1034.2 399.254
1544 0 70.1119 13.236 928 130.059 1033.24 398.911
1545 0 74.1962 13.9899 1038 127.6 1033.61 395.645
1546 0 75.0577 14.9885 1125 127.18 1033.87 393.454
1547 0 75.2154 13.3749 1006 132.893 1034.13 392.654
1548 0 80.0827 13.3862 1072 132.334 1033.64 391.424
1549 0 80.0827 13.4361 1076 158.203 1033.64 391.488
1550 0 85.1302 14.3075 1218 130.287 1032.99 388.693
1551 0 88.2361 13.7472 1213 131.049 1033.08 387.104
1552 0 94.2798 14.51 1368 127.154 1033.08 386.605
1553 0 95.2111 13.8219 1316 129.514 1033.07 383.891
1554 0 98.2646 14.4508 1420 124.384 1032.85 381.661
1555 1 52.1017 12.2261 637 113.399 1034.01 407.348
1556 0 55.1562 11.7484 648 114.375 1033.74 406.573
1557 0 57.0889 14.2935 816 120.083 1034.16 403.308
1558 0 59.1342 13.0043 769 114.497 1033.4 405.195
1559 0 60.2705 12.56 757 114.848 1033.52 404.82
1560 0 61.1939 11.9456 731 117.646 1033.32 403.959
1561 0 63.2001 11.8354 748 116.857 1033.18 402.346
1562 0 65.1921 12.4248 810 115.131 1033.17 400.826
1563 0 68.1693 13.6718 932 112.823 1033.09 399.326
1564 0 70.3012 12.3042 865 114.898 1033.02 399.089
1565 0 73.3306 12.6278 926 113.924 1033.17 397.09
1566 0 76.1937 13.5313 1031 111.975 1032.89 396.853
1567 0 79.2045 13.5851 1076 112.282 1033.35 395.505
1568 0 81.2188 13.7037 1113 112.081 1033.15 395.572
1569 0 82.3104 11.979 986 119.257 1032.32 392.024
1570 0 85.3074 12.5429 1070 118.264 1032.31 390.279
1571 0 87.3474 13.0399 1139 117.04 1032.52 389.167
1572 1 49.1537 12.1049 595 115.911 1033.1 409.745
1573 0 50.2719 12.8899 648 116.116 1032.42 406.826
1574 0 53.0501 12.8369 681 108.446 1033.75 407.617
1575 0 51.0715 13.0797 668 111.223 1033.43 406.343
1576 0 54.0585 12.9489 700 110.616 1033.93 406.54
1577 0 56.0572 13.8073 774 108.983 1033.64 404.416
1578 0 58.1094 14.335 833 106.653 1034 404.161
1579 0 61.0707 13.1814 805 109.393 1032.95 403.4
1580 0 62.0907 13.432 834 108.993 1033.13 400.668
1581 0 65.0539 12.7433 829 109.755 1032.76 400.994
1582 0 66.0947 14.2523 942 106.292 1034 401.531
1583 0 67.1139 12.9928 872 108.811 1033.04 397.741
1584 0 71.0722 13.5777 965 106.622 1032.95 398.819
1585 0 70.081 12.9422 907 132.644 1032.89 398.05
1586 0 75.0973 13.4359 1009 108.691 1033.07 395.565
1587 0 77.1185 13.5117 1042 110.123 1032.87 393.34
1588 0 80.1222 13.7415 1101 110.993 1032.66 392.215
1589 0 82.1257 13.2602 1089 109.461 1033.31 391.316
1590 0 85.0998 14.9119 1269 107.154 1032.89 389.775
1591 0 88.2126 14.0229 1237 109.476 1032.44 387.951
1592 0 92.0773 14.1077 1299 109.704 1033.31 386.882
1593 0 95.1264 13.666 1300 111.85 1033.2 385.218
1594 0 96.1306 13.3256 1281 114.699 1033.67 383.479
1595 0 100.205 13.4924 1352 114.753 1033.93 382.891
1596 1 52.064 12.9264 673 114.459 1033.64 405.621
1597 0 53.0626 13.0789 694 113.768 1033.76 404.363
1598 0 53.0599 12.8534 682 116.29 1032.52 403.173
1599 0 54.1405 11.5625 626 118.101 1033.63 407.113
1600 0 54.1355 14.0758 762 116.097 1033.88 404.769
1601 0 56.0771 12.465 699 119.438 1033.64 403.914
1602 0 58.0938 11.0683 643 122.134 1033.48 402.83
1603 0 61.0898 13.9303 851 115.148 1032.86 401.779
1604 0 61.0933 12.3254 753 120.256 1033.27 400.564
1605 0 64.1071 14.2574 914 115.809 1033.08 400.588
1606 0 68.1407 12.3861 844 119.893 1032.95 399.688
1607 0 68.1303 14.1347 963 115.577 1033.41 398.746
1608 0 70.1976 12.0517 846 119.069 1033.17 397
1609 0 73.0976 12.8185 937 117.806 1032.94 395.906
1610 0 77.0874 13.5431 1044 115.379 1032.86 396.155
1611 0 78.1344 12.8753 1006 119.258 1032.57 394.681
1612 0 81.1794 14.3509 1165 115.69 1032.04 391.75
1613 0 84.1012 13.6027 1144 117.534 1032.71 392.533
1614 0 86.1765 14.9461 1288 115.263 1032.76 389.163
1615 0 88.2026 13.0042 1147 121.254 1031.98 388.882
1616 0 88.214 13.0251 1149 167.032 1030.98 388.936
1617 0 97.2875 14.9351 1453 114.957 1032.65 386.489
1618 0 99.0741 13.6262 1350 119.618 1032.64 381.904
1619 0 103.153 14.745 1521 115.99 1032.49 380.41
1620 0 106.102 15.0986 1602 116.644 1033.12 378.748
1621 1 60.0557 13.5874 816 117.006 1032.75 400.551
1622 0 61.0757 13.2459 809 112.377 1032.61 400.823
1623 0 64.0841 14.1221 905 118.098 1033.12 398.791
1624 0 66.0849 15.0715 996 115.797 1032.77 397.326
1625 0 66.0452 13.5968 898 121.316 1032.53 396.512
1626 0 69.0879 14.7493 1019 117.781 1032.91 395.889
1627 0 69.0879 14.6914 1015 152.067 1032.91 395.874
1628 0 74.0607 14.6096 1082 116.937 1032.66 394.103
1629 0 74.0732 13.3922 992 120.28 1032.64 392.003
1630 0 76.1631 14.2195 1083 118.461 1032.19 392.807
1631 0 81.1125 14.9915 1216 115.359 1032.42 391.841
1632 0 83.0538 14.5327 1207 115.662 1031.96 390.479
1633 0 85.1054 13.5127 1150 118.71 1032.42 387.062
1634 0 89.2325 13.7618 1228 117.21 1032.73 387.267
1635 0 91.1241 14.9905 1366 114.93 1032.98 385.858
1636 0 92.1113 13.4186 1236 119.047 1032.86 385.058
1637 0 96.1378 12.9814 1248 118.18 1033.08 384.434
1638 0 99.043 14.0646 1393 116.085 1032.56 381.965
1639 1 55.0727 12.7468 702 109.91 1032.15 405.342
1640 0 57.0664 13.458 768 110.857 1032.43 402.142
1641 0 57.0507 11.5862 661 113.213 1033.3 405.107
1642 0 58.06 13.2794 771 112.249 1033.7 401.59
1643 0 61.072 12.3461 754 112.61 1033.57 401.463
1644 0 63.0336 13.3738 843 112.098 1033.07 398.419
1645 0 65.0613 12.834 835 113.358 1032.61 397.884
1646 0 67.062 13.3011 892 112.994 1032.84 397.445
1647 0 68.1409 13.6775 932 114.155 1032.81 394.851
1648 0 71.1634 15.612 1111 109.715 1032.8 393.849
1649 0 73.0711 13.7674 1006 115.453 1032.93 393.517
1650 0 76.0496 13.9514 1061 115.959 1032.86 390.395
1651 0 79.0594 13.3065 1052 116.491 1031.92 392.595
1652 0 79.0804 13.2397 1047 117.688 1032.36 391.338
1653 0 84.0348 14.1251 1187 115.704 1032.37 388.973
1654 0 87.0702 15.3784 1339 114.257 1032.43 387.4
1655 0 90.0759 12.8447 1157 122.35 1032.79 385.112
1656 0 94.1167 15.162 1427 116.603 1032.92 383.99
1657 1 51.0602 13.396 684 116.525 1032.48 405.551
1658 0 52.0632 13.3108 693 117.382 1031.81 405.573
1659 0 52.0258 13.3587 695 119.414 1031.87 403.682
1660 0 54.0344 13.5099 730 119.556 1032.08 401.842
1661 0 56.0459 14.2026 796 117.935 1032.51 403.002
1662 0 57.0472 13.7079 782 119.958 1032.65 402.155
1663 0 59.0503 12.9212 763 122.476 1032.38 402.672
1664 0 62.0577 13.6969 850 121.427 1031.9 400.205
1665 0 63.0291 12.28 774 125.189 1031.97 401.132
1666 0 66.052 14.9579 988 119.739 1031.95 397.799
1667 0 67.0719 13.2992 892 124.289 1032.38 396.815
1668 0 69.0451 13.9474 963 121.917 1032.24 396.776
1669 0 72.1041 14.063 1014 121.618 1031.94 394.826
1670 0 74.0734 14.7961 1096 120.005 1032.43 394.396
1671 0 76.1407 14.1055 1074 121.747 1032.05 394.243
1672 0 80.2228 15.7437 1263 118.253 1031.57 391.164
1673 0 81.1604 14.7116 1194 121.432 1031.92 390.675
1674 0 86.1225 15.327 1320 123.133 1032.81 389.081
1675 0 87.1928 15.1847 1324 124.887 1033.04 387.005
1676 0 89.0728 15.3807 1370 125.063 1032.83 385.596
1677 0 95.0902 16.5001 1569 120.379 1032.5 384.461
1678 0 96.117 15.7828 1517 122.599 1032.65 383.557
1679 1 51.1014 13.3656 683 125.044 1032.42 403.783
1680 0 56.1141 14.5418 816 123.19 1033.17 404.412
1681 0 56.143 13.9822 785 126.205 1033.26 403.925
1682 0 60.1725 15.0401 905 120.676 1032.91 403.539
1683 0 59.0969 14.2309 841 125.265 1032.8 401.994
1684 0 63.3088 16.3168 1033 118.97 1032.57 401.619
1685 0 66.1142 15.0497 995 121.322 1032.48 400.607
1686 0 67.0239 16.5165 1107 119.841 1032.2 398.36
1687 0 68.0743 14.9836 1020 124.801 1032.66 397.193
1688 0 67.0949 13.8908 932 130.116 1032.63 396.341
1689 0 74.0965 16.1276 1195 121.209 1032.37 396.381
1690 0 74.2619 15.4319 1146 126.459 1032.09 394.399
1691 0 76.1878 15.8556 1208 126.012 1031.87 394.449
1692 0 79.1536 15.7668 1248 126.6 1032.7 394.198
1693 0 81.1094 15.6579 1270 128.283 1032.07 390.543
1694 0 83.1722 15.0772 1254 129.486 1031.83 390.552
1695 0 86.1368 14.953 1288 130.876 1032.3 389.135
1696 0 89.242 15.2058 1357 130.06 1032.83 389.293
1697 0 92.0994 15.505 1428 130.104 1032.81 388.607
1698 0 97.0914 17.0046 1651 124.642 1032.81 387.568
1699 0 100.256 16.1388 1618 128.111 1032.9 385.042
1700 0 103.258 14.8851 1537 131.807 1032.27 383.463
1701 0 109.077 17.153 1871 124.487 1032.93 382.703
1702 1 57.0788 13.2799 758 137.979 1032.63 403.966
1703 0 61.0491 14.0543 858 135.775 1032.21 403.939
1704 0 65.0972 14.9623 974 128.573 1032.12 402.631
1705 0 67.0403 15.3788 1031 128.648 1032.37 400.596
1706 0 67.0691 15.4318 1035 129.632 1032.23 400.164
1707 0 72.0913 16.0075 1154 127.436 1032.58 399.581
1708 0 72.1159 14.7124 1061 133.338 1032.34 398.167
1709 0 75.171 16.2962 1225 128.433 1032.26 399.384
1710 0 78.1398 16.0226 1252 130.038 1032.3 397.208
1711 0 81.1382 16.2439 1318 129.936 1031.96 395.453
1712 0 86.0655 15.8135 1361 128.58 1032.46 395.704
1713 0 87.1494 15.2612 1330 131.989 1032.55 392.942
1714 0 91.2184 15.3258 1398 130.199 1032.36 391.416
1715 0 94.2088 15.8159 1490 128.514 1032.43 391.448
1716 0 96.1155 14.9508 1437 132.486 1032.51 387.717
1717 1 52.0756 13.4996 703 133.869 1032.64 410.623
1718 0 52.0624 13.6567 711 136.179 1032.17 410.371
1719 0 54.0572 15.3726 831 131.563 1032.86 408.73
1720 0 56.0311 15.7948 885 130.89 1032.1 406.586
1721 0 60.1629 15.1921 914 129.21 1033.28 407.397
1722 0 61.1079 14.8426 907 132.396 1033.25 406.147
1723 0 64.0997 16.0687 1030 128.134 1033.49 405.218
1724 0 66.184 15.2605 1010 130.841 1033.31 404.647
1725 0 68.2392 15.5189 1059 131.086 1033.08 403.714
1726 0 71.0697 17.8839 1271 125.361 1032.95 402.529
1727 0 73.2586 15.6296 1145 132.447 1032.86 399.788
1728 0 74.1437 16.8861 1252 129.903 1032.96 399.708
1729 0 77.1178 16.5072 1273 131.826 1032.92 396.539
1730 0 82.2527 16.9964 1398 129.873 1033.14 397.667
1731 0 82.2389 17.8018 1464 130.65 1032.95 395.169
1732 0 87.3181 16.5372 1444 133.658 1032.17 393.905
1733 0 88.2227 16.5377 1459 135.356 1032.73 392.816
1734 0 89.2419 16.6065 1482 168.291 1033.73 393.054
1735 0 95.2038 18.0035 1714 132.683 1032.6 390.32
1736 0 96.2621 15.6344 1505 141.093 1031.97 390.233
1737 0 100.267 16.8351 1688 138.124 1032.64 388.551
1738 0 106.197 15.4336 1639 140.48 1032.36 386.766
1739 0 109.202 17.2066 1879 134.999 1032.36 383.522
1740 0 112.252 16.267 1826 137.451 1032.22 384.414
1741 0 119.222 16.1799 1929 137.202 1032.51 380.969
1742 1 64.3076 15.1771 976 140.745 1032.97 406.239
1743 0 64.3076 15.1615 975 171.594 1032.96 406.22
1744 0 68.1675 15.4032 1050 144.19 1032.82 402.475
1745 0 71.2657 15.0704 1074 144.874 1032.33 401.134
1746 0 74.2397 15.3153 1137 143.763 1032.18 399.821
1747 0 76.1982 16.1815 1233 141.899 1032.04 398.852
1748 0 78.1788 14.9785 1171 146.997 1031.57 396.392
1749 0 81.3756 16.4914 1342 142.339 1032.05 395.469
1750 0 85.287 16.4386 1402 141.156 1031.89 396.052
1751 0 87.2129 16.7521 1461 141.847 1031.64 392.913
1752 0 90.2813 16.5483 1494 143.224 1031.79 392.357
1753 0 93.2651 16.437 1533 143.419 1032.19 391.31
1754 0 95.3508 16.0985 1535 144.719 1032.35 391.488
1755 0 99.2127 16.3286 1620 145.004 1032.24 389.141
1756 0 102.205 15.8016 1615 146.346 1032.68 388.738
1757 0 106.245 16.8008 1785 142.658 1032.36 387.089
1758 0 109.257 15.9899 1747 145.691 1032.28 383.598
1759 0 115.188 16.8942 1946 141.55 1032.01 382.004
1760 0 120.151 17.22 2069 139.421 1032.19 379.876
1761 0 123.243 16.504 2034 141.797 1032.64 378.461
1762 0 127.178 15.7103 1998 144.146 1031.98 374.811
1763 1 73.1628 13.8732 1015 144.351 1032.12 400.757
1764 0 74.0842 14.524 1076 144.144 1032.75 399.199
1765 0 77.0768 15.6467 1206 139.065 1032.06 396.95
1766 0 78.2971 13.3083 1042 147.032 1031.69 395.668
1767 0 81.0604 14.224 1153 145.472 1031.99 393.642
1768 0 83.1742 14.0067 1165 147.109 1032.16 391.335
1769 0 85.2362 13.0696 1114 149.572 1032.11 391.664
1770 0 90.2152 13.7228 1238 146.746 1031.79 391.164
1771 0 94.1856 14.1211 1330 146.698 1032.07 388.667
1772 0 94.1812 13.7819 1298 149.522 1032.14 385.287
1773 0 99.2992 14.3808 1428 146.992 1032.14 385.031
1774 0 103.167 14.9467 1542 145.311 1032.25 382.914
1775 0 106.19 14.0692 1494 148.193 1032.13 378.352
1776 0 109.323 14.0318 1534 147.437 1031.44 375.915
1777 0 114.397 14.1263 1616 147.91 1031.97 371.917
1778 0 118.264 14.4507 1709 145.519 1031.83 369.434
1779 1 70.2441 12.542 881 131.518 1031.38 395.978
1780 0 71.5154 12.5567 898 133.747 1031.71 394.082
1781 0 72.1203 13.1724 950 134.745 1031.72 389.672
1782 0 76.2638 12.7846 975 134.174 1032.06 391.589
1783 0 77.2067 13.0559 1008 134.843 1032.33 387.816
1784 0 84.3957 13.2116 1115 131.17 1031.93 388.037
1785 0 86.2839 12.9225 1115 131.282 1031.74 387.613
1786 0 89.3388 13.3984 1197 131.375 1032.75 383.621
1787 0 93.3648 13.0563 1219 130.499 1031.73 382.535
1788 0 95.1224 12.2053 1161 133.246 1032.38 380.534
1789 0 98.247 12.6009 1238 129.045 1032.14 382.119
1790 0 98.2305 12.2162 1200 132.272 1032.66 377.611
1791 0 105.305 12.6774 1335 130.863 1032.9 375.748
1792 0 109.2 13.2417 1446 128.987 1032.01 374.163
1793 0 112.146 12.4658 1398 131.715 1032.17 372.212
1794 1 63.2347 12.4931 790 117.313 1032.13 398.809
1795 0 65.2156 12.0983 789 118.734 1032.4 396.961
1796 0 64.2939 11.3852 732 123.224 1032.51 395.732
1797 0 70.3112 12.6296 888 119.127 1032.29 395.872
1798 0 69.2831 11.3736 788 123.82 1032.44 392.492
1799 0 75.2005 11.8084 888 120.93 1032.91 393.507
1800 0 75.198 11.3966 857 122.655 1032.73 390.051
1801 0 78.2408 10.9406 856 123.313 1033.08 391.512
1802 0 79.179 10.4447 827 125.06 1032.85 390.01
1803 0 83.3314 10.7163 893 124.406 1033.04 390.37
1804 0 88.3943 11.6071 1026 121.58 1033.11 390.493
1805 0 92.5566 12.3492 1143 119.214 1032.7 385.865
1806 0 93.4016 12.0983 1130 122.27 1032.82 381.867
1807 0 93.3128 11.6276 1085 125.173 1032.39 376.663
1808 0 101.338 13.0948 1327 117.943 1032.48 384.446
1809 0 102.633 11.6727 1198 123.758 1032.49 379.725
1810 0 107.33 12.0004 1288 123.109 1033.15 378.233
1811 0 111.675 12.814 1431 121.142 1032.87 377.219
1812 0 115.443 11.98 1383 124.432 1032.33 375.006
1813 0 119.425 13.2803 1586 121.807 1031.89 371.469
1814 0 124.317 12.4439 1547 125.562 1032.64 370.602
1815 1 65.2885 11.3649 742 119.456 1032.31 398.539
1816 0 67.2601 11.1954 753 118.918 1033.32 401.632
1817 0 71.2711 11.4913 819 117.916 1034.15 400.543
1818 0 73.1734 12.6139 923 115.222 1034.2 397.482
1819 0 75.2214 10.6885 804 120.754 1033.78 396.912
1820 0 77.1988 11.9691 924 118.187 1033.63 394.751
1821 0 79.2127 11.1851 886 120.701 1034.13 393.193
1822 0 80.3678 10.3524 832 124.68 1034.03 390.671
1823 0 85.3966 12.401 1059 118.295 1034.04 392.385
1824 0 86.1818 12.9262 1114 119.29 1034.07 389.787
1825 0 87.1993 11.5712 1009 123.144 1034.26 390.626
1826 0 89.2607 10.9903 981 126.185 1034.04 390.892
1827 0 94.2682 12.4963 1178 122.544 1033.92 390.537
1828 0 96.2386 12.4794 1201 123.422 1033.89 389.731
1829 0 99.1297 12.7308 1262 123.879 1033.55 388.783
1830 0 102.21 12.5623 1284 125.338 1033.51 387.347
1831 0 109.238 16.2306 1773 113.695 1033.47 382.957
1832 0 108.245 12.7119 1376 125.576 1033.34 385.395
1833 0 114.293 13.5353 1547 123.576 1033.44 384.829
1834 0 117.242 13.7408 1611 124.646 1033.61 382.164
1835 1 69.1319 10.8778 752 115.358 1033.08 405.581
1836 0 70.1532 11.9025 835 116.137 1033.83 402.874
1837 0 72.2174 9.65141 697 126.232 1033.72 400.476
1838 0 75.2072 11.7941 887 121.278 1034 399.828
1839 0 77.2188 12.5876 972 119.743 1034.13 398.974
1840 0 77.2188 12.6524 977 152.174 1034.14 398.962
1841 0 81.1057 11.8734 963 121.022 1033.97 398.014
1842 0 83.1218 12.2351 1017 121.964 1033.87 396.592
1843 0 83.0666 11.2319 933 127.706 1033.62 393.809
1844 0 87.0973 11.8029 1028 126.456 1033.19 388.91
1845 0 90.0892 10.5895 954 128.65 1033.7 391.38
1846 0 94.0791 12.5001 1176 124.389 1033.83 389.12
1847 0 96.119 12.6614 1217 126.173 1033.77 386.588
1848 0 101.183 12.7196 1287 124.537 1033.84 388.863
1849 0 103.172 13.2012 1362 123.847 1033.83 389.452
1850 0 105.141 13.6008 1430 124.89 1033.53 387.394
1851 0 107.099 12.8853 1380 127.448 1033.66 386.841
1852 0 112.255 12.7478 1431 127.349 1034.01 387.06
1853 0 115.242 12.5128 1442 128.495 1033.33 387.191
1854 0 116.147 11.8385 1375 131.631 1033.05 388.554
1855 0 121.156 12.8512 1557 130.527 1033.32 386.368
1856 0 125.179 12.518 1567 130.906 1033.32 389.916
1857 0 127.253 11.9997 1527 134.027 1033.13 387.716
1858 0 133.253 13.8758 1849 129.581 1033.63 385.43
1859 0 138.336 12.5492 1736 134.106 1033.68 385.533
1860 1 85.1383 10.6768 909 125.403 1033.96 411.54
1861 0 86.191 12.4259 1071 121.022 1034.49 413.038
1862 0 84.1495 10.1843 857 122.35 1034.5 415.726
1863 0 89.0942 10.5282 938 123.267 1034.41 409.995
1864 0 91.201 12.0284 1097 120.24 1033.82 407.237
1865 0 95.1718 11.3689 1082 120.711 1034.59 408.507
1866 0 98.2006 12.617 1239 116.191 1034.24 408.2
1867 0 100.225 10.7259 1075 119.449 1033.98 408.287
1868 0 105.183 11.3421 1193 119.317 1033.94 406.461
1869 0 106.226 10.4965 1115 122.264 1034.16 405.812
1870 0 108.297 11.0437 1196 121.066 1033.86 407.148
1871 0 112.321 10.7905 1212 121.933 1034.33 405.017
1872 0 114.242 11.4056 1303 120.033 1033.63 400.695
1873 0 115.209 10.3551 1193 122.156 1034.13 399.638
1874 0 121.285 11.1308 1350 119.596 1033.59 402.267
1875 0 125.232 11.1234 1393 120.857 1033.77 399.963
1876 0 132.321 13.1574 1741 115.09 1033.57 398.908
1877 1 77.1675 12.0776 932 111.85 1034.21 423.936
1878 0 80.1863 10.6627 855 115.504 1034.6 423.275
1879 0 82.1778 11.0249 906 115.21 1034.39 422.339
1880 0 84.1934 11.6755 983 113.892 1034.12 424.226
1881 0 85.2738 11.7152 999 113.751 1034.02 420.669
1882 0 87.2016 10.4471 911 117.322 1034.04 422.94
1883 0 88.2234 11.5956 1023 115.038 1033.94 421.444
1884 0 92.2308 11.2327 1036 115.608 1034.73 423.051
1885 0 93.3169 10.459 976 117.598 1033.99 423.765
1886 0 97.3281 11.0246 1073 115.781 1034.32 422.226
1887 0 95.3978 9.51804 908 120.999 1034.23 421.09
1888 0 102.232 10.5153 1075 118.337 1033.82 419.533
1889 0 103.221 9.58134 989 121.092 1033.86 418.256
1890 0 107.246 10.2382 1098 119.747 1033.22 415.652
1891 0 111.218 10.7357 1194 117.579 1033.28 416.863
1892 0 115.289 9.4458 1089 120.256 1033.61 416.108
1893 0 121.213 10.1557 1231 118.792 1033.9 413.637
1894 1 68.0289 8.43758 574 112.014 1034.55 444.718
1895 0 69.0725 9.97503 689 109.73 1034.63 444.353
1896 0 71.1859 11.3787 810 107.336 1034.77 440.904
1897 0 74.2167 10.8197 803 107.645 1034.18 443.483
1898 0 76.1718 11.8154 900 104.914 1034.9 444.29
1899 0 76.3316 9.87795 754 108.649 1035.2 446.013
1900 0 77.1774 10.0288 774 109.891 1035.12 444.159
1901 0 80.2722 11.2492 903 107.213 1035.04 443.722
1902 0 82.3221 10.4832 863 109.389 1034.95 443.935
1903 0 84.2226 11.9564 1007 106.521 1034.82 445.038
1904 0 89.2292 12.4623 1112 104.912 1034.74 444.049
1905 0 92.332 12.9099 1192 103.375 1033.8 448.325
1906 0 94.2898 11.9843 1130 105.868 1034.56 449.335
1907 0 93.1759 10.7002 997 110.756 1034.96 444.229
1908 0 96.322 11.4927 1107 109.598 1035.17 447.584
1909 1 56.1391 10.2246 574 105.152 1034.18 459.402
1910 0 55.0938 9.69257 534 105.054 1034.1 456.972
1911 0 53.0319 10.258 544 101.612 1035.05 459.397
1912 0 57.1433 9.69493 554 101.917 1034.22 459.379
1913 0 57.0818 9.09222 519 105.339 1034.33 459.189
1914 0 59.0488 8.75547 517 105.905 1034.53 459.449
1915 0 61.0832 9.60985 587 103.925 1034.45 459.501
1916 0 68.0919 10.5299 717 108.927 1034.68 466.643
1917 0 68.0867 10.8685 740 110.597 1034.05 464.884
1918 0 73.2043 12.7315 932 106.819 1033.16 463.298
1919 0 76.287 11.7582 897 108.537 1033.26 464.254
1920 0 76.1842 11.3672 866 112.493 1033.65 459.597
1921 0 79.2234 12.1681 964 110.853 1033.51 461.894
1922 0 82.2017 12.5058 1028 110.249 1033.22 461.545
1923 0 84.2588 11.5952 977 113.94 1033.87 459.627
1924 0 88.1354 12.9006 1137 110.982 1033.27 459.061
1925 0 93.1737 13.3621 1245 110.607 1033.71 456.541
1926 1 50.1511 10.1693 510 109.604 1032.56 477.002
1927 0 53.1808 11.0942 590 106.925 1033.21 475.898
1928 0 50.0671 10.3661 519 108.31 1031.8 475.59
1929 1 63.1322 4.05498 256 108.465 1032.79 481.574
1930 0 66.2083 5.19573 344 107.703 1033.62 481.253
1931 0 64.1705 5.40747 347 110.372 1033.59 479.107
1932 0 65.099 4.93095 321 110.922 1033.22 480.997
1933 0 64.2878 13.5796 873 95.7927 1034.18 470.139
1934 0 66.1904 12.9475 857 99.203 1034.63 467.186
1935 0 66.3989 14.0966 936 107.518 1033.44 466.205
1936 0 67.3313 13.8717 934 108.089 1032.84 465.302
1937 0 68.3528 13.7522 940 110.263 1033.12 466.474
1938 0 69.1018 13.2124 913 112.306 1034.61 465.956
1939 0 70.0698 12.0309 843 116.456 1034.42 466.159
1940 0 71.0983 11.6318 827 116.665 1034.32 467.52
1941 0 73.1443 12.0994 885 116.405 1034.05 465.171
1942 0 75.0439 11.5799 869 118.321 1034.42 464.207
1943 0 79.0593 12.3325 975 114.374 1034.52 465.731
1944 0 80.1934 12.6569 1015 115.709 1034.61 462.591
1945 0 82.1295 13.0647 1073 114.606 1034.73 461.128
1946 0 84.1068 13.685 1151 114.785 1035 460.571
1947 0 87.149 14.6186 1274 114.093 1034.97 457.834
1948 0 89.1654 12.6058 1124 120.434 1034.94 457.106
1949 0 91.0656 12.189 1110 122.01 1034.46 456.632
1950 1 50.1067 7.94305 398 124.173 1034.63 476.116
1951 0 51.0487 9.10894 465 124.026 1034.92 472.191
1952 0 54.2803 10.5195 571 114.154 1032.03 474.652
1953 0 60.2229 14.3799 866 100.885 1032.24 468.84
1954 0 62.2162 15.2693 950 98.3863 1032.14 466.101
1955 0 58.1419 13.3982 779 104.628 1031.9 463.866
1956 0 62.1158 13.2172 821 111.463 1031.69 464.711
1957 0 62.1316 13.1978 820 113.312 1032.33 466.068
1958 0 67.0611 13.0478 875 111.886 1032.25 465.377
1959 0 67.0803 12.7757 857 113.809 1032.08 465.33
1960 0 70.1609 12.4856 876 115.017 1033.87 465.107
1961 0 70.0936 11.1708 783 118.264 1034.1 466.536
1962 0 73.0635 11.8664 867 116.565 1034.71 464.51
1963 0 74.0742 12.393 918 116.431 1034.59 462.141
1964 0 78.0866 11.705 914 116.578 1034.6 461.495
1965 0 79.1682 12.3408 977 115.194 1034.86 463.001
1966 0 81.0688 12.8656 1043 114.831 1034.21 460.869
1967 0 83.1713 11.9031 990 117.788 1034.81 459.505
1968 0 86.0843 13.208 1137 115.624 1034.75 458.698
1969 0 87.097 11.7111 1020 119.359 1035 456.729
1970 0 93.0816 12.763 1188 117.037 1034.37 454.63
1971 0 94.0996 12.4761 1174 118.869 1034.37 452.667
1972 0 96.183 12.1331 1167 121.151 1034.55 449.561
1973 0 101.151 12.862 1301 119.848 1034.54 448.676
1974 0 104.08 12.6922 1321 120.99 1034.09 444.959
1975 1 59.0276 12.2316 722 112.943 1033.93 461.989
1976 0 60.0914 11.0665 665 116.433 1033.81 462.396
1977 0 62.2626 13.2664 826 109.924 1033.03 462.363
1978 0 65.1726 14.101 919 108.218 1032.69 461.719
1979 0 64.1639 12.3434 792 112.85 1032.1 462.593
1980 0 67.1139 12.8289 861 110.413 1032.65 462.246
1981 0 67.0898 11.3579 762 114.552 1033.53 461.554
1982 0 72.1797 12.6906 916 110.555 1034.16 464.788
1983 0 70.0797 11.701 820 113.838 1033.99 462.86
1984 0 74.1532 13.1484 975 110.73 1033.76 463.577
1985 0 75.075 11.1755 839 114.402 1034.22 465.027
1986 0 77.0428 11.2405 866 117.196 1034.22 459.973
1987 0 83.174 11.8547 986 116.363 1034.56 461.047
1988 0 86.181 11.6499 1004 118.667 1034.08 458.748
1989 0 88.2836 13.1055 1157 117.748 1034.61 454.305
1990 0 93.2689 13.5522 1264 117.259 1034.65 454.396
1991 0 96.1939 13.556 1304 118.362 1035.01 453.701
1992 0 98.2008 12.7799 1255 121.778 1034.24 452.331
1993 0 102.166 14.3198 1463 119.765 1034.21 449.416
1994 0 106.266 13.4473 1429 122.267 1034.59 449.502
1995 0 110.263 13.7035 1511 122.402 1034.82 439.826
1996 0 110.251 13.7504 1516 142.33 1035.83 439.889
1997 1 64.1243 12.2886 788 119.189 1035.05 465.518
1998 0 64.11 12.2602 786 119.547 1035.07 465.193
1999 0 69.11 14.2526 985 117.852 1034.65 464.005
2000 0 67.0807 11.7619 789 124.15 1034 464.155
2001 0 71.0812 10.8749 773 124.492 1034.01 466.934
2002 0 75.0852 12.5457 942 121.731 1033.9 464.769
2003 0 76.0604 12.0693 918 123.809 1034.08 462.761
2004 0 79.0733 12.0015 949 123.184 1034.05 462.413
2005 0 82.1161 12.2388 1005 124.345 1034.75 461.732
2006 0 83.0966 12.7081 1056 126.258 1034.84 457.902
2007 0 87.0903 13.0784 1139 124.362 1034.22 458.388
2008 0 89.0793 13.7181 1222 123.114 1034.53 456.966
2009 0 94.1217 12.1013 1139 126.532 1034.74 455.118
2010 0 97.0692 12.5581 1219 124.733 1034.46 454.089
2011 0 99.091 12.7055 1259 124.47 1034.49 452.029
2012 0 103.126 12.2762 1266 124.89 1034.87 451.092
2013 0 105.255 13.0825 1377 124.434 1034.45 435.634
2014 1 57.0588 10.5681 603 117.743 1034.8 462.378
2015 0 59.0667 10.9368 646 115.904 1034.36 463.164
2016 0 62.4521 14.2509 890 112.292 1033.54 461.981
2017 0 64.3511 13.4108 863 113.774 1034.27 462.986
2018 0 66.4377 13.7121 911 112.569 1034.38 465.813
2019 0 66.3735 12.9268 858 115.816 1034.44 465.154
2020 0 70.1662 12.2851 862 112.921 1034.1 466.012
2021 0 70.0734 12.1444 851 113.389 1034 466.64
2022 0 73.1019 11.8465 866 113.808 1033.63 464.819
2023 0 75.0978 11.9045 894 113.955 1033.79 463.18
2024 0 76.0874 11.2765 858 114.399 1034.02 463.21
2025 0 77.079 11.4817 885 115.383 1033.9 461.307
2026 0 81.0678 12.064 978 111.469 1033.8 461.207
2027 0 85.1208 11.4426 974 113.335 1034.45 458.867
2028 0 86.1687 11.5819 998 113.803 1034.32 458.136
2029 0 89.1523 12.832 1144 111.436 1034.12 457.705
2030 0 91.0803 11.4514 1043 116.222 1034.06 455.699
2031 0 94.1393 11.0156 1037 117.476 1034.2 451.911
2032 0 98.1639 12.1837 1196 115.029 1034.07 448.668
2033 0 99.0634 11.3967 1129 117.817 1034.9 447.064
2034 0 103.114 11.8606 1223 116.213 1033.88 445.439
2035 0 105.202 10.1614 1069 120.836 1033.29 441.53
2036 0 112.28 12.4154 1394 112.873 1033.59 428.208
2037 1 57.1998 9.44059 540 112.185 1033.24 459.961
2038 0 57.1295 9.73228 556 112.054 1033.74 461.912
2039 0 63.2042 11.8505 749 107.164 1033.79 461.622
2040 0 63.1742 12.1885 770 106.747 1033.68 462.861
2041 0 64.0969 11.8102 757 107.838 1033.98 464.078
2042 0 64.1442 11.2715 723 110.364 1034.72 466.557
2043 0 69.1116 11.315 782 108.662 1034.24 466.063
2044 0 70.073 11.4452 802 111.136 1033.31 464.761
2045 0 73.0755 11.8781 868 108.783 1033.41 465.843
2046 0 75.1948 11.6364 875 111.215 1033.59 463.882
2047 0 77.2007 12.5387 968 109.021 1032.98 464.538
2048 0 78.1417 11.5303 901 113.294 1032.88 460.455
2049 0 81.2448 11.7669 956 113.115 1032.31 463.17
2050 0 85.1937 12.2075 1040 114.549 1033.36 459.716
2051 0 85.0686 11.5906 986 117.94 1033.58 457.392
2052 0 90.1681 11.9998 1082 117.253 1033.7 456.926
2053 0 93.1153 11.6952 1089 119.436 1034.08 454.593
2054 0 97.1388 13.2594 1288 117.072 1034.49 451.696
2055 0 96.1173 10.7265 1031 126 1034.32 446.377
2056 0 101.156 11.507 1164 123.094 1033.94 447.747
2057 0 106.111 13.1561 1396 120.269 1032.96 430.713
2058 1 53.1865 8.4796 451 123.361 1033.42 455.592
2059 0 54.1107 9.96107 539 117.401 1033.22 458.33
2060 0 57.14 11.3931 651 115.691 1032.41 458.066
2061 0 60.165 11.0696 666 115.724 1032.91 459.47
2062 0 61.1613 9.63028 589 118.747 1033.48 459.27
2063 0 61.1978 9.88597 605 118.34 1032.92 463.188
2064 0 63.1795 10.1299 640 117.327 1033.35 463.258
2065 0 65.2296 9.79617 639 118.444 1033.55 462.002
2066 0 67.1105 9.4024 631 118.453 1033.28 463.254
2067 0 71.1107 10.7298 763 115.401 1034 460.899
2068 0 74.1086 10.5251 780 115.363 1032.97 464.342
2069 0 74.1754 9.76065 724 117.936 1032.86 458.865
2070 0 78.1988 10.1536 794 117.897 1032.98 459.741
2071 0 79.119 9.11286 721 123.007 1032.86 457.669
2072 0 89.154 11.912 1062 118.502 1033.77 455.808
2073 0 87.2538 10.1428 885 126.193 1033.42 450.175
2074 0 89.1214 9.87418 880 127.685 1033.15 451.907
2075 0 91.1267 7.86817 717 130.238 1033.17 446.279
2076 0 94.192 10.5317 992 123.04 1033.7 449.461
2077 1 50.0477 7.79257 390 115.221 1032.37 474.367
2078 0 59.1606 11.9167 705 100.516 1032.21 467.072
2079 0 60.119 12.7414 766 100.171 1032.6 466.973
2080 0 59.0956 10.9314 646 106.293 1032.8 466.104
2081 0 64.1187 11.4787 736 104.889 1032.4 467.822
2082 0 66.1643 11.8191 782 107.065 1032.54 467.159
2083 0 60.0968 10.4997 631 113.881 1033.43 462.585
2084 0 67.0854 11.6717 783 109.432 1032.96 463.788
2085 0 67.0986 10.1343 680 115.979 1032.72 463.729
2086 0 70.1313 12.4909 876 113.589 1032.82 467.653
2087 0 71.1688 12.0277 856 115.067 1033.17 465.755
2088 0 76.0676 12.2523 932 113.969 1033.14 459.844
2089 0 76.0997 11.025 839 117.435 1032.33 462.437
2090 0 80.1288 10.5954 849 119.236 1032.59 459.998
2091 0 82.1713 11.476 943 116.578 1032.81 460.751
2092 0 87.1478 11.8993 1037 115.706 1033.22 457.389
2093 0 88.1966 11.429 1008 117.541 1033.94 455.814
2094 0 93.0502 11.6281 1082 115.335 1033.63 454.215
2095 0 95.0808 10.6646 1014 120.714 1033.67 451.866
2096 0 98.271 12.2925 1208 114.985 1033.41 451.04
2097 1 60.0905 13.3465 802 95.2643 1033.08 472.002
2098 0 61.2554 14.3987 882 93.6122 1032.63 468.918
2099 0 63.1312 13.6858 864 95.8715 1032.91 468.37
2100 0 62.1124 15.81 982 92.7495 1032.29 465.825
2101 0 63.2454 13.6453 863 99.2352 1031.54 465.929
2102 0 64.0632 12.394 794 104.272 1031.84 469.023
2103 0 66.0618 13.7599 909 102.712 1031.85 467.623
2104 0 62.0996 11.4171 709 111.659 1031.91 461.783
2105 0 67.0863 11.3734 763 111.469 1031.94 464.594
2106 0 70.1383 11.4203 801 115.558 1032.19 464.256
2107 0 71.1068 11.6304 827 119.722 1031.78 465.632
2108 0 72.1066 13.0779 943 116.706 1032.2 465.712
2109 0 74.1186 11.1983 830 122.417 1032.71 463.023
2110 0 77.0918 12.751 983 119.573 1032.21 463.471
2111 0 79.127 12.5621 994 121.975 1032.59 461.766
2112 0 81.0998 13.5635 1100 121.471 1032.7 458.977
2113 0 85.1132 12.3013 1047 125.566 1032.18 458.645
2114 0 89.0961 12.6605 1128 126.039 1033.64 456.363
2115 0 92.0805 13.1298 1209 125.39 1033.58 455.16
2116 0 92.0858 13.0313 1200 124.091 1034.59 455.221
2117 1 55.1469 12.1494 670 125.3 1032.46 459.102
2118 0 56.1659 13.0684 734 123.913 1032.68 458.925
2119 0 59.0812 12.9652 766 122.876 1031.92 460.226
2120 0 60.1188 14.122 849 120.147 1032.33 460.991
2121 0 65.1719 14.2546 929 116.533 1032.67 459.856
2122 0 64.1491 13.7492 882 120.814 1032.47 461.591
2123 0 66.1122 13.6283 901 120.875 1032.71 461.421
2124 0 68.1218 15.1053 1029 116.801 1032.83 464.738
2125 0 69.1277 13.2364 915 123.186 1032.45 463.16
2126 0 70.0994 13.1956 925 124.983 1032.71 463.112
2127 0 73.1522 12.3715 905 126.271 1032.67 461.171
2128 0 74.1942 12.8042 950 126.376 1032.68 462.509
2129 0 75.191 11.6237 874 130.243 1032.44 461.703
2130 0 80.1016 10.1246 811 133.629 1032.48 459.197
2131 0 84.2593 12.0462 1015 129.008 1032.36 459.123
2132 0 90.2705 12.7949 1155 126.152 1032.19 459.429
2133 0 90.2085 13.7681 1242 126.647 1032.5 454.835
2134 0 93.3093 13.3427 1245 128.035 1032.55 453.695
2135 0 94.2186 12.2163 1151 134.14 1033 431.743
2136 1 55.0517 10.9897 605 124.478 1033.44 460.16
2137 0 58.0562 11.9195 692 123.405 1033.79 460.822
2138 0 58.2258 12.5202 729 117.678 1033.02 460.431
2139 0 56.0629 11.4693 643 116.742 1032.72 457.182
2140 0 58.0602 11.6431 676 116.185 1032.67 457.345
2141 0 62.07 12.1476 754 114.515 1032.46 458.594
2142 0 65.093 13.5038 879 110.871 1032.48 463.08
2143 0 69.0878 12.5927 870 112.563 1032.61 463.982
2144 0 68.123 12.1692 829 115.276 1032.07 464.789
2145 0 72.1772 14.1319 1020 119.014 1031.98 465.699
2146 0 73.126 13.3605 977 121.594 1031.85 466.62
2147 0 74.1978 12.0354 893 124.645 1031.8 466.954
2148 0 77.1757 14.5123 1120 119.636 1032.33 463.406
2149 0 79.1661 12.998 1029 125.611 1032.14 461.493
2150 0 81.236 12.6791 1030 128.109 1031.62 459.029
2151 0 78.1962 12.0338 941 132.396 1031.6 458.218
2152 0 88.1463 11.4582 1010 131.103 1033.12 455.258
2153 0 93.1847 13.9401 1299 124.366 1032.77 452.789
2154 0 96.1008 13.028 1252 125.771 1032.93 453.817
2155 1 55.0608 12.0412 663 120.22 1033.29 473.985
2156 0 56.0413 10.9562 614 125.287 1034.12 461.858
2157 0 60.0839 12.882 774 119.689 1033.5 461.832
2158 0 63.1211 13.5137 853 116.805 1033.76 463.925
2159 0 63.1211 13.5454 855 137.467 1032.78 464.027
2160 0 67.092 13.5188 907 116.407 1033.9 463.478
2161 0 69.1376 14.247 985 112.913 1033.7 466.198
2162 0 69.0416 13.5281 934 116.304 1033.89 465.492
2163 0 71.0951 12.4903 888 118.739 1033.49 467.839
2164 0 75.0827 13.6516 1025 116.153 1033.25 465.349
2165 0 76.0186 14.1807 1078 115.231 1033 464.902
2166 0 78.0389 12.545 979 121.238 1032.98 462.728
2167 0 78.0719 11.3101 883 123.489 1033.02 463.428
2168 0 85.0423 11.6295 989 121.411 1033.07 463.492
2169 0 88.0444 12.948 1140 119.848 1032.73 460.17
2170 0 89.0658 12.3617 1101 121.702 1033.28 458.974
2171 0 94.0986 13.6771 1287 118.65 1033.47 457.469
2172 0 96.0313 13.5164 1298 119.045 1033.36 457.924
2173 0 99.1142 13.3281 1321 120.771 1033.58 454.749
2174 0 100.049 13.1136 1312 122.342 1033.38 453.842
2175 0 104.1 13.439 1399 122.916 1033.23 449.871
2176 0 108.126 14.0854 1523 121.258 1033.58 450.278
2177 0 110.081 13.799 1519 123.423 1033.9 448.165
2178 0 114.108 13.7677 1571 123.893 1033.5 446.55
2179 0 115.136 12.7936 1473 128.026 1033.17 440.275
2180 0 122.082 12.7865 1561 127.205 1033.31 440.43
2181 0 127.174 13.4304 1708 124.903 1032.88 436.515
2182 0 131.155 14.8221 1944 119.485 1032.4 434.969
2183 1 72.0352 13.4518 969 118.433 1032.82 467.306
2184 0 72.126 12.187 879 123.765 1033.33 465.577
2185 0 75.0522 12.8044 961 122.626 1033.67 465.974
2186 0 76.1406 12.4638 949 124.859 1033.15 463.591
2187 0 80.1008 12.6591 1014 123.644 1033.12 462.011
2188 0 82.1013 13.0083 1068 124.213 1032.96 460.177
2189 0 86.0802 12.651 1089 125.816 1033.34 459.647
2190 0 86.0652 12.9553 1115 127.196 1033.3 458.903
2191 0 91.139 14.648 1335 122.916 1033.2 457.766
2192 0 92.131 12.7102 1171 129.763 1033 456.447
2193 0 97.1213 13.8384 1344 127.43 1033.13 454.146
2194 0 99.2289 13.3429 1324 129.413 1033.84 452.354
2195 0 102.202 13.7571 1406 128.77 1033.45 450.069
2196 0 107.096 15.995 1713 122.688 1033.56 450.124
2197 0 108.233 13.4433 1455 132.612 1033.43 445.355
2198 0 112.214 14.5615 1634 129.23 1032.93 446.977
2199 0 114.176 13.9084 1588 133.478 1032.8 443.081
2200 0 118.252 14.6129 1728 132.598 1033.04 440.533
2201 0 123.272 13.4824 1662 135.601 1032.63 435.81
2202 0 128.424 14.5533 1869 128.447 1032.07 436.004
2203 1 71.0876 10.3956 739 125.881 1032.84 466.13
2204 0 74.0965 12.1868 903 126.431 1033.38 465.714
2205 0 76.0806 12.4736 949 125.175 1033.79 465.782
2206 0 78.1055 13.0464 1019 125.799 1033.37 464.431
2207 0 80.1834 12.0598 967 129.57 1033.54 463.264
2208 0 84.1573 12.1558 1023 129.961 1033.94 461.848
2209 0 87.1846 13.0872 1141 129.139 1033.22 459.963
2210 0 88.0964 12.509 1102 133.825 1033.35 457.667
2211 0 91.0683 13.9126 1267 131.611 1033.24 456.375
2212 0 94.2115 13.077 1232 136.091 1033.86 455.32
2213 0 94.2115 13.0876 1233 154.236 1033.86 455.26
2214 0 100.104 13.5859 1360 138.387 1033.4 449.606
2215 0 101.101 13.5211 1367 140.554 1032.75 446.533
2216 0 104.175 13.3525 1391 140.767 1033.52 447.776
2217 0 110.437 15.1399 1672 135.006 1033.35 446.969
2218 0 110.181 13.7138 1511 141.705 1033.98 444.892
2219 0 118.14 14.4659 1709 138.474 1033.26 440.792
2220 0 119.197 14.8829 1774 139.211 1033.42 439.131
2221 0 124.296 14.8436 1845 138.938 1033.18 439.906
2222 0 126.297 14.6717 1853 140.287 1032.78 437.964
2223 0 132.345 13.4345 1778 143.843 1032.54 435.412
2224 1 75.0556 11.3383 851 136.563 1032.92 465.58
2225 0 79.1018 11.8076 934 135.774 1033.91 463.357
2226 0 82.0666 12.2949 1009 136.51 1033.73 461.498
2227 0 85.1634 13.2216 1126 133.227 1033.59 460.706
2228 0 85.0721 12.4953 1063 138.032 1032.89 458.192
2229 0 91.0728 13.1104 1194 134.755 1032.43 456.985
2230 0 92.041 12.8638 1184 136.715 1032.82 455.112
2231 0 96.2494 14.078 1355 132.971 1033.19 454.057
2232 0 97.1558 12.9483 1258 137.487 1032.95 452.05
2233 0 101.094 13.5518 1370 135.093 1032.92 449.542
2234 0 103.229 13.2714 1370 137.492 1033.62 447.953
2235 0 106.238 13.6862 1454 136.813 1033.43 446.405
2236 0 109.21 13.2405 1446 139.856 1033.76 446.122
2237 0 112.217 12.7431 1430 140.044 1032.95 446.582
2238 0 115.294 12.5766 1450 141.304 1032.64 443.252
2239 0 118.317 14.1991 1680 136.845 1033.16 441.525
2240 0 122.409 13.553 1659 138.09 1032.88 440.306
2241 0 125.462 13.9803 1754 136.567 1032.46 440.765
2242 0 130.471 13.7655 1796 135.479 1032.48 440.736
2243 0 135.327 14.5056 1963 134.74 1031.98 435.033
2244 0 137.349 13.3528 1834 138.343 1032.44 432.033
2245 0 144.336 14.5286 2097 131.962 1031.97 431.882
2246 1 80.1265 11.2946 905 131.91 1033.22 464.859
2247 0 81.215 11.7712 956 135.825 1033.4 460.282
2248 0 86.384 13.5789 1173 131.393 1033.03 459.625
2249 0 89.1212 13.2067 1177 133.577 1033.22 457.525
2250 0 88.3172 11.5493 1020 138.573 1033.04 457.799
2251 0 95.1606 13.8398 1317 131.654 1032.99 455.235
2252 0 98.165 13.1819 1294 134.06 1033.08 453.383
2253 0 100.301 12.7216 1276 136.305 1033.27 452.04
2254 0 103.074 13.8832 1431 134.021 1033.28 451.105
2255 0 103.103 13.9957 1443 136.157 1033.57 447.508
2256 0 104.136 13.7321 1430 137.718 1033.78 446.249
2257 0 110.052 13.9933 1540 135.392 1032.31 446.657
2258 0 112.089 13.07 1465 139.784 1032.86 442.906
2259 0 118.209 14.6689 1734 134.279 1032.99 442.727
2260 0 121.28 14.281 1732 135.417 1032.65 441.491
2261 0 122.209 14.3934 1759 136.739 1032.08 440.799
2262 0 127.257 14.7733 1880 135.42 1031.98 440.502
2263 0 127.257 14.789 1882 158.341 1031.98 440.364
2264 1 72.0481 10.5624 761 144.046 1031.94 470.355
2265 0 76.0465 12.6765 964 140.065 1031.19 468.019
2266 0 77.0639 12.8076 987 140.285 1030.97 467.59
2267 0 82.1162 12.5432 1030 140.713 1030.87 467.018
2268 0 83.1084 13.1876 1096 139.329 1030.41 466.814
2269 0 86.056 13.1658 1133 141.237 1030.15 465.045
2270 0 90.0987 13.4519 1212 139.064 1029.43 465.09
2271 0 92.1513 13.0004 1198 141.639 1029.42 461.964
2272 0 94.0954 13.7414 1293 141.247 1029.24 460.657
2273 0 94.0903 13.689 1288 159.825 1029.23 460.559
2274 0 99.0433 14.0141 1388 141.744 1028.4 457.27
2275 0 104.1 13.8232 1439 142.243 1028.21 458.096
2276 0 106.044 14.1545 1501 141.149 1028.44 456.422
2277 0 109.086 14.539 1586 141.307 1028.17 453.907
2278 0 113.1 14.4032 1629 139.888 1028.08 453.273
2279 0 114.157 14.1909 1620 142.444 1027.15 451.317
2280 0 116.104 14.3061 1661 142.4 1026.88 446.915
2281 0 120.129 14.5677 1750 140.403 1026.21 444.451
2282 0 124.097 14.2872 1773 140.015 1026.91 445.373
2283 0 126.162 14.6399 1847 137.318 1026.64 437.027
2284 0 131.213 14.0687 1846 137.168 1025.61 436.517
2285 1 61.2315 10.5664 647 130.456 1025.53 468.27
2286 0 61.3701 10.51 645 130.214 1026.38 468.042
2287 0 63.4013 10.7096 679 127.733 1025.89 472.24
2288 0 69.4978 13.2666 922 122.175 1024.87 473.654
2289 0 70.2288 11.7473 825 129.926 1025.11 472.863
2290 0 73.2436 14.0627 1030 122.646 1025.94 476.732
2291 0 74.2415 13.8602 1029 134.402 1026.92 476.876
2292 0 76.1641 12.9326 985 126.855 1025.62 475.257
2293 0 76.1494 12.3836 943 142.659 1023.65 474.186
2294 0 80.1143 11.5834 928 131.304 1026.19 475.26
2295 0 83.3109 11.139 928 133.695 1026.02 473.151
2296 0 86.1526 12.0368 1037 130.991 1026.64 471.803
2297 0 88.1832 11.0452 974 135.619 1027.15 468.295
2298 0 92.2626 13.2556 1223 130.146 1027.8 464.499
2299 0 95.2464 12.3469 1176 135.731 1027.22 452.449
2300 0 102.145 16.1731 1652 121.191 1027.82 447.958
2301 0 101.238 13.9375 1411 129.575 1027.44 446.887
2302 0 105.237 13.8829 1461 129.973 1027.84 449.16
2303 0 107.191 11.4469 1227 135.689 1027.07 451.356
2304 1 62.0762 8.45735 525 127.49 1026.92 472.646
2305 0 67.0675 10.7653 722 119.267 1027.42 476.931
2306 0 70.0597 12.8034 897 119.462 1026.18 476.556
2307 0 70.0422 11.6501 816 124.306 1025.79 477.288
2308 0 72.084 11.5698 834 123.787 1025.66 476.13
2309 0 73.0983 10.055 735 128.258 1025.4 474.637
2310 0 77.086 12.1553 937 121.621 1025.45 475.163
2311 0 79.1443 11.6496 922 123.628 1025.75 472.77
2312 0 81.1305 11.1302 903 124.032 1025.84 474.748
2313 0 85.1002 12.2561 1043 121.197 1026.38 472.863
2314 0 87.042 11.3623 989 125.406 1026.93 468.291
2315 0 90.04 12.1057 1090 123.662 1026.95 465.079
2316 0 94.0544 12.1844 1146 122.878 1027.12 463.128
2317 0 95.0528 11.8881 1130 123.946 1026.64 462.558
2318 0 97.0597 11.4466 1111 125.357 1027.1 462.5
2319 0 100.125 12.2847 1230 123.642 1027.13 460.561
2320 0 104.059 12.589 1310 123.666 1027.04 457.787
2321 0 108.286 12.4762 1351 124.053 1026.92 446.711
2322 0 110.227 12.7646 1407 122.676 1027.17 444.421
2323 0 115.313 12.0889 1394 123.014 1027.7 446.171
2324 1 63.0905 9.209 581 116.601 1029.49 476.673
2325 0 64.0425 10.3993 666 116.697 1028 473.917
2326 0 67.0372 10.9044 731 114.836 1028.34 475.041
2327 0 67.0784 9.46653 635 119.145 1027.38 475.214
2328 0 67.0537 8.81384 591 123.11 1027.74 472.431
2329 0 73.0873 11.5068 841 114.671 1027.46 473.633
2330 0 75.0935 11.5057 864 115.486 1027.38 472.192
2331 0 75.0605 9.68552 727 119.794 1028.17 472.371
2332 0 82.0667 10.7108 879 115.325 1027.71 471.742
2333 0 80.0447 10.4816 839 116.139 1028.13 470.659
2334 0 84.0798 11.6913 983 114.394 1028.08 466.298
2335 0 81.1124 10.6519 864 116.713 1027.45 467.134
2336 0 81.0974 7.69445 624 120.474 1028.42 468.481
2337 1 93.0767 11.5066 1071 114.873 1029.34 459.362
2338 0 94.0923 10.7023 1007 118.876 1029.16 454.556
2339 0 96.1329 11.9626 1150 117 1029.32 452.705
2340 0 101.106 12.3336 1247 117.268 1029.34 446.649
2341 0 104.141 13.1841 1373 114.393 1028.91 449.463
2342 0 106.207 12.984 1379 115.83 1029.35 445.165
2343 0 106.103 11.7528 1247 119.407 1029.45 445.456
2344 0 109.133 13.204 1441 116.095 1029.73 446.069
2345 0 113.153 12.3461 1397 118.913 1029.42 444.104
2346 0 115.228 13.7554 1585 116.39 1029.24 443.095
2347 0 118.091 13.0408 1540 118.514 1029.24 443.521
2348 0 122.088 14.1947 1733 116.022 1028.59 445.489
2349 0 124.061 13.7352 1704 117.246 1028.47 444.719
2350 0 125.076 12.5363 1568 121.247 1029.29 438.054
2351 1 71.0691 8.97718 638 120.53 1029.86 465.962
2352 0 74.0985 9.94622 737 117.335 1029.71 465.863
2353 0 79.0533 12.3841 979 111.564 1029.48 466.18
2354 0 80.0482 12.0427 964 113.371 1030.38 464.805
2355 0 82.0874 11.7679 966 115.782 1030.39 460.011
2356 0 82.0299 11.3983 935 118.442 1030.75 458.951
2357 0 84.0609 11.1824 940 119.984 1030.25 455.834
2358 0 90.1188 12.6389 1139 114.822 1030.75 458.897
2359 0 91.1113 11.8536 1080 118.394 1031.63 454.706
2360 0 95.1059 13.0591 1242 116.473 1031.26 454.449
2361 0 99.1539 12.5361 1243 117.774 1030.73 452.451
2362 0 101.1 13.4124 1356 116.553 1030.55 451.573
2363 0 101.078 11.496 1162 123.802 1030.87 446.961
2364 0 106.118 13.3719 1419 118.93 1031.13 445.425
2365 0 111.21 12.6877 1411 121.17 1030.28 435.911
2366 0 111.19 12.654 1407 151.397 1029.3 435.777
2367 0 115.194 12.3705 1425 121.207 1030.76 437.015
2368 0 115.202 11.9269 1374 121.846 1030.72 432.389
2369 0 112.172 11.4556 1285 124.916 1030.56 428.077
2370 1 63.0605 9.27681 585 115.59 1031.01 461.513
2371 0 71.0942 12.0685 858 115.716 1031.24 465.941
2372 0 73.0696 10.7842 788 118.944 1031.06 464.426
2373 0 74.0866 10.6497 789 119.089 1030.98 464.76
2374 0 79.1172 13.6506 1080 112.244 1031.33 460.56
2375 0 79.1444 12.0286 952 116.119 1031.43 461.218
2376 0 82.0666 11.7587 965 117.239 1031.75 459.164
2377 0 83.0784 11.2544 935 119.665 1031.43 457.796
2378 0 87.1158 12.2251 1065 117.338 1032.26 457.197
2379 0 88.0704 11.8087 1040 120.427 1032.37 455.25
2380 0 92.1141 13.1142 1208 117.981 1032.64 452.926
2381 0 93.0875 11.4408 1065 123.435 1032.01 451.975
2382 0 98.0515 13.2685 1301 119.125 1032.42 450.497
2383 0 99.1515 11.9817 1188 123.479 1032.49 450.827
2384 0 104.224 13.0488 1360 121.998 1032.66 448.2
2385 0 107.208 14.1873 1521 119.909 1032.45 449.583
2386 0 110.136 13.1474 1448 124.385 1032.29 446.053
2387 0 114.198 14.0371 1603 122.39 1032.76 446.402
2388 0 113.164 13.5025 1528 126.276 1032.32 438.502
2389 0 120.217 14.0496 1689 123.84 1032.06 440.344
2390 0 120.235 13.2491 1593 126.351 1032.22 440.72
2391 0 126.251 13.4732 1701 124.759 1032.54 439.97
2392 1 73.0798 12.0416 880 121.356 1032.96 467.026
2393 0 72.0551 11.172 805 125.53 1031.86 465.863
2394 0 72.076 11.1271 802 154.944 1031.88 465.875
2395 0 77.0759 13.091 1009 121.379 1031.96 464.292
2396 0 78.1154 11.1502 871 127.186 1031.56 463.819
2397 0 81.073 12.4456 1009 125.86 1032.09 462.497
2398 0 82.064 13.8307 1135 122.337 1031.92 461.606
2399 0 85.0265 10.926 929 131.914 1031.95 461.45
2400 0 88.0974 12.3386 1087 129.916 1032.07 459.704
2401 0 92.1758 14.57 1343 125.246 1032.49 456.972
2402 0 95.0814 14.0827 1339 127.093 1032.59 457.445
2403 0 96.0952 13.5595 1303 130.632 1032.26 454.83
2404 0 99.076 14.5747 1444 127.276 1031.6 454.751
2405 0 102.1 13.9178 1421 131.593 1031.98 451.071
2406 0 104.153 14.181 1477 132.011 1031.87 449.095
2407 0 109.13 14.6797 1602 130.68 1032.48 448.992
2408 0 112.117 14.2887 1602 133.574 1032.17 437.97
2409 0 114.07 14.4122 1644 133.178 1031.77 440.074
2410 0 118.078 14.0077 1654 134.081 1032.28 437.097
2411 0 122.096 14.0546 1716 133.185 1031.83 437.696
2412 1 67.0561 9.8425 660 131.209 1032.69 467.064
2413 0 70.0652 10.0335 703 131.579 1032.45 469.737
2414 0 71.0661 12.3688 879 129.294 1031.91 468.073
2415 0 74.0709 11.9885 888 131.127 1031.69 464.697
2416 0 76.0458 12.4662 948 130.443 1031.82 463.978
2417 0 77.0296 11.6189 895 133.428 1031.59 461.047
2418 0 81.043 13.4373 1089 127.481 1031.91 460.242
2419 0 85.0831 12.1646 1035 129.941 1032.52 462.935
2420 0 88.0444 13.4023 1180 129.036 1032.44 458.928
2421 0 90.1358 12.6809 1143 132.246 1032.43 456.024
2422 0 92.0812 13.1949 1215 131.607 1032.57 455.112
2423 0 95.0719 13.0428 1240 132.944 1032.26 453.832
2424 0 98.0302 13.4346 1317 131.661 1032.46 452.538
2425 0 101.074 13.0795 1322 133.349 1032.21 450.824
2426 0 106.14 13.4351 1426 130.567 1032.62 450.975
2427 0 107.068 12.3753 1325 135.854 1031.96 439.96
2428 0 112.171 13.9965 1570 128.813 1031.99 438.574
2429 1 63.1728 9.89349 625 129.832 1031.31 466.422
2430 0 65.1421 10.7764 702 129.281 1030.29 466.802
2431 0 69.1175 12.5873 870 124.229 1031.33 466.878
2432 0 69.0481 12.2813 848 126.969 1030.81 466.963
2433 0 71.1209 12.2608 872 127.248 1030.88 466.936
2434 0 73.1356 13.1126 959 125.713 1030.7 466.201
2435 0 76.0798 12.6183 960 126.525 1030.17 464.708
2436 0 77.1252 12.8881 994 127.41 1030.99 461.573
2437 0 81.1442 12.1759 988 129.501 1030.94 461.511
2438 0 81.1913 11.9594 971 132.461 1030.82 459.992
2439 0 84.1428 14.0594 1183 127.986 1030.77 460.519
2440 0 85.0874 11.4353 973 138.487 1030.79 456.227
2441 0 89.2185 13.1587 1174 133.957 1031.48 455.458
2442 0 93.1224 13.8957 1294 132.951 1031.18 454.035
2443 0 95.0891 14.0184 1333 133.687 1031.59 452.836
2444 0 99.0991 13.1787 1306 137.604 1031.45 451.121
2445 0 102.158 13.7728 1407 137.131 1031.2 450.8
2446 0 103.143 13.8546 1429 139.416 1031.69 447.125
2447 0 107.165 14.0438 1505 139.415 1031.61 446.714
2448 0 112.257 13.3711 1501 141.866 1031.98 439.607
2449 0 116.157 14.8937 1730 138.592 1031.55 438.081
2450 0 118.237 14.2764 1688 141.489 1031.5 438.16
2451 0 122.191 15.0011 1833 139.172 1031.5 439.386
2452 0 125.196 14.9845 1876 139.407 1031.03 441.468
2453 1 74.0986 11.7141 868 135.49 1032.35 467.517
2454 0 74.0168 11.6055 859 137.732 1032.35 465.712
2455 0 76.0876 11.7102 891 139.101 1033.07 463.95
2456 0 78.0592 12.1702 950 138.76 1032.47 462.082
2457 0 79.0604 11.7252 927 141.214 1032.51 460.892
2458 0 84.0909 12.9265 1087 135.325 1033.18 461.653
2459 0 87.1232 13.1423 1145 136.705 1032.2 458.572
2460 0 89.0942 13.076 1165 137.88 1031.79 457.454
2461 0 92.081 13.8682 1277 136.271 1032.35 457.319
2462 0 96.0618 14.1784 1362 134.488 1032.24 456.345
2463 0 96.0618 14.2617 1370 146.285 1031.24 456.321
2464 0 100.118 14.1333 1415 137.618 1032.7 453.685
2465 0 104.098 13.1511 1369 141.141 1033 447.97
2466 0 106.181 13.6276 1447 139.993 1032.85 448.307
2467 0 109.19 13.8016 1507 139.914 1033.01 446.793
2468 0 112.108 12.9964 1457 143.224 1032.59 440.021
2469 0 116.268 14.1655 1647 138.134 1033.21 442.405
2470 0 119.096 13.9384 1660 139.926 1033.13 440.413
2471 0 122.197 13.4455 1643 138.51 1032.93 439.887
2472 0 125.176 13.7886 1726 136.524 1032.68 440.536
2473 0 126.122 13.59 1714 138.127 1032.75 438.691
2474 0 133.233 13.5176 1801 137.518 1032.21 437.193
2475 1 80.1215 12.2314 980 131.263 1032.6 462.994
2476 0 81.1085 12.7484 1034 130.187 1033.18 460.422
2477 0 87.1657 13.4227 1170 126.91 1032.98 459.88
2478 0 87.1082 11.8473 1032 133.004 1032.66 456.817
2479 0 92.1566 12.7609 1176 128.933 1032.93 457.09
2480 0 93.1095 13.2962 1238 128.35 1032.94 454.552
2481 0 98.085 14.0898 1382 124.14 1032.57 454.619
2482 0 100.13 12.6435 1266 127.964 1032.69 451.772
2483 0 103.284 12.4995 1291 128.411 1032.56 449.09
2484 0 105.221 12.1174 1275 129.621 1032.24 444.624
2485 0 111.254 12.8354 1428 125.036 1031.95 442.587
2486 0 112.242 12.7849 1435 125.291 1032.19 438.358
2487 0 114.233 11.4065 1303 126.799 1032.14 438.216
2488 0 118.258 11.7201 1386 124.304 1032.45 436.847
2489 1 65.2334 8.9678 585 124.152 1032.6 462.215
2490 0 69.1393 11.2237 776 121.856 1032.51 465.392
2491 0 71.1189 10.8269 770 120.265 1031.26 464.27
2492 0 76.2332 11.2681 859 117.468 1031.71 465
2493 0 76.1885 10.1196 771 120.581 1031.5 463.91
2494 0 78.2454 11.4639 897 118.311 1030.98 461.833
2495 1 145.427 13.0512 1898 115.875 1031.23 430.191
2496 0 150.118 14.3354 2152 113.557 1030.91 429.038
2497 1 87.1614 11.1517 972 121.635 1031.59 457.363
2498 0 90.1518 11.6359 1049 120.596 1032.15 456.605
2499 0 92.0889 11.2826 1039 122.096 1032.21 456.097
2500 0 93.2097 11.7906 1099 123.528 1032.81 450.468
2501 0 99.1201 13.0044 1289 119.7 1033.09 450.298
2502 0 100.211 11.8949 1192 124.15 1032.54 446.182
2503 0 105.171 13.8346 1455 119.107 1032.34 434.063
2504 1 61.085 11.132 680 114.885 1031.95 460.938
2505 0 61.1593 9.43437 577 119.43 1031.63 462.161
2506 0 60.3338 9.9944 603 122.851 1032.57 459.693
2507 0 64.4525 11.8537 764 118.046 1032.43 461.694
2508 0 66.3869 11.6589 774 118.548 1032.59 462.615
2509 0 68.3782 11.7289 802 117.234 1032.73 464.181
2510 0 69.1399 11.8166 817 115.919 1033.25 462.788
2511 0 70.2122 10.9098 766 119.427 1031.53 465.134
2512 0 74.2667 12.2127 907 115.214 1031.46 465.687
2513 0 74.1522 11.7057 868 117.344 1031.33 463.491
2514 0 77.2249 12.3406 953 116.076 1031.98 461.874
2515 0 78.2364 12.9991 1017 116.334 1031.54 461.148
2516 0 82.3293 12.3407 1016 118.597 1031.12 458.963
2517 0 85.2633 13.0537 1113 117.573 1030.74 459.972
2518 0 87.1886 13.1669 1148 119.174 1031.57 457.043
2519 0 90.2503 13.6177 1229 120.186 1031.87 454.989
2520 0 93.1817 14.3269 1335 118.121 1032.36 454.614
2521 0 95.1751 13.6906 1303 120.546 1032.07 454.757
2522 0 99.0643 13.6477 1352 121.372 1032.74 451.841
2523 0 101.107 12.5511 1269 125.71 1032.71 449.556
2524 0 102.051 13.1895 1346 126.105 1033.39 446.868
2525 0 102.051 13.1307 1340 156.467 1034.39 446.763
2526 0 111.181 14.7238 1637 123.361 1032.87 437.607
2527 0 114.188 13.1537 1502 127.13 1033.2 437.204
2528 0 116.131 13.3039 1545 125.133 1032.94 437.863
2529 1 65.1086 9.69151 631 123.632 1033.1 464.216
2530 0 68.1473 12.0328 820 117.5 1032.14 465.616
2531 0 68.0826 11.2363 765 118.98 1033.07 466.195
2532 0 70.0466 11.9206 835 119.85 1033.97 461.994
2533 0 71.1184 11.3613 808 120.188 1033.79 463.589
2534 0 77.0573 13.3018 1025 113.722 1034.54 460.431
2535 0 79.0902 12.5174 990 117.009 1033.87 460.167
2536 0 80.0614 12.1532 973 118.868 1033.64 459.262
2537 0 81.0615 11.2877 915 121.667 1034.2 457.797
2538 0 82.0525 10.932 897 123.405 1033.87 456.409
2539 0 86.1224 11.6927 1007 121.466 1033.84 455.63
2540 0 90.1401 12.1921 1099 120.123 1033.93 454.906
2541 0 90.1038 12.2414 1103 121.525 1033.78 454.635
2542 0 94.1757 12.9227 1217 119.54 1033.91 452.591
2543 0 97.1149 13.932 1353 117.803 1033.57 451.415
2544 0 98.0711 13.3984 1314 120.213 1033.81 450.239
2545 0 101.065 13.3676 1351 121.726 1033.87 447.033
2546 0 105.075 13.2477 1392 122.432 1034.28 446.942
2547 0 106.066 13.1522 1395 123.564 1034.32 445.803
2548 0 110.177 13.551 1493 122.386 1034.67 444.064
2549 0 111.148 11.939 1327 125.789 1033.9 441.366
2550 0 119.097 13.8879 1654 120.502 1033.78 435.815
2551 0 119.066 12.5728 1497 125.302 1033.89 435.019
2552 0 123.151 12.8948 1588 123.56 1033.6 436.739
2553 1 69.1515 11.2362 777 118.274 1032.79 465.443
2554 0 71.1249 13.0475 928 116.855 1034.22 462.362
2555 0 71.0421 11.9929 852 119.508 1034.25 461.068
2556 0 74.2551 12.3089 914 117.159 1031.78 461.225
2557 0 77.2274 12.638 976 117.038 1032.02 459.408
2558 0 81.1792 12.5278 1017 117.245 1032.47 460.005
2559 0 81.2331 12.6549 1028 117.345 1032.04 459.44
2560 0 84.1912 13.7544 1158 116.336 1032.67 457.018
2561 0 86.1384 11.319 975 123.446 1033.04 454.55
2562 0 89.1484 12.1932 1087 119.96 1032.17 453.998
2563 0 92.1737 12.1944 1124 121.335 1032.11 452.698
2564 0 96.1388 12.8564 1236 119.426 1032.24 451.532
2565 0 97.1685 13.3171 1294 119.518 1032.89 450.212
2566 0 100.158 14.6568 1468 117.076 1032.75 447.014
2567 0 104.147 13.7498 1432 119.219 1032.87 448.03
2568 0 107.233 14.3799 1542 118.355 1032.59 445.025
2569 0 110.288 14.0723 1552 119.38 1032.96 444.65
2570 0 111.182 13.4734 1498 122.511 1033.16 442.943
2571 0 114.237 13.8572 1583 121.972 1033.13 440.636
2572 0 119.234 15.1467 1806 118.803 1033.14 439.84
2573 0 119.338 14.0609 1678 123.039 1033.16 437.884
2574 0 125.504 16.3262 2049 116.404 1033.32 435.265
2575 0 128.315 15.3918 1975 117.607 1033.34 436.7
2576 0 132.268 14.8335 1962 119.463 1032.93 431.966
2577 0 137.364 16.3288 2243 115.288 1032.9 433.609
2578 0 138.176 14.7854 2043 120.668 1033 430.742
2579 0 145.3 16.7722 2437 113.999 1032.68 429.572
2580 1 82.1379 12.4181 1020 119.475 1033.57 460.014
2581 0 85.1874 14.2157 1211 118.009 1033.28 456.443
2582 0 87.1343 13.221 1152 120.638 1033.39 456.176
2583 0 91.1031 13.7536 1253 119.936 1033.51 454.182
2584 0 92.0842 13.3573 1230 121.315 1033.86 453.198
2585 0 96.0742 14.01 1346 119.57 1033.68 453.484
2586 0 97.1582 13.4214 1304 122.101 1033.07 450.406
2587 0 100.148 12.7512 1277 125.143 1033.18 447.814
2588 0 102.047 13.5525 1383 124.533 1033.33 446.202
2589 0 106.316 15.0118 1596 121.329 1033.24 445.719
2590 0 108.119 13.3741 1446 126.541 1033.02 443.661
2591 0 112.129 14.1355 1585 125.455 1032.75 441.717
2592 0 113.14 13.364 1512 128.562 1032.81 441.742
2593 0 117.226 13.5039 1583 127.537 1033.14 439.297
2594 0 119.156 13.176 1570 129.687 1033.14 438.048
2595 0 125.131 13.8574 1734 127.347 1033.2 435.249
2596 0 130.158 14.6207 1903 124.533 1033.03 433.545
2597 0 135.153 14.8794 2011 123.02 1032.98 432.274
2598 0 138.214 14.3618 1985 124.009 1032.83 430.595
2599 1 77.0995 12.3736 954 121.312 1033.26 459.502
2600 0 80.0961 13.1842 1056 118.416 1033.63 460.259
2601 0 83.092 12.7329 1058 120.124 1033.64 458.458
2602 0 84.0968 12.5689 1057 122.517 1032.76 456.423
2603 0 87.0467 12.7403 1109 123.048 1033.04 455.725
2604 0 91.1656 13.821 1260 121.137 1032.64 451.497
2605 0 93.1285 12.2626 1142 125.895 1032.83 451.504
2606 0 94.1695 12.1377 1143 127.338 1032.93 450.703
2607 0 98.1512 13.3875 1314 125.155 1032.86 446.918
2608 0 102.177 12.8698 1315 127.292 1032.72 445.376
2609 0 105.142 12.9254 1359 128.066 1033.22 441.637
2610 0 109.149 13.0831 1428 126.779 1033.16 441.884
2611 0 112.226 13.7134 1539 123.992 1033.2 442.476
2612 0 119.255 13.9953 1669 122.883 1033.16 436.013
2613 0 120.2 13.436 1615 124.711 1032.74 436.318
2614 0 123.187 13.0047 1602 125.285 1033.28 437.331
2615 0 127.194 11.7537 1495 127.749 1033.6 434.829
2616 1 71.1242 10.5871 753 116.414 1033.94 463.361
2617 0 75.1749 11.1872 841 112.924 1033.34 464.875
2618 0 76.0666 11.2533 856 114.405 1033.92 461.005
2619 0 80.0917 11.5243 923 112.661 1033.59 462.001
2620 0 83.1456 12.0632 1003 112.607 1033.53 459.502
2621 0 86.1723 11.1289 959 115.993 1033.51 457.632
2622 0 89.1339 11.9034 1061 116.077 1033.33 454.82
2623 0 89.1339 11.8698 1058 135.115 1033.31 454.687
2624 0 98.1012 12.4463 1221 114.577 1032.81 454.172
2625 0 99.142 11.2062 1111 118.515 1032.79 452.073
2626 0 102.221 11.4947 1175 117.724 1032.83 450.619
2627 0 105.081 12.6378 1328 116.529 1032.95 448.288
2628 0 108.309 13.4892 1461 113.947 1033.13 448.329
2629 0 110.222 12.3478 1361 117.427 1032.9 443.996
2630 0 113.12 11.3684 1286 119.335 1032.46 441.626
2631 0 118.211 11.3864 1346 119.881 1031.85 438.454
2632 0 121.243 11.811 1432 117.881 1032.28 440.827
2633 0 126.294 14.0783 1778 112.924 1032.03 434.084
2634 0 131.31 13.6166 1788 113.198 1032.21 435.271
2635 0 137.252 13.559 1861 113.335 1031.77 435.172
2636 1 77.1044 10.2848 793 115.798 1032.54 461.084
2637 0 81.1867 12.5636 1020 110.94 1032.34 460.9
2638 0 82.1178 11.1547 916 115.581 1032.18 459.054
2639 0 87.215 12.4978 1090 112.695 1031.54 458.779
2640 0 91.2307 11.6408 1062 114.649 1031.75 458.363
2641 0 90.2031 11.973 1080 117.126 1032.29 454.841
2642 0 95.1463 12.98 1235 114.92 1032.09 453.127
2643 0 97.1295 12.6017 1224 115.824 1031.45 452.944
2644 0 102.254 13.1144 1341 115.434 1031.22 450.472
2645 0 102.254 13.1046 1340 138.871 1030.23 450.387
2646 0 107.152 12.9349 1386 118.032 1030.55 445.849
2647 0 109.326 11.9825 1310 123.35 1030.92 444.079
2648 0 112.305 13.1695 1479 119.039 1030.67 445.852
2649 0 115.297 11.5875 1336 125.822 1030.63 437.192
2650 0 118.276 12.6315 1494 123.156 1030.44 441.578
2651 0 123.269 12.6553 1560 123.799 1030.84 436.84
2652 0 124.287 12.8171 1593 124.842 1030.15 436.352
2653 0 128.26 13.5116 1733 122.481 1029.86 435.6
2654 0 133.319 14.4091 1921 116.768 1029.64 435.683
2655 0 135.272 12.9147 1747 119.84 1029.86 432.017
2656 1 73.216 10.2163 748 120.615 1029.38 464.053
2657 0 80.3238 12.5368 1007 113.386 1029.03 463.701
2658 0 79.2564 12.3523 979 117.466 1029.75 458.88
2659 0 81.2389 10.8076 878 121.034 1030.11 458.443
2660 0 85.1603 11.9187 1015 117.555 1029.61 459.303
2661 0 87.2415 11.7261 1023 119.585 1029.92 453.409
2662 0 90.3381 11.5455 1043 120.333 1030.45 453.422
2663 0 93.2319 13.579 1266 115.303 1030.28 452.575
2664 0 94.1559 11.9483 1125 121.242 1030.11 449.996
2665 0 99.4222 13.4779 1340 116.604 1030.26 451.746
2666 0 99.2509 12.7757 1268 121.032 1029.84 436.417
2667 0 101.365 12.3218 1249 122.295 1029.54 435.945
2668 0 106.43 13.0602 1390 119.869 1029.81 437.945
2669 0 108.277 12.0801 1308 123.732 1029.91 435.283
2670 0 112.261 13.5043 1516 120.666 1030.14 436.799
2671 0 114.443 12.7924 1464 122.76 1030.08 436.02
2672 0 117.522 13.7676 1618 119.703 1030.12 435.793
2673 1 66.2431 10.2954 682 116.128 1029.19 463.676
2674 0 71.2478 11.1723 796 113.058 1030.33 464.19
2675 0 72.2202 11.3265 818 113.935 1029.74 461.656
2676 0 73.3146 11.6484 854 113.83 1030.12 461.826
2677 0 76.2796 11.4054 870 115.134 1030.04 458.52
2678 0 79.2046 12.373 980 112.756 1030.28 458.282
2679 0 81.2923 11.92 969 114.476 1030.54 457.771
2680 0 84.2257 12.6327 1064 112.877 1030 457.283
2681 0 86.3861 12.0737 1043 115.551 1029.99 454.068
2682 0 89.3174 12.3604 1104 114.709 1030.46 454.906
2683 0 91.2493 12.4165 1133 115.274 1029.77 453.037
2684 0 95.258 13.1852 1256 113.826 1030.36 453.704
2685 0 98.2588 13.7596 1352 113.704 1029.99 450.288
2686 0 101.222 13.2184 1338 115.142 1029.83 449.06
2687 0 102.296 13.4023 1371 115.806 1029.68 445.922
2688 0 105.287 14.1234 1487 115.024 1030.34 438.59
2689 0 108.156 12.8333 1388 118.384 1030.35 437.718
2690 0 112.339 13.5661 1524 116.843 1030.68 438.894
2691 0 114.275 15.1039 1726 114.334 1030.57 438.119
2692 0 116.299 13.1472 1529 119.715 1031.14 436.587
2693 0 120.38 13.9558 1680 117.202 1029.97 437.766
2694 0 120.329 11.8675 1428 122.163 1030.04 439.518
2695 0 122.271 11.9897 1466 122.519 1029.62 435.87
2696 1 73.2489 11.0036 806 115.249 1029.34 462.974
2697 0 75.1725 10.8417 815 116.728 1029.84 461.751
2698 0 76.2619 10.7918 823 118.35 1030.15 459.194
2699 0 81.2661 12.8221 1042 112.447 1030.26 460.927
2700 0 84.2906 13.8212 1165 111.798 1030.4 458.447
2701 0 86.2589 11.8133 1019 117.701 1030.08 455.234
2702 0 87.2285 12.8398 1120 116.577 1030.67 452.587
2703 0 92.3673 13.6087 1257 114.333 1030.1 450.888
2704 0 91.2044 12.0389 1098 120.355 1030.79 447.614
2705 0 95.2748 13.2774 1265 116.642 1030.47 449.258
2706 0 98.2723 12.852 1263 118.66 1030.61 445.519
2707 0 100.382 12.5122 1256 119.966 1030.56 444.376
2708 0 104.322 12.6723 1322 120.03 1030.9 441.673
2709 0 107.422 13.0048 1397 120.098 1030.44 441.698
2710 0 110.37 13.6178 1503 118.798 1030.36 441.872
2711 0 113.417 12.8112 1453 121.637 1030.69 441.305
2712 0 114.463 11.8816 1360 125.977 1030.75 438.124
2713 0 119.451 11.8375 1414 125.055 1030.51 439.633
2714 0 123.534 15.2913 1889 117.273 1030.28 437.044
2715 0 126.51 13.6037 1721 122.244 1030.21 435.223
2716 0 130.4 14.1104 1840 121.117 1030.28 433.58
2717 0 133.321 13.0137 1735 124.627 1031.41 432.22
2718 0 139.346 14.9053 2077 120.152 1031.01 427.545
2719 0 143.376 14.8142 2124 121.215 1030.45 423.582
2720 0 150.32 15.2341 2290 118.888 1030.8 423.654
2721 0 153.332 14.9089 2286 121.177 1030.86 420.514
2722 1 88.1833 12.1678 1073 120.637 1030.65 454.158
2723 0 92.1205 12.8527 1184 119.764 1030.76 453.651
2724 0 96.1854 13.0581 1256 119.927 1031.19 452.588
2725 0 97.132 13.2294 1285 120.885 1031.07 449.809
2726 0 101.256 13.4807 1365 119.549 1031.51 447.144
2727 0 106.238 13.7521 1461 119.023 1030.98 444.133
2728 0 108.318 13.8389 1499 119.697 1030.53 442.232
2729 0 109.176 14.0782 1537 120.1 1030.39 441.558
2730 0 114.233 13.6913 1564 120.982 1031.55 439.217
2731 0 114.264 13.7052 1566 153.994 1032.56 439.092
2732 0 120.239 14.5627 1751 119.776 1030.62 431.937
2733 0 125.413 14.0656 1764 120.221 1030.74 432.27
2734 0 128.312 13.9659 1792 120.491 1030.89 431.286
2735 0 127.375 12.8047 1631 125.838 1030.46 427.663
2736 0 135.404 13.685 1853 122.07 1030.58 429.804
2737 0 140.37 13.9703 1961 121.06 1030.23 426.31
2738 0 146.259 14.7684 2160 117.631 1030.4 425.4
2739 1 76.3047 11.7424 896 122.936 1031.96 454.129
2740 0 85.2187 14.3396 1222 114.484 1031.47 456.511
2741 0 87.3167 12.2886 1073 120.568 1031.6 454.431
2742 0 88.3493 12.3487 1091 121.698 1031.34 452.929
2743 0 92.1583 13.314 1227 119.427 1031.37 450.475
2744 0 94.2699 12.6976 1197 121.353 1031.74 449.662
2745 0 98.185 13.0061 1277 120.85 1032.09 446.871
2746 0 102.248 13.3597 1366 120.143 1032.31 445.856
2747 0 107.453 13.5966 1461 119.21 1032.15 442.676
2748 0 109.303 13.6501 1492 120.119 1032.16 436.45
2749 0 111.349 13.1299 1462 121.57 1031.78 436.689
2750 1 61.1649 10.5453 645 121.282 1031.68 463.155
2751 0 64.289 12.4127 798 116.165 1031.4 465.573
2752 0 65.3678 13.7682 900 114.781 1032.03 464.283
2753 0 66.162 12.7263 842 118.645 1031.57 464.229
2754 0 67.3072 13.015 876 119.525 1031.86 462.517
2755 0 70.2882 13.0321 916 120.325 1031.77 459.364
2756 0 73.3729 13.8471 1016 117.834 1031.13 459.874
2757 0 75.2095 13.4557 1012 118.682 1031.74 460.05
2758 0 75.2095 13.4557 1012 158.524 1032.74 460.109
2759 0 80.2557 13.295 1067 118.208 1031.72 457.336
2760 0 86.3356 14.9069 1287 113.612 1031.26 454.543
2761 0 85.3626 14.3388 1224 116.309 1031.6 453.145
2762 0 88.1736 14.6983 1296 115.002 1031.77 453.863
2763 0 92.3564 13.7078 1266 117.111 1030.79 451.745
2764 0 96.1925 15.5729 1498 112.698 1030.48 449.555
2765 0 97.2441 13.9546 1357 117.707 1030.92 448.846
2766 0 101.359 14.71 1491 115.255 1030.75 447.422
2767 0 100.239 13.9666 1400 118.979 1030.6 445.371
2768 0 101.241 13.9963 1417 159.361 1029.57 445.457
2769 0 109.304 14.8943 1628 115.133 1030.62 444.929
2770 0 109.203 14.1663 1547 117.637 1030.5 440.966
2771 0 112.276 13.7697 1546 117.664 1031.21 440.794
2772 0 116.331 13.5733 1579 116.545 1030.97 442.437
2773 0 119.174 13.7949 1644 116.941 1030.8 437.428
2774 0 125.325 13.7243 1720 116.294 1030.66 437.681
2775 0 127.327 13.43 1710 117.113 1030.86 444.03
2776 1 73.1688 11.0566 809 117.156 1030.64 464.538
2777 0 74.1167 11.7382 870 115.29 1030.2 462.474
2778 0 77.1734 12.6987 980 110.305 1030.9 463.373
2779 0 79.1622 13.6302 1079 108.57 1030.58 461.036
2780 0 81.1547 11.6075 942 113.225 1030.79 458.546
2781 0 84.1244 10.4845 882 116.372 1030.63 455.497
2782 0 89.1194 11.6585 1039 113.424 1030.74 455.221
2783 0 91.0617 11.7613 1071 113.047 1030.58 455.778
2784 0 95.0933 13.3448 1269 111.894 1030.38 450.443
2785 0 96.1539 11.8248 1137 116.809 1030.87 445.601
2786 0 103.173 14.7907 1526 110.364 1030.97 440.493
2787 0 106.217 12.9358 1374 113.549 1031.76 441.868
2788 0 108.159 13.7298 1485 112.143 1031.43 438.29
2789 0 112.169 13.328 1495 111.24 1031.53 441.11
2790 0 113.08 12.3806 1400 113.441 1031.52 441.082
2791 1 71.0505 10.1477 721 105.374 1030.46 463.322
2792 0 71.1356 9.55921 680 106.684 1030.86 460.572
2793 0 75.0905 10.1611 763 104.862 1030.79 461.083
2794 0 78.1582 12.3212 963 99.9232 1031.37 461.819
2795 0 80.0708 9.9412 796 104.552 1031.83 460.756
2796 0 82.1926 10.1956 838 105.961 1032 458.351
2797 0 87.0601 12.6349 1100 101.979 1031.99 457.156
2798 0 90.1594 12.6221 1138 104.166 1031.99 453.106
2799 0 92.1728 11.4133 1052 106.933 1032.45 451.721
2800 0 96.0592 12.6276 1213 104.837 1032.12 450.173
2801 0 99.1168 12.4802 1237 105.668 1032.22 448.846
2802 0 101.204 13.1714 1333 105.42 1032.46 446.359
2803 0 106.114 13.9943 1485 102.702 1032.53 448.512
2804 0 108.154 12.7966 1384 105.936 1032.28 446.058
2805 0 111.113 12.5278 1392 108.387 1031.59 438.044
2806 0 115.15 13.591 1565 105.749 1031.47 441.622
2807 0 119.302 12.0703 1440 109.397 1031.66 440.16
2808 0 121.268 12.2127 1481 110.907 1031.98 433.818
2809 0 126.226 11.1704 1410 112.044 1031.63 437.006
2810 0 130.239 12.0625 1571 111.458 1031.3 434.798
2811 0 133.296 11.0806 1477 115.585 1030.63 426.835
2812 1 79.1699 9.08174 719 106.818 1031.82 460.609
2813 0 82.1236 9.54658 784 105.881 1032.05 459.58
2814 0 87.0855 9.99018 870 104.49 1031.94 458.151
2815 0 84.1151 8.96391 754 110.471 1032.03 450.599
2816 0 91.1077 10.4162 949 106.8 1032.54 451.388
2817 0 94.1364 10.7291 1010 107.095 1031.99 449.495
2818 0 97.1638 11.3828 1106 105.932 1032.21 449.908
2819 0 98.1526 10.3003 1011 109.833 1031.61 444.805
2820 0 102.135 12.9632 1324 104.154 1031.81 446.339
2821 0 104.116 11.6312 1211 107.605 1031.53 444.202
2822 0 107.232 10.6591 1143 109.541 1031.91 443.418
2823 0 112.197 12.1928 1368 106.282 1031.65 440.292
2824 0 112.169 11.3668 1275 109.197 1031.13 438.162
2825 0 116.226 11.2368 1306 109.511 1031.13 435.61
2826 0 119.289 9.45606 1128 113.485 1031.11 432.384
2827 0 122.243 10.8145 1322 110.122 1031.35 429.264
2828 0 128.205 11.2008 1436 108.148 1031.73 433.77
2829 0 131.225 9.31224 1222 113.41 1031.64 430.408
2830 0 138.243 9.91735 1371 111.551 1031.43 431.639
2831 1 80.09 9.42689 755 106.485 1032.46 451.649
2832 0 83.0443 10.0308 833 106.238 1032.05 449.984
2833 0 89.0519 9.98294 889 105.953 1032.22 453.21
2834 0 90.0575 9.76043 879 107.815 1032.22 448.159
2835 0 94.0798 10.2041 960 107.304 1032.33 445.052
2836 0 98.1049 10.8252 1062 106.569 1032.18 448.423
2837 0 101.262 11.8011 1195 104.577 1032.26 448.58
2838 0 102.095 10.0396 1025 108.831 1031.56 445.717
2839 0 106.2 11.2241 1192 107.131 1031.81 442.961
2840 0 111.162 11.1998 1245 106.8 1031.57 438.868
2841 0 116.216 10.8849 1265 105.929 1031.41 440.06
2842 0 116.132 10.1522 1179 107.466 1031.24 440.901
2843 1 66.1813 9.41353 623 100.52 1031.22 466.804
2844 0 67.1021 8.80748 591 102.513 1030.11 465.616
2845 0 71.0637 10.5961 753 98.8353 1029.48 465.981
2846 0 72.1644 10.4068 751 100.34 1029.52 464.836
2847 0 71.1136 9.12624 649 104.624 1030.25 459.26
2848 0 76.2711 10.502 801 100.587 1030.25 463.754
2849 0 80.1998 11.5586 927 98.5286 1029.72 464.311
2850 0 80.1523 11.3409 909 100.354 1030.34 460.945
2851 0 84.1207 12.5772 1058 99.3336 1030.4 457.358
2852 0 87.1138 12.0762 1052 100.662 1030.59 457.759
2853 0 91.0954 12.4375 1133 99.7811 1030.8 457.838
2854 0 91.1543 11.9468 1089 102.591 1030.62 452.78
2855 0 95.1368 12.9393 1231 100.829 1030.41 452.476
2856 0 97.1529 12.8972 1253 103.4 1030.59 442.392
2857 0 98.0895 11.5507 1133 107.48 1030.87 443.727
2858 0 101.096 12.6514 1279 106.984 1030.36 440.516
2859 0 103.139 12.4492 1284 106.861 1030.85 442.448
2860 0 105.114 11.5969 1219 108.571 1030.41 442.936
2861 0 109.146 11.5167 1257 108.026 1030.01 443.309
2862 0 112.364 11.703 1315 107.56 1029.75 443.82
2863 0 115.354 12.6827 1463 105.693 1029.66 441.28
2864 0 118.531 11.8619 1406 109.484 1028.74 440.974
2865 0 120.537 10.9842 1324 112.616 1028.59 441.44
2866 0 126.411 13.1001 1656 107.755 1028.48 439.694
2867 1 73.3102 10.4215 764 106.563 1028.76 463.631
2868 0 76.1614 10.5828 806 106.12 1029.23 463.426
2869 0 78.125 12.352 965 103.442 1030.06 461.135
2870 0 83.1463 12.3878 1030 103.408 1029.29 460.541
2871 0 83.0986 11.6608 969 106.419 1030.22 459.587
2872 0 87.0758 12.1963 1062 105.187 1029.85 459.955
2873 0 90.0968 12.9638 1168 104.117 1030.17 457.636
2874 0 88.0849 11.557 1018 145.849 1030.38 454.425
2875 0 97.1306 11.7883 1145 108.39 1030.88 452.396
2876 0 99.1307 10.8039 1071 113.703 1031.14 450.78
2877 0 102.241 12.1771 1245 111.265 1031.33 450.809
2878 0 105.103 12.9587 1362 110.279 1030.74 449.065
2879 0 109.138 12.7087 1387 111.859 1030.48 446.761
2880 0 111.073 11.9111 1323 114.873 1030.89 442.008
2881 0 114.149 12.3348 1408 114.695 1030.3 442.631
2882 0 113.181 11.0531 1251 118.795 1030.15 437.677
2883 0 119.294 11.9872 1430 116.164 1030.52 439.159
2884 0 123.281 11.5752 1427 116.835 1030.05 437.959
2885 0 129.163 13.5023 1744 111.502 1030.6 435.597
2886 0 131.199 12.9498 1699 113.381 1030.5 434.442
2887 0 135.203 12.9509 1751 114.183 1030.35 429.986
2888 0 140.195 13.574 1903 112.424 1029.73 430.137
2889 1 80.181 10.5137 843 111.752 1031.23 459.524
2890 0 84.1548 10.3619 872 110.942 1031.22 459.151
2891 0 86.1624 11.0373 951 110.523 1030.83 456.341
2892 0 90.0996 11.1543 1005 110.061 1030.86 455.051
2893 0 91.0762 10.8481 988 111.734 1031.11 455.576
2894 0 95.0727 11.1599 1061 112.049 1030.56 451.142
2895 0 97.105 11.7399 1140 111.622 1030.86 449.145
2896 0 101.307 11.6478 1180 111.478 1030.44 448.739
2897 0 102.482 12.0606 1236 115.013 1030.61 425.975
2898 0 106.285 12.8429 1365 113.76 1030.8 427.168
2899 0 108.461 12.7973 1388 114.624 1030.77 426.811
2900 0 111.462 12.5245 1396 115.684 1031 424.82
2901 0 112.583 12.9593 1459 115.827 1030.67 425.784
2902 0 116.344 11.9731 1393 117.157 1030.18 424.192
2903 0 120.381 13.856 1668 111.287 1030.58 425.583
2904 0 121.675 12.4594 1516 115.662 1030.63 419.968
2905 0 126.591 12.6312 1599 112.753 1030.49 427.168
2906 0 132.396 12.1227 1605 113.994 1030.65 422.507
2907 1 75.4726 10.0434 758 108.759 1031.53 452.429
2908 0 76.2408 10.3226 787 108.672 1031.28 451.835
2909 0 78.5079 11.9733 940 105.279 1031.17 451.564
2910 0 81.4181 12.1103 986 105.353 1031.2 453.373
2911 0 83.4127 10.7298 895 109.08 1031.27 452.803
2912 0 83.3437 11.6506 971 109.417 1031.1 450.488
2913 0 87.3235 12.4251 1085 107.197 1031.38 455.153
2914 0 90.5913 13.0145 1179 107.414 1031.27 451.079
2915 0 93.3043 12.7218 1187 108.707 1031.58 452.485
2916 0 94.3658 12.1972 1151 112.024 1031.94 451.873
2917 0 97.3743 12.2106 1189 112.718 1031.75 450.24
2918 0 100.41 12.4291 1248 113.181 1031.86 449.267
2919 0 102.163 12.4605 1273 113.892 1031.61 447.635
2920 0 105.238 13.3412 1404 111.449 1030.74 447.157
2921 0 109.262 14.4698 1581 110.499 1031.01 446.206
2922 0 113.186 16.1946 1833 106.71 1031.06 441.675
2923 0 113.396 12.1168 1374 119.159 1031.67 440.806
2924 0 113.206 12.0577 1365 119.44 1031.39 441.591
2925 0 119.357 12.1568 1451 118.534 1030.98 440.292
2926 0 124.367 12.6481 1573 118.083 1030.64 437.592
2927 0 124.514 12.7857 1592 120.686 1030.7 433.947
2928 0 128.31 12.6023 1617 121.327 1030.42 430.258
2929 0 135.416 12.5687 1702 120.071 1030.06 430.189
2930 1 59.1499 9.2815 549 110.927 1030.81 460.148
2931 0 58.1564 10.1279 589 111.711 1030.51 456.229
2932 0 58.1977 10.3269 601 110.06 1029.06 454.414
2933 0 61.1337 11.6303 711 105.541 1029.87 456.193
2934 0 64.2532 11.7971 758 105.689 1030.28 457.958
2935 0 66.0801 11.9703 791 105.885 1030.04 457.934
2936 0 69.0764 13.1159 906 107.959 1030.07 461.906
2937 0 70.0807 12.1003 848 110.585 1029.81 459.987
2938 0 72.0442 11.9788 863 110.831 1029.98 461.787
2939 0 73.0369 12.5416 916 110.752 1030.39 459.439
2940 0 76.0528 11.0318 839 112.684 1030.72 459.304
2941 0 76.0742 10.9761 835 115.217 1030.54 458.817
2942 0 79.0985 11.7954 933 112.921 1030.62 458.436
2943 0 82.0599 11.4916 943 113.891 1030.36 455.744
2944 0 85.1692 11.5183 981 113.257 1030.58 456.841
2945 0 91.1285 14.101 1285 106.904 1030.76 452.079
2946 0 90.1225 12.2944 1108 113.688 1030.71 453.707
2947 0 91.2387 12.133 1107 115.541 1030.47 451.78
2948 0 93.1917 12.4153 1157 116.957 1030.55 448.845
2949 0 98.097 12.559 1232 117.472 1030.32 440.091
2950 0 103.073 12.1661 1254 116.459 1030.36 442.262
2951 0 104.182 12.0942 1260 117.04 1030.52 440.848
2952 1 64.0858 9.89299 634 109.756 1030.92 465.188
2953 0 68.0391 10.1559 691 109.132 1030.02 466.773
2954 0 69.2026 9.86957 683 113.067 1029.32 464.25
2955 0 68.2538 10.1679 694 113.755 1029.26 462.638
2956 0 72.0955 10.1393 731 111.09 1029.22 464.993
2957 0 74.1553 10.8826 807 111.772 1029.15 460.933
2958 0 76.1543 11.2272 855 112.23 1029.56 461.016
2959 0 77.2486 11.2106 866 114.439 1029.69 458.542
2960 0 82.3103 11.9183 981 112.492 1030.03 459.546
2961 0 82.1466 11.9299 980 115.71 1030.28 456.31
2962 0 86.0655 11.9793 1031 116.287 1030.66 456.545
2963 0 90.2125 12.3043 1110 96.9775 1030.91 456.968
2964 0 90.2125 12.3043 1110 140.059 1030.91 457.055
2965 0 95.136 12.4769 1187 115.612 1030.68 454.538
2966 0 94.0738 12.926 1216 117.15 1030.35 448.957
2967 0 100.191 13.5142 1354 114.839 1030.76 448.052
2968 0 101.23 11.5282 1167 121.208 1030.46 445.714
2969 0 105.174 11.7614 1237 121.753 1030.74 441.371
2970 0 108.14 12.3729 1338 120.939 1030.88 440.124
2971 0 110.108 12.179 1341 121.771 1030.64 439.26
2972 0 111.11 11.3131 1257 124.087 1030.45 438.475
2973 0 115.263 11.3306 1306 123.195 1029.88 437.346
2974 0 117.2 10.4607 1226 126.095 1029.97 436.836
2975 0 125.276 13.107 1642 118.7 1029.32 436.702
2976 1 76.0643 9.62344 732 121.109 1030.52 461.622
2977 0 78.0436 11.4039 890 118.347 1030.62 459.939
2978 0 81.1821 11.3572 922 118.351 1030.23 457.76
2979 0 83.0951 11.0476 918 119.466 1030.08 457.782
2980 0 85.0671 11.344 965 120.68 1030.36 453.102
2981 0 87.0913 10.5292 917 123.523 1030.44 449.06
2982 0 93.1513 12.0771 1125 117.837 1030.37 451.35
2983 0 95.1898 12.0076 1143 119.535 1030.63 451.074
2984 0 95.0809 11.4639 1090 122.229 1030.2 444.419
2985 0 97.0876 9.67168 939 126.841 1030.27 442.515
2986 0 103.194 11.8515 1223 119.177 1030.45 445.761
2987 0 107.186 12.5296 1343 117.844 1029.77 443.173
2988 0 110.153 11.602 1278 118.896 1029.64 444.552
2989 0 113.139 14.0005 1584 114.394 1029.72 443.68
2990 0 112.195 10.7937 1211 124.026 1029.61 438.938
2991 0 119.258 12.9383 1543 116.195 1029.93 441.667
2992 0 121.145 12.2663 1486 117.135 1029.61 442.972
2993 0 121.24 11.6876 1417 121.116 1029.31 432.482
2994 0 124.267 11.8213 1469 120.708 1029.29 433.552
2995 1 78.117 9.66498 755 114.739 1029.96 458.522
2996 0 81.1022 10.4559 848 111.59 1029.92 459.611
2997 0 81.0825 9.52117 772 116.187 1030.69 453.745
2998 0 87.2215 11.4651 1000 109.367 1030.35 456.566
2999 0 86.0849 9.63003 829 116.21 1030.36 451.604
3000 0 88.1924 11.1121 980 112.449 1030.05 452.958
3001 0 92.1807 11.868 1094 111.261 1030.42 448.878
3002 0 97.3472 12.5222 1219 109.402 1029.91 451.19
3003 0 99.2122 11.6921 1160 111.702 1030.25 450.956
3004 1 18.031 6.32246 114 84.5965 1028.85 493.596
3005 0 16.0022 4.56187 73 86.589 1029.6 493.425
3006 0 15.0176 5.59344 84 86.381 1029.45 493.012
3007 0 15.0455 7.31113 110 83.0455 1029.3 492.918
3008 0 20.0282 3.74473 75 82.4267 1028.21 494.68
3009 0 15.0229 5.65803 85 85.3176 1028.8 491.659
3010 0 17.0805 7.49393 128 82.1641 1028.67 492
3011 0 21.0345 7.84424 165 82.1697 1029.39 491.503
3012 0 15.0367 4.9878 75 84.88 1029.19 493.227
3013 0 17.0095 6.99609 119 80.9832 1029.4 494.37
3014 0 15.0015 3.46632 52 86.1154 1028.9 494.019
3015 0 16.0159 4.74528 76 85.0921 1028.71 492.921
3016 0 15.0031 3.33265 50 86.24 1028.84 492.84
3017 0 15.0181 4.99397 75 84.4267 1027.76 492.52
3018 0 14.0225 5.06329 71 86.2254 1028.2 491.69
3019 0 17.0315 7.57421 129 83.2248 1028.37 491.147
3020 0 12.0095 4.08009 49 84.4694 1027.49 493.143
3021 0 15.026 5.32409 80 84 1027.4 491.225
3022 0 11.0038 1.90844 21 89.1905 1027.33 489.81
3023 0 14.0046 3.57027 50 87.42 1026.82 490.62
3024 0 21.0989 5.02395 106 87.6792 1027.97 488.934
3025 0 21.1716 5.9986 127 86.8898 1027.56 486.693
3026 0 16.068 6.59695 106 85.9717 1026.06 486.226
3027 0 15.0703 3.98135 60 90.6333 1027.07 485.3
3028 0 16.0559 7.28704 117 84.0342 1027.76 488.385
3029 0 19.0169 4.62746 88 88.0909 1027.65 488.511
3030 0 15.0184 5.99264 90 87.4111 1027.49 489.322
3031 0 10.0006 1.89988 19 93.7895 1028.21 489.105
3032 0 19.0126 7.46874 142 82.8099 1028.55 492.345
3033 0 14.0003 4.85703 68 84.0441 1028.96 494.603
3034 0 17.0256 5.22742 89 84.5169 1029.08 494.067
3035 0 18.0034 4.61024 83 89.1446 1029.63 489.639
3036 0 22.0777 6.29595 139 86.0576 1028.95 490.777
3037 0 20.0089 5.24767 105 87.6095 1029.45 490.762
3038 0 19.0296 6.14831 117 85.0769 1029.19 493.444
3039 0 14.0004 2.35707 33 88.697 1029.58 494.667
3040 0 15.0071 7.1966 108 83.3333 1029.71 493.991
3041 1 91.1849 10.221 932 109.351 1031.17 454.931
3042 0 96.1423 11.2125 1078 106.536 1031.16 453.89
3043 0 99.1103 13.9138 1379 101.455 1031.49 452.386
3044 0 100.133 12.9728 1299 105.453 1031.25 447.156
3045 0 104.124 12.6868 1321 104.788 1030.95 446.204
3046 0 104.166 11.2897 1176 104.562 1030.71 443.548
3047 1 19.0045 3.26239 62 86.129 1029.79 490.984
3048 0 20.0222 5.29412 106 86.3679 1030.19 490.538
3049 0 12.0012 3.33299 40 84.575 1030 491.05
3050 0 12.0021 4.83248 58 84.5345 1030.1 493.19
3051 0 15.0161 4.72827 71 83.7606 1029.63 492.775
3052 1 110.237 12.6364 1393 112.286 1030.76 438.42
3053 0 113.188 12.2009 1381 112.855 1031.48 437.4
3054 0 116.328 13.8659 1613 107.561 1031.23 440.452
3055 0 117.203 11.0578 1296 114.125 1031.29 438.109
3056 0 126.268 16.5204 2086 98.1237 1030.61 434.91
3057 0 126.427 12.7584 1613 107.55 1031.2 434.714
3058 0 129.31 13.6184 1761 104.206 1030.56 435.132
3059 0 129.262 13.7009 1771 104.742 1030.22 431.095
3060 0 133.259 12.3744 1649 107.543 1030.03 424.116
3061 0 138.33 12.7955 1770 105.537 1030.24 426.379
3062 0 143.201 13.5753 1944 103.425 1029.92 426.386
3063 0 144.302 12.4877 1802 107.184 1029.7 423.941
3064 1 83.2582 10.9298 910 104.265 1030.37 454.447
3065 0 86.1114 12.1006 1042 103.311 1030.85 451.573
3066 0 88.0835 10.7739 949 108.641 1030.81 447.19
3067 0 89.1582 10.6664 951 110.899 1030.67 447.48
3068 0 87.1118 9.52798 830 116.063 1030.56 446.369
3069 0 93.1385 13.335 1242 107.258 1031 446.544
3070 0 92.1467 11.0693 1020 115.903 1031.1 442.671
3071 0 96.1351 11.0262 1060 116.223 1030.84 442.266
3072 0 95.215 12.0989 1152 115.772 1030.75 440.656
3073 0 98.1686 11.2765 1107 118.35 1030.84 439.531
3074 0 102.244 12.3919 1267 115.89 1030.09 439.081
3075 0 102.23 11.9045 1217 119.085 1030.51 437.105
3076 0 105.28 11.3792 1198 120.135 1030.31 439.32
3077 0 106.137 12.3331 1309 119.488 1030.06 437.78
3078 0 107.159 12.9433 1387 118.997 1029.99 436.455
3079 0 103.079 10.6132 1094 127.324 1030.29 432.62
3080 0 107.111 10.1204 1084 126.885 1030.68 433.962
3081 0 114.195 12.391 1415 119.543 1029.95 436.722
3082 1 71.0997 9.98597 710 116.182 1030.97 456.473
3083 0 73.084 8.9486 654 117.602 1030.47 459.032
3084 0 76.0573 11.1758 850 113.938 1030.9 457.361
3085 0 74.095 10.5945 785 117.833 1030.73 453.79
3086 0 77.0463 10.8376 835 117.293 1031.03 454.137
3087 0 82.0636 11.5398 947 115.152 1030.25 454.865
3088 0 85.0458 11.7466 999 114.55 1030.38 454.498
3089 0 85.0677 11.1323 947 116.989 1030.5 452.237
3090 0 88.1075 10.158 895 118.526 1031.03 452.834
3091 0 90.1562 10.5594 952 119.303 1030.12 447.986
3092 0 93.1635 11.0773 1032 118.89 1029.89 445.067
3093 0 94.1658 9.75938 919 123.457 1030.2 440.911
3094 0 99.4063 11.8001 1173 118.425 1029.71 439.534
3095 0 101.239 12.9002 1306 117.205 1029.91 434.697
3096 0 103.192 13.1696 1359 115.695 1030.43 436.751
3097 0 102.194 12.2317 1250 142.236 1031.38 434.595
3098 0 107.183 11.3731 1219 123.007 1030.15 428.346
3099 0 105.22 13.4766 1418 118.83 1029.83 427.19
3100 0 113.24 12.319 1395 120.5 1030.25 426.954
3101 0 111.244 11.4973 1279 124.62 1030.06 426.482
3102 0 113.205 11.3246 1282 125.022 1029.62 427.491
3103 0 120.158 11.8178 1420 122.063 1029.96 428.496
3104 0 127.274 12.5634 1599 118.776 1030.07 429.136
3105 1 71.0316 8.68628 617 113.971 1030.82 456.511
3106 0 74.0672 9.84241 729 111.265 1030.96 454.128
3107 0 79.0999 12.0354 952 105.975 1030.7 456.133
3108 0 79.072 11.0785 876 108.987 1030.83 455.824
3109 0 79.0418 8.6663 685 117.032 1030.71 450.413
3110 0 84.0535 10.8621 913 111.865 1031.03 450.343
3111 0 86.0947 10.9531 943 112.29 1030.73 450.056
3112 0 90.1651 12.1444 1095 110.357 1031.1 451.287
3113 0 92.1453 11.254 1037 114.003 1030.87 449.274
3114 0 93.184 12.0407 1122 113.533 1031.59 445.119
3115 0 94.1889 13.0482 1229 129.448 1033.54 447.61
3116 0 96.1902 11.9139 1146 114.642 1030.86 442.736
3117 0 101.236 13.6018 1377 109.438 1030.71 447.891
3118 0 105.169 13.5401 1424 110.379 1030.36 444.603
3119 0 103.302 12.1391 1254 115.2 1030.42 438.128
3120 0 110.235 12.428 1370 112.538 1030.7 440.875
3121 0 112.207 12.2007 1369 112.922 1030.82 436.804
3122 0 114.244 12.5871 1438 112.919 1030.26 433.024
3123 0 119.232 13.1257 1565 110.488 1030.61 437.946
3124 0 120.296 13.3753 1609 110.865 1030.83 430.42
3125 0 126.44 12.8677 1627 110.946 1030.7 431.366
3126 0 130.305 14.0747 1834 107.757 1030.97 430.05
3127 0 133.309 12.9623 1728 111.453 1031.17 424.124
3128 0 138.362 13.031 1803 112.042 1030.73 424.966
3129 0 143.29 13.6786 1960 111.074 1030.5 424.248
3130 0 146.324 13.2241 1935 113.689 1030.46 417.805
3131 1 89.1594 10.5317 939 110.498 1031.37 450.45
3132 0 89.2065 9.78628 873 113.167 1031.28 446.342
3133 0 91.1557 10.2572 935 112.964 1031.18 444.357
3134 0 96.1324 11.3177 1088 110.352 1031.79 444.558
3135 0 99.0984 11.8367 1173 109.033 1032.45 443.373
3136 0 95.2316 10.4797 998 115.366 1032.04 438.176
3137 0 104.177 11.73 1222 110.487 1031.59 440.735
3138 0 107.14 11.7044 1254 110.617 1032.01 438.987
3139 0 108.11 11.9415 1291 111.544 1031.62 433.406
3140 0 112.274 13.8055 1550 106.766 1031.75 439.034
3141 0 117.177 12.4342 1457 110.391 1032.06 437.452
3142 0 119.181 11.6462 1388 112.979 1032.01 431.591
3143 0 123.122 12.9952 1600 109.517 1031.86 437.448
3144 0 126.221 13.0802 1651 110.508 1032.16 431.986
3145 0 129.136 11.3524 1466 114.895 1032.5 431.195
3146 0 133.22 11.3497 1512 115.019 1031.6 428.261
3147 0 136.208 11.3356 1544 116.369 1031.25 424.617
3148 0 139.165 11.8492 1649 115.253 1031.63 425.727
3149 0 146.185 11.8001 1725 114.506 1031.06 425.07
3150 0 151.291 11.9307 1805 114.865 1031.19 420.929
3151 0 155.226 11.3125 1756 116.787 1030.86 419.852
3152 1 97.0946 9.4135 914 116.23 1032.25 448.865
3153 0 99.0601 12.1038 1199 111.46 1031.43 447.212
3154 0 102.062 12.5512 1281 111.069 1031.79 447.554
3155 0 104.145 13.0107 1355 112.619 1031.48 442.175
3156 0 109.193 12.5649 1372 112.821 1031.63 445.393
3157 0 110.142 12.4294 1369 115.462 1031.57 442.385
3158 0 112.085 12.0266 1348 117.733 1031.63 440.113
3159 0 115.158 10.8633 1251 120.76 1032.04 439.737
3160 0 122.106 13.5456 1654 114.458 1031.24 436.548
3161 0 122.159 12.5983 1539 118.374 1031.32 437.461
3162 0 127.226 13.2992 1692 117.004 1031.32 437.754
3163 0 132.18 13.7086 1812 116.902 1031.66 434.767
3164 0 133.172 13.2686 1767 119.702 1031.36 433.542
3165 0 136.207 13.3106 1813 121.877 1031.31 427.558
3166 0 142.32 12.2119 1738 123.082 1030.95 428.599
3167 0 146.217 13.9998 2047 119.077 1031.02 427.404
3168 0 153.236 13.7892 2113 119.479 1031.13 422.831
3169 1 93.0755 11.2274 1045 115.673 1031.98 453.951
3170 0 96.1338 11.5152 1107 116.264 1032.5 452.144
3171 0 97.088 11.6698 1133 119.132 1031.48 445.999
3172 0 102.086 13.1556 1343 114.401 1031.89 447.483
3173 0 104.103 12.8334 1336 115.95 1031.52 445.482
3174 0 107.089 12.2702 1314 117.786 1031.85 444.384
3175 0 109.111 13.4726 1470 115.875 1031.92 440.835
3176 0 112.092 11.9634 1341 120.125 1032.41 438.51
3177 0 113.124 12.3935 1402 120.65 1031.66 437.39
3178 0 118.11 11.5909 1369 123.782 1031.26 435.691
3179 0 124.108 12.9242 1604 120.027 1030.95 434.483
3180 0 127.135 13.1907 1677 118.923 1031.15 433.391
3181 0 126.135 11.0913 1399 124.462 1030.17 431.668
3182 1 72.0173 9.40052 677 118.513 1031.24 456.412
3183 0 77.0306 9.63253 742 115.632 1031.25 459.594
3184 0 79.0571 11.0426 873 115.174 1031.58 453.89
3185 0 81.0496 10.6848 866 116.053 1031.44 453.97
3186 0 83.0521 10.969 911 115.005 1031.16 452.823
3187 0 86.024 11.4038 981 114.508 1030.7 451.083
3188 0 89.0466 10.2755 915 115.577 1030.63 450.942
3189 0 93.0441 10.7046 996 115.061 1031.06 448.721
3190 0 94.0505 13.3226 1253 109.242 1031.04 447.541
3191 0 96.1578 11.9491 1149 113.847 1030.73 444.71
3192 0 101.079 12.97 1311 110.134 1030.63 446.249
3193 0 105.12 12.6331 1328 111.236 1030.21 442.888
3194 0 108.072 12.0845 1306 113.229 1030.22 441.711
3195 0 110.079 12.0641 1328 113.758 1030.56 438.306
3196 0 114.076 13.4384 1533 109.371 1030.01 442.269
3197 0 115.143 12.124 1396 113.562 1030.25 436.915
3198 0 115.149 12.1494 1399 133.655 1031.24 437.092
3199 0 123.219 13.2366 1631 110.29 1030.61 435.622
3200 0 126.121 11.9647 1509 113.251 1030.72 434.267
3201 0 129.109 13.9417 1800 108.012 1030.33 436.273
3202 0 132.089 13.3395 1762 109.024 1029.88 430.734
3203 1 80.0931 10.4254 835 108.648 1030.12 460.778
3204 0 81.0835 11.001 892 107.74 1030.39 459.948
3205 0 85.1099 11.2325 956 106.609 1030.39 459.199
3206 0 87.0593 11.9229 1038 106.791 1030.64 454.626
3207 0 89.0503 11.151 993 109.084 1030.15 454.076
3208 0 91.1485 12.6277 1151 105.916 1031.18 452.945
3209 0 93.0543 11.4234 1063 109.98 1030.94 448.857
3210 0 100.096 12.428 1244 105.525 1030.71 450.42
3211 0 100.097 11.6187 1163 109.886 1030.71 446.114
3212 0 101.07 12.6645 1280 108.972 1030.72 444.791
3213 0 101.106 11.6215 1175 111.607 1030.43 444.866
3214 0 104.116 12.1307 1263 111.675 1030.38 441.914
3215 0 108.139 11.9938 1297 112.438 1029.95 438.533
3216 0 110.167 12.6536 1394 111.317 1029.79 438.151
3217 0 115.197 12.891 1485 110.374 1030.38 437.228
3218 0 117.084 13.0077 1523 111.766 1030.31 432.706
3219 0 120.172 11.1507 1340 117.215 1030.56 431.395
3220 0 124.214 12.2852 1526 113.028 1030.92 434.224
3221 0 128.199 12.6678 1624 112.115 1030.13 432.717
3222 1 73.0544 10.5401 770 109.797 1031.07 458.387
3223 0 74.0299 10.928 809 110.022 1031.07 456.268
3224 0 78.1265 10.5726 826 109.125 1031.49 460.005
3225 0 81.0558 12.3618 1002 105.923 1031.53 456.698
3226 0 80.0621 10.8041 865 110.896 1031.52 454.727
3227 0 87.0376 12.845 1118 106.045 1031.75 453.441
3228 0 87.0704 12.4612 1085 107.103 1030.67 453.772
3229 0 89.0798 13.6956 1220 145.422 1029.61 451.892
3230 0 93.0988 11.8906 1107 111.123 1031.03 448.637
3231 0 96.1061 13.3186 1280 109.05 1030.61 446.828
3232 0 96.1256 14.6891 1412 107.902 1030.64 445.221
3233 0 101.085 13.3947 1354 111.324 1030.8 442.639
3234 0 102.104 13.9563 1425 109.893 1030.53 444.839
3235 0 106.09 13.7619 1460 110.717 1030.43 442.039
3236 0 109.163 13.6677 1492 110.92 1030.39 440.036
3237 0 107.229 13.2426 1420 113.854 1030.91 437.927
3238 0 110.096 12.7979 1409 114.952 1030.58 439.012
3239 0 109.159 12.4314 1357 117.229 1030.7 436.8
3240 0 119.149 14.1168 1682 111.85 1030.45 436.614
3241 0 117.128 13.4554 1576 115.067 1030.44 432.856
3242 0 127.219 14.982 1906 109.742 1030.09 429.269
3243 0 128.245 13.5522 1738 115.93 1029.53 432.092
3244 0 131.161 12.6486 1659 121.24 1030.09 430.878
3245 0 131.161 12.7401 1671 152.263 1030.08 430.801
3246 1 80.114 10.3228 827 117.335 1030.79 454.723
3247 0 86.0694 11.9787 1031 114.863 1030.37 453.797
3248 0 89.1277 11.7472 1047 115.943 1030.33 453.176
3249 0 91.209 12.4988 1140 117.032 1030.09 450.284
3250 0 96.0966 13.0806 1257 117.028 1029.78 449.778
3251 0 99.1193 14.3564 1423 114.163 1030.2 449.46
3252 0 98.1308 13.6145 1336 143.624 1030.27 447.847
3253 0 104.069 12.7127 1323 120.064 1030.85 446.277
3254 0 106.127 13.2011 1401 119.777 1030.94 445.106
3255 0 110.175 13.7418 1514 119.425 1030.83 442.462
3256 0 112.192 13.7443 1542 120.101 1030.84 445.479
3257 0 116.162 14.85 1725 118.531 1030.44 441.876
3258 0 119.166 14.3833 1714 120.179 1030.76 440.56
3259 0 124.256 14.2769 1774 120.932 1031.11 439.307
3260 0 125.212 13.2655 1661 124.438 1030.9 439.018
3261 0 130.158 14.2673 1857 121.845 1030.63 436.116
3262 0 135.176 15.4909 2094 119.132 1030.35 433.136
3263 1 76.0916 10.9868 836 123.542 1030.85 461.178
3264 0 83.0978 11.8776 987 120.213 1030.5 461.375
3265 0 86.0831 12.9526 1115 120.429 1030.69 458.587
3266 0 87.0568 13.1868 1148 120.996 1030.21 454.976
3267 0 90.1455 12.2912 1108 122.771 1030.44 454.425
3268 0 92.1912 13.331 1229 122.097 1030.12 452.764
3269 0 95.1471 12.8433 1222 122.836 1030.8 450.762
3270 0 98.26 13.159 1293 122.99 1030.42 448.053
3271 0 103.096 14.1421 1458 119.901 1030.69 447.427
3272 0 103.171 12.4163 1281 125.395 1030.86 446.907
3273 0 106.186 13.288 1411 123.142 1030.89 445.588
3274 0 110.203 13.1848 1453 123.584 1030.98 444.248
3275 0 111.209 12.2472 1362 126.644 1030.81 441.18
3276 0 115.146 12.1498 1399 126.588 1031.04 439.22
3277 0 119.22 13.8316 1649 121.737 1031.2 437.598
3278 0 120.2 14.5425 1748 120.201 1031.19 438.298
3279 0 127.128 13.6869 1740 122.283 1031.69 432.853
3280 0 132.222 13.6437 1804 121.413 1031.1 432.066
3281 0 136.27 13.8181 1883 121.46 1031.4 431.151
3282 1 78.0442 10.1225 790 121.132 1031.73 459.656
3283 0 81.1531 9.98113 810 122.646 1031.75 456.969
3284 0 86.0856 13.5098 1163 114.286 1031.36 455.56
3285 0 88.1528 12.6939 1119 117.152 1031.51 452.878
3286 0 90.238 12.8992 1164 117.678 1031.61 453.102
3287 0 92.1243 12.1249 1117 121.056 1031.65 452.519
3288 0 95.0534 13.0243 1238 119.419 1031.55 450.292
3289 0 101.294 13.4361 1361 118.151 1031.17 448.895
3290 0 101.082 11.7924 1192 123.836 1031.49 448.833
3291 0 105.26 13.6044 1432 121.091 1031.41 446.191
3292 0 108.285 13.1875 1428 123.531 1031.51 444.154
3293 0 110.201 14.5098 1599 121.308 1031.15 444.078
3294 0 114.216 13.1592 1503 124.377 1031.68 443.076
3295 0 116.282 12.9599 1507 126.107 1031.52 439.485
3296 0 120.242 13.3314 1603 126.472 1031.61 438.469
3297 0 123.212 13.9435 1718 126.629 1031.84 435.686
3298 0 126.227 13.9749 1764 127.85 1031.63 432.472
3299 0 132.233 13.8317 1829 129.269 1031.97 431.842
3300 0 138.259 13.7351 1899 133.865 1031.83 430.409
3301 0 142.18 15.0866 2145 130.319 1032.36 428.972
3302 0 146.293 13.9241 2037 134.097 1031.85 423.833
3303 0 152.235 14.1952 2161 133.482 1032.49 423.497
3304 0 156.353 13.9684 2184 137.349 1032.56 418.535
3305 1 93.0685 11.2713 1049 133.432 1033.1 456.149
3306 0 94.0737 11.5229 1084 136.604 1032.49 450.362
3307 0 99.1035 12.492 1238 132.052 1032.84 451.263
3308 0 101.108 12.541 1268 133.685 1033.25 445.172
3309 0 104.075 12.3373 1284 133.99 1033.43 445.978
3310 0 105.085 11.7334 1233 137.164 1033.16 442.026
3311 0 110.066 12.9559 1426 133.715 1032.75 440.446
3312 0 115.056 13.0806 1505 132.268 1033.13 439.008
3313 0 117.257 12.9289 1516 134.077 1032.76 435.998
3314 0 118.133 12.6637 1496 134.562 1032.8 438.223
3315 0 125.153 12.4168 1554 135.322 1031.87 434.423
3316 0 129.141 12.5677 1623 134.6 1032.04 437.085
3317 0 130.168 12.7374 1658 134.654 1032 431.832
3318 0 135.113 12.1009 1635 135.742 1032.52 435.224
3319 1 77.0621 10.9911 847 132.331 1031.81 462.226
3320 0 80.096 12.0605 966 129.899 1032.23 460.094
3321 0 82.1016 12.4602 1023 129.456 1032.12 459.21
3322 0 85.0603 12.2737 1044 129.911 1032.57 458.571
3323 0 86.0744 12.861 1107 129.518 1032.36 457.658
3324 0 88.0884 12.5442 1105 132.057 1032.54 455.477
3325 0 88.0602 11.583 1020 136.129 1032.47 450.804
3326 0 93.12 12.5859 1172 132.75 1032.8 449.116
3327 0 96.0593 12.1696 1169 133.844 1032.72 449.954
3328 0 100.036 13.5351 1354 129.634 1033.15 448.37
3329 0 101.137 11.8552 1199 136.106 1032.84 444.664
3330 0 105.103 12.4449 1308 132.81 1032.18 446.807
3331 0 107.071 12.5245 1341 134.12 1032.14 442.859
3332 0 108.111 13.7174 1483 132.284 1032.11 440.068
3333 0 111.1 11.7642 1307 137.837 1032.13 439.889
3334 0 115.121 13.6551 1572 133.469 1031.79 438.774
3335 0 120.104 12.8222 1540 135.879 1032.44 438.501
3336 0 124.216 14.2654 1772 131.859 1032.49 439.092
3337 0 126.15 13.5711 1712 134.508 1031.9 435.975
3338 0 132.179 14.2232 1880 131.191 1031.31 434.732
3339 1 77.0899 10.9353 843 133.068 1031.68 459.624
3340 0 82.09 12.6568 1039 127.782 1031.82 460.635
3341 0 83.1178 12.2477 1018 131.687 1031.82 456.72
3342 0 86.0985 13.229 1139 129.057 1031.9 457.641
3343 0 89.0834 12.696 1131 131.211 1032.39 454.957
3344 0 91.1192 12.1489 1107 133.441 1032.37 454.984
3345 0 94.124 14.4703 1362 127.673 1032.2 454.84
3346 0 98.0633 13.7258 1346 129.44 1032.41 454.106
3347 0 101.119 13.3605 1351 131.591 1032.02 451.817
3348 0 101.118 12.7376 1288 134.851 1031.73 449.432
3349 0 106.139 14.6317 1553 129.207 1032.04 448.413
3350 0 109.206 14.7337 1609 128.835 1031.98 446.065
3351 0 110.172 13.7059 1510 133.002 1032.3 445.773
3352 0 113.227 13.76 1558 135.087 1032.07 440.515
3353 0 117.142 13.5135 1583 135.123 1031.65 442.634
3354 0 121.194 12.8966 1563 137.285 1031.56 439.568
3355 0 124.175 14.4957 1800 133.531 1031.57 439.176
3356 0 127.135 14.6537 1863 132.622 1031.48 439.741
3357 0 130.214 14.3533 1869 133.204 1031.86 439.507
3358 0 132.162 14.1493 1870 136.337 1031.32 433.976
3359 0 135.223 13.3927 1811 137.696 1030.19 433.356
3360 0 141.269 13.0814 1848 137.621 1030.62 433.402
3361 0 146.29 12.858 1881 136.551 1030.08 434.596
3362 1 87.1637 10.7728 939 134.213 1030.96 460.449
3363 0 90.2028 12.2834 1108 131.168 1030.94 458.281
3364 0 92.2303 11.0376 1018 136.453 1030.94 455.27
3365 0 96.2327 12.5321 1206 129.734 1030.94 455.614
3366 0 100.186 13.8542 1388 128.28 1030.65 450.571
3367 0 103.154 13.1938 1361 128.979 1030.06 449.452
3368 0 107.201 13.582 1456 126.35 1030.24 449.959
3369 0 111.21 13.2812 1477 127.042 1029.77 446.378
3370 0 112.277 13.5112 1517 127.59 1029.95 442.873
3371 0 117.185 14.8142 1736 124.641 1029.84 441.946
3372 0 119.248 13.8786 1655 127.711 1030.13 438.957
3373 0 122.212 12.9775 1586 130.349 1030.04 439.776
3374 0 125.31 13.7977 1729 128.236 1030.02 437.02
3375 0 128.286 13.6102 1746 128.824 1030.24 434.835
3376 0 133.256 13.8606 1847 127.768 1029.93 433.335
3377 0 137.199 13.9724 1917 127.553 1029.68 427.653
3378 0 142.267 14.6836 2089 125.453 1030.4 426.27
3379 0 147.199 14.0626 2070 127.294 1030.54 425.305
3380 0 151.284 14.9388 2260 125.044 1030.48 423.926
3381 0 154.143 14.2465 2196 128.467 1030.41 420.87
3382 0 160.312 14.1412 2267 130.055 1030.62 419.31
3383 0 168.145 15.1952 2555 126.468 1030.69 416.875
3384 0 175.15 15.6952 2749 124.931 1030.41 414.073
3385 1 100.148 12.3917 1241 127.786 1031.68 454.849
3386 0 105.169 13.2074 1389 125.86 1032.03 452.882
3387 0 106.292 13.971 1485 125.345 1031.64 449.591
3388 0 110.296 13.6723 1508 107.07 1031.27 446.568
3389 0 112.278 13.333 1497 127.451 1031 448.652
3390 0 116.228 14.9964 1743 123.345 1031.07 443.626
3391 0 119.257 14.2633 1701 126.034 1030.75 439.382
3392 0 123.269 14.2696 1759 125.208 1031.61 440.278
3393 0 125.159 13.8384 1732 127.732 1031.59 436.445
3394 0 129.243 13.169 1702 129.672 1032.04 437.556
3395 0 134.153 13.6113 1826 129.238 1032.21 434.203
3396 0 140.173 15.4524 2166 123.379 1032.3 431.47
3397 0 143.346 12.9756 1860 131.422 1031.76 429.167
3398 1 79.1273 11.0455 874 128.728 1032.49 462.153
3399 0 85.0726 12.7538 1085 124.258 1032.4 459.931
3400 0 85.0743 12.0953 1029 128.271 1032.37 457.766
3401 0 90.1253 11.0069 992 130.058 1031.94 458.386
3402 0 92.1116 11.6598 1074 131.33 1031.88 453.993
3403 0 95.0755 12.3796 1177 128.389 1032.07 456.055
3404 0 96.1593 12.0009 1154 131.135 1031.91 453.166
3405 0 102.135 13.6976 1399 126.678 1031.83 450.741
3406 0 105.133 12.9265 1359 128.317 1031.56 450.74
3407 0 109.227 15.0695 1646 123.207 1031.44 445.905
3408 0 110.192 12.9864 1431 129.961 1031.48 446.03
3409 0 114.264 13.7751 1574 128.145 1031.44 442.665
3410 0 117.158 13.2642 1554 131.239 1031.85 437.416
3411 0 120.23 13.8236 1662 129.348 1031.43 438.38
3412 0 123.206 14.7802 1821 127.677 1031.44 437.189
3413 0 128.254 17.7148 2272 117.846 1031.46 433.68
3414 0 130.143 14.2612 1856 129.198 1031.58 430.79
3415 1 71.1012 10.689 760 129.914 1032.26 462.171
3416 0 71.1094 10.7862 767 147.576 1032.24 462.34
3417 0 75.1104 11.0105 827 129.726 1031.99 460.689
3418 0 75.1127 11.1166 835 148.364 1032 460.83
3419 0 81.124 12.1912 989 126.298 1032.14 458.806
3420 0 83.0976 13.2976 1105 123.696 1032.03 456.678
3421 0 85.0859 12.6343 1075 126.424 1032.19 454.114
3422 0 88.1006 14.4267 1271 121.172 1032.39 453.332
3423 0 92.1323 12.1022 1115 127.426 1031.7 452.922
3424 0 93.2296 12.4317 1159 127.219 1031.4 451.173
3425 0 95.081 13.9565 1327 124.302 1031.62 448.901
3426 0 98.0643 13.6237 1336 125.65 1031.52 447.579
3427 0 100.046 13.7637 1377 125.798 1031.76 443.581
3428 0 104.185 14.0424 1463 124.826 1031.43 445.045
3429 0 107.132 12.8719 1379 128.287 1031.53 444.899
3430 0 108.129 12.5129 1353 130.174 1031.86 443.632
3431 0 109.117 13.536 1477 129.105 1031.62 440.93
3432 0 116.101 13.6175 1581 127.681 1031.77 440.141
3433 0 118.1 13.4463 1588 128.831 1031.28 439.029
3434 0 119.192 13.3231 1588 131.223 1031.43 434.875
3435 0 126.23 14.2755 1802 127.021 1031.63 436.441
3436 0 127.259 14.2779 1817 128.658 1031.97 431.892
3437 0 132.21 13.6828 1809 129.709 1032.13 432.764
3438 0 135.311 13.4949 1826 129.686 1031.15 427.437
3439 0 140.191 11.9908 1681 132.098 1031.32 430.037
3440 0 143.269 12.857 1842 130.991 1030.94 426.516
3441 0 146.178 13.0115 1902 131.322 1030.4 422.724
3442 0 151.246 12.5557 1899 132.464 1030.6 422.588
3443 0 158.115 14.9764 2368 126.087 1030.81 419.255
3444 0 163.256 13.243 2162 131.472 1030.78 416.19
3445 0 167.156 13.2631 2217 131.275 1030.92 417.422
3446 0 173.244 13.8186 2394 131.405 1030.91 409.899
3447 0 180.276 12.6861 2287 133.122 1030.32 411.296
3448 0 185.151 14.1128 2613 130.146 1030.14 408.478
3449 0 190.282 12.8914 2453 132.425 1030.25 407.296
3450 0 199.214 13.9348 2776 129.527 1029.68 399.647
3451 0 209.242 15.5609 3256 125.091 1029.68 394.929
3452 0 215.642 16.6387 3588 122.889 1030.57 390.691
3453 0 218.465 12.4779 2726 135.168 1030.38 394.171
3454 0 226.27 13.1126 2967 132.92 1029.99 384.341
3455 0 234.392 12.6668 2969 134.041 1030.07 379.627
3456 1 53.1473 10.2169 543 102.855 1030.22 473.175
3457 0 64.1748 14.1644 909 82.4301 1030.54 464.653
3458 0 65.1433 12.5262 816 97.7341 1030.42 466.73
3459 0 68.2317 14.143 965 86.4 1029.91 468.046
3460 0 70.1278 14.8586 1042 88.2332 1030.27 464.828
3461 0 73.1944 16.2717 1191 91.9689 1029.33 464.435
3462 0 73.2315 15.6217 1144 94.6626 1028.92 462.121
3463 0 73.0492 14.7983 1081 98.0305 1030.46 461.391
3464 0 75.1715 15.4447 1161 97.6469 1030.73 463.222
3465 0 75.0503 14.7768 1109 101.091 1030.3 462.606
3466 0 79.0355 15.1324 1196 100.575 1030.25 461.7
3467 0 77.0475 12.2132 941 110.891 1030.28 462.298
3468 0 78.066 10.0044 781 115.33 1029.62 464.284
3469 0 82.1572 11.977 984 111.917 1029.54 461.209
3470 0 81.138 10.5006 852 115.898 1029.55 458.948
3471 0 85.1133 11.7021 996 113.685 1030.36 459.969
3472 0 90.2194 13.0016 1173 110.808 1030.56 457.789
3473 0 90.1321 13.3249 1201 112.251 1030.48 452.853
3474 1 33.0192 10.4182 344 97.3023 1031.11 484.189
3475 0 34.0284 9.9035 337 95.1988 1030.8 487.712
3476 0 33.0462 10.5307 348 96.6638 1031.85 485.213
3477 0 35.216 10.5634 372 95.5108 1030.83 485.815
3478 0 33.0568 9.65006 319 95.2194 1030.09 487.408
3479 0 31.1286 9.21982 287 97.6132 1030.2 487.491
3480 0 33.0219 9.87224 326 95.9018 1030.01 488.568
3481 0 33.0284 10.3244 341 97.4868 1030.42 486.839
3482 0 33.1088 9.15166 303 100.624 1029.92 487.162
3483 0 33.0498 9.74286 322 100.124 1029.94 488.255
3484 0 34.0145 11.4951 391 97.0281 1030.37 488.396
3485 0 31.058 9.36958 291 103.522 1030.3 489.189
3486 0 34.0254 10.6979 364 101.03 1030.28 488.863
3487 0 33.0106 8.42154 278 102.993 1029.5 491.658
3488 0 31.0066 8.48207 263 106.255 1030.41 490.787
3489 0 33.0662 10.4336 345 104.69 1029.99 487.948
3490 0 33.0262 10.5371 348 103.193 1029.76 489.96
3491 0 32.0409 8.70763 279 109.423 1030.28 488.81
3492 0 33.0546 9.25741 306 105.755 1029.93 490.458
3493 0 33.0251 8.75092 289 108.052 1030.7 489.965
3494 0 34.0109 8.8207 300 105.743 1030.16 490.533
3495 0 34.0639 8.80698 300 108.133 1030.3 487.98
3496 0 34.0348 7.81553 266 106.643 1030.98 490.534
3497 0 34.032 9.40291 320 105.256 1030.39 489.809
3498 0 36.0222 10.7434 387 103.45 1030.18 486.946
3499 0 35.0304 10.0199 351 104.011 1029.98 487.41
3500 0 36.0254 9.6321 347 105.291 1030.56 487.885
3501 0 37.0329 10.3421 383 103.619 1030.38 485.277
3502 0 34.0183 10.4062 354 105.322 1031 485.723
3503 0 34.0595 9.13107 311 106.83 1030.44 485.887
3504 0 35.0199 8.50946 298 106.547 1030.46 487.936
3505 0 32.0099 8.59109 275 109.629 1030.34 487.138
3506 0 36.0166 10.2175 368 104.793 1030.31 486.693
3507 0 35.0194 9.56613 335 104.916 1030.8 487.2
3508 0 33.015 10.2378 338 105.97 1030.72 487.385
3509 0 32.0523 8.89173 285 108.814 1030.71 487.568
3510 0 33.0275 9.5375 315 107.27 1030.45 487.759
3511 0 33.0756 8.70733 288 105.656 1030.34 489.958
3512 0 33.1557 9.2895 308 108.308 1030.74 485.825
3513 0 33.0363 9.6863 320 106.481 1029.84 486.653
3514 0 33.0377 7.86979 260 107.246 1030.37 489
3515 0 35.0108 8.4831 297 106.96 1030.74 486.455
3516 0 32.0209 8.65061 277 109.04 1031.38 487.394
3517 0 35.008 9.94059 348 105.534 1031.06 485.805
3518 0 34.0161 9.37792 319 106.699 1030.4 485.934
3519 0 37.0576 10.713 397 102.781 1030.66 484.471
3520 0 38.0611 9.98394 380 104.808 1031.31 484.374
3521 0 37.0642 8.39085 311 105.762 1031.03 485.325
3522 0 35.0539 10.0132 351 105.843 1030.87 483.199
3523 0 35.0968 7.80698 274 107.252 1031.09 485.887
3524 0 38.059 8.61819 328 102.418 1030.68 487.503
3525 0 37.1086 10.7792 400 100.878 1031 485.475
3526 0 33.1462 9.50334 315 105.263 1030.14 485.584
3527 0 33.0358 8.53619 282 107.223 1030.3 485.45
3528 0 32.0117 8.68432 278 106.921 1030.78 486.104
3529 1 76.1013 10.578 805 131.021 1031.03 461.913
3530 0 77.2038 11.9295 921 127.819 1031.29 462.194
3531 0 77.4552 12.0973 937 127.359 1030.57 462.584
3532 0 77.4906 11.1239 862 131.398 1030.29 461.06
3533 0 79.2474 11.2054 888 130.914 1030.76 461.349
3534 0 81.3522 11.3334 922 130.496 1030.71 459.835
3535 0 84.2918 12.8957 1087 126.535 1030.91 458.711
3536 0 85.4039 11.6974 999 131.07 1030.57 455.988
3537 1 33.0704 8.79942 291 105.32 1031.71 482.976
3538 0 33.0561 6.74612 223 107.283 1032.14 485.538
3539 0 34.0766 8.0994 276 104.058 1031.82 485.257
3540 0 34.0252 8.99333 306 102.699 1031.14 484.637
3541 0 33.0131 7.84538 259 103.587 1031.17 486.49
3542 0 33.0643 6.83517 226 106.239 1031.56 484.628
3543 0 33.0189 8.08628 267 102.191 1031.79 485.577
3544 0 32.0417 7.80233 250 103.204 1031.34 483.956
3545 0 28.0116 8.24658 231 103.342 1031.42 486.251
3546 0 30.1222 9.0299 272 102.592 1031.72 485.051
3547 0 29.0115 5.85974 170 106.112 1031.08 486.853
3548 0 29.047 6.85096 199 103.854 1031.87 486.573
3549 0 31.0119 7.73896 240 102.608 1031.46 486.312
3550 0 32.1041 9.65608 310 100.735 1031.41 484.242
3551 0 30.0596 8.25027 248 101.069 1031.72 487.113
3552 1 17.0095 7.17248 122 103.623 1031.56 489.598
3553 0 29.0168 6.68578 194 102.376 1031.07 487.232
3554 0 28.035 6.17087 173 103.723 1031.2 488.572
3555 0 27.0106 3.70226 100 106.37 1031.53 488.25
3556 0 30.0316 9.29021 279 99.4122 1031.87 485.853
3557 0 28.0241 7.74332 217 101.899 1031.66 486.931
3558 0 26.0132 7.03489 183 101.339 1031.7 488.689
3559 0 28.0261 5.38783 151 104.497 1031.69 485.377
3560 0 34.1034 8.41557 287 98 1031.3 485.558
3561 0 32.0062 7.62353 244 99.7951 1031.67 484.561
3562 0 33.0322 6.59962 218 100.94 1031.54 486.362
3563 0 33.0711 6.04758 200 100.035 1031.46 487.19
3564 0 35.0174 9.48099 332 95.9006 1031.78 484.729
3565 0 35.07 9.15312 321 96.0935 1031.72 483.181
3566 0 35.0507 8.50197 298 95.7349 1031.54 484.426
3567 0 36.0207 6.91269 249 97.7149 1031.56 483.149
3568 0 35.0203 7.93826 278 97.2806 1031.07 483.381
3569 0 34.0183 7.9663 271 96.7712 1031.49 480.989
3570 0 34.0131 8.02632 273 96.9707 1031.59 482.982
3571 0 33.0075 6.54397 216 98.0139 1032.21 485.06
3572 0 23.0313 8.51016 196 96.898 1031.75 486.413
3573 0 33.036 5.23671 173 99.4335 1031.6 486.139
3574 1 77.438 6.50843 504 139.357 1030.77 458.028
3575 0 74.2818 6.32726 470 142.772 1030.49 455.962
3576 0 76.4964 8.40563 643 136.129 1031.08 456.956
3577 0 78.3826 9.0071 706 135.397 1030.85 455.442
3578 0 79.4823 8.25341 656 139.87 1030.28 452.322
3579 0 82.4745 9.89397 816 134.615 1030.57 454.602
3580 0 82.3604 9.82268 809 136.705 1030.78 448.995
3581 0 83.8391 8.86221 743 140.555 1030.25 447.699
3582 0 87.3284 10.9357 955 131.907 1030.91 449.152
3583 0 89.3718 11.2228 1003 132.854 1030.22 444.937
3584 0 93.2962 9.8825 922 135.611 1031.13 445.617
3585 1 51.0862 13.6632 698 149.934 1030.1 401.566
3586 0 55.0702 14.3998 793 146.556 1029.95 399.131
3587 0 56.0485 14.6659 822 146.835 1030.08 398.387
3588 0 56.1028 13.8318 776 151.419 1029.62 397.473
3589 0 58.072 14.241 827 149.811 1030.5 396.503
3590 0 61.0473 14.1038 861 149.454 1030.14 395.483
3591 0 61.0473 14.1202 862 154.216 1029.13 395.435
3592 0 62.0588 14.164 879 153.985 1030.4 392.372
3593 0 66.0472 14.7319 973 150.363 1030.82 391.513
3594 0 69.0186 14.7641 1019 149.456 1030.72 390.329
3595 0 69.0395 14.3107 988 153.242 1030.79 389.048
3596 0 74.1279 16.0803 1192 143.495 1030.26 385.414
3597 0 78.0366 15.0827 1177 147.748 1030.6 385.044
3598 0 77.0509 13.9388 1074 153.945 1030.72 386.71
3599 1 41.059 10.5702 434 152.194 1031.39 403.03
3600 0 44.0099 11.9519 526 143.728 1030.44 403.525
3601 0 44.0616 12.4825 550 153.915 1030.39 405.365
3602 0 48.1424 13.0239 627 150.064 1031.98 407.421
3603 0 49.0527 12.8841 632 146.071 1031.99 408.801
3604 0 51.0494 13.4967 689 143.639 1032.3 407.612
3605 0 51.0698 12.7668 652 146.417 1032.05 407.42
3606 0 53.0653 13.4174 712 144.176 1031.97 406.906
3607 0 56.0808 14.3008 802 140.463 1032.18 404.642
3608 0 57.1377 13.1262 750 145.533 1032.03 405.189
3609 0 58.0335 12.958 752 146.202 1032.51 403.789
3610 0 59.1062 12.6044 745 155.74 1031.46 398.942
3611 0 63.1818 13.8489 875 148.201 1031.13 399.549
3612 0 64.1715 13.2146 848 145.466 1031.38 401.703
3613 0 67.0546 13.4816 904 136.222 1031.13 397.906
3614 0 69.1131 13.5286 935 136.052 1031.51 398.11
3615 0 72.0983 12.6217 910 138.543 1031.75 396.392
3616 0 75.0827 13.4652 1011 135.358 1031.33 395.406
3617 0 75.1744 13.4354 1010 135.694 1031.21 395.496
3618 1 41.0718 12.2225 502 134.721 1031.69 412.321
3619 0 42.1814 12.2329 516 134.587 1031.74 410.862
3620 0 43.0751 11.3058 487 130.123 1031.42 402.815
3621 0 46.0894 13.105 604 127.053 1031.51 403.627
3622 0 48.1573 14.2657 687 127.648 1031.32 407.102
3623 0 47.0325 12.3744 582 128.706 1032.59 408.364
3624 0 48.0379 12.0322 578 128.824 1032.97 409.849
3625 0 51.0562 12.7507 651 124.765 1032.49 408.874
3626 0 53.087 11.9615 635 125.772 1032.09 407.605
3627 0 42.0839 5.37023 226 74.6726 1032.02 468.863
3628 0 47.076 6.43641 303 79.1452 1032.01 474.419
3629 0 51.133 7.54894 386 75.6295 1032.2 474.168
3630 0 48.1619 7.35021 354 78.2006 1031.48 476.158
3631 0 52.4181 9.15714 480 70.0146 1031.4 471.419
3632 0 49.1101 11.1179 546 72.3278 1031.58 475.987
3633 0 55.8301 13.0037 726 64.0606 1030.95 470.744
3634 0 51.1041 9.05994 463 75.1339 1031.29 477.484
3635 0 50.175 9.62631 483 73.1097 1031.2 476.567
3636 0 53.0416 8.06914 428 75.5187 1031.93 477.29
3637 0 53.046 8.01192 425 71.6259 1032.89 477.306
3638 0 50.3681 5.73776 289 76.0035 1030.7 472.63
3639 0 46.0872 9.48202 437 67.4325 1030.75 470
3640 0 45.1027 7.40532 334 72.9192 1030.93 472.665
3641 0 51.1172 8.99892 460 69.6413 1031.3 472.215
3642 0 48.084 6.90458 332 75.4819 1031.69 475.922
3643 0 49.1341 8.87368 436 71.0849 1031.49 474.22
3644 0 49.0369 6.50531 319 75.2696 1031.28 476.781
3645 0 51.2428 7.53277 386 73.5959 1031.08 476.578
3646 0 52.0427 7.72443 402 76.7388 1031.24 478.532
3647 0 48.0477 8.15856 392 75.5918 1031.28 478.033
3648 0 47.2771 6.26096 296 74.9966 1030.99 475.074
3649 0 39.119 10.0463 393 76.0636 1031.02 479.407
3650 0 51.084 10.8645 555 69.6504 1030.87 477.486
3651 0 53.1886 13.5743 722 63.759 1031.64 474.602
3652 0 52.1717 10.4271 544 69.3676 1030.82 476.226
3653 1 0 0 0 -nan -nan -nan
3654 1 54.414 13.2319 720 62.2417 1029.99 472.044
3655 0 50.1425 12.4246 623 68.3499 1030.54 478.53
3656 0 51.1271 12.4591 637 65.2998 1030.95 474.688
3657 0 52.1701 10.4658 546 68.4652 1031.16 476.747
3658 1 0 0 0 -nan -nan -nan
3659 1 51.1051 12.308 629 66.8172 1030.73 476.431
3660 0 51.0604 10.0861 515 70.5631 1030.78 477.371
3661 0 52.0559 10.8345 564 70.2855 1031 479.988
3662 0 54.0826 10.521 569 70.5325 1030.63 480
3663 0 53.057 9.89502 525 69.2819 1030.29 475.846
3664 0 41.0654 10.2519 421 74.7078 1030.45 479.805
3665 0 50.0538 8.71063 436 72.4771 1030.7 476.924
3666 0 53.0292 9.39105 498 72.1165 1030.51 479.361
3667 0 44.1056 9.27319 409 74.5281 1030.93 480.32
3668 0 54.0761 11.4468 619 67.1179 1030.1 476.302
3669 0 53.1393 11.1217 591 68.5516 1030.02 477.716
3670 0 54.085 12.0736 653 67.0827 1030.69 477.436
3671 0 51.0652 11.2014 572 69.7273 1030.76 479.045
3672 1 0 0 0 -nan -nan -nan
3673 1 55.5802 13.6379 758 63.905 1029.82 475.955
3674 0 55.1859 12.2495 676 77.7278 1030 477.907
3675 0 50.0378 11.4913 575 69.9044 1030.55 479.922
3676 0 51.1036 10.6646 545 70.3028 1029.88 478.965
3677 0 54.192 9.66932 524 70.1928 1029.2 476.433
