time division length width area intensity CMx CMy
0 0 45.0776 12.3343 556 132.923 1271.92 469.32
1 0 46.0728 11.4167 526 135.542 1272.26 468.221
2 0 47.0413 12.4146 584 131.401 1272.05 468.505
3 0 47.0179 11.3148 532 133.82 1272.2 467.906
4 0 49.0914 12.5276 615 129.493 1272.16 467.164
5 0 52.053 13.0828 681 125.862 1272.58 466.2
6 0 54.047 11.5825 626 127.757 1272.3 466.641
7 0 55.0736 11.2032 617 128.639 1271.75 465.277
8 0 57.0615 12.653 722 123.738 1271.26 465.349
9 0 58.0376 12.1818 707 123.844 1271.09 465.272
10 0 61.0392 12.2217 746 123.976 1270.9 463.489
11 1 31.029 9.9262 308 127.279 1271.09 478.575
12 0 30.0277 9.25811 278 120.795 1270.97 473.565
13 0 32.0096 10.8093 346 120.613 1271.32 476.951
14 0 32.0096 10.903 349 121.436 1271.32 476.903
15 0 35.0129 11.8242 414 119.502 1270.7 476.425
16 0 37.0089 13.6994 507 114.746 1270.98 475.909
17 0 38.0172 12.1261 461 122.095 1271.2 475.896
18 0 38.0182 12.2836 467 120.054 1270.29 476.096
19 0 40.0626 13.1294 526 117.055 1270.3 475.382
20 0 41.0178 12.4336 510 121.012 1269.43 475.422
21 0 41.0221 12.603 517 120.855 1269.92 476.164
22 0 45.0807 14.1746 639 113.942 1269.44 474.452
23 0 45.0639 12.6043 568 118.502 1269.57 475.871
24 0 44.0287 11.5152 507 122.777 1268.81 474.972
25 0 48.0638 13.6069 654 115.514 1269.57 473.636
26 0 51.0273 14.1689 723 114.111 1269.3 473.32
27 0 51.0898 12.8597 657 119.399 1269.36 473.021
28 0 53.0366 13.5001 716 117.582 1269.57 471.17
29 0 53.0182 13.6368 723 119.231 1269.08 471.949
30 0 55.0678 12.9114 711 120.214 1269.07 471.588
31 0 57.0317 13.361 762 120.113 1268.62 469.884
32 0 59.1243 14.0721 832 123.107 1269.02 464.938
33 0 62.0409 13.6684 848 128.919 1268.75 466.851
34 0 63.0291 13.5334 853 128.692 1269.78 465.872
35 0 66.0408 12.992 858 128.741 1269.59 465.131
36 0 69.0616 12.916 892 127.379 1269.48 465.073
37 0 72.0989 14.3414 1034 122.936 1268.95 462.637
38 0 74.0969 13.3474 989 124.663 1268.79 462.401
39 0 77.0681 12.9366 997 125.407 1268.28 461.999
40 0 79.0813 12.0003 949 126.369 1268.87 460.956
41 0 82.0873 13.6806 1123 121.602 1268.9 458.549
42 0 86.147 12.9082 1112 123.216 1268.52 457.584
43 0 88.084 11.5912 1021 125.962 1268.5 454.731
44 1 46.0458 12.0315 554 116.076 1268.34 477.166
45 0 50.1072 13.6707 685 111.282 1267.94 475.542
46 0 51.0377 13.01 664 112.81 1268.06 474.348
47 0 52.0743 11.4452 596 116.025 1268.2 474.94
48 0 51.0354 12.3836 632 115.392 1268.05 473.714
49 0 56.0348 14.1698 794 110.578 1267.76 472.053
50 0 58.0888 13.5138 785 111.85 1267.38 471.767
51 0 60.0416 13.4906 810 111.221 1267.32 469.962
52 0 60.0474 11.9572 718 116.37 1267.42 469.132
53 0 63.0158 12.2509 772 115.267 1267.42 467.898
54 0 66.026 13.7219 906 114.049 1267.04 467.084
55 0 69.0688 13.8123 954 112.567 1267.08 466.406
56 0 70.1344 12.5188 878 116.745 1267.47 463.901
57 0 74.0848 12.1482 900 116.571 1267.17 463.987
58 0 76.0402 11.9542 909 117.309 1267.39 461.864
59 0 80.1125 12.3451 989 115.982 1267.6 460.312
60 0 83.0361 12.886 1070 114.168 1267.41 460.07
61 0 87.1046 11.5264 1004 117.655 1266.41 457.33
62 0 91.2746 13.8922 1268 112.823 1265.47 454.171
63 0 94.2467 13.0933 1234 115.387 1266.21 454.327
64 0 96.1779 11.3436 1091 119.101 1265.58 454.603
65 0 100.11 13.8647 1388 117.423 1266.34 450.816
66 1 52.0865 12.0377 627 114.801 1267.58 476.47
67 0 51.0897 12.253 626 149.042 1268.59 476.466
68 0 53.1177 11.2204 596 111.705 1267 476.037
69 0 55.028 12.7026 699 108.901 1266.68 474.363
70 0 58.0768 12.7934 743 108.639 1266.81 473.454
71 0 59.103 12.1652 719 109.954 1266.83 473.346
72 0 60.0785 12.7167 764 109.987 1266.68 471.395
73 0 62.0338 12.2836 762 111.903 1267.06 470.602
74 0 66.0594 12.6704 837 111.355 1266.99 469.176
75 0 69.049 14.048 970 109.3 1266.78 468.543
76 0 69.0569 12.9458 894 114.361 1267.16 466.204
77 0 71.0983 12.757 907 114.55 1267.8 464.711
78 0 76.1407 14.0267 1068 111.12 1267.04 463.43
79 0 79.0979 13.2368 1047 112.842 1266.82 464.287
80 0 82.1404 14.3778 1181 110.544 1266.49 461.615
81 0 85.0979 13.8899 1182 112.42 1266.5 459.358
82 0 88.1274 14.445 1273 110.864 1266.2 458.024
83 0 89.1239 12.4882 1113 116.11 1266.42 458.285
84 1 47.0717 9.81482 462 118.327 1267.06 478.032
85 0 53.0452 12.4045 658 111.897 1266.96 477.502
86 0 55.0967 13.2494 730 115.974 1266.68 477.355
87 0 55.0307 12.8655 708 119.301 1265.76 475.576
88 0 56.0448 12.2759 688 122.999 1265.4 474.199
89 0 57.0448 12.236 698 112.241 1266.07 475.778
90 0 61.0834 12.5239 765 111.233 1265.79 473.14
91 0 62.0682 13.4691 836 109.833 1266.12 472.349
92 0 65.0752 12.2013 794 112.611 1266.28 471.888
93 0 67.0351 12.8589 862 111.49 1266.34 470.997
94 0 69.0537 12.3962 856 114.328 1266.55 468.715
95 0 73.0481 13.1694 962 112.642 1266.43 467.758
96 0 73.0438 11.6369 850 117.033 1265.74 466.894
97 0 77.0702 12.6508 975 119.891 1266.8 462.946
98 0 79.1123 12.0967 957 121.425 1266.85 463.045
99 0 85.1154 12.7122 1082 117.608 1266.63 462.74
100 0 88.0658 13.8533 1220 115.407 1265.93 460.263
101 0 88.096 12.248 1079 119.971 1265.99 460.441
102 0 92.1051 12.8114 1180 117.685 1265.97 459.731
103 1 49.029 12.3192 604 116.818 1266.01 478.185
104 0 51.0297 11.3659 580 121.045 1266.59 478.29
105 0 53.0558 12.7978 679 110.18 1265.8 478.389
106 0 52.146 11.5829 604 115.007 1265.29 477.129
107 0 54.0241 12.1242 655 113.212 1264.96 477.495
108 0 55.0188 12.941 712 111.865 1265.07 477.546
109 0 58.0707 13.3802 777 110.054 1265 476.046
110 0 62.1183 12.3152 765 112.692 1264.79 474.427
111 0 60.0375 12.3923 744 114.465 1264.6 473.163
112 0 65.079 12.4464 810 112.479 1264.79 472.978
113 0 67.087 13.162 883 111.98 1265.07 470.563
114 0 69.0887 11.9267 824 114.626 1265.03 470.01
115 0 70.0998 12.2254 857 115.972 1265.06 467.663
116 0 73.1764 11.7661 861 116.282 1265.08 467.39
117 0 76.099 12.2998 936 115.738 1265.34 466.432
118 0 77.1078 12.2815 947 119.307 1265.4 463.882
119 0 80.2183 12.5532 1007 119.458 1265.71 464.339
120 0 85.1524 13.8105 1176 115.281 1265.66 459.367
121 0 87.1422 12.9558 1129 118.06 1264.99 457.162
122 1 44.0333 10.2649 452 111.131 1265.88 477.274
123 0 45.0626 9.34255 421 109.701 1264.74 474.703
124 0 46.1566 8.66616 400 109.802 1266.34 470.925
125 0 50.0219 11.8348 592 110.054 1265.56 479.598
126 0 50.0221 11.8548 593 141.224 1264.55 479.691
127 0 52.0932 12.2473 638 109.597 1266 476.835
128 0 52.0607 10.046 523 114.402 1266.28 477.489
129 0 53.0306 10.7296 569 113.439 1265.91 475.334
130 0 55.0282 12.3755 681 109.765 1266.16 474.507
131 0 56.0389 10.7247 601 112.722 1266.66 473.216
132 0 60.0267 12.3112 739 108.705 1266.78 471.097
133 0 62.0889 12.7559 792 105.677 1266.33 471.537
134 0 63.0241 11.8209 745 106.379 1266.73 471.595
135 0 67.0391 12.0825 810 105.525 1266.3 470.457
136 0 67.0564 11.9153 799 106.518 1265.05 468.074
137 0 70.0623 11.4184 800 107.065 1264.78 468.45
138 0 72.0328 12.411 894 105.315 1265.05 465.802
139 0 73.027 11.352 829 107.843 1265.16 463.116
140 0 76.0934 11.3807 866 107.051 1265.85 464.155
141 0 79.1048 11.883 940 106.673 1265.35 460.66
142 0 82.0922 12.8514 1055 106.442 1265.21 457.854
143 0 86.1548 13.0695 1126 104.718 1264.54 454.917
144 0 89.1877 10.9656 978 111.248 1266.18 456.551
145 1 46.0216 12.7549 587 104.099 1267.47 476.332
146 0 46.0188 10.2567 472 125.068 1268.38 478.648
147 0 47.0343 12.0763 568 106.201 1264.83 475.058
148 0 49.0291 11.5646 567 101.072 1266.82 476.457
149 0 49.0143 11.364 557 100.831 1266.66 477.431
150 0 51.0511 11.9488 610 100.631 1266.85 475.228
151 0 52.0497 10.8934 567 102.949 1266.42 474.799
152 0 55.0138 11.6153 639 101.541 1265.99 473.886
153 0 55.0791 12.8361 707 99.7482 1265.86 473.388
154 0 58.0149 11.5832 672 101.83 1266.57 470.76
155 0 59.0253 11.7746 695 101.793 1265.88 471.512
156 0 62.0368 12.2024 757 101.082 1265.63 469.248
157 0 61.0355 11.5998 708 102.927 1265.34 467.65
158 0 63.0731 11.4312 721 103.843 1265.13 467.599
159 0 67.0212 11.8768 796 102.234 1264.84 466.725
160 0 73.069 14.589 1066 94.7308 1265.42 465.519
161 0 73.0543 11.5531 844 101.637 1265.19 465.714
162 0 76.0253 13.2061 1004 98.489 1265.2 462.525
163 0 78.1123 13.5702 1060 98.1642 1264.73 464.292
164 0 83.1726 13.8627 1153 96.9584 1264.75 460.903
165 0 86.0407 14.1793 1220 98.8156 1265.25 458.675
166 0 86.0422 14.2372 1225 138.857 1265.24 458.675
167 0 92.1827 13.5058 1245 104.734 1265.53 455.075
168 0 96.1622 13.9036 1337 104.963 1265.15 454.395
169 0 99.2043 13.8704 1376 105.628 1265.44 452.423
170 1 53.1669 13.3166 708 101.852 1265.58 475.757
171 0 53.1369 10.9528 582 100.151 1265.67 472.835
172 0 56.2419 12.4996 703 93.4879 1265.89 470.606
173 0 56.1702 12.3019 691 98.7482 1266.1 473.904
174 0 56.0371 12.5809 705 100.38 1265.46 471.519
175 0 59.0627 13.5619 801 97.2472 1265.52 471.559
176 0 60.0278 12.8274 770 99.6714 1264.4 469.01
177 0 65.1167 12.7617 831 98.2972 1264.6 468.041
178 0 66.275 12.5688 833 99.4154 1265.42 467.634
179 0 69.0541 13.1202 906 98.3223 1264.64 467.54
180 0 71.0615 13.045 927 98.1618 1264.71 467.903
181 0 72.0874 12.36 891 101.927 1265.8 463.25
182 0 75.0565 12.4173 932 100.996 1264.64 463.424
183 0 79.0766 14.7452 1166 95.922 1265.26 462.907
184 0 81.1908 13.4252 1090 98.4367 1265.1 460.641
185 0 85.2105 12.7684 1088 101.507 1265.55 459.027
186 0 88.1057 12.5758 1108 105.943 1265.01 459.304
187 0 91.0943 12.6792 1155 104.975 1265.06 458.053
188 0 95.1405 12.7706 1215 104.541 1264.87 455.055
189 0 98.1096 11.0896 1088 107.983 1264.98 454.498
190 1 52.0307 11.1665 581 102.114 1264.48 476.484
191 0 52.0351 11.3001 588 105.699 1264.87 474.526
192 0 55.1527 12.8915 711 102.895 1265.11 470.847
193 0 54.0835 12.1664 658 99.3815 1266.87 473.994
194 0 57.0439 10.5708 603 102.755 1266.12 474.388
195 0 59.0409 11.9409 705 101.374 1266 471.111
196 0 59.081 11.4588 677 103.298 1265.55 470.566
197 0 63.0926 11.8239 746 102.601 1264.66 467.656
198 0 64.0731 12.1424 778 102.41 1264.58 468.021
199 0 66.0465 12.1127 800 101.885 1265.26 468.441
200 0 69.0428 11.7608 812 101.99 1265.05 469.328
201 0 72.043 11.979 863 102.601 1264.31 464.604
202 0 75.1384 12.2574 921 102 1264.38 464.471
203 0 77.0182 11.5687 891 103.966 1264.33 462.343
204 0 80.0444 11.2812 903 103.762 1265.04 462.422
205 0 84.1174 12.7916 1076 102.106 1264.89 458.936
206 0 89.1157 13.6452 1216 102.638 1264.27 458.309
207 1 48.055 12.236 588 101.687 1264.32 477.289
208 0 46.1795 11.7151 541 104.797 1263.73 474.754
209 0 47.0767 11.1945 527 99.7951 1264.66 476.803
210 0 49.025 13.1362 644 95.2081 1265.1 476.447
211 0 49.0568 10.8242 531 100.718 1265.22 477.324
212 0 50.051 11.5282 577 99.0468 1265.22 477.374
213 0 51.0267 11.6606 595 100.313 1264.7 474.692
214 0 53.0231 11.3347 601 100.288 1264.82 473.98
215 0 57.019 11.54 658 98.8495 1264.53 473.701
216 0 59.079 11.5439 682 98.7977 1265.27 472.959
217 0 60.1724 11.949 719 97.7427 1264.86 470.074
218 0 59.0391 10.2644 606 100.431 1265.5 471.399
219 0 62.035 10.3974 645 99.8946 1264.99 469.806
220 0 65.0511 9.63858 627 100.853 1265.45 467.351
221 0 67.0679 11.7344 787 95.6773 1265.84 470.736
222 0 69.0748 10.9302 755 98.5709 1265.61 464.347
223 0 74.0448 11.7767 872 95.9495 1265.33 463.662
224 0 74.159 10.3696 769 98.8049 1266.11 462.38
225 0 79.1312 11.0576 875 97.3977 1265.8 462.579
226 0 82.1498 10.7852 886 95.833 1265.9 464.955
227 1 47.0182 11.1021 522 97.2778 1265.73 476.557
228 0 48.0237 11.3069 543 96.779 1266.38 475.772
229 0 50.0465 11.809 591 97.0491 1265.64 475.271
230 0 53.1224 11.6523 619 97.5073 1264.27 473.317
231 0 51.0188 11.3096 577 93.8492 1266.17 475.865
232 0 51.1014 9.68663 495 97.6242 1265.76 476.646
233 0 54.0478 13.229 715 91.1035 1266.28 474.75
234 0 55.1511 11.1331 614 96.9902 1267.08 471.653
235 0 55.0756 10.422 574 98.6376 1265.88 472.659
236 0 59.0496 12.8705 760 94.0487 1266.14 471.161
237 0 62.0708 12.2602 761 94.2904 1266.25 470.883
238 0 63.0383 11.5803 730 96.6027 1265.64 470.749
239 0 64.0903 11.7022 750 97.712 1265.86 468.036
240 0 67.1197 11.621 780 97.6731 1265.77 467.049
241 0 67.0999 11.2072 752 99.7952 1265.49 468.347
242 0 70.0676 11.6459 816 99.0711 1265.98 468.268
243 0 73.1071 12.9536 947 96.7772 1265.77 465.548
244 0 75.0419 12.0066 901 99.2342 1265.73 465.896
245 0 79.0856 13.3147 1053 98.1386 1266 462.585
246 0 81.052 12.7942 1037 100.03 1265.82 461.221
247 0 83.0604 12.3525 1026 101.462 1264.41 460.569
248 0 88.0391 13.1646 1159 101.977 1264.87 457.282
249 0 91.1178 13.4661 1227 103.368 1264.89 456.073
250 0 93.0735 12.517 1165 106.02 1265.55 456.097
251 0 97.1391 13.9388 1354 102.72 1264.79 455.465
252 0 101.13 14.5358 1470 103.295 1264.19 452.75
253 1 53.0575 12.5147 664 107.617 1264.35 476.327
254 0 54.062 11.2648 609 112.787 1265.05 475.826
255 0 56.2037 12.8817 724 107.269 1265.85 473.076
256 0 58.0226 12.9605 752 112.35 1264.86 471.749
257 0 58.0419 12.7666 741 113.953 1265.85 472.619
258 0 60.0166 12.7298 764 115.707 1266.13 470.001
259 0 63.0565 13.2262 834 114.277 1265.25 469.564
260 0 67.1603 13.4306 902 113.049 1265.18 469.565
261 0 68.1862 12.9205 881 115.417 1265.44 467.867
262 0 71.197 13.1466 936 114.948 1265.25 467.707
263 0 72.0784 13.7767 993 115.091 1265.33 465.596
264 0 75.0915 13.8364 1039 114.377 1265.39 464.833
265 0 79.1495 14.719 1165 112.373 1265.1 463.342
266 0 81.1261 13.6331 1106 113.817 1265.84 463.788
267 0 84.1968 14.4424 1216 112.435 1266.18 461.422
268 0 85.1148 14.3101 1218 112.449 1266.83 461.216
269 0 89.0735 14.808 1319 111.185 1266.6 457.74
270 0 91.2145 13.4957 1231 115.405 1265.91 455.666
271 0 97.1544 13.6278 1324 113.494 1266.06 455.875
272 1 49.0488 12.2327 600 111.543 1266.05 477.533
273 0 50.0923 11.2592 564 114.44 1265.25 475.491
274 0 52.0895 12.3249 642 112.632 1265.23 474.991
275 0 56.0576 12.7904 717 110.738 1266.68 474.437
276 0 54.129 11.1585 604 111.909 1266.33 475.447
277 0 55.11 11.4861 633 112.373 1266.03 474.417
278 0 58.1226 11.9231 693 110.309 1265.97 474.162
279 0 61.1566 12.5579 768 108.883 1266.13 472.292
280 0 61.0462 12.6462 772 108.947 1266.11 471.468
281 0 65.1176 12.5926 820 108.029 1266.49 470.284
282 0 69.0674 12.7991 884 107.173 1265.97 468.257
283 0 68.0871 12.8218 873 109.053 1266.03 467.34
284 0 73.1588 13.5049 988 106.317 1266.36 467.663
285 0 74.1289 13.0449 967 108.584 1265.72 465.097
286 0 76.1092 13.1127 998 110.195 1266.11 462.026
287 0 82.1747 13.3739 1099 108.141 1265.6 462.294
288 0 84.1456 14.1778 1193 108.754 1265.95 460.484
289 0 87.25 13.8682 1210 111.077 1265.87 457.428
290 0 91.1905 14.1901 1294 112.568 1265.66 455.223
291 1 44.0331 9.31118 410 116.951 1266.91 476.344
292 0 47.1268 11.9465 563 111.474 1265.09 476.726
293 0 49.1335 12.5983 619 108.717 1265.07 477.561
294 0 47.0633 11.6652 549 110.011 1264.34 478.171
295 0 49.1028 11.1603 548 111.816 1264.47 475.96
296 0 53.0771 11.7942 626 109.374 1264.92 475.893
297 0 55.1838 12.105 668 108.133 1264.47 474.96
298 0 56.0911 12.9076 724 73.3508 1264.52 478.358
299 0 57.0499 10.6223 606 112.505 1264.59 473.835
300 0 59.0767 11.3751 672 110.805 1264.9 472.518
301 0 60.0554 10.6901 642 112.668 1264.98 471.167
302 0 60.0554 10.7567 646 133.628 1264.98 471.146
303 0 65.0736 12.0172 782 108.934 1264.63 469.921
304 0 66.1097 11.9045 787 110.048 1264.87 468.347
305 0 68.0551 11.6817 795 111.094 1264.88 466.645
306 0 70.0639 10.6902 749 111.682 1265.31 467.174
307 0 73.0966 11.9568 874 108.539 1264.76 465.194
308 0 77.07 11.9502 921 106.987 1264.76 463.496
309 0 78.0581 9.92851 775 110.032 1266.28 461.903
310 0 82.1738 10.3439 850 112.629 1265.29 458.02
311 1 44.0417 10.4447 460 106.207 1266.36 477.437
312 0 44.0837 11.274 497 105.491 1266.18 475.986
313 0 47.0251 9.95213 468 103.863 1265.62 475.878
314 0 49.0877 10.6136 521 104.025 1263.89 474.919
315 0 50.0597 11.5262 577 103.858 1263.8 476.061
316 0 50.055 10.928 547 102.901 1264.57 476.24
317 0 52.0586 8.75936 456 107.136 1265.35 475.463
318 0 52.1158 8.673 452 106.473 1265.11 474.071
319 0 56.0737 10.7894 605 101.831 1264.73 471.876
320 0 58.1641 11.4847 668 99.8443 1264.89 471.153
321 0 58.0412 9.99291 580 102.981 1265.38 469.626
322 0 61.0949 10.7701 658 100.506 1265.39 471.292
323 0 63.1225 10.4875 662 100.355 1264.66 467.592
324 0 66.151 11.2772 746 98.4973 1264.34 468.386
325 0 69.1682 11.0022 761 100.451 1264.05 464.62
326 0 72.0755 10.7387 774 100.99 1264.41 464.933
327 0 74.1329 10.751 797 100.837 1264.58 464.015
328 0 76.0639 10.6095 807 102.631 1264.37 462.082
329 1 41.0564 8.84149 363 99.9229 1264.58 481.934
330 0 41.0564 8.93892 367 111.673 1265.59 481.902
331 0 42.068 8.41495 354 99.9661 1264.82 481.178
332 0 44.0888 10.184 449 96.5791 1264.09 476.806
333 0 44.0553 9.66967 426 98.1268 1264.66 477.322
334 0 47.0951 12.0395 567 97.1922 1264.42 477.176
335 0 47.1012 9.53266 449 102.964 1264.17 478.971
336 0 49.1089 10.9349 537 101.732 1264.23 475.963
337 0 49.0666 10.1291 497 103.308 1264.37 477.744
338 0 49.0477 8.86891 435 107.347 1264.57 476.069
339 0 52.0901 9.42598 491 105.892 1264.41 476.953
340 0 55.0863 10.7649 593 104.482 1264.29 472.737
341 0 54.1084 8.87108 480 107.806 1264.07 475.838
342 0 57.0651 11.1627 637 104.27 1264.7 472.87
343 0 57.1598 10.6543 609 106.969 1265.07 472.7
344 0 58.1371 9.684 563 110.343 1264.8 472.076
345 0 61.1016 10.2616 627 109.359 1264.99 471.286
346 0 63.1078 10.6485 672 110.189 1264.72 467.619
347 0 66.1079 11.4207 755 108.291 1264.58 468.932
348 0 66.1188 11.0256 729 111.667 1264.63 465.771
349 0 69.135 11.4269 790 109.758 1265.3 465.232
350 0 71.1459 11.5959 825 109.897 1265.39 464.61
351 0 76.08 12.4737 949 106.354 1264.9 465.521
352 0 78.1243 13.0945 1023 107.233 1264.56 463.541
353 0 81.1075 13.0321 1057 107.911 1264.94 462.194
354 0 82.1452 12.5023 1027 110.523 1264.62 461.552
355 0 85.1866 13.1828 1123 108.662 1265.19 461.215
356 0 88.2047 12.471 1100 111.259 1264.21 459.446
357 0 90.2824 13.3027 1201 109.779 1264.74 457.897
358 0 92.157 11.7734 1085 114.677 1265.28 455.979
359 0 94.3238 12.2769 1158 113.516 1265.73 454.649
360 0 97.2319 11.5908 1127 116.568 1265.33 453.37
361 0 101.182 11.6227 1176 115.501 1265.52 453.518
362 1 57.1746 11.2812 645 110.803 1265.68 472.972
363 0 59.1461 11.9027 704 109.436 1265.9 473.271
364 0 57.0255 11.5036 656 107.09 1265.14 471.242
365 0 59.0785 11.8656 701 112.506 1264.5 472.341
366 0 64.0305 12.8376 822 107.456 1264.96 472.338
367 0 65.051 13.5125 879 107.658 1264.83 470.022
368 0 67.0789 12.135 814 110.732 1264.66 469.579
369 0 69.061 12.3514 853 108.773 1265.22 468.122
370 0 70.0667 12.6879 889 107.892 1265.26 467.372
371 0 71.078 12.8028 910 107.923 1265.69 465.574
372 0 73.0626 11.6065 848 109.364 1265.14 463.471
373 0 76.0738 11.0288 839 109.9 1265.25 463.71
374 0 81.143 12.3486 1002 105.872 1265.01 461.601
375 0 83.0854 12.8422 1067 104.982 1265.28 459.689
376 0 84.0699 10.8005 908 107.638 1265.55 462.184
377 0 89.1018 12.2556 1092 104.167 1265.26 457.445
378 0 92.1702 12.0212 1108 105.213 1264.98 457.495
379 0 94.1554 11.4279 1076 106.378 1265.96 454.258
380 0 98.2929 10.7943 1061 105.851 1265.16 454.473
381 1 53.1429 11.0457 587 98.5588 1265.42 477.14
382 0 53.1507 11.759 625 97.968 1265.65 477.224
383 0 51.0528 10.4206 532 102.643 1265.41 472.679
384 0 57.025 12.1175 691 94.2156 1265.1 473.794
385 0 55.1332 12.0798 666 91.8063 1266.6 475.398
386 0 55.0474 10.7907 594 94.2121 1266.62 475.88
387 0 60.0941 12.7633 767 89.2673 1267.25 475.27
388 0 59.0958 11.0329 652 93.0706 1267.38 474.153
389 0 62.0677 11.2458 698 92.49 1266.46 472.862
390 0 65.0856 11.7845 767 91.2947 1266.23 470.306
391 0 66.1456 11.2479 744 92.1949 1266.21 469.917
392 0 69.18 11.0581 765 91.966 1267.07 468.595
393 0 71.1285 12.0767 859 90.2934 1267.3 467.448
394 0 74.0803 12.1895 903 90.3289 1266.62 466.187
395 0 75.088 10.5476 792 93.447 1266.66 465.717
396 0 78.069 10.8238 845 92.8367 1266.89 464.412
397 0 80.1067 11.1102 890 92.4494 1267.34 463.381
398 0 81.0512 10.956 888 93.7815 1265.94 460.624
399 0 85.1059 11.5151 980 95.2071 1265.56 459.374
400 0 88.129 11.8917 1048 96.4065 1265.34 456.74
401 0 91.201 12.4121 1132 98.7368 1265.3 455.907
402 0 95.2115 11.5427 1099 101.16 1265.85 454.739
403 1 49.1752 11.0015 541 97.6821 1267.02 476.12
404 0 47.1983 9.68255 457 93.4004 1266.06 469.659
405 0 48.0844 10.5232 506 91.9091 1265.65 465.951
406 0 51.0242 11.4847 586 94.1536 1265.1 478.577
407 0 52.0264 10.5716 550 97.2818 1265.85 476.689
408 0 54.0715 12.2245 661 92.5295 1266.12 478.648
409 0 57.1092 11.049 631 95.1284 1265.46 475.756
410 0 55.0431 11.6818 643 95.8802 1265.89 474.073
411 0 60.0385 13.3414 801 92.1673 1266.04 471.718
412 0 61.1673 12.0816 739 95.6076 1265.78 471.479
413 0 65.1482 11.0671 721 95.8849 1265.71 471.333
414 0 65.1108 11.6878 761 96.3614 1266.05 466.608
415 0 67.0172 12.3998 831 94.9735 1266.19 470.266
416 0 69.0926 12.8668 889 94.1665 1266.42 467.054
417 0 72.0746 12.7091 916 95.048 1265.77 466.571
418 0 74.1118 12.7105 942 93.6062 1265.61 466.281
419 0 75.1641 12.1734 915 94.176 1266.51 465.16
420 0 78.0519 12.7736 997 93.0953 1266.43 463.498
421 0 80.0596 11.5914 928 96.1821 1266.51 463.301
422 0 84.0966 11.2846 949 98.372 1266.34 460.509
423 0 88.1714 13.7913 1216 94.8215 1267.26 457.778
424 0 89.1396 11.7344 1046 98.282 1266.4 457.287
425 0 94.1065 12.3052 1158 97.804 1265.72 453.627
426 0 96.1995 12.2766 1181 100.143 1266.18 451.553
427 1 48.0347 10.8255 520 98.1269 1266.99 477.425
428 0 48.0644 10.5067 505 97.4436 1265.95 477.711
429 0 51.1533 12.1791 623 97.1605 1265.55 476.742
430 0 52.0887 11.8068 615 94.2553 1267.03 475.163
431 0 52.0847 10.8285 564 95.9734 1267.56 474.966
432 0 55.0578 10.6615 587 95.4054 1267.1 475.966
433 0 56.1103 11.2101 629 96.4006 1266.87 471.467
434 0 58.0557 11.9368 693 93.8225 1266.67 472.404
435 0 59.1006 12.1826 720 94.3222 1266.91 471.304
436 0 62.1543 12.6138 784 94.2066 1267.01 470.538
437 0 63.071 12.2719 774 95.5736 1266.58 470.786
438 0 66.1072 11.557 764 97.9437 1266.08 467.212
439 0 69.0904 12.3317 852 96.284 1266.45 467.56
440 0 68.13 11.4927 783 99.7395 1266.83 467.176
441 0 73.1084 11.695 855 98.9813 1266.69 465.512
442 0 77.1 12.3217 950 97.8505 1266.33 463.364
443 0 81.0829 13.665 1108 95.6634 1266.55 466.091
444 0 85.1718 13.8661 1181 99.6681 1266.3 461.148
445 0 89.2502 15.507 1384 99.987 1266.68 459.691
446 0 90.163 13.1207 1183 106.009 1267.08 459.362
447 0 94.1918 13.5362 1275 104.635 1266.41 456.42
448 0 97.1645 14.3983 1399 104.014 1266.61 452.506
449 0 100.193 14.6019 1463 103.704 1266.04 450.82
450 0 103.172 15.2948 1578 103.714 1266.17 448.78
451 0 109.145 14.3662 1568 104.512 1266.69 450.958
452 1 57.0994 12.2418 699 101.506 1268.33 476.403
453 0 57.067 12.6868 724 99.2666 1267.47 470.627
454 0 59.0921 12.5736 743 103.894 1267.04 472.106
455 0 61.0615 12.9542 791 102.321 1267.77 474.158
456 0 65.1402 12.2966 801 104.745 1266.93 470.181
457 0 67.0772 14.2373 955 101.329 1267.35 470.698
458 0 68.0745 12.8389 874 104.688 1267.02 469.619
459 0 71.1032 14.3032 1017 102.409 1266.3 465.837
460 0 72.0653 12.4332 896 107.155 1267.1 466.176
461 0 75.033 12.9943 975 106.063 1266.65 465.505
462 0 78.0456 12.8387 1002 105.825 1266.49 465.218
463 0 81.0293 12.3412 1000 107.892 1266.55 462.767
464 0 83.0536 12.2571 1018 108.595 1267.21 461.332
465 0 87.2299 13.344 1164 106.363 1267.91 459.07
466 0 88.0738 12.2624 1080 109.591 1265.78 458.521
467 0 92.1557 12.2727 1131 110.749 1266.99 456.286
468 0 92.1557 12.2402 1128 153.793 1267 456.412
469 1 47.0818 12.5102 589 102.402 1268.51 478.406
470 0 50.0146 12.8962 645 98.3504 1268.05 477.643
471 0 48.0829 11.7297 564 98.8333 1267.18 480.544
472 0 50.0617 10.1675 509 101.711 1267.28 480.275
473 0 51.057 11.5949 592 101.025 1267.38 477.716
474 0 52.0634 9.48843 494 103.397 1268.73 480.534
475 0 54.0115 11.0347 596 101.943 1268.42 477.562
476 0 56.0811 11.7152 657 100.715 1267.47 476.239
477 0 58.0413 12.8702 747 97.4752 1266.97 475.28
478 0 59.1755 11.9644 708 98.6158 1268.44 473.845
479 0 58.1308 10.2011 593 103.378 1268.12 472.717
480 0 63.0891 11.5551 729 100.37 1267.76 473.132
481 0 65.071 11.1878 728 101.694 1267.38 469.081
482 0 66.0361 11.524 761 100.827 1268.19 470.745
483 0 70.0527 12.4049 869 99.527 1267.42 469.635
484 0 70.0634 11.6894 819 102.939 1267.92 469.508
485 0 75.1408 12.8692 967 102.323 1267.71 466.574
486 0 73.0927 12.6004 921 103.289 1267.93 466.036
487 0 78.2023 11.8283 925 105.305 1268.29 466.006
488 0 81.1491 11.6822 948 103.821 1267.87 463.828
489 0 84.2541 11.6671 983 106.089 1266.95 461.393
490 0 85.1565 10.651 907 112.155 1266.92 462.152
491 0 90.2533 12.332 1113 109.703 1266.76 459.848
492 0 94.3464 12.9629 1223 109.293 1267.18 456.365
493 0 99.1393 13.355 1324 108.017 1266.43 455.988
494 1 53.0602 12.3068 653 109.429 1266.45 476.801
495 0 53.0799 11.3037 600 109.323 1266.76 472.825
496 0 55.0346 12.1378 668 112.157 1267.7 475.74
497 0 58.0706 13.5869 789 108.076 1268.04 475.374
498 0 58.0991 13.5286 786 110.162 1267.91 473.547
499 0 62.0428 13.5874 843 109.342 1267.94 472.26
500 0 63.0373 12.8971 813 112.788 1268.16 472.695
501 0 62.1359 11.6519 724 111.818 1267.81 472.681
502 0 64.1362 12.8633 825 110.303 1267.29 470.836
503 0 68.1805 11.4109 778 112.915 1268.01 471.181
504 0 68.1905 11.4385 780 146.012 1268.02 470.992
505 0 71.1619 11.8181 841 113.216 1267.71 468.308
506 0 73.1693 12.0406 881 112.995 1267.52 465.463
507 0 79.2267 13.657 1082 107.184 1267.76 467.16
508 0 81.212 11.9317 969 112.649 1267.27 464.914
509 0 83.2005 11.4903 956 114.76 1268.05 463.552
510 0 88.0361 12.0746 1063 116.061 1265.65 460.692
511 0 91.275 12.7417 1163 117.952 1265.63 459.355
512 0 94.1669 12.0955 1139 114.317 1267.17 458.836
513 1 50.0153 13.4359 672 108.696 1265.97 478.99
514 0 53.0548 12.1007 642 112.262 1266.14 478.402
515 0 52.0668 11.466 597 115.786 1266.19 479.04
516 0 51.0249 9.62276 491 122.89 1266.55 477.701
517 0 55.0506 12.7701 703 114.172 1266.22 477.395
518 0 56.0506 12.5244 702 114.38 1267.09 477.803
519 0 57.0921 13.1367 750 115.184 1266.89 473.764
520 0 59.0422 13.2786 784 114.954 1266.43 474.228
521 0 60.0482 12.2235 734 118.222 1265.4 473.451
522 0 61.0725 12.2969 751 119.502 1265.73 471.045
523 0 65.1106 13.7305 894 113.423 1265.79 470.786
524 0 68.0549 11.7405 799 116.835 1266.44 471.33
525 0 69.0605 12.1198 837 116.8 1265.92 469.534
526 0 69.0605 12.1777 841 151.365 1264.91 469.545
527 0 74.1361 12.8952 956 114.993 1265.67 466.324
528 0 78.0534 12.248 956 114.318 1265.53 468.435
529 0 81.1311 11.8204 959 113.742 1266.17 465.723
530 1 43.0309 10.7829 464 118.711 1265.99 482.369
531 0 44.0798 11.4338 504 118.887 1266.34 481.05
532 0 46.0439 13.2917 612 114.031 1265.98 480.938
533 0 49.1146 12.5014 614 116.182 1265.94 479.689
534 0 49.0172 11.9754 587 118.874 1265.94 478.395
535 0 52.0606 12.812 667 115.663 1265.38 478.12
536 0 54.1885 13.1578 713 113.791 1265.63 477.482
537 0 56.0965 13.1916 740 114.353 1265.61 473.973
538 0 56.146 12.2359 687 117.646 1265.58 474.926
539 0 58.0362 12.8368 745 116.53 1267.43 473.652
540 0 61.0295 13.0756 798 114.212 1267.76 473.987
541 0 63.0519 13.5444 854 112.842 1267.6 473.31
542 0 62.0655 12.3579 767 118.168 1267.58 472.279
543 0 66.1241 13.142 869 114.621 1267.59 471.06
544 0 65.0118 12.5054 813 118.697 1267.27 469.496
545 0 68.0284 13.5091 919 116.596 1267.66 467.62
546 0 70.0588 12.2183 856 119.848 1267.52 466.407
547 0 74.0555 14.003 1037 113.737 1267.12 467.082
548 0 76.0766 14.2225 1082 114.048 1267.7 465.209
549 0 78.1281 13.7467 1074 115.363 1267.67 463.605
550 0 80.0854 12.2245 979 118.662 1267.45 463.758
551 0 84.0975 14.281 1201 114.232 1267.5 460.131
552 0 86.1692 13.8216 1191 116.597 1266.77 457.982
553 0 91.168 13.3709 1219 116.154 1266.82 458.898
554 0 94.0817 15.3909 1448 111.604 1266.99 456.425
555 0 96.199 13.524 1301 118.456 1266.92 452.636
556 1 51.0494 11.3615 580 114.181 1266.87 479.262
557 0 51.1959 11.5244 590 116.386 1265.88 475.183
558 0 53.0249 11.8435 628 115.365 1266.98 476.336
559 0 54.025 11.9204 644 108.924 1266.5 478.104
560 0 55.09 12.053 664 108.946 1266.11 475.126
561 0 59.0445 13.3797 790 104.359 1265.59 473.838
562 0 56.1355 12.1848 684 109.899 1265.33 473.409
563 0 61.1614 12.0337 736 107.673 1265.62 472.522
564 0 62.1019 11.771 731 108.8 1265.59 473.007
565 0 64.076 13.125 841 106.098 1265.91 470.391
566 0 65.1465 11.5279 751 108.623 1265.86 470.712
567 0 68.0826 12.3967 844 107.967 1265.74 468.707
568 0 72.113 12.4943 901 106.235 1265.86 468.919
569 0 72.1059 13.078 943 105.278 1265.79 467.374
570 0 75.0557 11.8845 892 107.584 1266.24 466.978
571 0 75.1056 11.1576 838 110.055 1266.17 464.274
572 0 81.1069 12.9582 1051 110.735 1266.27 460.233
573 0 85.1582 14.4789 1233 105.537 1265.74 459.817
574 0 88.067 13.6033 1198 110.429 1265.69 458.389
575 0 89.0856 13.1559 1172 112.096 1265.16 456.604
576 1 47.0518 11.0729 521 110.365 1265.36 478.808
577 0 47.0316 10.8225 509 106.953 1266 479.662
578 0 49.0367 11.6851 573 105.37 1266.54 478.354
579 0 50.0652 12.2041 611 104.191 1267.04 477.077
580 0 52.0335 12.7994 666 103.727 1267.11 478.869
581 0 52.0403 12.5287 652 105.558 1266.93 477.638
582 0 55.0682 13.1292 723 103.443 1266.44 477.369
583 0 55.0333 11.8655 653 107.089 1266.76 476.672
584 0 58.0602 11.2297 652 108.319 1266.08 475.437
585 0 61.0577 13.1187 801 104.667 1266.93 474.67
586 0 60.0378 12.4088 745 107.91 1266.98 474.083
587 0 64.0484 12.6779 812 106.424 1266.83 474.946
588 0 66.0325 13.8265 913 105.449 1266.73 470.893
589 0 68.0987 12.1148 825 108.839 1266.85 471.232
590 0 72.1389 13.1829 951 106.463 1266.55 469.715
591 0 74.1016 12.8068 949 107.89 1266.38 467.913
592 0 77.0933 13.088 1009 106.669 1266.83 467.603
593 0 80.085 14.0975 1129 105.564 1266.68 464.093
594 0 84.0828 13.8792 1167 107.395 1266.07 463.012
595 0 86.145 13.8371 1192 109.54 1266.39 458.985
596 0 91.1216 13.4107 1222 108.51 1266.35 459.967
597 1 47.0433 10.7348 505 110.279 1267.58 480.337
598 0 50.0392 12.3703 619 106.582 1265.71 478.422
599 0 49.0859 11.1641 548 108.954 1265.93 479.186
600 0 50.051 11.8679 594 103.024 1266.16 479.741
601 0 51.0841 10.7666 550 104.733 1266.46 481.313
602 0 54.1528 12.2062 661 101.298 1267.28 478.66
603 0 55.1136 11.6487 642 103.526 1267.08 476.374
604 0 58.0435 13.1453 763 101.077 1267.13 475.616
605 0 60.0727 11.2031 673 103.539 1267.35 476.444
606 0 62.0377 12.3796 768 102.068 1267.33 473.225
607 0 64.0728 11.721 751 104.916 1267.62 471.146
608 0 66.0605 12.1555 803 104.091 1267.51 471.067
609 0 68.0748 11.2083 763 105.695 1267.22 467.714
610 0 73.0571 12.0864 883 102.889 1267.45 468.849
611 0 74.0934 12.6597 938 103.732 1266.17 469.139
612 0 77.0787 11.3131 872 106.279 1265.74 465.265
613 0 80.1258 12.0935 969 106.087 1266.79 465.869
614 1 43.0529 10.8239 466 108.489 1268.2 484.513
615 0 43.0089 10.9047 469 112.424 1267.74 482.296
616 0 47.043 12.4142 584 103.401 1266.89 481.51
617 0 45.0299 13.1468 592 102.262 1265.9 482.025
618 0 47.0521 11.9655 563 103.909 1265.6 479.95
619 0 49.0714 12.8996 633 101.978 1265.91 480.306
620 0 50.0776 12.2011 611 103.597 1266.72 480.354
621 0 51.0869 12.2145 624 104.359 1267 479.883
622 0 55.1215 13.6245 751 100.676 1266.89 478.965
623 0 56.0653 11.1655 626 108.177 1265.64 478.342
624 0 55.1949 13.3346 736 105.14 1265.3 477.66
625 0 59.1601 12.1366 718 105.699 1265.74 478.99
626 0 59.0388 13.127 775 106.505 1264.91 476.004
627 0 61.1299 13.6104 832 104.614 1265.19 476.133
628 0 63.0447 12.5308 790 108.246 1264.64 473.78
629 0 62.1305 12.345 767 109.683 1265.42 474.374
630 0 67.1801 12.9503 870 107.155 1264.89 472.471
631 0 68.0491 13.0053 885 108.238 1265.27 472.308
632 0 70.0905 12.6551 887 111.328 1264.78 468.488
633 0 72.0768 11.6542 840 116.815 1266.25 468.317
634 0 75.0742 14.0661 1056 112.417 1266.44 466.495
635 0 78.1066 13.1359 1026 113.726 1266.49 465.432
636 0 82.0941 13.1678 1081 111.952 1266.24 463.749
637 1 42.0702 11.5046 484 111.103 1267.43 482.645
638 0 44.1652 10.6419 470 108.879 1266.04 480.677
639 0 45.0639 12.5377 565 102.368 1267.07 480.74
640 0 48.0869 11.8327 569 101.859 1266.07 481.641
641 0 47.0415 10.9478 515 105.406 1267.2 483.157
642 0 46.0217 12.5158 576 103.688 1266.07 480.677
643 0 49.0243 11.994 588 102.655 1265.89 482.31
644 0 50.1627 12.0209 603 105.493 1266.07 479.172
645 0 52.1145 11.2253 585 106.696 1265.97 480.239
646 0 53.0259 11.2964 599 107.337 1266.15 478.674
647 0 54.0358 11.1593 603 107.634 1265.45 477.99
648 0 59.0543 13.3267 787 100.654 1266.19 476.311
649 0 61.136 11.728 717 98.5342 1265.48 473.35
650 0 61.0929 11.7526 718 99.6114 1265.74 470.955
651 0 63.1062 11.5995 732 99.444 1265.27 472.224
652 0 65.068 13.7087 892 102.603 1265.4 473.305
653 0 68.04 12.0811 822 106.055 1265.1 473.015
654 0 69.0646 13.0023 898 101.84 1265.79 473.122
655 0 74.059 12.5846 932 103.108 1266.63 469.201
656 0 75.1115 12.4881 938 103.457 1266.45 468.819
657 0 77.0749 11.3137 872 104.96 1266.26 469.186
658 0 82.0742 12.4887 1025 101.761 1266.14 466.664
659 1 42.0109 11.3066 475 104.484 1266.77 484.269
660 0 45.0205 12.6831 571 100.327 1266.82 483.513
661 0 43.0468 10.6163 457 108.278 1266.43 482.919
662 0 46.0524 11.3783 524 97.3092 1265.71 480.33
663 0 49.0455 12.0297 590 94.9186 1266.37 478.498
664 0 50.0488 14.4059 721 94.577 1266.64 479.68
665 0 52.0404 13.1629 685 100.902 1265.32 480.48
666 0 52.0966 12.5536 654 102.699 1265.2 478.855
667 0 55.065 13.0391 718 100.67 1265.25 479.719
668 0 55.0429 14.3343 789 98.7605 1265.09 476.923
669 0 57.0836 12.4905 713 102.857 1265.1 476.101
670 0 59.0399 13.4993 797 100.883 1264.92 475.545
671 0 61.0399 12.4673 761 103.782 1264.34 474.062
672 0 63.1008 12.2503 773 102.173 1264.57 474.091
673 0 65.036 12.1164 788 103.895 1264.8 472.117
674 0 68.1099 12.5973 858 102.852 1264.56 471.72
675 0 67.0701 12.7031 852 104.333 1265.01 471.397
676 0 70.0538 12.8901 903 104.966 1264.93 468.226
677 0 75.051 13.2976 998 103.505 1264.96 469.096
678 0 78.1325 13.6435 1066 103.696 1265.06 465.916
679 0 81.0764 14.0731 1141 104.415 1264.6 465.635
680 0 83.1187 15.1109 1256 103.379 1264.27 462.732
681 0 86.1549 13.8588 1194 106.976 1264.11 461.239
682 0 89.0667 12.9566 1154 106.873 1264.85 458.899
683 0 93.0993 13.7917 1284 104.468 1264.46 454.91
684 1 45.1194 11.1704 504 101.065 1265.58 479.887
685 0 46.0456 12.1401 559 105.018 1264.91 478.887
686 0 48.1132 13.2812 639 101.208 1265.37 481.324
687 0 49.0341 11.0127 540 108.257 1265.55 480.033
688 0 51.1103 13.5393 692 102.448 1265.69 479.373
689 0 53.0431 12.7443 676 104.325 1265.36 479.145
690 0 55.0313 13.774 758 102.633 1265.66 478.406
691 0 57.0457 13.6908 781 102.165 1266.26 479.058
692 0 59.1273 14.4096 852 102.149 1266.09 476.965
693 0 60.0165 14.8626 892 102.491 1265.99 476.114
694 0 62.0729 14.1769 880 104.243 1265.75 475.398
695 0 64.065 14.657 939 103.942 1265.23 473.026
696 0 69.082 17.2693 1193 95.3671 1266.15 470.265
697 0 72.0978 16.4915 1189 97.5551 1266.54 470.057
698 0 72.0823 16.2176 1169 101.135 1266.44 468.542
699 0 74.0944 15.6152 1157 103.358 1266.13 466.485
700 0 75.1238 14.4428 1085 107.838 1265.9 466.153
701 0 79.1551 14.3895 1139 112.219 1265.5 465.932
702 0 81.1977 13.892 1128 113.418 1265.37 465.682
703 0 81.1499 13.6414 1107 115.849 1265.39 462.497
704 0 87.0882 14.7666 1286 110.557 1264.73 459.607
705 0 89.1852 14.9689 1335 110.87 1264.5 456.984
706 1 48.0831 11.8129 568 109.114 1265.25 480.211
707 0 47.0304 12.4813 587 113.157 1264.31 478.833
708 0 49.1053 13.3387 655 103.965 1265.07 479.896
709 0 49.0289 12.2581 601 106.491 1265 480.933
710 0 53.0239 12.6547 671 104.866 1265.36 480.273
711 0 52.0982 11.8046 615 110.285 1265 478.174
712 0 55.0329 13.3556 735 107.192 1265.1 477.022
713 0 56.0327 13.0995 734 109.425 1265.14 476.418
714 0 59.0692 14.0682 831 108.422 1265.63 474.356
715 0 65.0563 17.5079 1139 97.6506 1265.17 469.194
716 0 65.0508 15.9721 1039 104.999 1265.25 471.368
717 0 66.0202 13.6019 898 113.876 1265.61 469.453
718 0 68.0386 17.0051 1157 106.324 1265.98 470.099
719 0 68.0496 13.7841 938 118.195 1265.55 469.047
720 0 71.0602 15.0858 1072 115.987 1265.64 469.236
721 0 73.1042 14.3631 1050 117.757 1265.97 466.732
722 0 77.0775 13.5189 1042 119.769 1265.33 466.023
723 0 79.136 13.5463 1072 119.924 1265.08 465.765
724 0 80.2598 12.9828 1042 121.981 1265.07 464.358
725 0 84.0683 14.1552 1190 119.056 1265.13 462.871
726 0 87.0647 14.2423 1240 118.529 1265.23 461.546
727 1 44.0266 11.5158 507 116.844 1265.08 482.671
728 0 46.0121 11.3883 524 116.775 1264.99 483.62
729 0 49.0425 12.1323 595 117.395 1265.36 480.516
730 0 50.0895 13.3561 669 115.173 1265.23 480.247
731 0 53.0282 12.9742 688 114.578 1265.48 480.337
732 0 53.07 13.1336 697 109.119 1265.23 479.344
733 0 52.0862 12.2681 639 113.147 1265.01 478.526
734 0 55.0681 12.0215 662 112.863 1264.91 478.502
735 0 62.1982 14.9683 931 101.857 1264.83 472.836
736 0 63.1053 16.1635 1020 100.537 1265.74 471.807
737 0 63.0324 15.0716 950 104.522 1265.43 473.343
738 0 65.1457 14.7515 961 106.817 1265.29 470.695
739 0 65.0596 12.404 807 111.758 1265.11 472.633
740 0 66.091 12.7551 843 112.1 1265.66 472.828
741 0 72.0575 15.3905 1109 104.607 1264.92 467.132
742 0 75.1695 13.862 1042 109.297 1264.8 466.49
743 0 73.1552 12.699 929 113.549 1264.94 463.754
744 0 76.0582 12.806 974 115.556 1265.24 467.087
745 0 79.1127 12.1599 962 120.962 1264.58 463.193
746 0 83.1216 12.0065 998 120.362 1264.51 463.938
747 0 87.201 11.8347 1032 119.278 1264.64 464.672
748 1 44.0844 10.9109 481 115.809 1264.57 482.276
749 0 46.0252 12.1021 557 111.799 1264.96 483.37
750 0 48.1322 11.5307 555 121.679 1265.24 482.414
751 0 50.1225 12.5293 628 119.975 1265.24 480.737
752 0 48.0784 12.7292 612 121.632 1265.23 479.864
753 0 51.1875 12.4249 636 117.783 1264.92 481.12
754 0 52.1073 11.6298 606 120.145 1265.22 481
755 0 54.0759 12.39 670 113.106 1265.29 477.925
756 0 55.0494 11.9347 657 114.26 1265.14 478.435
757 0 57.1258 12.2537 700 114.314 1265.13 476.117
758 0 59.136 11.4651 678 117.159 1265 475.699
759 0 62.1241 11.7507 730 115.9 1265.15 474.386
760 0 64.1463 12.2532 786 116.192 1264.38 472.656
761 0 66.0886 11.9234 788 116.812 1264.32 472.712
762 0 70.0856 12.1566 852 115.59 1264.68 471.984
763 0 72.0581 12.1152 873 115.451 1264.41 471.013
764 0 74.1749 11.5403 856 117.298 1265.14 468.131
765 0 77.1333 12.2515 945 115.546 1265.08 466.695
766 0 79.1463 11.2197 888 116.466 1265.7 466.615
767 0 84.0736 12.608 1060 113.335 1265.3 462.913
768 1 43.0094 11.1371 479 114.564 1266.63 484.572
769 0 43.0517 10.5222 453 117.556 1266.5 483.194
770 0 47.0685 11.9188 561 110.775 1267.2 482.18
771 0 48.0911 11.8733 571 111.942 1265.37 481.69
772 0 46.0298 10.4932 483 118.605 1265.56 482.128
773 0 47.0418 10.7564 506 116.872 1265.44 482.134
774 0 47.0418 10.8414 510 131.543 1265.45 482.026
775 0 50.0441 10.6306 532 117.477 1265.57 479.38
776 0 53.056 10.7434 570 115.074 1265.05 481.091
777 0 52.0367 9.28191 483 120.344 1265.64 481.07
778 0 56.0441 10.688 599 117.189 1265.6 479.129
779 0 57.0337 10.5552 602 117.801 1265.26 477.694
780 0 60.0553 11.6226 698 113.933 1265.08 475.026
781 0 65.0813 12.0618 785 111.336 1264.67 475.702
782 0 66.103 12.1477 803 111.311 1264.33 474.593
783 0 69.1375 11.7736 814 112.681 1264.57 473.054
784 0 69.0929 10.7102 740 115.809 1265.07 472.035
785 0 72.1091 11.76 848 113.606 1265.26 469.34
786 0 75.1101 10.6643 801 115.511 1265.14 470.836
787 0 78.1242 11.7633 919 113.17 1265 467.707
788 0 81.0524 13.263 1075 109.809 1264.82 466.004
789 1 42.0483 12.3192 518 108.722 1266.38 484.436
790 0 45.0452 10.3008 464 106.853 1266.86 484.394
791 0 44.0663 11.2331 495 110.883 1266.42 483.952
792 0 48.2303 11.9427 576 108.057 1266.02 481.62
793 0 48.0768 13.312 640 104.544 1266.35 481.033
794 0 47.0922 11.8279 557 110.698 1266.21 480.797
795 0 51.0482 12.2237 624 108.37 1266.37 480.574
796 0 52.0571 13.3315 694 105.718 1266.03 478.622
797 0 55.0864 12.7073 700 105.767 1266.15 479.679
798 0 53.0446 11.4998 610 111.497 1266.03 478.989
799 0 55.0202 11.6503 641 111.775 1265.95 478.176
800 0 56.0722 12.5731 705 109.942 1265.88 477.118
801 0 59.1056 12.3846 732 108.604 1266.08 478.97
802 0 60.1469 11.5052 692 107.143 1265.22 473.165
803 0 62.1254 10.7364 667 108.334 1265.9 474.528
804 0 63.1023 11.9647 755 106.298 1265.68 472.257
805 0 66.0825 12.4844 825 104.995 1265.2 472.059
806 0 67.118 12.2024 819 106.751 1265.25 469.868
807 0 69.1234 11.1829 773 109.066 1265.81 469.856
808 0 72.1766 12.6911 916 106.025 1265.35 467.616
809 0 76.2131 12.4257 947 106.676 1265.21 465.26
810 0 77.2761 11.9442 923 109.085 1265.56 465.008
811 0 80.0946 12.71 1018 108.297 1266.11 465.763
812 0 84.1195 13.0647 1099 109.421 1265.24 464.567
813 0 85.0901 11.8815 1011 111.911 1265.79 462.373
814 1 43.0436 11.4535 493 109.012 1266.62 483.274
815 0 46.0737 12.0459 555 108.002 1266.68 483.041
816 0 47.039 12.4152 584 111.158 1266.15 480.519
817 0 50.1463 12.7427 639 111.552 1266.36 482.232
818 0 49.0825 12.6522 621 118.121 1264.56 481.169
819 0 50.0499 12.4875 625 118.883 1264.83 480.488
820 0 50.0499 12.5275 627 149.061 1264.83 480.467
821 0 52.0387 12.8558 669 118.078 1265.56 478.686
822 0 55.0134 13.4331 739 115.87 1264.91 478.954
823 0 57.11 13.5003 771 117.21 1264.77 476.434
824 0 58.0331 13.8025 801 114.898 1264.82 475.407
825 0 61.0861 13.2763 811 115.002 1264.74 474.8
826 0 62.0862 13.1752 818 116.007 1265.1 474.013
827 0 65.0708 13.6006 885 115.21 1264.5 472.511
828 0 67.1613 13.7281 922 115.073 1265.18 472.921
829 0 69.1644 13.0414 902 117.627 1264.64 471.813
830 0 71.1268 13.4267 955 118.199 1264.96 469.501
831 0 73.1651 13.285 972 118.908 1264.2 469.217
832 0 75.0503 13.7508 1032 117.904 1264.2 468.553
833 0 79.2321 14.893 1180 115.197 1264.35 465.582
834 0 82.0895 13.7167 1126 117.498 1264.33 466.533
835 0 83.1093 14.6073 1214 118.001 1263.94 464.381
836 0 86.0721 13.268 1142 125.336 1264.37 464.693
837 0 91.1063 15.224 1387 121.809 1264.18 459.652
838 0 94.2221 15.1769 1430 123.094 1264.33 458.45
839 1 47.0366 11.3741 535 125.796 1264.48 482.331
840 0 48.1879 12.9493 624 123.958 1264.88 481.639
841 0 49.044 11.3572 557 109.381 1264.92 477.535
842 0 50.082 13.3381 668 116.734 1265.13 480.85
843 0 50.0862 12.6182 632 119.065 1265.02 482.161
844 0 52.0596 12.7162 662 118.032 1265.15 479.787
845 0 55.0949 11.7797 649 117.966 1265.64 481.165
846 0 55.1045 12.7757 704 118.288 1265.51 473.746
847 0 59.0653 13.1549 777 113.923 1265.16 476.595
848 0 61.0318 12.9277 789 115.878 1264.45 476.421
849 0 64.1518 13.8889 891 111.122 1265.15 475.543
850 0 65.1275 12.9899 846 114.201 1264.57 474.273
851 0 66.111 14.158 936 111.11 1265.23 474.174
852 0 70.1045 13.0092 912 114.312 1265.63 471.194
853 0 71.0782 12.634 898 115.892 1265.94 472.274
854 0 74.0649 14.2713 1057 112.094 1265.81 469.119
855 0 77.1155 14.3032 1103 113.394 1265.71 470.223
856 0 78.0934 13.1125 1024 117.336 1265.58 468.294
857 0 82.0507 12.8823 1057 117.981 1265.66 466.545
858 0 83.1284 12.5348 1042 123.08 1265.37 463.375
859 0 90.1286 14.1908 1279 119.219 1264.8 460.853
860 0 93.1697 14.9727 1395 118.184 1265.15 459.397
861 1 49.0249 12.7078 623 123.506 1265.83 480.196
862 0 49.1851 11.9345 587 124.463 1265.55 480.162
863 0 51.0588 12.6717 647 120.524 1265.17 478.342
864 0 52.0436 11.6633 607 116.438 1264.63 480.018
865 0 54.0777 12.7779 691 113.86 1265.3 477.52
866 0 57.0254 12.5909 718 113.323 1264.18 476.864
867 0 58.1008 13.5282 786 111.31 1263.78 476.674
868 0 59.0714 12.3072 727 115.286 1263.66 474.245
869 0 61.0279 12.568 767 114.638 1263.41 473.313
870 0 64.1301 12.8489 824 113.377 1263.92 474.455
871 0 64.1181 12.6174 809 116.061 1264.58 472.305
872 0 66.3594 12.0254 798 117.915 1264.34 469.81
873 0 71.059 13.2144 939 114.321 1264.4 469.721
874 0 71.0746 11.9311 848 118.19 1264.2 469.092
875 0 76.161 13.0513 994 115.111 1264.5 468.124
876 0 77.2478 13.0489 1008 116.53 1264.72 463.633
877 0 82.1073 13.8843 1140 112.779 1264.25 463.606
878 0 83.255 12.5037 1041 118.104 1264.45 461.354
879 0 88.1864 13.5282 1193 115.795 1264.49 461.547
880 0 90.1448 12.6574 1141 125.717 1264.47 457.636
881 1 49.0723 11.5136 565 116.333 1264.23 482.807
882 0 50.0321 11.8924 595 118.121 1263.37 480.924
883 0 49.0769 12.7351 625 119.915 1263.76 480.43
884 0 51.0706 12.7471 651 120.92 1265.39 476.688
885 0 51.0706 12.7862 653 147.723 1265.39 476.72
886 0 56.067 12.7169 713 119.182 1265.98 476.353
887 0 56.0545 12.3273 691 120.329 1265.64 476.019
888 0 57.0817 12.8938 736 119.874 1265.93 475.121
889 0 59.045 14.328 846 117.217 1265.59 473.47
890 0 63.1253 14.1782 895 118.019 1265.81 472.447
891 0 62.0556 13.0367 809 122.274 1266.18 472.342
892 0 65.0293 14.1013 917 120.611 1265.83 470.417
893 0 67.0445 13.4388 901 122.459 1266.27 469.327
894 0 71.1397 14.4786 1030 119.786 1266.36 466.852
895 0 74.1034 13.5486 1004 123.226 1266.03 466.37
896 0 75.0663 13.1617 988 126.656 1265.75 465.082
897 0 78.0395 13.1472 1026 127.685 1266.16 463.72
898 0 82.1302 14.2335 1169 124.242 1265.78 461.606
899 0 84.0832 12.7493 1072 130.14 1265.3 460.566
900 1 43.1146 11.713 505 129.699 1265.71 480.968
901 0 45.1624 12.444 562 128.918 1265.64 480.696
902 0 44.1159 11.6511 514 132.599 1265.37 479.638
903 0 48.06 11.236 540 118.594 1264.01 476.969
904 0 46.051 11.5958 534 124.44 1264.46 475.968
905 0 51.0847 13.0959 669 127.244 1264 478.786
906 0 52.2443 13.4943 705 127.479 1264.64 478.089
907 0 53.112 12.6148 670 129.293 1264.76 477.448
908 0 54.0963 14.3818 778 125.901 1264.11 476.964
909 0 55.1169 12.918 712 130.958 1264.34 474.5
910 0 60.1375 17.1607 1032 113.8 1263.67 471.424
911 0 62.0998 15.459 960 119.382 1264.15 471.544
912 0 62.0974 14.4773 899 122.91 1264.46 472.751
913 0 63.0689 13.7469 867 125.194 1264.35 472.283
914 0 67.0527 15.2716 1024 120.208 1264.94 472.098
915 0 67.0815 14.7134 987 123.772 1264.81 469.548
916 0 70.1622 13.6398 957 126.263 1264.69 470.377
917 0 72.1016 14.7986 1067 122.814 1264.53 467.858
918 0 76.092 15.0213 1143 121.829 1264.5 466.997
919 0 76.1289 12.781 973 130.309 1264.65 466.246
920 0 79.0727 12.8995 1020 121.472 1265.5 468.356
921 0 83.0927 13.4187 1115 118.998 1265.11 466.043
922 0 87.0453 14.0616 1224 119.688 1264.12 462.859
923 0 90.1623 13.5866 1225 123.5 1263.54 460.418
924 1 45.0378 12.6116 568 126.662 1264.36 481.56
925 0 46.0966 12.886 594 123.657 1265.09 479.33
926 0 48.073 12.6058 606 124.683 1263.87 478.619
927 0 49.1035 13.0948 643 117.289 1264.6 480.406
928 0 49.0517 13.4552 660 117.923 1264.56 478.28
929 0 51.0433 13.1457 671 117.246 1265.21 479.024
930 0 53.0655 13.6624 725 115.622 1265.3 477.863
931 0 54.0353 11.8811 642 119.95 1264.96 477.165
932 0 58.0325 12.1484 705 118.306 1265.69 474.478
933 0 58.0706 12.4159 721 118.68 1265.82 475.03
934 0 60.0923 12.5141 752 117.709 1265.68 474.483
935 0 62.1518 11.8259 735 120.971 1265.91 471.624
936 0 65.1102 11.9951 781 120.393 1266.11 472.743
937 0 68.1596 13.1603 897 117.957 1265.85 469.286
938 0 70.1024 12.2392 858 120.104 1266.24 469.425
939 0 71.1356 13.3407 949 119.44 1265.46 466.118
940 0 74.1754 12.794 949 120.752 1265.98 465.871
941 0 76.0415 13.3611 1016 119.178 1265.8 463.352
942 0 79.0988 13.0343 1031 119.113 1265.67 464.802
943 0 82.0971 13.484 1107 120.44 1265.29 460.618
944 0 86.2486 13.148 1134 124.015 1265.03 460.083
945 0 89.1323 14.1026 1257 122.094 1264.74 458.284
946 0 93.2337 13.5466 1263 124.127 1264.94 459.521
947 0 97.1754 14.9318 1451 121.536 1264.74 455.533
948 1 52.0525 11.7958 614 124.647 1265.87 475.581
949 0 55.0244 11.8675 653 121.813 1265.9 474.807
950 0 53.1616 12.3773 658 119.14 1265.76 469.327
951 0 56.0513 11.0613 620 109.965 1265.29 472.163
952 0 56.0776 10.2715 576 113.177 1265.67 469.785
953 0 59.1088 11.2843 667 109.717 1265.51 471.144
954 0 64.0768 11.7515 753 107.989 1265.39 468.608
955 0 66.0852 12.4233 821 108.013 1265.11 466.286
956 0 66.1085 11.1332 736 112.094 1265.64 465.735
957 0 71.1009 12.0814 859 109.208 1266 465.566
958 0 73.0416 12.7735 933 108.577 1265.24 463.897
959 0 75.0659 13.1351 986 108.006 1265.78 462.497
960 0 76.0598 12.3192 937 111.041 1265.61 462.283
961 0 82.1341 12.5283 1029 111.029 1265.73 460.81
962 0 83.1819 12.2022 1015 114.353 1265.52 458.255
963 0 86.1183 12.7151 1095 117.199 1265.66 456.97
964 0 88.2459 12.1932 1076 122.625 1265.43 454.176
965 0 92.1354 13.8818 1279 119.401 1265.32 451.291
966 0 95.1134 13.3209 1267 121.05 1265 448.449
967 0 99.2038 11.9249 1183 124.726 1264.36 447.447
968 1 46.0418 10.4687 482 107.649 1265.22 472.921
969 0 49.1298 11.2559 553 107.186 1265.14 471.953
970 0 50.2145 10.0967 507 114.598 1265.94 478.391
971 0 53.0715 10.8721 577 110.759 1265.84 477.326
972 0 54.056 11.9506 646 109.232 1265.57 476.076
973 0 54.2644 11.702 635 110.951 1266.09 474.187
974 0 58.0971 11.4119 663 110.694 1266.16 473.695
975 0 59.0576 12.1915 720 109.822 1266.71 472.621
976 0 61.0942 11.3922 696 112.063 1266.44 473.3
977 0 63.0862 11.5239 727 113.371 1266.65 471.345
978 0 63.074 12.2554 773 114.404 1266.73 468.701
979 0 68.044 12.2274 832 114.093 1266.07 468.65
980 0 70.0592 12.6607 887 114.194 1266.31 468.828
981 0 69.1535 11.6552 806 117.51 1265.92 466.163
982 0 73.1305 12.9631 948 114.778 1266.16 467.43
983 0 74.1017 11.7271 869 119.168 1265.51 465.213
984 0 78.1204 12.6471 988 116.497 1265.25 465.059
985 0 82.2167 12.6373 1039 117.73 1265.4 462.47
986 0 83.1641 11.9282 992 126.826 1265.27 459.77
987 0 89.1797 14.0503 1253 119.591 1265.25 460.361
988 1 44.0364 9.67382 426 121.615 1266.19 481.817
989 0 44.0544 10.6686 470 120.481 1265.86 479.577
990 0 48.0243 12.2022 586 116.377 1265.96 477.925
991 0 48.0457 12.0302 578 120.073 1265.9 478.517
992 0 52.0571 13.3123 693 120.742 1265.94 476.659
993 0 55.1025 13.2299 729 120.923 1264.04 474.918
994 0 57.0297 12.5198 714 122.036 1264.17 474.357
995 0 57.0726 11.9672 683 124.716 1264.82 474.044
996 0 58.0734 12.1226 704 124.132 1265.19 472.435
997 0 62.0734 12.6463 785 121.596 1264.77 471.631
998 0 63.1741 13.5182 854 120.858 1264.74 469.612
999 0 66.0794 12.6363 835 121.57 1264.57 470.58
1000 0 68.1299 13.4596 917 119.275 1264.72 468.689
1001 0 70.0774 13.1997 925 120.28 1264.8 468.33
1002 0 71.0925 13.0394 927 121.81 1264.54 466.588
1003 0 72.1922 14.4475 1043 118.546 1265.18 464.794
1004 0 75.104 13.0219 978 118.704 1264.66 464.975
1005 0 77.0791 12.0007 925 121.425 1264.48 463.105
1006 0 80.0445 11.7934 944 119.768 1264.36 463.808
1007 0 82.1262 12.8096 1052 116.199 1264.86 463.228
1008 0 84.1238 12.0299 1012 112.06 1264.54 457.33
1009 0 88.0817 11.5461 1017 113.246 1263.92 456.011
1010 0 89.1654 11.5179 1027 112.982 1264.55 454.644
1011 0 90.1885 11.1877 1009 118.897 1264.74 454.407
1012 0 97.1253 11.7992 1146 114.761 1264.42 455.554
1013 0 101.085 12.7121 1285 113.911 1264.82 453.028
1014 0 103.116 11.7925 1216 114.875 1264.53 453.501
1015 0 105.11 11.5973 1219 118.267 1264.1 449.842
1016 1 54.0558 11.1736 604 113.374 1263.71 475.098
1017 0 56.1404 11.1328 625 112.92 1265.57 471.526
1018 0 56.0591 11.47 643 110.664 1264.63 473.096
1019 0 58.0757 11.0373 641 105.548 1264.22 470.117
1020 0 58.042 11.2677 654 107.405 1263.73 465.583
1021 0 63.1053 11.2669 711 114.722 1264.7 472.328
1022 0 65.1116 12.9163 841 111.856 1265.12 469.427
1023 0 68.1998 12.3461 842 112.315 1265.38 467.106
1024 0 72.2716 13.3386 964 108.271 1264.79 468.219
1025 0 72.1408 13.8063 996 107.043 1264.53 466.548
1026 0 74.072 11.8263 876 112.78 1265.62 464.151
1027 0 76.1921 13.4397 1024 109.915 1264.77 463.473
1028 0 79.1645 12.7835 1012 110.685 1264.88 463.878
1029 0 82.1827 12.3992 1019 111.466 1264.4 460.532
1030 0 86.2086 12.8409 1107 110.575 1264.73 458.387
1031 0 87.092 12.3088 1072 111.737 1265.31 459.771
1032 1 46.0567 11.0082 507 108.006 1265.86 479.11
1033 0 46.0682 10.4845 483 108.569 1263.99 478.431
1034 0 47.0862 12.1692 573 103.632 1264.49 476.911
1035 0 49.0352 11.4408 561 103.709 1265.2 476.649
1036 0 48.166 12.3739 596 103.376 1265.7 476.374
1037 0 52.0272 11.494 598 104.187 1265.6 476.092
1038 0 53.1452 12.5882 669 101.765 1265.28 476.374
1039 0 56.0759 11.8054 662 103.662 1266.02 475.52
1040 0 54.1835 11.1842 606 106.734 1265.17 472.515
1041 0 55.168 10.459 577 108.865 1265.36 472.782
1042 0 61.1325 13.07 799 101.258 1265.32 472.782
1043 0 59.1722 11.3905 674 106.022 1265.09 472.274
1044 0 63.1052 12.2177 771 104.682 1265.52 469.218
1045 0 65.1402 11.9435 778 105.138 1265.64 470.228
1046 0 70.1546 12.9571 909 101.272 1265.57 470.387
1047 0 70.1605 11.0746 777 106.306 1265.52 468.846
1048 0 74.1429 11.8555 879 104.348 1264.69 467.063
1049 0 74.1595 10.7876 800 106.625 1265.25 466.084
1050 0 80.1367 12.9029 1034 102.171 1265.21 463.101
1051 0 81.1562 11.8414 961 104.819 1265.99 459.682
1052 0 84.197 12.8627 1083 104.307 1265.53 456.857
1053 0 87.1689 11.6211 1013 106.771 1265.77 455.426
1054 0 92.3017 12.6433 1167 103.843 1265.66 453.915
1055 0 92.1637 11.957 1102 107.142 1264.97 448.686
1056 1 51.045 9.7757 499 106.443 1266.22 475.547
1057 0 51.0341 10.6595 544 101.732 1265.94 472.84
1058 0 54.0121 11.4789 620 103.911 1266.37 475.7
1059 0 59.0744 12.0187 710 104.214 1266.15 473.176
1060 0 59.1996 11.0136 652 108.256 1265.58 473.713
1061 0 60.0477 12.0737 725 105.734 1265.48 472.019
1062 0 63.0692 12.0185 758 106.247 1266.03 471.009
1063 0 63.0396 12.5794 793 106.745 1266.32 469.841
1064 0 66.1077 12.6763 838 106.984 1266.64 468.508
1065 0 70.1487 12.6018 884 106.661 1266.09 469.074
1066 0 70.0744 11.4307 801 109.227 1266.1 469.115
1067 0 72.0552 10.6446 767 113.703 1266.4 465.937
1068 0 73.0664 10.99 803 113.328 1265.77 466.367
1069 0 77.0408 12.3571 952 111.021 1265.1 464.487
1070 0 80.116 11.7704 943 114.007 1266.65 459.036
1071 0 84.0767 12.9643 1090 110.541 1266.38 459.803
1072 0 85.0925 12.7391 1084 113.816 1266.05 457.166
1073 0 87.0939 13.0434 1136 113.112 1264.7 459.194
1074 0 91.0799 12.6812 1155 115.715 1264 457.37
1075 0 92.171 12.6396 1165 117.3 1264.23 455.488
1076 1 49.1378 10.4807 515 114.495 1265.46 476.716
1077 0 50.1526 11.5846 581 109.645 1265.88 475.201
1078 0 50.266 11.2601 566 111.007 1265.74 474.94
1079 0 52.2132 11.8744 620 111.537 1265.94 472.089
1080 0 56.0073 13.2483 742 112.034 1266.59 475.879
1081 0 55.028 11.7395 646 117.156 1266.09 475.618
1082 0 59.1169 13.7355 812 112.815 1265.9 472.691
1083 0 60.0588 13.287 798 114.445 1265.23 472.563
1084 0 62.0655 12.1968 757 117.112 1266.02 472.362
1085 0 66.0718 13.3945 885 113.615 1265.33 470.722
1086 0 67.1373 14.1799 952 112.19 1266.03 470.922
1087 0 69.0914 13.3157 920 115.783 1265.68 469.408
1088 0 71.1512 13.4924 960 116.93 1264.51 467.407
1089 0 73.1228 13.197 965 117.719 1264.81 467.301
1090 0 75.133 13.2831 998 118.138 1264.53 466.498
1091 0 78.177 13.2264 1034 118.997 1265.41 464.4
1092 0 80.1699 13.0348 1045 120.729 1265.09 462.398
1093 0 81.1593 12.0627 979 124.567 1264.63 460.094
1094 0 86.1831 13.3669 1152 120.386 1264.6 460.532
1095 0 91.0624 13.7049 1248 119.57 1263.93 458.135
1096 0 94.1505 15.985 1505 114.32 1263.95 455.964
1097 0 94.1999 13.1316 1237 122.568 1264.17 457.503
1098 0 97.263 12.6975 1235 125.383 1264.38 452.504
1099 0 100.207 12.4642 1249 126.118 1263.45 452.499
1100 1 56.0244 12.3161 690 120.281 1263.17 476.61
1101 0 58.052 12.4544 723 120.149 1263 472.472
1102 0 55.0323 12.1202 667 114.627 1266.1 475.055
1103 0 58.0543 12.695 737 112.718 1265.98 474.406
1104 0 61.055 13.9055 849 109.234 1266.64 471.879
1105 0 65.0624 13.2642 863 109.518 1266.4 472.461
1106 0 65.0802 12.4154 808 113.566 1266.48 470.472
1107 0 66.057 10.6272 702 119.353 1266.04 471.1
1108 0 71.0649 12.369 879 114.388 1266.21 470.43
1109 0 72.0682 12.2939 886 115.515 1265.52 470.578
1110 0 71.1339 10.7965 768 120.525 1265.78 469.664
1111 0 76.0782 12.4346 946 116.365 1265.98 467.412
1112 0 77.1669 11.3131 873 115.762 1265.72 466.324
1113 0 80.0858 11.2504 901 114.882 1265.22 466.225
1114 0 84.1451 12.2645 1032 115.147 1265.29 461.72
1115 0 86.2293 12.0725 1041 117.98 1264.87 460.868
1116 0 92.1529 13.9117 1282 121.268 1264.68 459.467
1117 0 93.2495 14.0698 1312 122.354 1265.37 456.942
1118 0 96.2858 13.7715 1326 124.57 1265.28 454.839
1119 0 99.1725 13.3404 1323 126.014 1265.16 454.315
1120 0 103.194 13.7605 1420 125.126 1265.54 452.677
1121 0 105.195 15.0102 1579 122.615 1264.59 451.24
1122 0 105.19 14.9634 1574 154.267 1262.61 451.232
1123 0 110.374 13.4361 1483 128.107 1263.67 445.699
1124 0 116.232 14.9614 1739 124.464 1263.97 441.729
1125 0 120.315 14.9525 1799 123.4 1264.45 439.417
1126 0 121.269 13.6308 1653 128.212 1264.33 438.012
1127 0 128.311 13.6932 1757 127.094 1264.23 434.846
1128 1 67.1208 11.9635 803 123.743 1264.01 464.792
1129 0 70.1857 13.0084 913 121.427 1265.49 468.053
1130 0 72.1377 13.3772 965 117.194 1266.05 466.924
1131 0 75.0978 13.4358 1009 120.718 1266.29 466.705
1132 0 77.124 13.9256 1074 120.279 1266.55 463.899
1133 0 79.1491 13.3545 1057 121.197 1266.91 464.976
1134 0 82.0363 13.75 1128 122.009 1266.35 459.797
1135 0 85.1424 13.3071 1133 122.034 1266.49 460.51
1136 0 86.0438 13.0166 1120 123.864 1266.21 459.456
1137 0 91.0852 12.9878 1183 123.269 1266.14 458.042
1138 0 94.1024 13.2834 1250 122.408 1265.79 457.538
1139 0 95.138 13.6013 1294 122.55 1266.11 455.961
1140 0 98.1707 14.2609 1400 121.345 1265.81 452.044
1141 0 102.133 13.972 1427 119.152 1265.55 453.605
1142 0 105.141 14.1429 1487 119.95 1265.26 450.51
1143 0 108.091 14.1454 1529 119.969 1265.25 450.22
1144 1 58.1086 11.9776 696 119.187 1264.25 475.585
1145 0 60.0318 11.7105 703 120.963 1265.26 473.606
1146 0 60.094 10.9162 656 123.502 1266.46 467.346
1147 0 65.1081 12.8709 838 115.73 1265.71 461.675
1148 0 64.04 13.0075 833 117.652 1265.39 467.412
1149 0 68.1924 12.2008 832 105.186 1263.54 469.413
1150 0 70.1524 12.1307 851 105.873 1264.29 468.679
1151 0 69.137 11.7882 815 110.571 1264.02 467.463
1152 0 74.1346 11.7489 871 109.881 1264.55 470.023
1153 0 74.0872 11.9049 882 109.909 1264.66 466.477
1154 0 78.0954 12.1262 947 108.79 1264.21 465.167
1155 0 77.1783 10.3786 801 113.702 1264.23 463.961
1156 0 84.1141 12.1621 1023 107.839 1263.72 462.03
1157 0 86.1428 12.0498 1038 106.4 1264.33 456.804
1158 0 90.1825 12.3416 1113 106.12 1264.05 455.555
1159 0 96.1271 11.8281 1137 107.367 1264.07 455.93
1160 0 96.1198 11.4961 1105 110.2 1263.62 450.6
1161 0 100.115 11.1172 1113 113.82 1264.07 447.811
1162 0 104.258 11.673 1217 113.804 1264.06 447.464
1163 1 55.0208 10.9958 605 108.564 1265.14 472.674
1164 0 56.0577 11.7557 659 112.401 1265.77 475.313
1165 0 58.0357 12.3545 717 108.992 1264.98 475.725
1166 0 59.0557 11.0404 652 109.945 1266.33 475.597
1167 0 61.0762 12.0505 736 108.674 1265.6 471.823
1168 0 63.0704 11.4317 721 110.233 1266.03 471.659
1169 0 63.0704 11.3683 717 142.603 1267.04 471.739
1170 0 66.0386 10.7362 709 111.457 1266.04 472.688
1171 0 68.0659 11.8562 807 110.428 1265.5 469.499
1172 0 70.0422 11.079 776 110.302 1265.93 472.528
1173 0 72.0685 11.4613 826 112.898 1265.81 466.586
1174 0 73.1396 12.0318 880 111.536 1265.93 468.16
1175 0 75.1121 11.4229 858 113.388 1265.7 465.586
1176 0 78.1928 12.0599 943 113.082 1264.82 463.503
1177 0 81.1412 12.6569 1027 114.7 1264.68 461.632
1178 0 86.2513 13.3911 1155 116.413 1264.5 460.178
1179 0 87.1427 13.0935 1141 118.639 1264.56 457.593
1180 0 88.1481 12.8987 1137 119.721 1265.18 455.515
1181 0 94.3258 13.1459 1240 117.566 1264.83 455.319
1182 0 96.2999 12.2326 1178 119.296 1264.73 453.943
1183 0 100.299 14.2076 1425 115.738 1264.5 452.535
1184 0 103.346 14.0305 1450 115.169 1264.91 450.848
1185 0 105.171 14.0343 1476 115.946 1265.06 447.695
1186 0 108.341 13.8914 1505 115.571 1265.2 449.345
1187 0 113.378 14.4031 1633 114.35 1264.81 444.878
1188 0 114.313 13.0869 1496 117.064 1264.43 440.692
1189 0 117.211 13.1472 1541 117.786 1263.08 435.738
1190 0 121.313 13.3044 1614 115.926 1263.12 434.798
1191 1 66.047 11.1284 735 112.912 1263.1 465.151
1192 0 66.169 9.3246 617 102.246 1264.95 461.358
1193 0 69.1418 9.86378 682 98.5059 1265.13 460.324
1194 0 72.297 10.9133 789 95.4385 1264.88 463.978
1195 0 74.1185 11.1308 825 98.12 1265.23 462.486
1196 0 76.1025 11.6159 884 102.094 1265.23 463.473
1197 0 80.111 12.9695 1039 99.6256 1264.75 462.569
1198 0 81.113 11.3175 918 103.612 1265.28 461.773
1199 0 85.1781 12.0923 1030 102.891 1265.14 458.995
1200 0 88.2452 11.4454 1010 106.525 1265.49 460.079
1201 0 89.1513 11.9235 1063 114.819 1264.74 455.088
1202 0 92.2392 11.1558 1029 114.964 1264.7 454.522
1203 0 97.3102 12.8044 1246 109.62 1264.36 451.701
1204 1 54.0798 10.7619 582 104.258 1265.71 478.038
1205 0 54.098 10.3886 562 103.737 1264.74 476.587
1206 0 56.1271 12.7924 718 101.89 1263.93 469.978
1207 0 56.1271 12.8458 721 122.77 1262.9 469.993
1208 0 57.1036 11.2252 641 103.484 1265.06 477.03
1209 0 58.0646 11.4011 662 103.003 1264.95 476.693
1210 0 62.1626 11.1643 694 104.29 1264.79 473.154
1211 0 62.2483 11.2614 701 104.141 1264.71 474.476
1212 0 63.2207 10.8983 689 105.136 1264.42 472.406
1213 0 63.0951 9.90568 625 107.882 1265.29 473.302
1214 0 69.3532 11.6794 810 103.765 1264.4 469.43
1215 0 69.0495 11.079 765 105.608 1264.42 467.264
1216 0 71.1241 11.1636 794 105.375 1264.77 466.829
1217 0 74.1515 11.9485 886 104.489 1264.65 466.46
1218 0 78.215 11.2766 882 104.626 1264.66 465.534
1219 0 81.2383 12.7403 1035 101.385 1264.22 465.063
1220 0 83.1478 11.3773 946 105.24 1265.14 466.077
1221 0 86.1586 11.6877 1007 104.549 1264.92 464.621
1222 0 87.1229 12.3733 1078 105.296 1264.49 460.942
1223 0 90.1035 12.9296 1165 104.07 1264.45 460.481
1224 0 91.1929 11.9966 1094 107.083 1264 459.99
1225 0 96.2206 11.9413 1149 109.323 1263.94 456.527
1226 0 98.2348 12.5923 1237 109.872 1263.85 454.281
1227 0 101.189 13.2326 1339 109.102 1263.94 453.76
1228 0 104.182 13.2941 1385 110.279 1263.49 452.188
1229 0 107.278 11.0461 1185 116.319 1262.63 453.075
1230 0 112.316 13.2483 1488 110.706 1263.25 449.878
1231 0 114.134 11.5128 1314 114.664 1262.74 450.434
1232 0 119.142 12.3634 1473 113.35 1262.64 447.697
1233 0 123.133 12.8885 1587 114.209 1263.47 443.981
1234 1 61.0678 13.1821 805 112.448 1264.68 471.891
1235 0 61.0708 13.4434 821 114.214 1264.72 471.762
1236 0 64.1405 13.6887 878 113.739 1262.77 471.912
1237 0 65.1542 12.7544 831 116.208 1262.38 471.12
1238 0 68.1002 12.8928 878 116.623 1262.39 469.776
1239 0 70.1982 13.4904 947 116.769 1262.66 468.19
1240 0 73.1729 13.6663 1000 115.777 1262.19 466.948
1241 0 77.0963 14.6959 1133 113.212 1262.18 466.32
1242 0 77.3106 13.1806 1019 118.269 1262.42 465.667
1243 0 82.221 13.7921 1134 116.685 1262.77 465.989
1244 0 84.2967 14.2829 1204 116.024 1262.79 462.783
1245 0 87.3268 15.6767 1369 112.731 1263.2 460.38
1246 0 89.5277 13.4372 1203 119.485 1263.37 458.306
1247 0 93.1371 13.0131 1212 116.421 1263.01 459.596
1248 1 49.0971 11.9763 588 112.184 1263.54 480.937
1249 0 51.1173 10.9552 560 112.795 1264.18 481.323
1250 0 52.0414 13.0857 681 106.332 1264.32 479.838
1251 0 52.0563 10.8344 564 107.427 1264.07 480.124
1252 0 54.1397 12.5047 677 105.968 1264.99 477.072
1253 0 56.1382 11.9527 671 108.139 1264.6 478.918
1254 0 57.0715 12.5982 719 108.498 1264.8 476.003
1255 0 59.1102 13.9908 827 104.917 1265.29 473.588
1256 0 61.0769 12.0013 733 109.577 1265.21 474.562
1257 0 63.1744 12.2201 772 109.611 1264.8 471.815
1258 0 66.0868 13.2553 876 107.075 1264.6 470.147
1259 0 68.1297 11.5515 787 110.137 1264.68 471.297
1260 0 70.0824 11.7719 825 109.268 1264.81 469.328
1261 0 73.0812 11.6446 851 110.471 1265.34 466.635
1262 0 78.0587 13.003 1015 105.926 1264.97 466.748
1263 0 79.0945 11.9857 948 106.852 1265.06 466.762
1264 0 82.1174 13.6025 1117 104.357 1264.76 461.625
1265 0 85.0526 11.828 1006 104.932 1264.8 459.637
1266 0 87.2258 11.8428 1033 105.727 1263.37 455.72
1267 0 87.2258 11.9231 1040 139.238 1262.37 455.653
1268 1 51.1087 12.581 643 115.039 1263.9 478.97
1269 0 49.0657 11.882 583 118.401 1263.86 478.407
1270 0 49.1284 12.335 606 118.822 1262.83 476
1271 0 53.1618 12.2832 653 118.161 1263.04 475.542
1272 0 54.1577 13.83 749 114.941 1262.37 474.238
1273 0 58.0726 13.6036 790 113.649 1262.61 473.622
1274 0 58.0726 13.6725 794 154.72 1262.61 473.524
1275 0 61.1138 14.6121 893 111.437 1263.05 471.745
1276 0 63.0787 15.1081 953 109.761 1263 471.16
1277 0 64.1345 13.5496 869 115.407 1263.32 467.324
1278 0 65.1642 13.1207 855 115.814 1263 468.649
1279 0 68.1946 13.3148 908 116.05 1263.26 466.039
1280 0 71.3094 14.2618 1017 112.86 1264.16 465.696
1281 0 72.1596 14.4957 1046 115.061 1263.41 462.453
1282 0 76.3781 14.8079 1131 113.22 1263.71 459.288
1283 0 79.2405 14.1973 1125 114.317 1264.4 459.83
1284 0 81.2531 12.9226 1050 113.998 1263.56 459.563
1285 1 44.1623 12.4088 548 115.578 1263.9 474.299
1286 0 47.18 12.7808 603 115.577 1264.14 472.653
1287 0 47.1486 13.1923 622 116.082 1264.16 472.129
1288 0 48.1082 13.1578 633 116.874 1264.14 471.615
1289 0 48.0667 13.1484 632 122.563 1263.54 472.753
1290 0 51.0831 15.0147 767 116.705 1263.74 471.468
1291 0 52.1267 12.8917 672 121.042 1263.57 471.33
1292 0 55.1658 13.2147 729 120.451 1263.59 469.34
1293 0 56.1237 13.5415 760 111.503 1264.14 471.934
1294 0 56.1237 13.5415 760 136.182 1264.15 471.747
1295 0 58.15 13.1728 766 113.936 1263.88 467.834
1296 0 59.0455 13.8198 816 113.037 1264.15 465.77
1297 0 62.1033 13.9123 864 112.353 1263.85 464.081
1298 0 63.0744 13.4603 849 113.353 1263.78 465.603
1299 0 65.1092 13.6847 891 114.107 1264.17 463.513
1300 0 66.1157 13.3705 884 115.493 1264.11 462.621
1301 0 68.0543 13.7243 934 115.323 1264.2 461.213
1302 0 70.0517 13.5614 950 116.172 1264.17 460.755
1303 0 74.1443 15.4294 1144 111.584 1264.07 458.191
1304 0 77.1247 13.9644 1077 115.774 1263.81 458.513
1305 0 79.1649 14.5393 1151 113.871 1263.47 457.553
1306 0 81.1299 14.902 1209 114.388 1264.06 455.868
1307 0 84.3312 14.8581 1253 114.727 1263.46 454.618
1308 0 87.1392 14.3104 1247 117.484 1263.78 452.174
1309 0 89.1802 14.3978 1284 118.898 1264.61 450.807
1310 0 93.2617 15.2152 1419 116.648 1263.89 449.589
1311 0 93.1924 14.7652 1376 120.386 1263.81 448.355
1312 0 97.1727 13.2445 1287 123.74 1264.02 449.364
1313 0 101.16 14.828 1500 120.398 1263.32 446.551
1314 0 104.173 15.1479 1578 121.293 1263.28 443.527
1315 0 109.177 14.6002 1594 122.912 1262.88 441.488
1316 0 110.166 14.0606 1549 125.575 1263.78 440.454
1317 0 117.211 14.1625 1660 124.717 1263.52 437.551
1318 0 121.23 15.6892 1902 121.674 1263.39 435.17
1319 0 124.231 15.5114 1927 122.551 1263.78 434.08
1320 0 126.083 14.308 1804 126.528 1262.83 432.164
1321 0 135.257 15.733 2128 121.411 1263.62 431.304
1322 0 136.27 14.4639 1971 126.22 1263.58 427.202
1323 0 142.155 14.6882 2088 123.008 1263.37 425.577
1324 0 150.328 15.6125 2347 118.831 1263.78 424.146
1325 0 155.238 17.2252 2674 114.395 1263.58 420.659
1326 0 160.236 15.3961 2467 119.761 1263.45 417.754
1327 1 84.1727 12.7951 1077 124.36 1264.1 457.468
1328 0 86.1193 13.9574 1202 122.582 1264.21 455.146
1329 0 89.0854 14.1999 1265 122.323 1264.17 452.591
1330 0 93.1632 16.6589 1552 114.202 1263.92 451.31
1331 0 96.1922 14.6374 1408 120.325 1263.46 450.054
1332 0 99.1061 14.3987 1427 120.795 1263.49 448.666
1333 0 104.218 15.4771 1613 118.312 1263 447.086
1334 0 108.15 14.369 1554 121.405 1262.97 444.105
1335 0 112.087 13.8464 1552 123.87 1263.11 444.782
1336 0 119.098 16.0624 1913 121.291 1262.83 441.856
1337 0 122.092 13.5144 1650 128.593 1262.87 440.444
1338 1 62.1139 12.1229 753 122.085 1263.04 470.76
1339 0 63.1267 12.166 768 122.977 1262.95 460.76
1340 0 66.0673 12.124 801 123.635 1263.14 462.915
1341 0 68.1235 13.4168 914 121.089 1262.88 461.214
1342 0 69.0955 12.4321 859 123.922 1263 463.605
1343 0 73.1885 13.5267 990 120.961 1263.9 465.125
1344 0 76.1848 15.1342 1153 116.839 1263.45 462.427
1345 0 78.1823 13.5453 1059 121.416 1263.58 461.39
1346 0 80.0765 13.4496 1077 123.136 1263.59 458.777
1347 0 86.1583 13.8582 1194 118.9 1263.15 460.523
1348 0 88.267 14.003 1236 119.494 1263.63 457.914
1349 0 91.1725 12.6573 1154 121.423 1263.52 457.451
1350 0 94.127 13.8855 1307 118.292 1263.89 453.054
1351 1 50.2698 10.6625 536 109.802 1264.25 476.743
1352 0 54.0949 11.7941 638 109.392 1264.08 474.832
1353 0 54.0724 10.9298 591 108.389 1264.09 475.672
1354 0 55.1027 11.0521 609 108.084 1263.35 473.701
1355 0 59.1056 11.6402 688 109.08 1262.39 468.487
1356 0 60.021 10.9462 657 111.761 1262.7 467.202
1357 0 62.0547 13.0369 809 106.8 1262.91 468.89
1358 0 63.0495 11.6258 733 109.1 1263.48 471.135
1359 0 63.0495 11.6575 735 127.871 1264.45 471.044
1360 0 67.209 12.8703 865 109.542 1263.04 465.505
1361 0 71.1321 12.6947 903 109.147 1262.37 465.184
1362 0 70.2362 11.3047 794 113.441 1262.92 464.748
1363 0 76.0993 13.075 995 108.895 1262.82 462.378
1364 0 78.1554 13.4348 1050 107.639 1262.47 462.629
1365 0 81.2065 12.7699 1037 108.425 1262.61 461.377
1366 0 79.1946 11.7937 934 130.271 1263.54 459.492
1367 0 88.282 12.2788 1084 115.074 1264.29 458.776
1368 1 41.1889 9.15296 377 112.395 1264.51 479.223
1369 0 43.0994 9.09526 392 105.005 1264.54 481.15
1370 0 43.1058 9.85946 425 100.581 1263.76 479.449
1371 0 44.0198 8.9278 393 106.626 1263.84 482.16
1372 0 46.0533 10.7918 497 104.622 1263.61 478.338
1373 0 49.0422 9.05342 444 106.923 1263.77 479.574
1374 0 48.0308 7.41191 356 110.803 1263.15 479.177
1375 0 50.0208 10.4357 522 104.707 1263.25 475.682
1376 0 52.0094 11.671 607 102.217 1263.77 474.728
1377 0 56.0854 9.37856 526 105.768 1263.53 476.029
1378 0 56.0605 9.36489 525 106.187 1263.59 474.307
1379 0 55.0927 9.34789 515 108.2 1263.9 474.703
1380 0 57.0696 8.90141 508 107.754 1264.49 474.36
1381 0 62.1439 10.2987 640 105.036 1264.52 470.798
1382 0 67.1235 8.62589 579 107.623 1264.6 473.055
1383 0 67.0592 11.5122 772 104.391 1263.53 470.192
1384 0 67.1545 9.93231 667 107.804 1263.88 469.946
1385 0 70.1729 10.7734 756 107.738 1264.24 467.774
1386 0 72.0861 10.862 783 109.448 1265.72 466.714
1387 0 76.0541 11.7942 897 108.488 1263.41 465.2
1388 0 76.0654 10.675 812 111.569 1263.58 466.456
1389 0 80.144 11.0052 882 112.046 1263.54 462.075
1390 0 84.2645 12.8287 1081 108.398 1265.19 459.609
1391 0 88.2815 11.3614 1003 110.04 1263.87 462.363
1392 1 48.1828 11.2073 540 107.241 1265.12 478.239
1393 0 49.2322 10.1153 498 101.488 1264.93 476.315
1394 0 51.1358 11.6748 597 106.328 1264.71 476.848
1395 0 54.0355 12.9545 700 104.883 1262.04 478.063
1396 0 53.0577 10.988 583 111.13 1262.02 476.479
1397 0 55.1034 11.3605 626 110.109 1262.51 476.682
1398 0 56.1332 12.6129 708 107.903 1261.96 474.513
1399 0 57.1258 12.2011 697 109.211 1262.55 475.057
1400 0 57.1371 11.2711 644 110.91 1262.72 475.707
1401 0 58.1741 11.3109 658 111.292 1263.01 474.705
1402 0 62.1981 13.1033 815 107.623 1263.87 472.8
1403 0 62.304 12.7921 797 109.861 1263.44 470.816
1404 0 64.19 12.463 800 110.114 1263.28 470.372
1405 0 66.2551 12.9801 860 109.529 1262.92 469.821
1406 0 68.317 12.2371 836 110.687 1262.71 469.834
1407 0 65.1716 10.3573 675 106.369 1263.6 471.201
1408 0 70.1441 11.6475 817 103.282 1263.37 468.722
1409 0 67.1885 10.6417 715 106.517 1263.41 469.734
1410 0 74.2403 10.7758 800 106.975 1263.59 467.719
1411 0 76.2326 10.9796 837 106.446 1263.68 464.608
1412 0 79.1369 10.008 792 109.538 1263.4 463.391
1413 0 82.2288 10.2276 841 108.597 1263.38 463.153
1414 1 45.1352 11.7204 529 104.314 1263.63 480.393
1415 0 46.0318 11.8831 547 101.896 1264.33 479.973
1416 0 48.1247 12.7377 613 102.622 1264.4 476.729
1417 0 48.2442 13.328 643 104.774 1264.09 476.221
1418 0 51.2624 12.7774 655 105.611 1262.96 474.522
1419 0 51.2469 11.8446 607 108.053 1263.3 475.267
1420 0 53.1705 12.9019 686 107.051 1263.2 473.001
1421 0 51.2266 12.2983 630 111.416 1263.47 472.789
1422 0 56.1301 12.0791 678 109.162 1263.38 472.904
1423 0 56.2214 13.4646 757 106.77 1263.47 471.955
1424 0 57.1819 13.0811 748 108.515 1263.69 471.103
1425 0 57.2219 13.5962 778 109.695 1264.17 470.617
1426 0 61.153 13.3763 818 109.079 1265.16 470.479
1427 0 62.1157 13.1046 814 110.171 1264.65 469.575
1428 0 63.0945 12.41 783 109.178 1264.91 470.679
1429 0 64.065 12.2844 787 111.149 1264.86 467.87
1430 0 68.094 13.9219 948 106.525 1264.67 466.58
1431 0 69.067 13.1756 910 108.829 1264.79 466.29
1432 0 70.0814 12.2714 860 111.112 1264.7 465.5
1433 0 72.1133 12.7854 922 110.764 1264.45 462.407
1434 0 75.0601 12.1103 909 111.821 1264.51 462.464
1435 0 80.0795 13.4866 1080 106.778 1264.54 460.687
1436 0 83.2111 13.0872 1089 108.48 1264.77 458.466
1437 0 87.2469 14.7856 1290 108.585 1264.32 453.723
1438 1 45.1304 12.8295 579 110.09 1264.59 476.358
1439 0 46.0394 12.511 576 109.358 1264.7 476.528
1440 0 49.1038 12.5652 617 108.436 1264.24 475.122
1441 0 48.0453 11.281 542 113.989 1264.69 475.271
1442 0 50.0327 11.7923 590 112.625 1264.96 475.285
1443 0 53.0735 12.6428 671 109.72 1264.88 474.161
1444 0 52.073 11.8872 619 104.691 1264.98 474.273
1445 0 53.0285 11.5598 613 105.254 1264.83 473.964
1446 0 55.0511 12.0797 665 104.122 1264.57 473.292
1447 0 55.0815 11.4194 629 106.137 1264.98 473.62
1448 0 58.0279 12.7008 737 104.37 1265.24 471.166
1449 0 61.0795 11.133 680 106.281 1265.35 472.124
1450 0 64.121 12.8663 825 101.599 1265 470.914
1451 0 67.0558 11.99 804 102.524 1264.75 471.531
1452 0 66.0522 11.279 745 145.196 1264.75 470.538
1453 0 71.1266 12.4285 884 102.647 1264.87 466.751
1454 0 74.0888 12.485 925 102.47 1264.57 467.683
1455 0 76.0968 11.6299 885 105.456 1264.95 464.179
1456 0 78.1463 11.1714 873 107.011 1264.58 463.745
1457 1 43.0308 12.1541 523 103.511 1265.39 480.858
1458 0 43.0431 12.2436 527 104.742 1265.45 480.497
1459 0 44.0189 12.4946 550 105.685 1265.26 480.393
1460 0 48.0578 12.485 600 108.025 1265.24 478.418
1461 0 48.0316 11.8256 568 116.435 1265.73 478.252
1462 0 49.0247 13.483 661 113.673 1265.08 476.126
1463 0 51.004 13.3323 680 113.528 1265.31 476.441
1464 0 54.1037 13.3078 720 112.59 1265.2 476.031
1465 0 53.0497 12.7993 679 116.027 1265.72 474.543
1466 0 57.0257 14.1691 808 110.989 1265.42 473.871
1467 0 58.0687 13.5185 785 113.522 1265.1 472.469
1468 0 61.0652 14.2307 869 111.334 1264.54 472.018
1469 0 62.0764 13.6445 847 91.9256 1265.44 473.308
1470 0 62.0764 13.6284 846 153.559 1266.46 473.454
1471 0 67.078 13.8495 929 112.307 1265.81 471.145
1472 0 68.2207 12.87 878 114.995 1265.42 469.928
1473 0 70.2156 12.3619 868 116.963 1265.25 467.712
1474 0 74.2303 13.2156 981 113.887 1264.75 466.895
1475 0 75.1233 13.4046 1007 114.376 1264.78 464.986
1476 0 78.2199 12.5544 982 116.522 1264.49 464.073
1477 1 42.0221 11.0418 464 112.381 1265.32 483.114
1478 0 41.1804 12.336 508 110.037 1264.03 480.291
1479 0 44.0267 13.2874 585 108.075 1263.41 481.525
1480 0 45.0492 11.7205 528 114.161 1263.27 480.752
1481 0 47.0483 13.1142 617 110.28 1262.66 479.316
1482 0 48.0204 12.8487 617 111.243 1262.59 479.049
1483 0 50.0427 12.6892 635 112.633 1262.44 477.35
1484 0 50.0292 13.2523 663 112.719 1262.42 477.777
1485 0 52.0701 13.0401 679 113.006 1262.84 477.27
1486 0 53.0867 12.9223 686 114.695 1263.28 476
1487 0 53.1194 13.0273 692 116.072 1263.34 476.357
1488 0 57.1686 13.4864 771 113.1 1262.58 475.083
1489 0 56.0645 13.8947 779 113.846 1263.28 475.132
1490 0 58.1496 13.1385 764 116.237 1262.99 474.064
1491 0 61.1088 14.6787 897 111.287 1263.09 473.033
1492 0 61.0821 12.7697 780 120.713 1262.48 473.058
1493 0 63.081 12.7772 806 122.547 1263.21 470.991
1494 0 65.0983 13.2415 862 122.362 1263.2 469.912
1495 0 69.1582 13.3751 925 120.482 1262.66 471.462
1496 0 68.2086 13.9279 950 121.086 1262.8 471.478
1497 0 71.1241 14.5802 1037 120.796 1262.89 468.583
1498 0 72.237 13.165 951 124.226 1262.82 467.42
1499 0 76.3113 15.1485 1156 118.701 1263.14 466.009
1500 0 80.2074 14.1508 1135 119.826 1262.88 464.722
1501 0 82.1838 14.5162 1193 119.183 1262.35 464.417
1502 0 86.3048 14.9586 1291 117.004 1263.11 460.218
1503 0 85.1582 12.8232 1092 114.059 1263.63 457.634
1504 1 47.0249 12.3339 580 107.967 1264.57 480.384
1505 0 47.0162 11.9108 560 110.912 1264.32 481.143
1506 0 47.0234 12.4619 586 112.524 1263.77 480.35
1507 0 45.0268 12.9701 584 112.423 1264.02 479.531
1508 0 49.1011 13.7675 676 109.044 1264.39 480.614
1509 0 46.0633 11.9835 552 121.034 1264.01 480.076
1510 0 47.0188 11.9527 562 119.354 1264.19 481.746
1511 0 48.0864 11.0426 531 120.192 1264.36 480.857
1512 0 50.0534 14.045 703 111.706 1264.27 479.219
1513 0 55.0839 14.9045 821 103.916 1263.87 476.145
1514 0 55.1303 13.2595 731 109.595 1264.24 476.562
1515 0 54.0092 12.3868 669 109.888 1263.94 479.856
1516 0 57.168 11.3 646 111.257 1263.78 478.235
1517 0 60.1574 11.7857 709 109.876 1263.61 476.92
1518 0 60.099 11.8804 714 110.469 1263.84 474.083
1519 0 63.1555 12.6988 802 109.175 1263.38 472.646
1520 0 65.0538 12.9892 845 107.678 1263.57 473.957
1521 0 67.0721 12.4195 833 111.429 1263.47 471.371
1522 0 70.1504 12.7298 893 110.041 1263.42 472.448
1523 0 71.1972 11.9948 854 113.479 1263.35 471.676
1524 0 73.1467 13.2337 968 112.726 1263.14 467.086
1525 0 75.1131 11.9021 894 114.717 1263.49 471.861
1526 0 77.1787 13.229 1021 114.959 1262.79 465.949
1527 0 81.071 12.4459 1009 116.76 1262.24 465.821
1528 1 41.0945 12.5808 517 117.025 1261.8 484.526
1529 0 40.1261 12.4856 501 115.098 1263.22 485.293
1530 0 43.0645 14.4434 622 109.868 1263.3 483.879
1531 0 44.0978 13.3113 587 112.112 1263.36 485.497
1532 0 46.1179 13.6606 630 112.289 1263.09 483.687
1533 0 44.0183 12.6993 559 118.306 1263.33 483.927
1534 0 46.0086 12.1064 557 119.763 1263.87 484.802
1535 0 46.0104 12.1277 558 139.283 1264.87 484.817
1536 0 47.0193 11.6761 549 123.548 1262.97 482.395
1537 0 51.0578 12.8286 655 120.147 1263.12 481.302
1538 0 53.0776 13.339 708 119.5 1263.67 479.993
1539 0 55.0386 13.2089 727 118.884 1263.35 480.868
1540 0 54.0522 11.7849 637 126.058 1263.16 479.386
1541 0 57.0761 13.5433 773 122.025 1262.77 477.016
1542 0 58.1166 13.318 774 123.177 1262.96 476.46
1543 0 60.1444 11.4391 688 127.183 1263.04 477.115
1544 0 63.0722 12.3509 779 125.181 1262.11 476.053
1545 0 65.058 13.6647 889 121.866 1262.41 474.183
1546 0 68.1963 12.9332 882 124.604 1262.6 473.236
1547 0 71.0862 12.4919 888 122.578 1263.09 474.042
1548 0 73.0782 12.6987 928 123.619 1262.57 470.622
1549 0 73.0782 12.6166 922 142.703 1262.58 470.436
1550 0 75.1061 11.4904 863 128.299 1261.63 469.02
1551 0 81.1241 13.202 1071 122.911 1261.81 467.68
1552 0 86.14 14.6041 1258 121.558 1261.94 467.17
1553 0 88.1443 14.9414 1317 128.108 1261.67 462.841
1554 0 90.0699 14.8662 1339 129.32 1261.63 458.349
1555 1 48.029 11.847 569 130.207 1262.42 483.339
1556 0 48.0425 13.2175 635 129.239 1262.32 480.71
1557 0 50.023 13.4538 673 127.412 1263.14 480.4
1558 0 51.1712 13.3669 684 127.839 1261.32 479.189
1559 0 52.1705 13.1875 688 129.328 1261.52 478.923
1560 0 55.1177 14.3692 792 126.218 1261.57 476.852
1561 0 57.023 13.6436 778 127.071 1261.39 477.024
1562 0 60.0894 12.8475 772 128.934 1261.3 476.623
1563 0 61.099 13.0608 798 129.43 1261.27 475.998
1564 0 63.0712 13.7305 866 127.538 1261.17 475.643
1565 0 66.0442 14.4903 957 124.504 1261.44 473.143
1566 0 66.0594 13.3062 879 130.506 1261.07 472.166
1567 0 67.0882 14.2052 953 129.034 1261.75 469.366
1568 0 70.151 14.3548 1007 127.995 1261.49 469.945
1569 0 72.0801 14.1925 1023 129.496 1260.91 467.651
1570 0 76.0546 14.884 1132 127.784 1260.87 467.208
1571 0 78.064 15.5001 1210 126.471 1261.11 466.068
1572 0 82.1433 15.3025 1257 126.311 1260.93 465.447
1573 0 86.1345 14.9998 1292 126.578 1260.48 463.742
1574 0 86.0632 14.8728 1280 127.511 1260.83 461.801
1575 1 45.0193 12.2836 553 126.564 1260.38 482.4
1576 0 46.005 13.4551 619 125.258 1261.16 482.895
1577 0 48.0211 13.2025 634 125.591 1260.6 482.292
1578 0 50.0505 12.9669 649 125.356 1260.83 481.302
1579 0 50.0357 12.9707 649 127.502 1259.87 480.889
1580 0 53.0199 13.4101 711 124.796 1260.42 480.648
1581 0 54.0515 13.1726 712 126.098 1260.07 477.955
1582 0 56.0633 14.2339 798 123.412 1260.79 477.494
1583 0 57.0531 14.1447 807 124.338 1260.19 475.778
1584 0 57.0845 13.6114 777 126.96 1259.77 474.784
1585 0 57.0807 13.4897 770 152.382 1260.79 474.734
1586 0 63.0532 13.782 869 126.177 1260.04 473.154
1587 0 66.0371 14.825 979 122.215 1260.13 473.091
1588 0 67.0584 13.6001 912 126.522 1259.92 472.264
1589 0 71.0386 14.4288 1025 123.943 1260.22 470.288
1590 0 73.1304 13.975 1022 126.071 1259.89 468.234
1591 0 74.0587 13.9484 1033 127.644 1259.5 466.85
1592 0 77.0692 14.2988 1102 125.416 1260.3 466.339
1593 0 80.0663 14.9501 1197 124.137 1260.16 465.054
1594 0 81.1151 13.1295 1065 130.018 1260.57 464.974
1595 0 84.1361 13.8585 1166 128.301 1260.78 462.497
1596 0 87.0914 14.4446 1258 127.152 1260.18 459.858
1597 0 90.1818 14.9032 1344 125.391 1260.44 458.798
1598 0 90.131 13.1697 1187 131.922 1260.81 456.975
1599 0 96.0684 14.1462 1359 127.402 1260.72 456.809
1600 0 99.0628 14.1627 1403 127.762 1261.21 455.563
1601 0 103.05 13.1004 1350 130.53 1260.78 453.521
1602 1 53.0604 11.9675 635 123.62 1260.52 478.517
1603 0 57.2156 13.0384 746 119.001 1262.28 476.249
1604 0 57.1404 12.8456 734 125.221 1263.04 476.634
1605 0 60.0733 13.6666 821 122.965 1262.9 474.59
1606 0 62.0327 13.2511 822 124.039 1262.73 473.715
1607 0 64.1082 13.6956 878 122.501 1262.86 472.604
1608 0 65.1318 13.2961 866 123.946 1262.59 472.848
1609 0 68.1696 14.1705 966 121.562 1262.31 470.189
1610 0 68.1306 12.476 850 126.574 1262.24 471.758
1611 0 70.0912 13.2827 931 124.718 1261.77 469.175
1612 0 74.3435 13.8546 1030 122.214 1261.26 467.481
1613 0 76.0721 12.7774 972 125.408 1261.88 467.213
1614 0 78.2442 13.9052 1088 122.804 1262 465.238
1615 0 82.2548 14.4429 1188 120.262 1261.14 465.7
1616 0 82.252 14.4313 1187 147.586 1260.15 465.649
1617 0 85.2504 13.3958 1142 123.712 1261.57 462.632
1618 0 88.2816 13.944 1231 122.089 1261.42 461.274
1619 0 92.4259 14.206 1313 121.64 1260.71 455.88
1620 0 96.2037 14.2406 1370 106.586 1261.52 455.335
1621 0 96.128 12.0881 1162 112.976 1260.62 453.24
1622 0 100.135 12.0836 1210 117.395 1260.14 455.387
1623 0 103.086 13.3481 1376 114.942 1260.43 451.001
1624 1 54.0688 10.6346 575 116.357 1260.56 478.197
1625 0 57.108 12.1699 695 118.694 1260.34 474.983
1626 0 58.1088 12.3045 715 119.38 1260.48 475.211
1627 0 58.1324 12.2995 715 153.512 1260.48 475.083
1628 0 61.0949 12.2923 751 116.866 1260.12 472.241
1629 0 64.0946 12.0915 775 117.443 1260.15 472.885
1630 0 65.0957 12.9502 843 115.605 1259.57 471.151
1631 0 68.0685 12.8988 878 116.424 1259.83 467.333
1632 0 71.1467 12.664 901 116.115 1259.48 468.088
1633 0 72.1103 12.5364 904 116.72 1260.12 468.543
1634 0 75.2089 12.7113 956 115.55 1260.56 468.479
1635 0 78.0923 12.2035 953 119.368 1260.4 463.814
1636 0 81.0801 12.9255 1048 117.09 1260.5 461.664
1637 0 85.1929 12.9001 1099 114.421 1262.89 463.262
1638 0 89.2698 14.1369 1262 112.368 1262.15 460.556
1639 1 50.0385 13.0699 654 112.677 1262.53 478.829
1640 0 51.0818 12.1765 622 115.757 1262.52 478.19
1641 0 54.1252 13.4503 728 112.76 1261.27 477.39
1642 0 54.2144 13.9815 758 112.493 1261.77 476.174
1643 0 57.0813 12.1406 693 115.263 1261.47 475.518
1644 0 57.1351 11.6216 664 116.916 1260.99 475.752
1645 0 59.213 12.2946 728 115.265 1260.63 474.294
1646 0 62.1373 12.0861 751 116.001 1260.94 473.541
1647 0 64.1264 14.7209 944 109.797 1260.96 473.285
1648 0 65.3189 17.0548 1114 99.7496 1260.99 471.543
1649 0 68.1537 12.6039 859 115.31 1261.05 471.768
1650 0 70.1225 13.89 974 111.923 1261.01 470.496
1651 0 71.2193 13.7463 979 112.255 1260.19 470.042
1652 0 74.2602 13.3854 994 113.721 1260.74 466.267
1653 0 76.1223 12.4274 946 115.877 1260.62 467.124
1654 0 77.2459 13.4635 1040 114.536 1260.86 463.552
1655 0 80.2633 13.5554 1088 113.754 1261.17 464.827
1656 0 83.1386 14.1451 1176 112.544 1261.16 461.444
1657 0 86.3539 13.4331 1160 113.956 1260.62 461.246
1658 0 88.3122 13.4636 1189 114.562 1259.95 460.364
1659 1 47.3039 12.6839 600 111.995 1259.92 479.655
1660 0 48.5564 13.5101 656 110.701 1260.68 477.735
1661 0 50.4141 12.556 633 110.058 1261.3 475.962
1662 0 51.3246 12.9568 665 111.971 1261.42 476.388
1663 0 52.3102 13.917 728 110.999 1260.99 474.909
1664 0 54.3243 13.7324 746 112.409 1260.6 473.731
1665 0 57.3746 12.5491 720 115.283 1260.73 474.369
1666 0 57.212 12.6023 721 116.34 1260.15 474.752
1667 0 59.1719 12.8439 760 115.154 1260.59 475.479
1668 0 60.1332 12.9047 776 114.497 1260.34 474.885
1669 0 63.1868 12.8666 813 115.573 1260.27 471.556
1670 0 65.1194 13.4061 873 113.979 1260.65 470.97
1671 0 66.1987 12.8552 851 113.72 1260.14 471.951
1672 0 70.2604 13.9054 977 110.943 1259.77 469.315
1673 0 73.223 13.93 1020 110.837 1259.98 469.36
1674 0 74.1456 13.7972 1023 112.031 1260.89 466.748
1675 0 77.1342 15.5314 1198 107.813 1261.32 465.2
1676 0 78.0751 13.9737 1091 112.109 1261.06 464.23
1677 0 82.0784 13.5846 1115 112.706 1260.34 462.438
1678 0 85.1072 13.6769 1164 111.875 1260.45 460.446
1679 0 88.0555 14.2751 1257 110.167 1260.24 459.186
1680 0 90.0453 12.8047 1153 113.632 1260.68 458.816
1681 1 46.0608 11.7671 542 115.061 1260.92 478.446
1682 0 50.0283 13.2725 664 108.14 1260.62 479.363
1683 0 50.0249 13.4733 674 107.999 1260.69 478.533
1684 0 52.2082 12.5842 657 111.008 1261.62 477.367
1685 0 54.2993 13.665 742 107.73 1261.68 476.946
1686 0 54.2617 14.6696 796 107.319 1261.06 474.221
1687 0 56.2056 12.7211 715 110.436 1261.57 474.129
1688 0 56.2485 12.8181 721 111.68 1261.48 471.838
1689 0 60.2693 12.9585 781 108.451 1261.34 470.958
1690 0 60.2278 12.2203 736 111.584 1261.05 471.45
1691 0 62.2042 12.4268 773 110.721 1260.88 471.145
1692 0 66.2108 14.2122 941 106.608 1261.69 468.434
1693 0 68.1853 13.8153 942 107.743 1260.81 467.972
1694 0 71.2182 13.7324 978 106.16 1260.67 467.562
1695 0 72.2362 14.2034 1026 106.318 1261.16 466.19
1696 0 76.1686 14.3366 1092 104.642 1261.78 465.82
1697 0 76.1743 12.7471 971 111.247 1261.66 463.822
1698 0 80.1406 14.2 1138 106.688 1261.68 463.697
1699 0 83.1742 14.6921 1222 105.855 1261.7 461.816
1700 0 83.2278 13.6012 1132 107.463 1261.18 462.084
1701 0 87.2908 14.6064 1275 107.627 1261.15 458.475
1702 1 45.072 10.8493 489 110.879 1261.02 480.658
1703 0 48.085 11.8748 571 105.911 1261.68 478.771
1704 0 51.1557 13.6837 700 99.4014 1261.36 476.65
1705 0 51.0735 12.9617 662 103.301 1260.7 476.891
1706 0 53.0431 13.7624 730 101.575 1260.6 477.574
1707 0 54.0302 14.2143 768 102.229 1261.03 475.684
1708 0 55.0761 13.3996 738 105.367 1260.8 475.229
1709 0 59.0421 14.1086 833 102.655 1260.77 475.3
1710 0 59.0906 12.9124 763 106.432 1260.75 475.425
1711 0 61.07 13.0178 795 106.803 1260.41 474.218
1712 0 63.0325 14.1832 894 104.633 1261.03 471.362
1713 0 63.0323 14.1673 893 144.666 1261.03 471.288
1714 0 68.0469 13.6377 928 106.953 1260.81 467.684
1715 0 71.147 13.943 992 106.297 1260.87 468.798
1716 0 73.2924 13.5485 993 108.662 1261.84 465.113
1717 0 76.0918 13.3523 1016 109.18 1261.68 465.69
1718 0 79.0774 15.4785 1224 105.308 1261.34 465.295
1719 0 81.1477 13.9252 1130 106.168 1261.62 464.428
1720 0 84.2244 14.1883 1195 113.568 1260.76 462.286
1721 0 88.2575 14.401 1271 114.016 1261.69 458.921
1722 0 91.175 15.5306 1416 112.086 1261.73 459.006
1723 0 93.1454 14.6116 1361 115.421 1261.71 456.924
1724 0 98.2095 15.4873 1521 113.421 1261.71 455.715
1725 0 101.093 15.0159 1518 109.144 1261.22 449.24
1726 0 101.119 12.6386 1278 116.136 1261.06 448.905
1727 1 52.0234 9.86094 513 111.074 1262.13 474.096
1728 0 55.1043 12.2132 673 118.111 1262.11 469.333
1729 0 56.08 14.1405 793 109.98 1262.19 467.522
1730 0 57.1652 13.3648 764 112.847 1262.41 470.219
1731 0 61.0758 14.0154 856 109.887 1262.34 472.643
1732 0 62.0859 13.0787 812 113.701 1261.75 471.296
1733 0 65.0636 15.2005 989 114.332 1262.16 467.739
1734 0 65.0636 15.2466 992 160.118 1263.16 467.71
1735 0 70.0994 14.1656 993 117.12 1262.05 465.542
1736 0 74.1333 12.9362 959 118.616 1261.55 466.185
1737 0 73.115 12.6923 928 120.394 1262.22 465.917
1738 0 77.1488 13.4416 1037 117.912 1262.06 463.623
1739 0 80.0933 13.8963 1113 117.117 1261.92 462.001
1740 0 82.1395 14.0371 1153 116.192 1261.73 460.8
1741 0 86.0934 13.7757 1186 115.821 1261.65 460.098
1742 0 86.0888 13.3351 1148 117.558 1261.46 458.108
1743 0 86.0888 13.3118 1146 157.835 1262.45 458.06
1744 0 95.0599 14.3804 1367 113.805 1261.09 457.62
1745 0 99.0459 14.5589 1442 113.723 1260.3 453.345
1746 0 102.273 12.7991 1309 116.764 1259.97 455.077
1747 0 106.108 15.4182 1636 113.894 1259.92 448.586
1748 1 55.0451 11.4633 631 113.311 1259.46 477.109
1749 0 54.1184 10.6064 574 110.307 1259.62 470.523
1750 0 56.1886 9.66388 543 103.354 1260.29 464.063
1751 0 61.2851 10.084 618 97.9903 1260.97 469.159
1752 0 60.2031 9.58423 577 100.958 1261.2 467.688
1753 0 63.1915 10.1121 639 98.0845 1261.16 467.05
1754 0 65.1277 10.5178 685 104.112 1261.51 471.626
1755 0 68.1831 10.6331 725 102.789 1261.65 471.428
1756 0 70.1072 11.0545 775 101.333 1261.76 470.883
1757 0 73.0609 11.2098 819 103.238 1260.08 468.177
1758 0 74.0711 10.1254 750 105.515 1260.13 468.229
1759 0 78.0853 10.7447 839 106.01 1259.82 464.327
1760 0 80.2361 10.4691 840 105.296 1260.05 464.482
1761 0 85.058 11.0278 938 105.49 1260.24 461.481
1762 1 46.09 12.1935 562 99.7153 1259.73 480.262
1763 0 47.0382 10.906 513 102.975 1259.52 479.963
1764 0 46.0765 12.718 586 99.7679 1260.26 479.742
1765 0 47.0734 11.4502 539 104.388 1260.24 480.779
1766 0 46.1227 10.9057 503 107.016 1259.45 478.738
1767 0 46.0432 9.57797 441 111.061 1259.81 479.279
1768 0 49.1028 11.2417 552 106.4 1260.01 479.342
1769 0 52.1386 10.5105 548 107.668 1259.71 478.281
1770 0 54.1174 12.2327 662 104.497 1259.58 475.381
1771 0 55.1654 10.4776 578 108.829 1259.67 476.426
1772 0 57.133 9.88921 565 108.335 1259.94 477.623
1773 0 55.1518 9.44666 521 112.518 1259.93 474.455
1774 0 58.1129 11.254 654 106.622 1260.37 470.778
1775 0 62.0862 11.9028 739 102.257 1260.63 470.804
1776 0 63.2744 9.27705 587 106.562 1260.21 472.576
1777 0 66.1791 10.0485 665 104.495 1260.84 471.684
1778 0 69.2031 10.1874 705 105.194 1260.85 468.211
1779 0 72.1045 11.1782 806 103.548 1260.56 465.438
1780 0 75.1804 9.98931 751 105.686 1260.92 462.525
1781 1 35.0746 9.38001 329 104.447 1260.63 483.903
1782 0 38.0593 11.1668 425 101.699 1261.19 484.085
1783 0 41.0881 11.6092 477 100.157 1261.18 482.134
1784 0 42.0283 11.2781 474 100.414 1261.92 480.973
1785 0 44.0368 11.286 497 101.978 1261.54 480.175
1786 0 46.1059 10.953 505 104.263 1261.41 479.374
1787 0 46.0506 11.6611 537 104.242 1260.48 477.855
1788 0 47.0959 10.6166 500 107.682 1261.05 476.982
1789 0 50.0704 11.8034 591 103.391 1260.97 476.541
1790 0 50.1116 12.1728 610 104.111 1261.39 476.277
1791 0 50.1696 10.9828 551 105.938 1261.14 473.693
1792 0 50.1555 9.57024 480 109.05 1261.22 475.838
1793 0 51.0503 8.79524 449 111.14 1261.26 475.548
1794 0 53.1625 10.0259 533 109.39 1261.44 475.73
1795 0 54.0475 10.6203 574 108.692 1261.66 475.125
1796 0 56.1541 10.5068 590 110.771 1261.51 475.061
1797 0 60.1926 12.5763 757 106.933 1261.49 472.275
1798 0 62.0794 12.5807 781 104.05 1262.45 471.771
1799 0 62.0994 10.5154 653 110.147 1263 470.957
1800 0 65.1623 10.8805 709 108.91 1262.58 471.447
1801 0 67.1212 12.4849 838 106.811 1262.73 468.8
1802 0 68.1898 11.776 803 109.382 1262.54 468.442
1803 0 70.1168 11.2527 789 111.485 1262.7 470.018
1804 0 73.2032 12.6224 924 109.482 1262.79 467.023
1805 0 75.0498 12.8581 965 110.046 1262.42 465.911
1806 0 76.1113 13.8876 1057 109.88 1262.52 464.565
1807 0 78.071 11.9891 936 115.303 1261.9 463.378
1808 0 82.2384 13.3393 1097 114.261 1261.88 462.667
1809 0 85.1559 13.81 1176 114.158 1261.71 461.839
1810 0 86.1926 13.7367 1184 116.236 1262.44 459.197
1811 0 89.2255 13.9982 1249 118.194 1262.05 458
1812 0 90.2908 12.8917 1164 125.878 1261.53 455.506
1813 0 94.291 14.434 1361 121.893 1261.08 454.418
1814 0 97.1966 14.1569 1376 121.489 1261.78 455.035
1815 1 51.1694 12.9374 662 119.956 1262.28 476.852
1816 0 52.1219 11.7225 611 124.809 1262.39 475.627
1817 0 55.1712 13.9565 770 117.732 1262.43 475.156
1818 0 57.1584 13.3664 764 119.92 1261.68 470.749
1819 0 58.2322 13.532 788 119.997 1261.52 471.806
1820 0 60.2229 13.6825 824 120.171 1261.29 469.841
1821 0 63.2561 13.1687 833 120.064 1261.75 470.538
1822 0 63.2744 13.3229 843 121.926 1261.88 467.84
1823 0 65.2851 14.0614 918 120.315 1261.69 466.771
1824 0 68.233 13.8203 943 120.772 1261.73 466.19
1825 0 70.1863 13.2362 929 122.26 1261.89 466.201
1826 0 71.2171 13.8169 984 123.041 1261.72 462.735
1827 0 75.1445 13.4275 1009 122.797 1261.61 460.527
1828 0 77.1008 14.3449 1106 121.261 1261.59 461.102
1829 0 80.1907 13.4804 1081 123.558 1261.37 459.886
1830 0 83.1525 14.5997 1214 121.667 1261.39 458.538
1831 1 42.0895 10.9291 460 125.58 1260.46 478.985
1832 0 43.007 9.97512 429 125.445 1260.08 481.312
1833 0 46.0622 12.4614 574 122.103 1260.61 479.662
1834 0 44.0275 12.0834 532 122.342 1260.69 479.838
1835 0 47.0937 14.227 670 111.837 1260.44 479.594
1836 0 47.0998 13.3546 629 116.614 1260.84 478.951
1837 0 48.169 12.6015 607 118.194 1260.94 479.628
1838 0 49.0203 13.0354 639 114.396 1260.89 479.192
1839 0 49.0278 13.0946 642 145.344 1260.91 479.234
1840 0 49.0278 13.0946 642 144.861 1260.91 479.234
1841 0 54.0318 12.0485 651 116.556 1260.89 476.72
1842 0 55.0716 12.2568 675 117.569 1260.91 475.379
1843 0 58.1078 12.5629 730 115.593 1260.61 474.622
1844 0 60.1104 13.4419 808 113.484 1260.62 472.871
1845 0 62.2086 11.9758 745 117.193 1260.91 470.918
1846 0 63.1974 12.1207 766 117.967 1261.1 471.102
1847 0 67.1755 12.966 871 115.724 1261.02 468.974
1848 0 70.1218 11.751 824 116.556 1261.01 468.276
1849 0 71.0689 12.5231 890 114.725 1260.89 467.685
1850 0 74.2328 12.1375 901 109.082 1261.2 463.947
1851 0 78.1454 12.8094 1001 109.279 1261.67 462.79
1852 0 81.2863 13.434 1092 117.35 1261.82 461.657
1853 0 84.3444 11.8324 998 121.16 1260.96 461.421
1854 0 86.1152 12.611 1086 119.286 1260.94 459.363
1855 0 89.3934 12.954 1158 119.702 1261.57 454.528
1856 1 47.2653 8.67443 410 108.073 1261.15 472.505
1857 0 49.1164 10.8721 534 106.669 1261.57 476.811
1858 0 50.061 11.3861 570 108.693 1262.51 477.672
1859 0 52.1857 11.1333 581 109.761 1262.35 475.225
1860 0 54.1314 12.1556 658 105.737 1262 476.375
1861 0 56.1535 10.3823 583 110.448 1262.32 475.156
1862 0 59.067 11.0383 652 107.164 1262.48 476.153
1863 0 63.101 11.7906 744 105.335 1262.56 472.444
1864 0 63.204 12.2619 775 105.836 1261.9 469.085
1865 0 65.1185 11.2718 734 107.262 1262.74 469.947
1866 0 66.1476 10.2952 681 108.698 1262.4 470.01
1867 0 71.1705 10.9596 780 105.144 1262.18 470.397
1868 0 73.2229 11.7859 863 106.174 1262.07 464.92
1869 0 77.1825 11.1295 859 106.555 1262.55 467.219
1870 1 42.0436 10.2513 431 105.255 1262.94 483.877
1871 0 42.184 10.715 452 108.925 1263.49 481.062
1872 0 44.1485 11.2121 495 114.178 1260.17 479.16
1873 0 46.1778 12.6684 585 110.458 1260.82 479.062
1874 0 49.1343 13.1883 648 109.046 1260.16 478.069
1875 0 49.1107 10.3236 507 116.88 1260.4 478.126
1876 0 49.1419 11.477 564 115.183 1260.08 477.073
1877 0 48.042 10.4284 501 113.22 1260.39 478.445
1878 0 50.0809 10.6628 534 112.764 1260.74 477.521
1879 0 53.1823 12.1657 647 108.539 1260.64 476.309
1880 0 53.1528 11.1189 591 111.076 1260.24 476.672
1881 0 54.1421 11.0081 596 111.529 1260.51 474.357
1882 0 56.1789 10.6268 597 112.961 1260.58 473.871
1883 0 58.2967 10.9097 636 112.615 1260.62 473.277
1884 0 61.1023 12.1436 742 110.322 1261.44 472.247
1885 0 61.1023 12.1272 741 135.185 1262.44 472.15
1886 0 64.2649 11.4993 739 111.988 1261.13 471.06
1887 0 68.2927 12.3879 846 109.233 1261.27 469.377
1888 0 71.3171 13.0123 928 108.051 1260.95 468.137
1889 0 72.2469 12.9141 933 108.974 1260.98 465.313
1890 0 76.3198 12.6442 965 109.916 1260.48 464.64
1891 0 78.3995 12.1302 951 112.076 1260.25 461.104
1892 0 80.1685 12.3116 987 112.636 1260.3 459.373
1893 0 83.3016 11.5844 965 114.088 1260.8 461.034
1894 0 85.1324 10.1372 863 117.601 1259.7 459.498
1895 1 46.3105 9.65225 447 113.192 1261.25 476.602
1896 0 49.1109 10.8937 535 111.675 1260.58 475.387
1897 0 48.2987 10.8285 523 111.635 1261.12 473.212
1898 0 49.0762 9.88258 485 112.126 1260.64 468.893
1899 0 50.0152 11.1566 558 111.142 1260.14 468.756
1900 0 51.0468 10.5981 541 113.987 1260.06 467.194
1901 0 53.0191 11.3921 604 111.492 1260.06 467.864
1902 0 56.0227 11.7631 659 108.935 1260.11 467.857
1903 0 55.0829 9.62186 530 116.232 1260.12 465.755
1904 0 59.0834 11.6276 687 117.696 1261.72 471.284
1905 0 62.2001 11.8006 734 116.702 1259.57 467.568
1906 0 66.1975 13.4144 888 112.038 1260.24 466.069
1907 0 65.1561 12.5238 816 114.457 1260.47 467.805
1908 0 69.1828 11.896 823 115.796 1260.87 465.612
1909 0 70.2468 12.4276 873 114.142 1260.2 466.396
1910 0 74.1917 13.1416 975 112.497 1260.26 463.78
1911 0 73.1997 12.8416 940 115.411 1260.97 461.295
1912 0 79.1745 13.4513 1065 110.975 1260.57 463.334
1913 0 80.1849 13.5562 1087 111.465 1260.28 460.376
1914 0 82.1857 13.0923 1076 114.019 1260.72 459.844
1915 0 84.1825 13.447 1132 113.276 1260.64 458.928
1916 0 86.1171 14.2829 1230 111.093 1260.83 459.194
1917 0 88.1124 13.0061 1146 115.218 1260.73 456.192
1918 0 91.18 13.3911 1221 114.396 1260.17 454.24
1919 0 95.2027 13.4345 1279 112.514 1260.24 453.914
1920 0 98.137 12.5743 1234 114.592 1260.46 452.056
1921 0 100.098 13.177 1319 113.33 1260.46 449.278
1922 1 51.0695 9.41854 481 108.672 1259.7 472.466
1923 0 51.0506 9.59832 490 104.476 1260.81 466.547
1924 0 52.087 9.9833 520 103.271 1260.16 464.787
1925 0 55.0377 11.3013 622 100.376 1260.06 466.489
1926 0 55.0302 10.1762 560 104.482 1259.74 468.011
1927 0 56.0317 11.1901 627 103.057 1260.55 463.456
1928 0 60.0436 10.5423 633 102.863 1260.28 464.929
1929 0 61.0496 12.0885 738 100.722 1260.26 462.425
1930 0 63.1039 11.2354 709 102.441 1261.4 461.839
1931 0 66.0859 11.0614 731 101.424 1261.6 459.572
1932 0 66.0711 10.519 695 104.735 1260.96 458.748
1933 0 70.0749 12.0585 845 93.9598 1260.98 458
1934 0 70.0825 10.3307 724 100.822 1261.57 453.199
1935 0 76.1658 11.3043 861 97.7875 1261.59 459.266
1936 0 76.1361 10.5075 800 98.915 1260.74 458.144
1937 0 80.1445 9.62013 771 100.997 1260.33 459.872
1938 0 82.1316 11.2015 920 99.5674 1260.59 458.638
1939 0 85.1645 9.83978 838 103.718 1260.42 458.774
1940 0 86.2495 9.03194 779 107.801 1260.5 454.083
1941 1 47.0383 8.86511 417 98.1751 1260.89 475.863
1942 0 49.1268 9.20068 452 101.029 1261.1 473.858
1943 0 52.052 11.1043 578 110.965 1260.52 475.581
1944 0 53.0292 11.9934 636 111.09 1260.49 474.802
1945 0 54.0651 11.6896 632 112.892 1259.92 470.649
1946 0 55.0905 11.8351 652 115.508 1260.33 470.133
1947 0 57.0622 13.3013 759 112.231 1260.39 469.04
1948 0 59.0698 13.3909 791 112.52 1260.28 468.405
1949 0 58.0734 12.5358 728 116.187 1259.76 467.023
1950 0 60.1024 12.2125 734 116.68 1259.44 467.673
1951 0 64.1389 14.0476 901 111.786 1259.77 465.199
1952 0 66.1741 13.6307 902 113.649 1259.53 464.935
1953 0 66.0857 12.6654 837 117.845 1259.52 465.185
1954 0 70.2324 12.8715 904 117.024 1259.28 463.58
1955 0 72.1576 13.3458 963 116.273 1259.83 463.356
1956 0 73.2168 12.265 898 120.403 1259.71 461.845
1957 0 77.1151 13.0584 1007 118.409 1260.15 459.868
1958 0 80.0942 12.6476 1013 118.973 1260.73 460.357
1959 0 85.1488 13.8111 1176 116.348 1261.28 459.714
1960 0 85.1084 13.8999 1183 117.788 1260.6 456.631
1961 0 88.1857 12.6098 1112 120.631 1260.98 456.362
1962 0 91.3024 13.3074 1215 118.084 1261.5 455.346
1963 1 50.025 11.1344 557 118.871 1262.73 476.935
1964 0 51.2528 11.2579 577 118.809 1262.23 474.076
1965 0 54.1202 12.694 687 109.076 1262.69 475.06
1966 0 54.088 12.2763 664 107.541 1262.43 474.244
1967 0 55.1325 12.5697 693 104.675 1262.61 475.41
1968 0 58.1415 12.4352 723 104.194 1262.63 475.349
1969 0 58.1207 11.4417 665 105.499 1263.18 473.389
1970 0 62.1647 12.306 765 103.157 1262.48 471.326
1971 0 62.1336 11.9742 744 105.579 1262.43 469.53
1972 0 65.1708 12.3675 806 104.744 1262.47 469.351
1973 0 66.2126 12.2182 809 105.35 1262.51 469.106
1974 0 68.1934 11.7167 799 105.88 1262.17 466.592
1975 0 73.0686 12.0161 878 103.984 1262.01 467.641
1976 0 73.2013 11.6665 854 105.754 1262.39 465.069
1977 0 75.1247 11.1681 839 107.067 1262.26 463.434
1978 0 78.155 11.5284 901 106.576 1262.04 461.003
1979 0 80.1137 10.4851 840 108.51 1261.32 461.423
1980 0 86.1374 13.2695 1143 102.101 1261.48 460.886
1981 0 90.2546 12.8193 1157 104.232 1261.43 458.832
1982 0 93.1946 11.5028 1072 108.443 1262.3 458.001
1983 0 94.3037 11.2297 1059 109.983 1262.01 454.839
1984 0 99.1708 12.5844 1248 110.651 1261.79 452.2
1985 0 100.278 10.0919 1012 113.788 1261.85 451.218
1986 1 54.0177 11.6628 630 105.373 1262.82 474.9
1987 0 56.019 12.7992 717 107.778 1263.14 469.722
1988 0 58.1037 12.2195 710 108.899 1262.66 469.476
1989 0 59.2186 12.3103 729 109.298 1263.18 467.99
1990 0 62.1329 13.1009 814 108.161 1263.07 467.377
1991 0 64.2319 13.3111 855 107.938 1263.56 466.654
1992 0 63.1584 12.2232 772 113.216 1262.69 466.425
1993 0 69.1406 13.6823 946 108.757 1262.61 464.344
1994 0 70.2336 13.0279 915 111.966 1262.94 463.66
1995 0 71.2233 12.8188 913 112.732 1263.23 464.34
1996 0 71.2056 12.8361 914 150.223 1263.24 464.503
1997 0 77.1956 13.7832 1064 112.134 1261.98 463.428
1998 0 78.186 14.0178 1096 112.914 1261.67 460.217
1999 0 80.1878 13.643 1094 114.845 1261.44 461.182
2000 0 85.1064 14.1705 1206 113.659 1261.1 457.875
2001 0 84.0714 13.4528 1131 117.389 1261.24 458.074
2002 0 89.0976 12.9745 1156 118.542 1261.2 455.787
2003 0 92.0958 14.5392 1339 115.331 1261.21 455.438
2004 0 94.0592 13.6722 1286 117.761 1260.92 454.634
2005 0 95.0391 14.6992 1397 115.76 1261.07 455.188
2006 0 99.0794 14.3218 1419 117.775 1260.84 450.653
2007 1 52.0275 10.5329 548 122.967 1260.26 475.201
2008 0 54.0335 12.8439 694 117.003 1261.21 474.305
2009 0 52.1604 10.7936 563 111.723 1262.23 465.35
2010 0 52.0569 11.1224 579 104.57 1262.13 465.586
2011 0 54.1352 9.1253 494 109.421 1262.62 465.909
2012 0 56.104 10.4627 587 105.348 1262.24 463.993
2013 0 58.1234 10.2713 597 106.211 1262.15 462.806
2014 0 59.0897 11.0679 654 105.46 1262.49 460.641
2015 0 62.1017 11.6583 724 104.202 1261.88 460.562
2016 0 62.1107 11.1092 690 105.704 1261.35 457.846
2017 0 67.1115 12.144 815 102.663 1261.98 458.082
2018 0 69.0923 12.5484 867 102.585 1261.98 458.23
2019 0 73.0796 12.9585 947 100.996 1261.88 457.073
2020 0 74.1706 12.8622 954 102.488 1261.04 455.515
2021 0 77.0758 11.2616 868 106.976 1261.26 455.207
2022 0 79.1328 12.0936 957 105.807 1261.01 457.133
2023 0 83.0737 12.4829 1037 107.577 1261.08 455.133
2024 0 85.1001 13.2197 1125 112.713 1261.05 446.391
2025 0 90.1818 13.1845 1189 110.637 1261.52 451.135
2026 0 93.1782 13.5761 1265 107.881 1261.38 449.834
2027 1 49.0423 8.78833 431 103.142 1263.16 477.522
2028 0 50.1472 11.7055 587 114.25 1261.61 474.521
2029 0 53.06 13.5696 720 109.228 1263.44 475.139
2030 0 53.039 12.4814 662 115.579 1262.95 475.352
2031 0 54.0778 12.6854 686 115.273 1263.08 474.708
2032 0 57.1395 13.8433 791 112.556 1262.66 472.71
2033 0 56.0716 12.805 718 116.773 1263.39 473.095
2034 0 60.1328 13.0378 784 115.852 1262.36 471.631
2035 0 62.2343 13.867 863 114.358 1261.95 470.451
2036 0 65.0734 14.0149 912 113.419 1262.35 470.16
2037 0 68.055 13.0923 891 116.51 1261.92 468.966
2038 0 68.1129 13.6391 929 116.804 1262.49 466.869
2039 0 71.1578 12.7042 904 119.287 1262.46 467.023
2040 0 73.104 13.2414 968 119.162 1262.55 465.82
2041 0 76.1053 13.7967 1050 116.661 1262.82 464.96
2042 0 78.1033 13.3669 1044 117.994 1263.1 463.949
2043 0 81.1777 13.1194 1065 119.086 1262.4 460.574
2044 0 84.2023 12.945 1090 119.546 1261.87 460.664
2045 0 87.0678 13.7249 1195 115.571 1262.42 460.438
2046 1 49.0932 11.5698 568 115.477 1263.02 479.796
2047 0 50.0895 10.8206 542 116.015 1262.93 478.29
2048 0 51.115 11.6796 597 112.918 1262.71 478.131
2049 0 52.0516 11.5462 601 112.915 1262.43 477.2
2050 0 55.0362 11.7741 648 109.937 1263.17 476.571
2051 0 53.0286 11.7107 621 112.742 1262.98 476.702
2052 0 57.0905 12.4364 710 110.904 1263.23 475.29
2053 0 57.0681 11.8981 679 114.697 1263.36 473.573
2054 0 59.0973 11.6757 690 115.996 1263.5 473.919
2055 0 61.1337 12.8734 787 111.981 1262.8 474.518
2056 0 62.1279 11.8948 739 114.976 1262.46 472.267
2057 0 63.0639 11.4963 725 116.801 1262.07 471.89
2058 0 66.1687 12.7855 846 113.333 1262.78 469.282
2059 0 67.0959 12.117 813 116.405 1262.79 467.335
2060 0 66.0554 12.0656 797 117.604 1261.75 467.137
2061 0 71.1452 12.4534 886 114.856 1262.3 467.712
2062 0 73.242 12.1105 887 116.558 1262.78 465.374
2063 0 77.0996 12.179 939 116.415 1262.61 465.265
2064 0 77.1333 12.07 931 116.331 1262.87 464.316
2065 0 80.1291 12.5922 1009 115.253 1262.54 463.385
2066 0 82.1076 12.8246 1053 114.889 1262.29 461.723
2067 0 87.1835 13.6953 1194 112.505 1262.61 460.561
2068 0 91.1897 13.4993 1231 120.229 1261.98 456.809
2069 0 93.158 12.613 1175 122.316 1261.35 456.72
2070 0 96.1595 13.0304 1253 122.115 1261.81 453.804
2071 0 99.3048 13.6449 1355 119.65 1261.2 453.811
2072 0 102.249 13.291 1359 119.538 1261.78 454.112
2073 0 105.236 14.7669 1554 115.741 1261.21 450.882
2074 0 106.257 13.2697 1410 120.535 1260.72 448.997
2075 0 109.259 12.475 1363 119.506 1260.76 448.428
2076 0 114.22 13.2902 1518 116.553 1261.77 445.367
2077 1 59.0484 9.39907 555 114.685 1262.31 473.859
2078 0 62.0773 11.0185 684 109.67 1261.31 473.156
2079 0 66.104 12.9644 857 106.12 1261.43 470.866
2080 0 66.15 11.353 751 108.835 1260.82 469.831
2081 0 67.1248 12.8268 861 109.184 1260.57 468.189
2082 0 71.1252 13.3005 946 107.299 1260.88 466.326
2083 0 75.1386 14.7328 1107 102.671 1262.08 465.551
2084 0 76.1159 13.3087 1013 107.428 1261.77 464.588
2085 0 78.1516 11.8616 927 109.124 1262.21 464.535
2086 0 82.1026 12.4357 1021 108.353 1262.18 463.996
2087 0 84.2006 13.0878 1102 107.167 1262.27 463.875
2088 0 88.094 13.0542 1150 104.122 1262.18 461.855
2089 0 90.2539 12.7197 1148 106.568 1261.39 460.021
2090 0 94.1724 13.0187 1226 110.507 1261.3 456.455
2091 0 96.3393 13.2968 1281 113.146 1261.24 456.362
2092 1 49.0854 11.8161 580 114.798 1261.38 476.931
2093 0 51.0718 11.5132 588 108.49 1262.73 477.396
2094 0 52.0403 13.2205 688 106.581 1261.09 476.754
2095 0 53.0692 13.2469 703 104.347 1262.51 477.386
2096 0 55.0956 12.8685 709 105.629 1262.57 476.357
2097 0 56.0414 13.0618 732 106.448 1262.94 474.079
2098 0 58.0703 11.8822 690 109.401 1262.14 475.007
2099 0 57.124 12.4116 709 109.495 1262.44 474.843
2100 0 61.0229 12.9624 791 107.501 1261.52 472.566
2101 0 61.0229 12.8804 786 144.903 1261.56 472.598
2102 0 65.071 13.3854 871 106.582 1261.95 471.58
2103 0 65.1066 11.3353 738 113.379 1261.46 470.653
2104 0 70.2114 12.206 857 110.261 1261.4 469.996
2105 0 70.0998 11.4836 805 112.539 1261.54 469.907
2106 0 73.1474 12.4543 911 112.27 1261.19 466.996
2107 0 75.1224 12.7658 959 112.676 1260.78 464.304
2108 0 79.1268 12.8781 1019 111.636 1261.34 465.753
2109 0 82.0809 13.4989 1108 111.179 1261.74 464.009
2110 0 84.1222 13.3021 1119 111.962 1261.3 463.576
2111 1 45.0721 11.0046 496 120.401 1262.47 481.26
2112 0 45.0897 11.5769 522 120.284 1262.3 480.69
2113 0 48.109 12.7835 615 114.724 1260.93 478.719
2114 0 48.2176 12.9413 624 115.885 1260.76 476.447
2115 0 50.0787 12.4005 621 111.676 1260.29 476.94
2116 0 50.0787 12.3805 620 139.624 1260.24 477.069
2117 0 52.1045 12.8972 672 112.686 1260.02 474.722
2118 0 54.0744 12.7417 689 112.686 1260.28 475.724
2119 0 57.1137 13.5169 772 111.755 1259.73 475.273
2120 0 59.0635 13.8326 817 110.947 1260.07 474.269
2121 0 59.0861 13.5057 798 113.063 1260.11 474.37
2122 0 62.1098 13.2668 824 114.018 1260.12 471.631
2123 0 64.0923 13.777 883 113.143 1260.24 472.181
2124 0 65.0978 13.5642 883 115.236 1260.3 470.742
2125 0 67.0304 12.6957 851 118.482 1259.87 469.35
2126 0 69.2491 13.4587 932 118.054 1260.14 469.574
2127 0 71.0947 13.6297 969 117.591 1259.95 468.784
2128 0 74.089 12.9169 957 119.36 1260.03 466.44
2129 0 77.0774 14.0378 1082 115.862 1259.82 466.082
2130 0 79.057 13.6104 1076 117.268 1259.93 465.056
2131 0 83.1084 13.5245 1124 118.548 1259.66 463.395
2132 0 84.1528 13.428 1130 118.842 1260.82 462.51
2133 0 84.1528 13.4874 1135 163.807 1260.79 462.613
2134 1 46.0103 12.3885 570 122.774 1261.89 479.647
2135 0 49.0141 13.1595 645 120.02 1262.17 479.74
2136 0 51.0409 14.1847 724 118.28 1262.28 478.725
2137 0 52.0895 12.6321 658 125.278 1262.38 476.822
2138 0 53.0423 12.2921 652 124.768 1261.93 477.046
2139 0 54.0854 13.1459 711 122.74 1259.61 477.774
2140 0 54.0616 12.8187 693 125.372 1259.39 476.078
2141 0 57.0898 12.5241 715 126.399 1259.53 474.129
2142 0 58.081 13.2918 772 123.079 1259.58 475.666
2143 0 57.0645 12.775 729 127.731 1259.62 473.305
2144 0 60.1806 12.1966 734 126.88 1259.46 473.804
2145 0 62.1573 13.9968 870 123.063 1259.49 470.908
2146 0 66.0896 14.5257 960 119.423 1259.5 470.931
2147 0 68.0867 15.304 1042 117.765 1259.5 469.241
2148 0 69.1777 12.7353 881 125.457 1260.16 467.346
2149 0 71.1528 14.4899 1031 121.123 1260.1 467.081
2150 0 73.1287 13.5514 991 124.038 1259.61 465.066
2151 0 73.1287 13.5514 991 156.253 1258.62 465.033
2152 0 73.1386 13.5359 990 155.818 1257.61 465.011
2153 0 82.2375 13.9474 1147 122.191 1260.06 460.392
2154 1 45.1635 10.8273 489 120.967 1261.08 479.665
2155 0 45.0744 10.9597 494 118.919 1260.98 479.98
2156 0 48.0599 12.1307 583 113.64 1260.26 479.029
2157 0 48.0893 12.1649 585 117.026 1260.36 478.171
2158 0 50.106 12.3538 619 116.394 1260.21 477.491
2159 0 51.0652 11.828 604 119.02 1259.86 478.462
2160 0 50.0808 11.3616 569 121.979 1260.31 477.38
2161 0 55.1424 12.4949 689 116.531 1260.08 475.614
2162 0 57.1324 12.5323 716 116.465 1260.24 474.247
2163 0 56.117 13.1867 740 116.538 1260.09 475.905
2164 0 60.0681 12.5857 756 117.071 1259.72 473.906
2165 0 63.0805 12.9042 814 115.253 1259.51 474.364
2166 0 63.08 13.2372 835 116.441 1259.63 472.789
2167 0 66.0913 13.0274 861 116.23 1259.65 470.819
2168 0 67.0501 12.9455 868 116.429 1259.63 471.991
2169 0 70.0413 13.0494 914 116.163 1259.5 471.1
2170 0 72.1334 12.4492 898 118.105 1259.93 468.565
2171 0 75.1631 12.8388 965 115.925 1260.23 464.881
2172 0 79.0975 12.9713 1026 114.593 1259.99 464.499
2173 0 80.094 12.4104 994 115.759 1259.89 463.706
2174 0 85.0661 12.2846 1045 115.044 1259.7 462.78
2175 0 88.0701 12.0813 1064 114.872 1259.62 461.77
2176 0 88.0774 12.0462 1061 138.812 1259.6 461.742
2177 1 47.0158 11.6769 549 110 1260.63 479.342
2178 0 48.0976 11.8509 570 108.642 1260.48 476.816
2179 0 47.1025 11.8253 557 109.451 1260.93 472.783
2180 0 51.2596 12.583 645 123.909 1261.11 471.859
2181 0 53.0414 12.4243 659 117.217 1259.57 477.542
2182 0 54.0595 12.5047 676 116.084 1259.47 475.933
2183 0 55.1199 12.3367 680 117.163 1259.35 475.518
2184 0 56.0904 12.0698 677 118.035 1259.59 476.319
2185 0 62.0608 12.0688 749 116.989 1259.91 474.304
2186 0 61.1247 10.6667 652 118.563 1259.46 474.422
2187 0 62.0335 11.784 731 117.007 1259.5 471.059
2188 0 67.0996 12.6677 850 112.629 1259.48 471.368
2189 0 67.0996 12.7572 856 131.27 1260.46 471.336
2190 0 71.0951 11.4354 813 115.095 1259.62 470.13
2191 0 74.0611 12.3682 916 113.901 1259.53 467.032
2192 0 75.0842 12.1863 915 115.181 1259.31 464.113
2193 0 78.0801 11.6675 911 115.213 1260.81 464.883
2194 0 81.0978 12.2691 995 114.894 1261.32 462.525
2195 0 85.2281 13.282 1132 113.72 1261.01 460.474
2196 0 88.1698 13.7008 1208 115.335 1261.04 459.384
2197 0 93.1946 14.3678 1339 119.94 1260.89 455.754
2198 0 96.2106 14.6865 1413 117.418 1260.32 453.83
2199 0 98.1722 13.1504 1291 120.761 1260.15 455.335
2200 0 103.14 15.7456 1624 113.381 1260.19 452.276
2201 0 106.119 13.3718 1419 121.07 1259.48 450.693
2202 1 51.0475 11.6558 595 120.358 1258.74 474.751
2203 0 54.0244 11.4208 617 116.627 1258.79 471.906
2204 0 55.1434 10.8989 601 112.151 1260.58 470.661
2205 0 55.1956 10.6893 590 106.398 1261.21 466.649
2206 0 58.2106 12.9186 752 102.364 1260.94 465.565
2207 0 59.1368 10.3996 615 108.48 1260.97 465.049
2208 0 61.1546 10.2691 628 110.178 1261.3 462.903
2209 0 63.0839 12.6974 801 105.675 1260.43 461.256
2210 0 66.1478 12.0639 798 107.906 1260.46 460.38
2211 0 68.044 11.3897 775 109.737 1260.5 459.439
2212 0 70.0768 10.9451 767 109.958 1260.88 462.589
2213 0 70.0826 11.0013 771 135.933 1260.88 462.508
2214 0 76.1741 12.4846 951 108.298 1260.2 457.063
2215 0 76.2855 10.9457 835 113.481 1259.65 457.165
2216 0 82.2714 11.851 975 110.919 1260.15 456.077
2217 0 82.2105 11.4462 941 114.536 1260.11 452.514
2218 0 87.1723 12.2516 1068 117.663 1260.65 452.144
2219 0 88.154 12.308 1085 118.288 1260.04 451.043
2220 0 93.2726 13.0263 1215 116.504 1260.26 449.614
2221 0 97.1543 12.8455 1248 117.32 1259.9 447.241
2222 0 101.087 13.335 1348 115.448 1259.46 445.323
2223 0 103.28 13.0228 1345 117.984 1259.29 441.08
2224 0 108.201 12.1349 1313 119.37 1259.34 441.848
2225 1 56.2521 12.2662 690 122.68 1260.46 471.586
2226 0 58.0483 11.3698 660 119.174 1261.44 465.717
2227 0 59.107 11.5046 680 118.487 1260.38 466.496
2228 0 58.1633 12.0351 700 119.12 1259.48 466.967
2229 0 63.109 12.1694 768 116.512 1259.09 463.831
2230 0 67.1 12.6677 850 114.989 1259.47 464.214
2231 0 69.1134 12.4867 863 116.724 1259.86 463.902
2232 0 71.0806 13.7168 975 113.541 1259.56 461.905
2233 0 75.0943 12.198 916 115.312 1259.81 461.152
2234 0 75.1796 12.264 922 117.133 1260.32 459.89
2235 0 78.1767 12.2415 957 118.596 1260.24 457.438
2236 0 80.0969 11.8981 953 120.221 1260.38 457.586
2237 0 83.1537 11.5088 957 119.98 1259.68 456.883
2238 0 85.1601 11.543 983 116.065 1259.41 452.655
2239 0 90.1141 12.5286 1129 110.511 1259.92 452.005
2240 0 91.1655 12.417 1132 111.784 1259.8 451.958
2241 0 96.1537 11.4712 1103 115.948 1259.73 450.238
2242 0 96.0813 11.0219 1059 120.268 1260.44 447.931
2243 1 48.0435 9.34569 449 112.004 1260.98 474.53
2244 0 51.0359 11.7956 602 120.51 1261.32 477.287
2245 0 55.0837 11.891 655 118.379 1261.44 476.786
2246 0 55.0174 12.5415 690 116.887 1261.82 472.439
2247 0 57.0254 12.5032 713 118.285 1261.86 472.313
2248 0 56.0879 12.3378 692 119.965 1261.63 470.374
2249 0 60.0577 12.7877 768 116.592 1261.65 470.957
2250 0 63.0526 12.9099 814 115.036 1261.42 470.087
2251 0 65.0771 12.5236 815 115.715 1261.57 468.871
2252 0 63.0953 12.3622 780 118.262 1261.54 466.922
2253 0 67.0616 12.8091 859 116.278 1261.76 465.76
2254 0 70.1567 12.7857 897 116.499 1261.47 465.574
2255 0 70.0881 12.7126 891 118.077 1261.84 463.384
2256 0 73.1551 13.3552 977 116.304 1261.96 461.128
2257 0 77.147 13.3641 1031 114.299 1260.45 463.353
2258 0 78.2072 11.9043 931 112.383 1260.18 461.424
2259 0 82.2181 11.6884 961 111.76 1260.42 462.831
2260 0 85.2414 11.6962 997 113.065 1260.34 460.469
2261 0 83.1556 10.294 856 117.992 1259.6 462.585
2262 0 87.1487 11.6697 1017 115.667 1259.86 461.488
2263 0 87.1487 11.7615 1025 147.044 1259.83 461.417
2264 0 93.1516 11.2505 1048 118.964 1259.44 462.932
2265 0 97.2603 11.1248 1082 118.676 1258.68 464.625
2266 0 100.134 10.9554 1097 121.139 1258.26 460.646
2267 0 103.163 11.6902 1206 121.009 1258.18 459.396
2268 0 109.295 13.0656 1428 116.205 1257.38 459.938
2269 1 59.1249 13.7506 813 113.218 1257.22 487.582
2270 0 58.0631 12.7792 742 126.474 1255.85 486.64
2271 0 61.1251 14.3967 880 122.233 1256.04 485.291
2272 0 63.1105 13.7061 865 125.274 1255.79 483.325
2273 0 63.1152 13.6893 864 155.016 1255.78 483.324
2274 0 68.2359 13.6585 932 126.087 1255.14 481.002
2275 0 70.0907 14.6239 1025 124.507 1255.09 479.818
2276 0 73.1809 13.9791 1023 125.962 1255.38 479.873
2277 0 74.1237 14.3274 1062 127.656 1255.36 476.492
2278 0 76.1278 14.3049 1089 126.651 1255.4 478.188
2279 0 78.2076 13.1956 1032 131.57 1254.64 475.205
2280 0 82.2616 14.7578 1214 126.145 1254.47 472.971
2281 0 83.2944 13.3863 1115 131.012 1253.7 468.079
2282 0 87.3564 14.3435 1253 127.562 1254.64 467.437
2283 0 89.3306 14.7094 1314 127.363 1254.69 467.645
2284 0 91.5997 14.1376 1295 129.894 1254.02 462.926
2285 0 95.5158 14.7515 1409 128.963 1254.35 462.124
2286 0 97.4093 14.5366 1416 130.251 1254.88 459.791
2287 0 100.378 14.7343 1479 129.193 1254.41 461.123
2288 0 103.357 15.4319 1595 128.421 1253.47 460.288
2289 0 108.293 14.6823 1590 129.921 1253.76 459.384
2290 1 59.3424 12.1161 719 133.163 1254.64 484.313
2291 0 59.3424 12.0993 718 169.405 1255.64 484.223
2292 0 63.1748 12.6158 797 131.834 1253.84 482.147
2293 0 63.1748 12.5366 792 165.015 1251.83 482.168
2294 0 69.2248 13.6367 944 129.735 1254.7 480.658
2295 0 71.1996 14.1714 1009 127.587 1254.63 480.922
2296 0 72.2379 13.9539 1008 128.344 1254.88 479.683
2297 0 76.2535 14.1239 1077 126.949 1254.91 478.543
2298 0 78.2187 12.9637 1014 129.662 1254.38 478.135
2299 0 80.1201 14.1662 1135 128.141 1253.43 474.682
2300 0 85.2162 14.8329 1264 125.669 1254.14 470.92
2301 0 84.2081 13.2291 1114 130.689 1253.96 472.101
2302 0 88.2108 14.0686 1241 128.681 1254.44 470.757
2303 0 90.325 13.6507 1233 130.62 1253.8 469.042
2304 0 94.3844 13.8582 1308 129.935 1253.77 466.829
2305 0 95.2605 14.0457 1338 130.068 1254.39 465.982
2306 0 100.312 14.4051 1445 128.176 1253.73 466.037
2307 0 101.137 12.6561 1280 128.641 1254.37 466.243
2308 0 106.164 14.7414 1565 123.672 1254.22 463.935
2309 0 109.097 13.5659 1480 127.918 1253.82 463.117
2310 0 112.15 13.8743 1556 127.473 1253.93 461.041
2311 0 116.157 13.4646 1564 128.59 1254.09 459.576
2312 0 121.181 13.9791 1694 128.394 1253.99 457.063
2313 0 124.201 13.8163 1716 128.413 1254.25 454.965
2314 0 129.374 13.7663 1781 127.981 1254.73 453.516
2315 0 128.365 13.0721 1678 167.59 1253.65 451.866
2316 0 140.244 15.0666 2113 123.212 1254.43 445.816
2317 1 73.081 12.3425 902 120.058 1254.79 478.554
2318 0 75.0681 13.2946 998 119.241 1255.08 475.616
2319 0 76.0251 13.2193 1005 121.362 1254.74 477.706
2320 0 79.074 12.5452 992 123.276 1255 477.395
2321 0 79.056 12.624 998 122.652 1254.84 476.349
2322 0 83.0501 13.3534 1109 121.676 1254.5 473.977
2323 0 84.0962 12.5451 1055 125.22 1254.92 474.702
2324 0 87.0971 12.4114 1081 129.966 1255.39 472.726
2325 0 89.1049 13.3438 1189 129.355 1254.52 470.76
2326 0 93.0863 13.1491 1224 131.437 1254.69 468.19
2327 0 97.202 14.3207 1392 129.726 1254.86 464.771
2328 0 99.1652 13.2002 1309 132.463 1255.19 466.1
2329 0 104.147 13.9515 1453 130.005 1254.78 462.632
2330 0 106.226 13.2641 1409 128.997 1254.77 463.429
2331 0 110.152 12.8096 1411 130.797 1255.28 459.559
2332 0 113.122 12.0577 1364 129.733 1254.45 460.071
2333 0 116.121 11.9013 1382 129.323 1254.58 455.3
2334 1 50.0401 11.7106 586 120.613 1254.61 487.497
2335 0 52.0212 12.6487 658 119.008 1253.93 484.988
2336 0 55.1182 12.446 686 120.21 1254.52 483.137
2337 0 53.0408 11.0292 585 116.535 1256.02 485.848
2338 0 56.0527 11.5427 647 116.49 1255.95 483.58
2339 0 57.0604 11.8471 676 116.26 1256.19 481.213
2340 0 60.0464 11.691 702 116.823 1256.08 480.073
2341 0 61.0189 11.4063 696 118.184 1255.47 479.246
2342 0 63.0368 11.3584 716 117.559 1256.13 478.039
2343 0 65.0339 11.7631 765 116.931 1256.21 475.634
2344 0 68.0996 12.6432 861 114.642 1256.59 474.452
2345 0 70.0733 11.9732 839 116.33 1256.14 473.868
2346 0 72.0876 11.9854 864 117.201 1256.03 471.623
2347 0 76.0752 12.0802 919 115.827 1255.73 470.376
2348 0 79.2819 12.5375 994 118.661 1255.76 466.632
2349 0 84.2653 14.1339 1191 117.633 1255.45 459.564
2350 0 86.3118 13.5439 1169 119.986 1256.4 460.56
2351 0 87.1341 13.6342 1188 120.442 1256.76 460.572
2352 0 89.155 12.6297 1126 123.025 1256.76 460.154
2353 1 48.0714 12.0446 579 117.851 1257.79 480.772
2354 0 48.0926 11.166 537 120.855 1257.34 479.387
2355 0 49.0987 12.2406 601 110.421 1258.53 480.038
2356 0 48.0277 11.306 543 115.468 1259.08 479.02
2357 0 50.0386 11.711 586 116.08 1258.56 477.466
2358 0 51.0301 10.386 530 119.368 1259.17 478.813
2359 0 55.0635 11.9498 658 114.672 1260 477.881
2360 0 54.1064 10.0543 544 120.66 1259.62 477.105
2361 0 57.0497 12.5855 718 115.971 1258.97 473.852
2362 0 60.0723 12.1021 727 116.081 1258.8 475.037
2363 0 60.0738 11.9853 720 117.932 1259 473.738
2364 0 65.0886 12.7365 829 115.18 1259.28 471.975
2365 0 65.1104 12.2407 797 115.148 1259.06 471.797
2366 0 65.1104 12.164 792 152.696 1259.05 471.856
2367 0 69.1255 12.3688 855 114.751 1259.48 467.811
2368 0 72.1497 13.0146 939 111.441 1259.11 466.382
2369 0 75.2063 12.4857 939 113.821 1258.93 466.866
2370 0 77.1105 12.6442 975 114.725 1258.88 466.175
2371 0 80.2008 13.0173 1044 113.325 1259.34 466.438
2372 0 82.3033 13.0493 1074 115.607 1259.17 463.385
2373 0 85.2073 13.52 1152 118.4 1259.08 462.009
2374 0 88.2052 14.591 1287 117.255 1259.22 459.831
2375 1 50.0547 10.5884 530 118.053 1257.76 478.017
2376 0 52.225 11.6419 608 116.482 1259.43 476.561
2377 0 55.3671 12.5345 694 117.834 1259.23 473.02
2378 0 58.311 13.2737 774 113.673 1260.2 471.646
2379 0 57.2765 12.2214 700 118.22 1260.56 472.991
2380 0 58.252 13.2699 773 115.37 1260.32 470.374
2381 0 61.1125 13.5161 826 113.585 1260.07 470.768
2382 0 63.1031 13.9137 878 110.63 1260.82 472.391
2383 0 65.0319 13.9316 906 110.924 1260.71 468.938
2384 0 63.1001 11.8066 745 117.22 1261.1 468.427
2385 0 68.0766 13.0735 890 112.489 1260.8 469.022
2386 0 70.0649 13.0879 917 111.942 1260.65 468.315
2387 0 72.0365 13.0351 939 112.564 1260.89 466.937
2388 0 74.0632 13.1239 972 111.667 1260.91 466.244
2389 0 75.1527 13.4127 1008 111.974 1260.53 463.173
2390 0 80.0757 13.8619 1110 109.577 1260.58 463.389
2391 0 79.0682 12.6094 997 113.518 1261.02 460.919
2392 0 82.1297 12.2246 1004 114.487 1260.82 459.752
2393 0 86.1339 14.431 1243 109.566 1259.73 457.801
2394 0 85.132 13.6377 1161 145.778 1258.7 456.345
2395 0 89.1891 12.9724 1157 112.985 1259.47 457.013
2396 0 94.2095 12.6845 1195 113.053 1259.29 455.095
2397 0 99.3177 14.1163 1402 110.177 1259.56 453.73
2398 0 98.2194 13.816 1357 112.06 1258.72 449.595
2399 0 105.311 13.028 1372 111.754 1258.6 452.007
2400 1 54.1979 11.5134 624 111.822 1259.09 473.288
2401 0 57.3151 12.3877 710 110.782 1259.28 472.172
2402 0 59.2459 12.3384 731 111.941 1259.57 470.975
2403 0 62.2381 14.6695 913 105.795 1259.3 471.057
2404 0 61.3573 12.305 755 111.809 1258.54 471.517
2405 0 65.2402 13.3813 873 110.08 1258.88 467.887
2406 0 68.2189 13.6619 932 109.57 1258.89 467.03
2407 0 69.2124 12.8734 891 112.813 1259.58 466.432
2408 0 74.2552 14.5579 1081 107.775 1259.44 465.36
2409 0 72.1594 13.387 966 113.286 1258.83 462.983
2410 0 77.2273 14.7487 1139 109.345 1259.4 463.273
2411 0 78.2478 14.633 1145 111.486 1258.96 460.339
2412 0 81.2852 12.7822 1039 116.149 1259.18 460.372
2413 0 83.19 12.3092 1024 116.78 1259.29 461.476
2414 0 86.1907 14.7 1267 112.412 1258.64 456.199
2415 0 88.1928 14.4003 1270 113.514 1258.5 455.521
2416 0 89.1842 13.388 1194 116.75 1258.21 455.44
2417 0 93.2224 14.4922 1351 113.526 1258.11 452.386
2418 0 96.3318 13.63 1313 114.659 1258.36 452.328
2419 0 101.317 14.1634 1435 113.78 1258.9 450.422
2420 1 54.205 11.4934 623 113.433 1259.3 474.947
2421 0 56.1732 11.2153 630 111.946 1259.88 473.165
2422 0 57.129 12.6556 723 103.976 1258.88 460.613
2423 0 58.1097 11.6332 676 104.803 1258.17 471.178
2424 0 59.2272 11.515 682 105.056 1258.41 473.138
2425 0 61.0588 11.8411 723 105.526 1258.15 471.053
2426 0 65.0893 12.3676 805 102.963 1258.8 470.352
2427 0 66.1157 12.0395 796 104.03 1258.45 469.109
2428 0 68.0913 11.514 784 105.029 1258.73 467.334
2429 0 71.064 12.1158 861 103.237 1258.65 467.721
2430 0 72.0962 11.0131 794 106.087 1258.32 466.131
2431 0 75.1029 10.9982 826 106.322 1258.61 464.645
2432 0 79.1173 13.0313 1031 101.8 1258 461.803
2433 0 80.131 12.0553 966 104.4 1259.81 462.9
2434 0 84.1588 13.0586 1099 103.707 1259.56 459.514
2435 0 88.2149 13.1044 1156 103.16 1259.01 460.632
2436 0 92.129 13.9912 1289 102.17 1259.65 458.552
2437 0 92.1519 12.7615 1176 108.59 1259.69 457.115
2438 0 97.1977 13.4983 1312 108.322 1259.58 456.393
2439 0 99.1239 13.589 1347 109 1259.44 454.403
2440 0 99.1876 12.8443 1274 113.193 1259.22 450.487
2441 1 55.019 10.8144 595 111.444 1260.24 476.215
2442 0 58.0215 11.9956 696 105.213 1260.16 475.871
2443 0 59.1097 12.1977 721 106.538 1260.32 473.165
2444 0 58.0651 11.3149 657 110.116 1260.32 474.049
2445 0 64.0532 13.2702 850 104.975 1259.88 472.799
2446 0 63.0526 13.687 863 106.468 1260.05 470.951
2447 0 65.0631 12.3726 805 110.398 1259.89 469.914
2448 0 67.1558 13.3868 899 107.98 1260.17 469.771
2449 0 69.0869 13.2008 912 109.644 1259.89 468.202
2450 0 70.0967 12.4114 870 111.115 1259.89 467.539
2451 0 72.0592 12.6146 909 112.548 1259.43 467.186
2452 0 76.162 12.8673 980 112.643 1259.45 465.896
2453 0 80.1681 15.3552 1231 110.194 1259.82 462.983
2454 0 81.1848 13.4015 1088 115.646 1259.75 461.95
2455 0 84.1454 13.3222 1121 116.213 1260.51 461.778
2456 0 87.1067 14.2813 1244 114.443 1259.69 457.152
2457 0 90.141 13.1683 1187 117.588 1259.61 458.977
2458 0 93.1573 15.243 1420 112.264 1258.98 456.258
2459 0 96.2817 13.6578 1315 118.84 1258.28 453.825
2460 0 98.1961 14.1554 1390 118.436 1257.83 450.59
2461 0 100.253 12.9174 1295 121.768 1258.39 453.241
2462 0 104.372 14.2376 1486 118.962 1258.36 450.581
2463 0 104.345 14.3083 1493 149.041 1258.35 450.634
2464 0 111.31 13.8083 1537 117.966 1258.84 443.943
2465 0 111.116 12.1764 1353 110.837 1259.54 441.803
2466 1 57.0609 9.98933 570 107.561 1260.13 467.365
2467 0 56.0766 9.61185 539 108.673 1260.06 465.584
2468 0 63.0613 13.1301 828 101.697 1258.81 466.842
2469 0 64.1165 10.2626 658 104.825 1260.1 464.916
2470 0 65.0482 10.8689 707 104.781 1260.02 462.692
2471 0 68.066 10.4898 714 103.829 1259.76 461.86
2472 0 70.1216 12.1361 851 100.049 1259.56 461.354
2473 0 73.0283 10.7766 787 102.804 1259.86 459.766
2474 0 76.0802 12.6708 964 99.9803 1259.2 457.142
2475 0 79.1927 12.236 969 100.189 1258.85 457.135
2476 0 83.0815 11.5068 956 102.241 1259.38 454.617
2477 0 84.0399 12.0062 1009 103.338 1259.01 451.248
2478 0 87.1144 10.7789 939 107.219 1258.61 449.612
2479 0 93.1188 13.0586 1216 102.83 1258.76 449.673
2480 1 46.0692 10.0501 463 98.5011 1260.44 467.205
2481 0 51.0241 10.6616 544 100.322 1260.32 466.436
2482 0 49.0346 10.5028 515 95.1786 1260.2 469.786
2483 0 54.091 9.68738 524 95.9084 1260.41 469.261
2484 0 55.0412 9.62916 530 98.5868 1260.05 465.84
2485 0 57.0819 10.1959 582 96.9141 1259.85 465.077
2486 0 59.1098 10.6581 630 96.9095 1260.19 463.797
2487 0 59.014 12.2513 723 95.2669 1259.83 462.472
2488 0 61.0427 10.6483 650 98.4908 1259.78 461.111
2489 0 64.1147 10.8555 696 97.8549 1259.45 461.418
2490 0 66.1448 9.82692 650 100.605 1259.54 460.448
2491 0 69.0608 10.7152 740 99.6595 1259.96 458.472
2492 0 69.1253 10.1121 699 101.804 1260.54 458.585
2493 0 73.0408 10.7611 786 100.677 1260.13 456.148
2494 0 76.1291 11.7695 896 98.9453 1259.68 458.075
2495 0 78.1741 11.4616 896 104.183 1259.63 452.892
2496 0 79.0756 10.8377 857 109.536 1258.97 450.576
2497 0 85.0881 12.634 1075 109.796 1258.48 451.936
2498 1 49.0801 11.145 547 111.23 1258.86 479.073
2499 0 51.0381 11.5992 592 110.576 1258.62 478.375
2500 0 52.0624 13.0228 678 107.659 1258.96 472.478
2501 0 52.0592 13.9649 727 100.36 1259.16 476.604
2502 0 54.0155 13.1629 711 103.716 1258.11 475.859
2503 0 51.0567 11.2228 573 112.353 1258.4 475.632
2504 0 56.1234 12.4725 700 107.266 1258.54 474.226
2505 0 57.0735 12.7029 725 108.223 1258.65 474.121
2506 0 59.0386 12.2632 724 110.492 1259.08 472.348
2507 0 61.0867 13.3417 815 107.544 1258.73 472.427
2508 0 62.065 13.8242 858 108.076 1258.87 469.632
2509 0 64.0535 13.2858 851 109.383 1258.97 469.232
2510 0 65.0685 13.0478 849 110.986 1258.98 470.014
2511 0 68.0404 12.8306 873 110.863 1259.08 470.552
2512 0 70.06 12.7319 892 112.543 1258.85 468.863
2513 0 71.0916 11.8579 843 115.607 1258.75 466.858
2514 0 71.0266 12.5024 888 115.42 1259.38 464.954
2515 0 76.0212 12.8517 977 113.194 1259.2 464.834
2516 0 76.1123 12.8363 977 114.002 1258.81 464.256
2517 0 80.0506 12.7045 1017 112.642 1258.27 463.474
2518 0 83.1907 12.3692 1029 113.555 1258.97 462.064
2519 0 85.0449 13.0637 1111 114.282 1258.95 459.9
2520 0 89.0807 13.2127 1177 114.89 1259.01 459.896
2521 1 49.0288 12.6252 619 119.784 1258.43 476.089
2522 0 50.0866 12.4185 622 122.608 1258.6 475.119
2523 0 53.0882 13.2986 706 116.898 1258.61 473.13
2524 0 53.0938 12.412 659 113.115 1259.44 471.527
2525 0 53.095 12.4682 662 139.131 1260.48 471.663
2526 0 55.0527 12.0793 665 115.986 1259.31 469.886
2527 0 57.0851 12.4376 710 114.766 1259.7 468.31
2528 0 59.1441 13.391 792 111.938 1259.6 467.893
2529 0 59.1572 13.0162 770 112.948 1260.26 468.466
2530 0 64.1137 12.977 832 111.983 1259.62 466.381
2531 0 64.0514 12.209 782 114.934 1259.67 464.591
2532 0 66.1343 14.0169 927 111.835 1260.1 461.71
2533 0 70.2329 12.9427 909 113.206 1259.95 461.888
2534 0 70.1612 13.1697 924 113.887 1260.84 460.803
2535 0 71.1663 12.4216 884 117.736 1260.4 458.063
2536 0 76.2362 13.6681 1042 113.316 1260.11 457.258
2537 0 78.1139 14.1844 1108 112.584 1260.44 455.579
2538 0 82.199 13.4673 1107 113.875 1260.05 454.49
2539 0 84.3601 13.8454 1168 113.658 1260 451.926
2540 0 88.3549 14.8039 1308 110.668 1260.02 451.398
2541 0 89.193 13.0952 1168 116.08 1259.92 449.01
2542 1 47.1266 10.2914 485 114.955 1260.5 470.561
2543 0 49.0681 11.6165 570 111.96 1260.36 470.258
2544 0 50.0552 12.6061 631 109.011 1260.36 470.906
2545 0 53.0775 12.6419 671 111.31 1260.42 468.304
2546 0 53.0591 11.6097 616 113.873 1260.95 466.515
2547 0 57.0618 13.1086 748 108.36 1260.95 468.303
2548 0 60.0297 14.1763 851 104.893 1261.27 465.957
2549 0 59.0763 13.0848 773 109.724 1260.64 466.481
2550 0 59.0596 12.3773 731 113.618 1260.68 463.342
2551 0 62.1513 12.8718 800 111.961 1260.84 463.804
2552 0 64.196 12.9915 834 112.036 1261.02 465.151
2553 0 67.0489 12.6624 849 113.355 1260.88 463.025
2554 0 68.2516 12.8056 874 114.002 1260.83 460.358
2555 0 71.0727 13.2118 939 112.171 1261.39 461.809
2556 0 74.1974 14.4749 1074 110.551 1259.99 457.869
2557 0 75.1294 14.0824 1058 112.999 1260.24 457.372
2558 0 76.2186 13.5006 1029 115.546 1260.7 455.899
2559 0 80.2132 12.6413 1014 117.934 1260.28 453.026
2560 0 85.097 13.9958 1191 115.574 1260.66 453.112
2561 0 86.3049 14.1359 1220 122.504 1260.94 451.394
2562 0 87.1792 13.3518 1164 125.616 1260.11 448.978
2563 0 91.1668 14.5009 1322 123.98 1259.85 446.103
2564 0 96.1953 15.7284 1513 120.541 1259.73 446.199
2565 0 98.2145 16.4131 1612 120.329 1260.33 445.166
2566 0 100.22 13.9593 1399 127.437 1259.82 441.57
2567 0 105.058 15.144 1591 124.058 1259.63 437.031
2568 1 56.057 11.2386 630 127.21 1259.74 465.386
2569 0 60.0243 12.0618 724 127.86 1260.29 467.046
2570 0 63.0517 13.2907 838 122.461 1260.33 464.104
2571 0 63.0856 12.2849 775 124.797 1260.19 460.573
2572 0 66.0839 12.9381 855 126.996 1260.37 461.835
2573 0 71.0525 14.06 999 122.021 1260.48 460.824
2574 0 72.0418 13.7975 994 121.783 1260.51 457.574
2575 0 72.0895 13.3029 959 123.864 1260.41 454.417
2576 0 75.0894 12.585 945 125.26 1260.07 454.997
2577 0 78.1385 13.7576 1075 122.257 1260.01 452.506
2578 0 79.0854 13.7826 1090 122.864 1260.13 450.861
2579 0 80.0629 12.8149 1026 125.987 1259.87 449.214
2580 0 84.0652 13.549 1139 124.538 1260.14 447.725
2581 0 89.087 13.369 1191 124.333 1259.84 447.652
2582 0 88.0798 13.1131 1155 126.83 1259.94 444.042
2583 0 90.1525 13.8654 1250 125.602 1259.98 441.586
2584 0 96.1782 14.078 1354 122.719 1260.43 443.905
2585 0 100.125 14.9114 1493 120.254 1260.25 442.254
2586 0 102.245 13.7415 1405 123.369 1259.81 440.041
2587 0 107.162 14.324 1535 122.48 1259.9 438.505
2588 1 57.0658 11.4254 652 117.426 1260.08 463.219
2589 0 56.1277 10.3514 581 119.788 1260.07 463.093
2590 0 61.1576 12.2798 751 114.65 1260.2 464.487
2591 0 60.0274 11.628 698 126.342 1260.11 466.288
2592 0 63.0233 12.8048 807 123.652 1260.16 464.223
2593 0 66.1 12.466 824 123.057 1260.52 463.049
2594 0 71.0757 14.6041 1038 115.677 1260.37 462.532
2595 0 72.0424 13.964 1006 118.283 1260.3 462.956
2596 0 74.1188 12.9792 962 122.591 1259.87 459.708
2597 0 75.1942 13.4053 1008 122.604 1259.87 456.403
2598 0 78.0934 13.3814 1045 120.939 1259.64 457.423
2599 0 81.2719 14.0762 1144 118.556 1259.52 456.672
2600 0 83.1051 13.7416 1142 120.926 1259.87 455.047
2601 0 86.1586 13.243 1141 122.249 1260.15 454.496
2602 0 87.0563 13.2328 1152 124.161 1259.2 451.616
2603 0 91.1598 15.4344 1407 117.23 1259.67 451.942
2604 0 91.1278 13.0915 1193 126.526 1259.25 448.001
2605 0 95.2285 13.9664 1330 124.162 1259.43 447.857
2606 0 98.0996 13.8635 1360 125.5 1259.4 446.134
2607 0 100.109 13.8749 1389 126.441 1259.37 446.36
2608 0 105.13 14.0113 1473 128.762 1259.29 442.566
2609 0 106.114 14.164 1503 129.228 1259.83 441.361
2610 0 109.124 12.4995 1364 134.367 1259.65 440.044
2611 0 114.148 14.1221 1612 129.8 1259.59 438.155
2612 0 118.189 13.3853 1582 132.984 1259.68 433.888
2613 1 65.0463 10.9307 711 112.807 1259.3 461.049
2614 0 61.1925 8.46509 518 109.224 1260.59 456.201
2615 0 65.139 10.3624 675 103.828 1261.18 460.071
2616 0 70.081 10.8731 762 111.752 1262.03 464.364
2617 0 71.0528 10.8933 774 112.345 1261.13 463.061
2618 0 74.1419 10.5204 780 112.91 1261.69 462.259
2619 0 75.0486 11.326 850 112.92 1261.16 459.04
2620 0 80.1658 11.4138 915 111.199 1260.58 461.226
2621 0 82.3366 10.9307 900 114.366 1260.47 460.428
2622 0 87.1189 11.7311 1022 113.263 1260.29 457.947
2623 0 87.1189 11.7426 1023 129.433 1260.3 458.005
2624 0 92.1317 11.5378 1063 119.438 1258.53 455.359
2625 0 93.106 9.91344 923 123.47 1258.44 451.165
2626 0 99.1399 11.9931 1189 115.171 1258.72 452.374
2627 0 102.219 10.4579 1069 116.804 1259.22 451.538
2628 1 59.0805 10.1387 599 105.728 1259.25 473.255
2629 0 60.1159 12.0268 723 100.219 1258.88 471.628
2630 0 61.1257 11.6318 711 100.969 1258.94 471.536
2631 0 63.1475 11.2119 708 102.225 1258.61 469.754
2632 0 65.1196 11.8858 774 101.218 1259.09 469.187
2633 0 67.2872 10.314 694 104.121 1258.64 468.963
2634 0 70.1648 11.5158 808 100.504 1258.82 467.22
2635 0 74.2345 11.6523 865 100.417 1258.54 466.001
2636 0 75.1733 11.3471 853 102.382 1258.63 464.397
2637 0 78.0691 10.9646 856 102.59 1257.97 462.354
2638 0 80.0682 10.9781 879 101.719 1257.85 461.837
2639 0 84.3503 10.409 878 116.723 1258.52 462.738
2640 0 87.3247 10.0315 876 116.373 1258.64 459.538
2641 0 88.3115 9.96472 880 117.678 1259.11 457.595
2642 0 92.2862 9.81729 906 118.664 1258.93 454.564
2643 1 52.0222 8.84237 460 109.943 1259.77 477.72
2644 0 50.0369 8.79351 440 107.455 1259.05 476.918
2645 0 50.0383 8.79326 440 114.58 1259.06 476.811
2646 0 53.1543 8.35304 444 110.511 1256.74 477.318
2647 0 54.1936 8.87558 481 109.825 1257.32 477.245
2648 0 57.2376 10.0633 576 107.707 1257.26 474.88
2649 0 57.1335 10.0816 576 106.691 1257.15 478.443
2650 0 59.1211 9.70889 574 109.617 1257.09 475.152
2651 0 60.0908 10.9501 658 107.065 1257.7 474.12
2652 0 60.0763 8.87206 533 112.011 1257.08 474.876
2653 0 64.1151 9.48294 608 110.12 1256.75 467.877
2654 0 66.1034 10.1356 670 109.424 1257.17 471.528
2655 0 68.1153 9.63073 656 109.636 1257.69 473.277
2656 0 71.1658 10.1453 722 110.012 1258.46 469.373
2657 0 71.1505 9.96479 709 111.327 1258.09 469.702
2658 0 75.163 10.6302 799 110.086 1258.51 467.891
2659 0 78.1356 10.2258 799 111.627 1258.97 466.239
2660 0 82.2626 10.2841 846 111.489 1258.38 464.089
2661 0 84.1704 10.8352 912 111.022 1258.53 464.524
2662 0 87.1324 10.6734 930 113.197 1258.95 460.243
2663 1 46.0755 9.8968 456 115.404 1259.61 480.654
2664 0 49.1327 11.7641 578 109.832 1259.51 481.106
2665 0 50.0929 11.279 565 111.848 1259.86 480.381
2666 0 51.041 12.0099 613 110.307 1259.08 479.918
2667 0 51.0987 12.2704 627 112.206 1258.81 477.831
2668 0 55.0875 12.344 680 119.465 1259.51 473.404
2669 0 57.1027 11.7508 671 120.699 1259.3 474.392
2670 0 57.0726 13.1061 748 118.25 1259.95 473.425
2671 0 59.0962 13.8588 819 115.948 1259.82 473.667
2672 0 59.0313 12.3663 730 121.9 1259.99 472.149
2673 0 62.0647 13.4537 835 118.434 1259.02 472.028
2674 0 64.0822 13.9508 894 116.346 1260.12 471.385
2675 0 65.0745 13.4154 873 118.194 1259.19 472.017
2676 0 67.1564 13.6845 919 118.607 1259.56 470.336
2677 0 69.1391 12.9738 897 120.833 1259.35 469.545
2678 0 70.0496 13.6046 953 119.818 1259.47 469.712
2679 0 72.0411 14.1308 1018 119.56 1259.61 468.733
2680 0 76.1208 14.0172 1067 119.439 1259.07 467.298
2681 0 79.1102 14.9285 1181 117.439 1258.78 466.401
2682 0 79.0584 13.6608 1080 123.1 1259.25 465.039
2683 0 82.0898 14.6303 1201 120.231 1258.46 463.405
2684 0 84.0774 13.3448 1122 125.443 1259.23 463.119
2685 0 86.1312 13.6652 1177 125.104 1258.77 461.179
2686 0 89.1461 14.9866 1336 122.046 1258.47 460.915
2687 0 94.1859 14.9598 1409 123.809 1257.72 458.386
2688 0 96.3185 14.4417 1391 125.871 1258.08 456.552
2689 0 99.2881 12.3781 1229 132.048 1258.04 455.032
2690 0 106.256 13.9945 1487 124.362 1258.29 455.434
2691 1 52.3942 12.6159 661 126.003 1259 478.604
2692 0 54.1918 13.526 733 116.696 1259.64 476.633
2693 0 53.0909 11.9418 634 114.278 1259.32 478.905
2694 0 55.1697 10.7305 592 115.498 1259.49 478.427
2695 0 58.0624 12.0215 698 114.11 1258.99 475.726
2696 0 60.0971 12.2469 736 112.664 1258.9 475.961
2697 0 63.1196 12.8486 811 110.768 1259.13 474.187
2698 0 65.1894 13.2844 866 109.952 1259.32 473.466
2699 0 65.113 12.6549 824 113.205 1259.34 471.512
2700 0 69.0627 13.0606 902 111.222 1259.82 470.455
2701 0 70.0752 12.3296 864 112.921 1259.23 469.694
2702 0 72.1947 11.9538 863 112.565 1259.49 466.623
2703 0 74.3927 11.8426 881 112.052 1258.58 465.544
2704 0 78.1257 12.2879 960 110.689 1259.3 466.642
2705 0 80.0438 12.3807 991 112.526 1259.02 464.903
2706 0 83.1941 12.7293 1059 115.561 1259.09 463.663
2707 0 85.1848 12.1266 1033 118.514 1259.1 462.624
2708 0 90.1428 13.2124 1191 115.69 1259.16 459.971
2709 1 49.0788 11.3491 557 117.803 1259.45 480.731
2710 0 50.0376 12.1309 607 108.695 1259.71 476.112
2711 0 54.1121 13.1024 709 108.887 1258.82 476.983
2712 0 56.0513 12.0961 678 109.389 1258.23 476.516
2713 0 56.017 11.8357 663 104.222 1259.86 474.306
2714 0 60.0629 12.7533 766 101.824 1259.75 471.976
2715 0 59.0591 10.7689 636 107.16 1259.56 472.841
2716 0 64.0459 11.4761 735 103.946 1259.58 470.658
2717 0 65.0886 11.9683 779 103.258 1260.56 469.542
2718 0 68.1149 11.51 784 103.768 1260.03 468.816
2719 0 69.0808 11.2188 775 105.175 1259.53 467.175
2720 0 73.1572 12.0152 879 101.72 1259.32 465.594
2721 0 75.181 13.0618 982 99.3931 1259.25 463.474
2722 0 79.1816 12.705 1006 100.179 1258.75 463.026
2723 0 80.1211 11.6698 935 103.017 1258.77 462.796
2724 0 83.1452 12.412 1032 103.188 1259.13 460.011
2725 0 88.1601 12.8743 1135 101.647 1258.97 460.455
2726 0 91.0741 12.8357 1169 100.894 1259.21 456.83
2727 1 50.0709 9.76615 489 104.515 1259.41 477.344
2728 0 52.152 10.6611 556 103.818 1258.84 474.741
2729 0 55.1601 12.2009 673 110.416 1257.93 474.401
2730 0 55.1979 12.6273 697 110.324 1260.29 474.383
2731 0 55.1979 12.6454 698 138.212 1261.27 474.285
2732 0 59.1105 12.6712 749 110.035 1259.09 473.029
2733 0 61.2751 13.1538 806 108.655 1259.1 472.283
2734 0 61.2014 12.3853 758 111.174 1259.28 472.053
2735 0 64.2377 13.1231 843 109.801 1258.83 468.567
2736 0 66.2839 12.4012 822 110.557 1258.77 468.004
2737 0 69.1958 12.5008 865 110.349 1258.46 466.066
2738 0 70.0782 13.328 934 103.949 1258.24 463.903
2739 0 72.2045 12.243 884 105.29 1258.93 464.41
2740 0 76.1417 12.5818 958 103.689 1258.51 464.722
2741 0 76.1695 11.3694 866 105.046 1259.57 465.208
2742 0 80.2101 12.0309 965 105.421 1259.09 461.113
2743 0 81.1635 13.0231 1057 113.48 1258.63 461.245
2744 0 85.2281 13.9977 1193 110.716 1259.15 463.535
2745 0 89.2064 14.1694 1264 112.141 1259.22 457.302
2746 0 92.1628 13.921 1283 112.324 1259.64 458.048
2747 0 96.3259 14.181 1366 111.544 1259.52 454.266
2748 1 51.1942 11.6615 597 107.462 1260.72 476.144
2749 0 54.1403 13.4465 728 103.931 1260.23 474.315
2750 0 54.0806 12.167 658 106.378 1260.57 476.231
2751 0 55.0939 10.7816 594 109.897 1260.49 475.586
2752 0 58.1176 11.3563 660 108.577 1261 474.339
2753 0 59.133 11.6855 691 108.654 1260.57 473.478
2754 0 62.1474 13.5806 844 104.799 1260.86 471.239
2755 0 63.1084 11.8526 748 109.604 1260.57 470.68
2756 0 67.141 12.4216 834 107.468 1260.13 469.899
2757 0 69.2034 13.1641 911 106.11 1260.78 469.104
2758 0 70.1639 13.3972 940 106.017 1260.73 468.477
2759 0 72.1315 13.9052 1003 106.415 1260.66 466.236
2760 0 72.1486 11.2545 812 113.27 1260.23 466.034
2761 0 78.1353 14.8332 1159 103.417 1260.6 465.824
2762 0 81.1385 14.7156 1194 105.127 1260.64 462.4
2763 0 82.0632 13.3799 1098 109.4 1259.48 460.974
2764 0 84.1559 13.9503 1174 108.87 1259.34 461.766
2765 0 87.1264 12.522 1091 111.201 1259.67 457.899
2766 0 90.1576 13.1769 1188 109.424 1259.58 457.985
2767 0 94.0938 14.1986 1336 110.112 1259.23 457.37
2768 0 94.0938 13.7629 1295 155.507 1259.19 456.592
2769 0 99.1752 13.7837 1367 112.154 1259.07 455.921
2770 0 103.087 15.1717 1564 111.511 1258.72 451.782
2771 1 58.1385 12.625 734 115.173 1260.69 475.078
2772 0 58.0694 12.4334 722 113.95 1259.15 471.051
2773 0 59.1013 13.9252 823 106.277 1258.94 468.586
2774 0 63.0884 13.0135 821 101.486 1259.06 459.934
2775 0 66.0636 12.9269 854 100.419 1259.27 460.915
2776 0 65.0468 12.2527 797 103.721 1259.31 459.476
2777 0 68.1558 12.2073 832 102.606 1258.54 463.766
2778 0 67.11 11.1757 750 104.779 1259.05 462.613
2779 0 72.0921 12.9834 936 101.739 1258.74 459.863
2780 0 74.1984 12.3588 917 102.035 1258.92 460.868
2781 0 80.0453 12.3555 989 102.272 1258.52 459.627
2782 0 80.0454 11.2811 903 108.772 1258.56 457.439
2783 0 83.1503 12.1347 1009 109.637 1258.59 454.445
2784 0 84.0409 12.0418 1012 111.598 1258.11 452.933
2785 0 89.1415 12.1717 1085 110.937 1258.54 451.839
2786 0 93.0965 11.8909 1107 111.674 1257.88 451.266
2787 1 50.0612 11.0864 555 103.604 1258.97 473.888
2788 0 51.1512 10.0486 514 109.586 1260.12 474.981
2789 0 56.0904 14.3875 807 108.911 1258.57 474.274
2790 0 58.0565 13.3146 773 110.806 1258.48 474.366
2791 0 58.0918 12.9622 753 112.108 1257.97 474.696
2792 0 62.0526 13.5369 840 110.102 1258.04 471.426
2793 0 64.0517 12.8958 826 110.787 1257.85 471.614
2794 0 65.0826 12.7991 833 111.384 1258.56 470.711
2795 0 67.0828 12.9989 872 111.347 1258.75 469.804
2796 0 71.1563 13.393 953 109.682 1258.47 468.818
2797 0 72.0341 13.8407 997 108.93 1258.32 467.498
2798 0 76.1739 14.1912 1081 107.209 1258.29 465.684
2799 0 78.0605 13.1821 1029 110.149 1258.65 464.454
2800 0 80.1908 12.9566 1039 110.349 1258.47 463.336
2801 0 84.0891 12.5462 1055 110.578 1258.86 461.257
2802 0 86.0785 13.4761 1160 109.058 1258.84 459.196
2803 0 90.2238 13.9764 1261 106.852 1259 459.243
2804 0 92.1735 12.6284 1164 110.573 1258.97 457.864
2805 0 96.2535 13.7034 1319 107.755 1258.6 453.867
2806 1 51.2074 12.1467 622 106.963 1259.01 477.859
2807 0 53.2315 12.1545 647 108.218 1259.44 476.034
2808 0 54.1142 13.065 707 101.976 1259.24 476.646
2809 0 55.0974 12.5414 691 107.799 1260.15 475.106
2810 0 57.0713 13.2816 758 106.272 1260.01 474.555
2811 0 61.0451 12.7774 780 106.277 1259.31 473.517
2812 0 61.0455 12.8265 783 106.605 1259.66 472.262
2813 0 63.0856 12.6812 800 107.151 1259.84 472.119
2814 0 63.0307 12.7081 801 101.09 1258.82 468.768
2815 0 66.0492 12.415 820 101.333 1258.02 468.98
2816 0 69.1183 12.0373 832 101.626 1258.39 471.139
2817 0 71.0847 12.6047 896 101.75 1258.05 469.657
2818 0 71.0864 11.3524 807 105.408 1258.28 467.926
2819 0 74.0402 13.2226 979 102.456 1257.82 464.88
2820 0 77.0897 12.0639 930 104.726 1257.89 465.126
2821 0 81.1277 12.3879 1005 106.352 1257.86 464.005
2822 0 82.2615 12.752 1049 108.443 1258.12 462.977
2823 0 85.2455 12.6341 1077 110.754 1258.06 462.742
2824 0 88.115 13.8455 1220 110.334 1257.59 459.506
2825 0 90.2634 13.3277 1203 113.193 1257.6 458.587
2826 0 94.194 14.7355 1388 111.147 1257.77 453.132
2827 0 96.2445 13.9852 1346 112.169 1257.87 454.493
2828 0 99.1624 13.6039 1349 113.172 1258.2 451.408
2829 0 104.298 14.9475 1559 111.098 1258.5 442.679
2830 1 57.1477 11.654 666 113.949 1259.27 474.902
2831 0 60.2256 12.3203 742 113.137 1259.19 472.346
2832 0 64.2154 12.4425 799 111.876 1258.82 468.627
2833 0 67.2008 14.6129 982 109.72 1259.25 470.804
2834 0 68.3139 12.8378 877 114.258 1259.25 469.292
2835 0 71.179 13.3045 947 113.889 1259.26 467.474
2836 0 71.179 13.3185 948 161.162 1260.29 467.299
2837 0 76.0985 14.8229 1128 111.091 1259.01 466.986
2838 0 80.2535 14.0056 1124 112.623 1258.23 466.428
2839 0 82.275 14.014 1153 114.077 1258.37 462.913
2840 0 84.1911 14.8472 1250 112.33 1258.08 462.63
2841 0 86.4165 14.7541 1275 113.964 1257.88 458.604
2842 0 87.3604 13.1639 1150 119.363 1257.84 458.53
2843 0 92.5018 14.5078 1342 114.825 1257.69 456.051
2844 0 95.3792 14.3323 1367 115.066 1257.59 454.142
2845 0 96.131 13.6272 1310 114.453 1256.33 454.627
2846 0 102.169 13.7518 1405 110.764 1256.93 450.029
2847 0 103.218 13.2341 1366 112.634 1257.41 448.63
2848 0 105.277 13.2318 1393 111.987 1257.4 449.408
2849 0 109.255 13.5555 1481 111.897 1256.79 446.606
2850 0 113.196 13.2956 1505 112.595 1256.76 447.255
2851 0 116.191 13.7619 1599 114.754 1256.46 443.228
2852 1 64.1487 11.1148 713 109.934 1256.64 472.832
2853 0 68.2087 11.6994 798 108.396 1256.85 470.153
2854 0 71.0341 13.5428 962 104.012 1256.41 468.72
2855 0 74.1519 12.798 949 105.795 1256.05 467.919
2856 0 76.0689 12.3835 942 107.465 1256.62 466.055
2857 0 76.0919 11.7095 891 110.366 1256.82 464.52
2858 0 80.1342 12.1671 975 109.318 1256.38 464.048
2859 0 84.1162 12.5303 1054 108.314 1256.74 462.178
2860 0 88.0537 12.8899 1135 107.339 1256.27 460.494
2861 0 91.0919 12.9759 1182 107.327 1255.98 460.79
2862 0 94.1051 12.9324 1217 109.28 1256.12 457.703
2863 0 95.1366 11.9512 1137 111.53 1256.83 457.227
2864 0 98.0294 12.8737 1262 110.727 1256.13 455.54
2865 0 101.087 12.9987 1314 111.161 1255.94 454.887
2866 0 104.081 12.6632 1318 111.778 1255.92 455.632
2867 0 111.117 13.0313 1448 110.727 1256.11 452.981
2868 0 113.281 12.7647 1446 114.996 1256.78 446.561
2869 0 115.348 12.8134 1478 117.784 1257.74 439.447
2870 0 121.26 12.8649 1560 116.243 1256.44 443.489
2871 0 126.266 13.3765 1689 116.552 1257.65 438.976
2872 0 128.303 13.7955 1770 116.982 1256.93 435.264
2873 0 133.316 13.0517 1740 115.272 1257.66 430.969
2874 0 133.307 13.1876 1758 148.086 1258.66 430.94
2875 1 74.0952 10.2436 759 109.43 1258.98 466.19
2876 0 76.0866 11.8549 902 108.706 1259.03 462.586
2877 0 79.1618 12.2155 967 105.9 1259.15 460.697
2878 0 83.0957 12.5759 1045 107.24 1258.8 463.019
2879 0 85.2124 12.8972 1099 109.715 1258.43 460.437
2880 0 89.2025 12.8808 1149 117.057 1258.77 457.432
2881 0 91.128 12.8171 1168 118.631 1258.34 456.004
2882 0 95.2527 13.9629 1330 114.917 1258.23 456.61
2883 0 98.1486 13.5203 1327 116.335 1258.78 453.391
2884 0 102.292 13.8623 1418 115.701 1258.26 451.087
2885 0 106.131 13.8696 1472 114.408 1258.52 451.707
2886 0 108.191 13.1712 1425 117.442 1258.16 447.092
2887 0 110.238 13.4346 1481 117.924 1257.87 443.718
2888 0 115.345 14.0361 1619 116.84 1257.09 441.841
2889 0 118.391 12.8304 1519 120.137 1257.78 435.325
2890 0 124.337 13.6082 1692 116.966 1257.66 433.609
2891 1 67.182 10.9553 736 110.708 1256.61 465.429
2892 0 70.1563 12.0018 842 106.644 1257.84 461.64
2893 0 73.1641 11.235 822 102.961 1258.73 465.078
2894 0 75.0506 12.0585 905 100.861 1258.56 465.836
2895 0 75.0506 12.1785 914 121.872 1257.61 465.931
2896 0 79.1719 11.4308 905 102.651 1258.25 462.954
2897 0 84.1204 13.0646 1099 98.6269 1258.22 462.399
2898 0 85.0869 12.2228 1040 101.438 1258.51 461.76
2899 0 86.1988 10.7078 923 101.197 1257.82 454.625
2900 0 90.1515 11.6471 1050 99.6448 1258.21 455.393
2901 0 91.1921 11.0975 1012 102.105 1257.95 453.878
2902 0 96.2331 10.381 999 104.201 1257.19 452.57
2903 0 96.2127 10.5807 1018 105.873 1257.61 447.544
2904 0 99.1577 11.4363 1134 102.987 1257.97 451.877
2905 0 100.168 10.9616 1098 105.204 1257.57 449.6
2906 0 106.224 11.7299 1246 103.891 1257.77 449.299
2907 0 106.181 11.1413 1183 107.714 1257.71 443.352
2908 0 108.254 10.6509 1153 110.783 1257.65 443.509
2909 0 113.195 12.3327 1396 108.103 1257.63 443.495
2910 0 115.302 11.5869 1336 111.926 1257.61 443.046
2911 0 122.183 13.3406 1630 107.349 1257.61 442.545
2912 0 123.213 13.1642 1622 111.04 1257.38 441.8
2913 0 130.196 13.4566 1752 109.861 1257.68 438.216
2914 0 134.354 12.6829 1704 110.015 1257.51 436.249
2915 0 139.287 12.5281 1745 109.642 1257.98 437.728
2916 0 145.348 14.0696 2045 101.744 1258.42 427.296
2917 1 77.1893 10.8176 835 103.047 1258.98 460.652
2918 0 79.1949 12.425 984 102.121 1259.11 460.518
2919 0 81.1798 11.9242 968 99.3647 1258.67 458.535
2920 0 85.1213 12.8523 1094 97.6929 1257.86 457.646
2921 0 87.1267 12.3957 1080 101.292 1258.16 455.169
2922 0 90.2766 10.8445 979 103.671 1258.41 456.205
2923 0 94.1288 13.1097 1234 100.074 1258.96 453.105
2924 0 95.1058 11.9761 1139 103.589 1258.66 451.047
2925 0 98.1986 13.2079 1297 101.1 1258.44 451.421
2926 0 100.131 12.5235 1254 106.235 1257.98 446.809
2927 0 103.114 12.4716 1286 107.181 1258.09 445.213
2928 0 107.251 12.5686 1348 107.035 1257.91 443.591
2929 0 109.139 12.1863 1330 108.485 1257.57 444.532
2930 0 113.191 13.2872 1504 107.5 1257.42 442.096
2931 0 117.268 13.4478 1577 107.244 1257.54 439.268
2932 0 118.169 11.5089 1360 112.145 1257.26 436.744
2933 0 125.237 14.6602 1836 104.824 1257.43 436.274
2934 0 128.164 12.7727 1637 109.677 1257.82 433.189
2935 1 72.2658 11.6791 844 101.511 1258.58 463.308
2936 0 72.2578 11.6389 841 138.363 1258.59 463.291
2937 0 77.1552 9.941 767 101.725 1257.83 461.907
2938 0 80.2006 11.4214 916 99.3679 1257.7 457.379
2939 0 83.1288 11.3799 946 99.4725 1257.94 458.26
2940 0 87.161 12.1499 1059 98.5212 1258.26 457.568
2941 0 88.1774 10.9665 967 103.655 1258.03 452.709
2942 0 92.1794 12.7252 1173 100.864 1258.08 451.633
2943 0 94.1447 10.144 955 106.535 1257.7 450.96
2944 0 99.1646 12.6053 1250 101.43 1258.27 450.834
2945 0 98.1908 11.111 1091 107.117 1258.38 450.438
2946 0 105.156 11.5352 1213 107.611 1258.59 451.738
2947 0 107.257 11.2719 1209 109.036 1258.33 449.569
2948 0 110.211 11.9045 1312 109.462 1258.28 447.935
2949 0 113.23 11.7107 1326 110.999 1257.24 443.505
2950 0 118.339 12.4304 1471 109.322 1257.22 442.831
2951 0 121.26 12.0238 1458 110.425 1258.06 440.992
2952 0 124.26 10.8804 1352 110.615 1257.67 440.788
2953 0 128.22 9.71767 1246 111.689 1257.9 441.135
2954 0 133.274 12.1629 1621 107.694 1258 439.187
2955 1 71.1079 11.6865 831 100.126 1258.34 463.98
2956 0 72.2752 11.1795 808 101.698 1258.26 464.495
2957 0 77.1267 12.9398 998 100.808 1258.5 464.939
2958 0 78.1399 12.1449 949 105.056 1258.74 463.146
2959 0 78.1677 12.2045 954 106.904 1258.81 462.016
2960 0 83.2571 12.6356 1052 106.902 1259.07 459.457
2961 0 85.1897 12.6776 1080 108.883 1259.23 458.093
2962 0 89.1948 12.9716 1157 113.385 1259.37 456.097
2963 0 91.2449 13.0638 1192 95.6435 1259.26 453.461
2964 0 91.2449 13.0857 1194 152.042 1258.26 453.527
2965 0 97.2067 12.674 1232 117.504 1258.61 451.603
2966 0 98.2176 12.7879 1256 119.076 1257.97 450.121
2967 0 101.197 13.36 1352 119.021 1257.89 446.908
2968 0 104.172 13.3434 1390 119.678 1256.53 445.545
2969 0 105.178 12.7213 1338 122.596 1256.91 443.827
2970 0 110.203 14.0377 1547 119.117 1257.18 444.324
2971 0 112.385 11.9055 1338 123.012 1256.42 440.925
2972 0 117.574 13.3788 1573 117.823 1256.73 435.381
2973 0 121.43 12.1222 1472 121.031 1256.57 439.096
2974 0 127.671 14.0831 1798 119.585 1256.44 428.35
2975 1 72.0786 9.67 697 110.1 1255.89 461.178
2976 0 72.2384 9.3579 676 110.602 1257.78 463.197
2977 0 77.2772 10.9994 850 104.619 1257.88 466.031
2978 0 76.4088 10.7972 825 106.668 1257.49 464.173
2979 0 80.2078 10.9216 876 107.686 1257.29 464.568
2980 0 83.148 11.5336 959 108.966 1257.35 461.89
2981 0 86.157 11.5603 996 109.054 1257.44 462.894
2982 0 88.345 11.0363 975 112.142 1257.18 460.652
2983 0 88.328 11.5026 1016 114.49 1257.33 457.374
2984 0 91.4041 11.9141 1089 115.496 1256.84 456.486
2985 0 94.167 12.2442 1153 115.506 1257.02 455.574
2986 0 97.4447 12.9202 1259 115.411 1257.03 450.948
2987 0 101.436 13.0328 1322 116.052 1256.35 450.589
2988 0 105.402 12.9884 1369 116.081 1256.25 448.746
2989 0 105.429 12.321 1299 120.246 1256.39 446.545
2990 0 108.411 12.6647 1373 120.216 1256.18 443.468
2991 0 113.578 13.0219 1479 118.186 1256.63 442.836
2992 0 117.541 13.791 1621 116.019 1256.56 438.656
2993 0 120.518 13.5831 1637 116.654 1256.49 437.239
2994 0 123.425 13.0282 1608 117.545 1256.54 440.436
2995 0 127.76 13.6427 1743 116.38 1256.42 435.868
2996 0 132.669 14.2309 1888 114.968 1256.4 432.369
2997 0 134.69 12.8369 1729 118.947 1257.05 430.132
2998 0 139.64 13.3988 1871 117.803 1256.83 428.973
2999 0 142.506 13.438 1915 118.789 1256.82 424.807
3000 0 148.784 13.3818 1991 119.143 1256.36 424.619
3001 0 154.596 14.2565 2204 117.234 1256.77 421.121
3002 0 158.701 14.1209 2241 118.378 1256.3 420.647
3003 0 164.6 14.1252 2325 119 1256.6 416.514
3004 0 168.791 14.1891 2395 120.365 1256.39 413.864
3005 0 173.633 13.6956 2378 122.279 1256.81 409.424
3006 0 177.64 14.0509 2496 121.337 1256.67 405.682
3007 0 183.748 14.8845 2735 119.276 1256.56 403.415
3008 0 189.677 14.6829 2785 120.051 1255.77 402.924
3009 0 193.506 15.2915 2959 118.307 1256.36 397.977
3010 0 198.76 14.3742 2857 123.895 1256.07 396.759
3011 0 206.691 16.0384 3315 118.802 1256.55 390.507
3012 0 212.471 14.6984 3123 121.302 1256.71 390.417
3013 0 218.592 13.5 2951 122.746 1257.24 383.063
3014 0 226.35 15.2905 3461 115.569 1256.42 379.108
3015 0 233.447 13.2792 3100 120.46 1256.4 375.746
3016 1 178.252 13.0097 2319 117.082 1256.47 410.479
3017 0 184.251 13.6499 2515 118.052 1256.23 404.506
3018 0 189.21 13.2604 2509 120.643 1256.9 398.711
3019 0 192.259 12.7848 2458 122.93 1256.94 393.038
3020 0 201.223 12.5781 2531 122.56 1257.04 392.564
3021 0 209.344 13.3799 2801 121.351 1256.64 387.168
3022 0 215.376 12.8566 2769 122.982 1256.75 384.216
3023 0 227.39 13.5143 3073 120.451 1256.31 382.553
3024 0 232.423 12.9032 2999 122.01 1256.48 382.91
3025 1 173.33 13.356 2315 117.207 1256.7 407.382
3026 0 181.361 12.8142 2324 118.959 1256.34 404.738
3027 0 185.299 13.7615 2550 117.081 1256.7 401.485
3028 0 192.474 13.0095 2504 118.91 1257.43 403.378
3029 0 198.377 13.7365 2725 118.913 1257.03 396.372
3030 0 205.429 13.3282 2738 119.191 1256.85 395.361
3031 0 211.443 13.8666 2932 118.682 1256.75 390.553
3032 0 218.372 13.4541 2938 119.709 1256.5 386.935
3033 0 223.265 14.0237 3131 119.225 1256.46 380.173
3034 1 233.419 13.9192 3249 118.302 1256.25 376.174
3035 0 241.324 13.9149 3358 118.387 1256.59 374.566
3036 0 250.468 14.5169 3636 116.886 1256.1 371.889
3037 0 257.448 13.9756 3598 119.206 1256.6 361.779
3038 0 265.59 14.0969 3744 119.572 1256.44 361.737
3039 1 206.393 11.5217 2378 123.649 1257.01 390.333
3040 0 214.494 13.0726 2804 121.457 1256.96 387.05
3041 0 222.324 14.0246 3118 119.367 1256.93 381.158
3042 0 231.453 12.94 2995 121.696 1256.9 375.311
3043 0 240.579 14.5524 3501 119.829 1257.44 370.469
3044 0 249.519 14.4799 3613 119.529 1256.98 366.448
3045 1 259.599 13.0278 3382 120.279 1257.07 361.135
3046 0 264.496 13.2062 3493 115.724 1256.81 350.186
3047 0 274.414 13.9206 3820 116.853 1257.42 351.778
3048 0 276.561 15.248 4217 117.307 1257.45 347.432
3049 1 203.306 11.3917 2316 110.437 1257.42 385.923
3050 0 203.313 11.4798 2334 120.921 1257.74 386.299
3051 0 207.313 12.4305 2577 118.663 1257.26 387.191
3052 0 210.246 12.7137 2673 117.357 1257.12 381.6
3053 0 218.586 13.6331 2980 113.768 1257.79 379.809
3054 0 224.37 12.7958 2871 115.855 1257.53 374.989
3055 0 232.276 12.3216 2862 114.484 1257.65 378.566
3056 0 240.46 12.1766 2928 113.603 1257.1 373.531
3057 0 246.422 12.2676 3023 112.422 1257.79 363.806
3058 0 259.386 14.1488 3670 106.021 1257.18 362.15
3059 0 265.244 12.5469 3328 108.933 1256.81 361.208
3060 0 276.407 12.695 3509 108.102 1256.79 354.9
3061 0 285.309 12.9264 3688 108.51 1256.89 352.216
3062 0 293.445 12.8781 3779 111.029 1256.51 345.482
3063 1 60.1888 10.3508 623 86.7319 1257.9 473.152
3064 0 62.1794 11.2256 698 86.1977 1258.49 472.649
3065 0 61.018 10.3084 629 89.9793 1259.58 471.28
3066 0 62.057 9.47515 588 93.4167 1259.35 467.34
3067 0 67.0825 11.5678 776 90.6508 1259.2 467.684
3068 0 71.1053 12.3057 875 88.5006 1259.09 465.505
3069 0 72.0991 13.0376 940 88.3745 1259.82 465.202
3070 0 77.035 15.4605 1191 81.8598 1259.71 459.794
3071 0 74.0364 9.76547 723 98.361 1259.77 467.051
3072 0 77.064 12.3274 950 92.7926 1259.61 460.625
3073 0 76.0614 10.5573 803 99.274 1257.99 462.173
3074 0 79.0983 9.53244 754 103.798 1258.1 463.052
3075 0 77.1511 8.86572 684 106.268 1259 464.174
3076 0 81.1919 9.50834 772 105.654 1258.91 464.277
3077 0 83.1422 9.67017 804 106.499 1258.39 461.965
3078 0 87.0972 9.54107 831 107.969 1258.01 458.446
3079 1 50.1158 10.6753 535 108.17 1259.21 477.256
3080 0 54.4285 11.3911 620 105.787 1257.63 472.411
3081 0 53.2272 10.6149 565 109.735 1257.15 471.768
3082 0 54.1887 11.1831 606 112.576 1258.53 460.289
3083 0 56.1655 11.4127 641 112.824 1257.94 459.548
3084 0 58.2175 12.6766 738 110.249 1258.34 460.459
3085 0 60.2431 13.5451 816 107.783 1258.22 460.282
3086 0 62.1953 12.9753 807 109.524 1258.28 465.61
3087 0 61.2167 13.1173 803 153.332 1258.29 465.608
3088 0 64.3591 13.5179 870 110.875 1257.91 463.897
3089 0 65.2161 13.9076 907 110.431 1257.93 465.576
3090 0 66.0671 13.9101 919 111.696 1259.72 467.566
3091 0 68.0811 12.4264 846 115.021 1258.77 469.449
3092 0 70.182 13.7215 963 114.352 1258.83 465.925
3093 0 72.0593 14.613 1053 113.387 1258.87 466.526
3094 0 74.1804 14.8692 1103 112.971 1258.5 465.379
3095 0 74.0652 14.5548 1078 113.923 1258.7 467.448
3096 0 76.1027 14.7038 1119 114.996 1259.16 464.157
3097 0 79.1412 13.0021 1029 119.583 1259.58 463.916
3098 0 82.0825 14.1809 1164 116.844 1258.97 460.525
3099 0 83.1338 14.9398 1242 115.826 1258.37 460.761
3100 0 87.2355 15.0627 1314 115.947 1258.12 459.505
3101 0 87.1962 14.0603 1226 119.467 1257.93 459.318
3102 0 91.1307 14.2323 1297 118.864 1257.71 455.585
3103 0 92.1694 14.2998 1318 118.193 1257.76 454.499
3104 0 97.2464 15.3013 1488 113.933 1258.08 455.609
3105 1 53.1138 11.8802 631 117.954 1259.01 475.724
3106 0 54.1187 12.0661 653 117.208 1258.84 476.061
3107 0 57.1618 12.9982 743 113.98 1257.44 472.244
3108 0 57.0124 13.7339 783 114.373 1256.57 472.138
3109 0 60.112 13.6745 822 113.397 1256.84 472.325
3110 0 61.2114 14.5071 888 112.95 1257.5 470.655
3111 0 61.1677 14.4357 883 114.169 1257.19 470.095
3112 0 61.1149 13.3028 813 117.335 1257.55 470.074
3113 0 65.0937 13.8877 904 114.399 1257.27 471.112
3114 0 65.1883 12.9011 841 117.755 1258.12 470.521
3115 0 65.1928 12.8388 837 163.221 1259.11 470.462
3116 0 71.0979 13.3056 946 116.043 1257.69 466.516
3117 0 73.0766 13.6843 1000 115.844 1257.62 465.792
3118 0 72.0778 13.0692 942 164.682 1257.67 466.675
3119 0 76.1765 13.1668 1003 118.156 1257.59 462.966
3120 0 79.2283 15.2471 1208 113.426 1258.04 461.357
3121 0 81.214 14.0862 1144 116.218 1258.22 461.24
3122 0 84.3055 13.7476 1159 117.76 1257.79 458.668
3123 0 86.2158 14.5333 1253 116.442 1258.22 455.803
3124 0 88.1265 13.0835 1153 111.196 1258.33 456.46
3125 0 89.1181 12.994 1158 112.497 1258.2 456.175
3126 0 93.1389 13.904 1295 110.974 1258.46 453.3
3127 0 95.125 12.6465 1203 113.966 1258.53 456.833
3128 0 99.148 13.5555 1344 113.255 1257.88 452.33
3129 0 100.253 13.0769 1311 114.964 1257.68 450.593
3130 0 107.194 11.7731 1262 115.241 1257.63 453.148
3131 1 59.0826 11.8478 700 111.329 1257.94 471.986
3132 0 64.2471 13.4636 865 110.873 1258.75 466.513
3133 0 66.1525 12.7735 845 105.857 1258.26 467.978
3134 0 65.1348 12.9577 844 108.149 1258.69 466.178
3135 0 69.3016 12.9867 900 107.032 1259.29 465.09
3136 0 70.1885 11.4691 805 111.605 1258.85 465.834
3137 0 74.1921 12.6294 937 107.554 1258.44 464.417
3138 0 77.1386 13.7285 1059 106.41 1259.02 463.466
3139 0 80.1279 13.4785 1080 107.817 1258.53 463.231
3140 0 82.1396 14.1101 1159 107.357 1258.8 461.095
3141 0 84.1155 12.9108 1086 110.712 1259.29 461.138
3142 0 88.2182 12.8091 1130 111.153 1259.41 458.829
3143 0 92.3069 13.9968 1292 107.052 1258.85 459.582
3144 0 93.2738 13.1441 1226 110.705 1259.35 456.179
3145 0 97.5372 12.7644 1245 111.402 1259.61 455.907
3146 0 101.354 13.29 1347 111.929 1258.45 450.524
3147 1 54.2738 10.5576 573 108.855 1258.32 476.651
3148 0 56.2061 12.2762 690 106.52 1258.72 474.668
3149 0 57.3402 11.4928 659 107.392 1257.88 475.821
3150 0 61.1669 12.6376 773 105.846 1258.03 473.147
3151 0 62.1201 11.3168 703 109.617 1257.86 474.324
3152 0 65.223 12.9709 846 106.426 1258.12 470.014
3153 0 68.0991 13.0839 891 107.377 1258.19 471.061
3154 0 69.1742 12.9094 893 109.317 1258.66 468.251
3155 0 71.2506 13.6841 975 109.354 1258.53 462.66
3156 0 75.2444 12.7186 957 111.203 1258.7 462.289
3157 0 77.2714 13.6791 1057 109.551 1258.75 459.069
3158 0 79.3998 12.9345 1027 111.269 1258.73 459.13
3159 0 81.3452 12.9817 1056 110.689 1259.14 459.893
3160 0 84.1782 13.0675 1100 111.313 1258.41 457.086
3161 0 87.1776 12.2623 1069 113.287 1258.27 455.788
3162 0 88.5443 13.1911 1168 111.572 1258.36 455.725
3163 0 91.3999 12.1007 1106 113.37 1258.8 457.094
3164 0 95.4646 12.4968 1193 113.572 1258.54 451.881
3165 0 97.3141 12.1565 1183 114.297 1258.65 454.311
3166 0 100.415 13.6434 1370 111.88 1258.4 450.347
3167 0 103.335 11.8353 1223 115.12 1258.45 452.2
3168 0 105.383 12.3644 1303 114.376 1258.65 449.443
3169 0 108.341 12.3499 1338 114.682 1258.73 445.803
3170 0 113.586 12.3255 1400 114.713 1259.25 444.433
3171 0 117.436 13.088 1537 114.061 1258.24 441.658
3172 0 122.423 13.3799 1638 113.776 1258.9 439.723
3173 0 127.569 13.3418 1702 113.168 1258.29 436.427
3174 1 68.3429 10.857 742 109.809 1259.37 466.061
3175 0 70.1459 12.2602 860 110.116 1259.2 464.491
3176 0 75.3779 13.7441 1036 105.312 1259.88 465.432
3177 0 78.3702 11.7264 919 109.669 1258.94 463.004
3178 0 80.2214 12.6275 1013 108.547 1258.63 463.088
3179 0 82.1248 13.3455 1096 108.348 1258.39 459.918
3180 0 85.2455 12.4464 1061 110.915 1258.49 458.082
3181 0 87.2595 11.8612 1035 112.323 1257.67 458.326
3182 0 93.2599 12.3311 1150 110.937 1258.03 455.71
3183 0 96.284 13.1694 1268 110.617 1257.43 455.074
3184 0 96.1471 12.6577 1217 113.721 1257.76 451.175
3185 0 101.302 13.3068 1348 112.577 1257.55 450.828
3186 0 104.309 13.1916 1376 113.805 1257.31 449.574
3187 0 106.259 13.8436 1471 114.374 1256.72 446.023
3188 0 109.486 14.0748 1541 115.184 1256.74 444.036
3189 0 113.54 13.6164 1546 116.103 1257.05 437.844
3190 0 114.439 12.7841 1463 117.949 1257.05 438.829
3191 0 121.443 14.27 1733 114.057 1256.79 437.046
3192 0 124.552 14.0744 1753 114.889 1256.92 435.175
3193 0 128.402 15.0075 1927 112.848 1256.77 431.273
3194 0 133.422 14.1955 1894 114.162 1256.87 429.72
3195 1 74.3436 10.169 756 110.467 1257.65 462.848
3196 0 77.4924 12.298 953 106.747 1257.15 461.057
3197 0 80.3305 11.8261 950 106.727 1257.36 461.139
3198 0 82.3972 11.6145 957 107.954 1257.44 459.97
3199 0 85.3421 11.6472 994 108.543 1257.81 459.276
3200 0 87.2444 11.6569 1017 109.66 1258.22 457.652
3201 0 91.2572 12.1086 1105 108.392 1257.93 457.611
3202 0 92.2326 11.9047 1098 109.753 1257.67 454.885
3203 0 95.1727 13.05 1242 106.48 1257.37 453.135
3204 0 98.2281 11.2697 1107 110.338 1257.63 452.836
3205 0 102.296 12.3465 1263 108.266 1257.64 451.288
3206 0 103.2 11.2694 1163 110.939 1257.75 449.313
3207 0 108.304 13.2406 1434 106.169 1257.13 445.365
3208 0 110.255 11.7002 1290 108.83 1258.22 447.578
3209 0 115.196 13.3599 1539 106.576 1257.92 443.838
3210 0 118.261 12.3624 1462 108.711 1257.67 443.686
3211 0 122.23 12.2146 1493 109.75 1257.52 439.843
3212 0 127.299 11.7598 1497 108.511 1256.66 436.128
3213 0 130.204 12.227 1592 107.756 1256.29 435.18
3214 0 131.109 11.2578 1476 110.394 1256.56 430.814
3215 0 137.13 13.0242 1786 106.843 1256.19 431.453
3216 0 142.203 11.9477 1699 109.254 1256.15 426.839
3217 0 146.165 12.6364 1847 107.159 1256.69 427.49
3218 0 152.276 13.4098 2042 106.473 1256.64 423.356
3219 0 154.152 11.9558 1843 111.3 1256.82 419.731
3220 0 162.326 11.6001 1883 112.195 1257.19 417.451
3221 1 93.2353 10.629 991 108.171 1256.55 454.55
3222 0 97.24 12.0938 1176 107.385 1257.04 451.111
3223 0 96.2346 10.8485 1044 106.602 1258 454.023
3224 0 100.204 11.4367 1146 105.456 1258.48 450.137
3225 0 101.196 10.7415 1087 107.589 1258.74 444.722
3226 0 106.258 11.7921 1253 104.321 1258.72 447.02
3227 0 110.206 12.3406 1360 104.407 1259.31 446.69
3228 0 112.182 11.9806 1344 105.285 1258.48 448.574
3229 0 113.181 12.7583 1444 129.632 1257.4 446.36
3230 0 116.156 11.1918 1300 111.222 1258.73 437.545
3231 0 120.28 11.3485 1365 109.737 1258.4 438.297
3232 0 128.173 11.0554 1417 107.864 1258.21 437.725
3233 0 130.274 11.4298 1489 107.736 1258.57 436.259
3234 0 136.227 12.2517 1669 107.462 1258.38 432.475
3235 0 140.229 10.6041 1487 111.51 1258.52 434.081
3236 1 82.0612 10.4069 854 99.2471 1258.12 459.345
3237 0 86.1175 10.0909 869 100.389 1258.52 457.383
3238 0 88.2367 11.4238 1008 98.9881 1258.61 456.454
3239 0 90.2138 10.4973 947 101.788 1258.83 455.671
3240 0 95.1922 11.1039 1057 100.5 1258.7 457.351
3241 0 97.1653 11.3209 1100 102.906 1258.65 453.788
3242 0 101.229 11.6073 1175 104.068 1258.21 450.449
3243 0 105.174 12.0087 1263 105.735 1257.64 450.31
3244 0 106.272 12.3363 1311 109.426 1258.01 447.506
3245 0 106.272 12.421 1320 146.054 1259.01 447.574
3246 0 115.294 13.5307 1560 109.052 1258.36 446.069
3247 0 115.126 13.4635 1550 111.804 1258.03 444.139
3248 0 119.226 12.8747 1535 113.607 1257.89 440.66
3249 0 122.36 13.2396 1620 114.308 1257.91 440.174
3250 0 126.335 14.1212 1784 113.335 1257.61 439.26
3251 0 127.455 12.4593 1588 118.104 1257.98 438.086
3252 0 127.455 12.4436 1586 162.504 1257.98 438.038
3253 0 135.171 12.9688 1753 116.48 1258.32 428.444
3254 0 141.213 13.0937 1849 115.133 1258.62 432.014
3255 0 143.288 12.3806 1774 117.333 1258.46 428.287
3256 0 149.287 12.3453 1843 119.033 1258.38 425.405
3257 0 155.198 13.6986 2126 115.736 1258.1 423.475
3258 1 87.139 10.73 935 112.009 1259.1 462.403
3259 0 90.2214 12.1811 1099 112.895 1259.43 453.49
3260 0 89.047 10.7921 961 110.055 1257.85 451.659
3261 0 93.2477 11.0673 1032 111.521 1257.65 446.48
3262 0 97.1163 12.0577 1171 107.728 1257.6 449.283
3263 0 97.1531 11.1062 1079 110.551 1257.77 448.361
3264 0 103.112 11.0948 1144 109.455 1257.68 446.799
3265 0 105.222 11.9652 1259 110.033 1258.12 443.614
3266 0 107.237 10.8358 1162 112.986 1257.65 442.049
3267 0 113.114 12.1382 1373 109.477 1257.31 440.485
3268 0 115.107 12.2929 1415 110.828 1256.94 437.266
3269 0 118.261 11.0518 1307 112.48 1257.77 435.969
3270 0 119.213 11.0223 1314 114.322 1257.3 433.333
3271 0 125.201 11.9808 1500 114.309 1257.44 433.12
3272 0 130.107 13.0047 1692 113.928 1257.56 431.881
3273 0 136.12 13.5542 1845 112.979 1257.63 429.769
3274 0 137.296 12.7754 1754 114.906 1257.73 429.214
3275 0 141.19 11.3322 1600 117.717 1257.46 425.945
3276 0 148.312 11.8534 1758 115.499 1257.65 425.515
3277 0 152.167 12.3352 1877 114.771 1258.1 423.588
3278 0 157.323 11.8991 1872 115.385 1258.45 418.738
3279 0 164.247 11.9941 1970 114.634 1259.05 417.917
3280 0 171.315 11.3417 1943 116.031 1258.5 414.764
3281 0 177.438 12.2747 2178 115.298 1258.84 410.663
3282 1 100.248 11.4815 1151 112.39 1258.97 445.367
3283 0 102.342 13.3181 1363 107.61 1258.46 446.949
3284 0 108.192 13.5593 1467 107.814 1258.12 446.671
3285 0 109.182 12.0349 1314 112.339 1258.21 442.75
3286 0 114.293 13.1504 1503 108.732 1258.48 443.034
3287 0 118.29 13.2387 1566 108.513 1257.99 440.716
3288 0 122.283 12.7737 1562 108.42 1258.05 439.734
3289 0 124.229 12.7668 1586 108.533 1257.56 437.062
3290 0 128.287 12.2226 1568 109.45 1257.64 436.636
3291 0 131.183 12.4025 1627 104.612 1257.27 434.292
3292 0 136.188 12.9307 1761 104.492 1257.3 430.237
3293 0 140.151 11.7231 1643 107.127 1257.02 430.491
3294 0 145.408 13.3968 1948 103.523 1257.37 426.849
3295 0 150.229 12.5076 1879 106.705 1257.22 422.846
3296 0 154.201 12.0622 1860 108.297 1257.63 421.437
3297 0 157.219 11.8815 1868 110.109 1258 419.808
3298 0 165.184 12.8403 2121 109.21 1258.08 415.932
3299 0 170.198 14.1306 2405 107.816 1258.35 415.832
3300 0 177.151 13.5647 2403 114.149 1258.37 411.036
3301 0 180.265 12.8311 2313 117.018 1259.13 405.048
3302 0 188.339 12.9341 2436 117.291 1258.72 400.881
3303 0 194.269 13.5122 2625 116.649 1259.24 400.382
3304 0 200.353 12.9721 2599 117.474 1259.39 402.523
3305 0 205.434 13.0991 2691 117.696 1259.21 398.663
3306 0 210.367 11.6986 2461 121.154 1258.71 391.512
3307 0 219.222 14.1637 3105 115.968 1258.44 385.261
3308 0 227.339 12.6287 2871 118.425 1259.02 387.595
3309 0 233.36 12.7357 2972 118.156 1258.93 383.048
3310 1 58.0649 10.8672 631 97.9699 1258.57 472.628
3311 0 59.2193 10.0981 598 104.346 1258.49 469.619
3312 0 55.0248 9.37759 516 98.4651 1260.08 473.543
3313 0 59.0206 10.5048 620 98.0887 1260.18 471.061
3314 0 61.0663 9.87452 603 98.5572 1261.29 471.496
3315 0 64.0402 9.6658 619 99.7092 1259.68 471.128
3316 0 65.052 9.93052 646 99.6517 1259.96 471.525
3317 0 68.1166 11.0252 751 98.5166 1259.89 467.762
3318 0 70.0704 10.361 726 97.9298 1260.57 471.303
3319 0 71.0511 10.2321 727 101.162 1259.62 467.585
3320 0 70.0403 10.3655 726 102.391 1259.74 465.508
3321 0 75.0825 9.21653 692 104.403 1259.41 464.831
3322 0 77.106 8.36511 645 101.781 1258.82 458.485
3323 1 23.0164 6.21295 143 83.4056 1258.92 484.371
3324 0 22.0206 7.08426 156 83.1026 1259.24 484.16
3325 0 26.0738 8.82112 230 83.3565 1259.91 483.722
3326 0 30.0355 8.15702 245 97.4408 1261.04 487.641
3327 0 31.0038 10.6438 330 94.2909 1261.67 485.891
3328 0 31.0492 8.08394 251 100.968 1262.1 486.637
3329 0 33.009 10.6638 352 96.7443 1261.89 485.705
3330 0 32.0185 9.33835 299 99.8127 1260.86 485.15
3331 0 33.0145 8.96576 296 100.486 1260.89 484.149
3332 0 32.0159 9.58899 307 100.915 1259.78 485.824
3333 0 32.0398 7.77159 249 104.365 1259.11 484.61
3334 0 32.0147 9.52688 305 102.177 1259.65 484.777
3335 0 34.0111 10.7024 364 99.7528 1260.52 485.256
3336 0 35.0052 9.45573 331 101.16 1260.91 484.734
3337 0 34.056 8.8971 303 103.498 1259.9 486.073
3338 0 38.0611 9.51103 362 101.539 1259.6 484.909
3339 0 37.0128 9.48321 351 100.858 1260.29 485.538
3340 0 38.0533 10.8532 413 99.4625 1260.19 485.317
3341 0 40.0387 10.6897 428 100.577 1260.18 483.458
3342 0 39.0441 9.93748 388 103.438 1260.53 484.157
3343 0 39.0366 9.91378 387 104.109 1261.08 483.594
3344 0 39.0296 9.19815 359 106.125 1260.47 481.98
3345 0 41.116 11.3581 467 101.426 1257.69 480.518
3346 0 42.1226 10.2558 432 105.319 1257.17 477.315
3347 0 42.0547 10.3437 435 106.039 1257.02 476.048
3348 0 42.0582 10.2715 432 106.164 1256.87 475.463
3349 0 44.1035 11.0876 489 103.094 1257.2 476.068
3350 0 43.1219 10.5979 457 105.796 1257.76 476.063
3351 0 44.0545 10.5551 465 104.811 1258.82 476.166
3352 0 43.0692 9.82139 423 103.891 1260.5 482.884
3353 0 44.0291 10.0842 444 106.863 1260.49 478.655
3354 0 44.0615 11.2116 494 103.913 1260.24 482.249
3355 0 44.0768 9.32463 411 102.861 1257.94 474.973
3356 0 44.1023 10.9065 481 104.295 1257.61 477.582
3357 0 46.1129 11.6236 536 102.541 1258.29 478.526
3358 0 45.0376 10.569 476 104.477 1259.18 479.01
3359 0 47.0587 10.2213 481 104.22 1258.93 478.114
3360 0 47.0866 10.4276 491 105.314 1259.98 473.092
3361 0 49.191 10.8963 536 103.371 1259.76 473.688
3362 0 49.1226 9.2829 456 105.884 1260.3 474.789
3363 0 51.1203 8.31373 425 106.814 1260.08 475.176
3364 0 51.1213 9.03732 462 106.859 1259.79 471.846
3365 0 50.2053 8.82378 443 107.379 1259.97 472.474
3366 0 52.0794 9.56232 498 105.956 1259.63 470.759
3367 0 53.1329 10.3326 549 102.131 1259.44 474.202
3368 0 53.0496 8.04907 427 107.862 1258.45 466.433
3369 0 56.048 8.9923 504 103.994 1257.36 461.083
3370 0 55.0587 8.71797 480 103.91 1258.16 458.39
3371 0 56.1372 8.90676 500 105.604 1257.74 457.958
3372 0 58.1601 9.3191 542 103.935 1257.11 457.459
3373 0 56.1454 8.478 476 106.874 1257.03 458.296
3374 0 58.1729 9.52333 554 105.778 1257.07 456.848
3375 0 59.21 10.2179 605 104.537 1257.43 457.028
3376 0 58.2654 7.74044 451 108.659 1257.14 456.789
3377 0 61.2255 7.56221 463 110.184 1256.93 455.555
3378 0 61.2369 8.88354 544 107.851 1257.47 459.108
3379 0 61.2755 8.92689 547 108.062 1257.56 460.603
3380 0 63.2638 9.57893 606 106.345 1257.51 461.063
3381 0 63.1901 9.09952 575 105.937 1257.44 460.795
3382 1 20.0685 5.63073 113 100.912 1255.86 482.496
3383 0 19.0415 4.72653 90 100.522 1255.64 484.744
3384 0 26.1034 6.58918 172 98.0174 1255.61 483.564
3385 0 27.0509 5.61904 152 100.059 1257.43 485.368
3386 0 31.0392 8.24764 256 95.4336 1257.86 484.199
3387 0 31.0408 7.31295 227 98.163 1257.78 486.348
3388 0 33.0767 8.70704 288 82.5486 1257.93 483.194
3389 0 31.036 7.99072 248 100.31 1258.16 484.681
3390 0 35.081 9.66335 339 97.7906 1257.58 482.667
3391 0 34.0621 8.30836 283 101.223 1257.19 483.173
3392 0 33.022 8.17638 270 102.615 1257.09 479.296
3393 0 33.0202 8.20709 271 100.502 1258.03 479.269
3394 0 37.0435 8.5305 316 102.424 1257.82 482.905
3395 0 35.0287 9.67777 339 99.8407 1258.92 482.472
3396 0 37.0254 10.7224 397 96.9496 1258.61 480.217
3397 0 34.0221 8.55326 291 98.3093 1257.58 481.35
3398 0 33.013 7.5122 248 89.246 1258.67 476.887
3399 0 33.0072 6.39255 211 91.6446 1259.75 477.431
3400 1 92.1061 6.42737 592 111.328 1257.48 450.084
3401 0 94.1544 7.16908 675 105.375 1257.28 456.85
3402 0 95.2024 6.96411 663 106.163 1257.42 449.668
3403 0 98.2966 6.83645 672 106.796 1257.3 446.451
3404 0 99.3091 6.82717 678 105.413 1257.07 451.813
3405 0 97.4704 5.26314 513 112.115 1256.68 442.148
3406 0 101.541 6.37179 647 109.708 1256.79 445.232
