time division length width area intensity CMx CMy
0 0 69.0503 11.1078 767 104.451 1041.47 476.734
1 0 72.1103 10.3175 744 106.06 1040.85 476.868
2 0 74.1274 10.7922 800 104.082 1041.29 473.836
3 0 76.1358 10.1398 772 105.534 1040.49 474.856
4 0 76.1748 10.9354 833 118.556 1039.44 472.737
5 0 80.1007 10.8488 869 104.804 1041.75 471.287
6 0 83.1001 11.4079 948 103.803 1042.55 470.948
7 0 88.2409 10.834 956 102.757 1041.99 468.123
8 0 91.154 10.784 983 102.571 1042.2 465.486
9 0 89.2006 9.56271 853 104.476 1041.39 465.382
10 1 51.1318 10.4045 532 101.393 1041.79 487.273
11 0 54.0308 11.7526 635 106.206 1041.06 484.978
12 0 55.0588 11.1336 613 107.582 1043.51 484.633
13 0 56.0481 11.9005 667 105.576 1042.98 483.417
14 0 59.0923 11.169 660 106.479 1042.51 481.826
15 0 60.0646 11.6375 699 105.255 1042.31 483.11
16 0 62.0658 12.3578 767 105.189 1042.4 480.842
17 0 64.0387 11.4462 733 106.074 1042.07 479.872
18 0 65.0366 10.225 665 108.531 1042.77 481.705
19 0 68.2227 11.7849 804 106.345 1042.81 479.269
20 0 70.1106 12.737 893 104.558 1042.19 474.84
21 0 70.1106 12.8083 898 127.65 1042.16 474.792
22 0 74.1681 12.8627 954 104.232 1041.97 473.744
23 0 77.1416 12.0298 928 106.219 1042.11 474.906
24 0 79.0993 12.5033 989 105.987 1042.65 473.743
25 0 82.1655 13.2051 1085 104.675 1042.58 472.127
26 0 84.2254 12.7159 1071 106.582 1042.31 470.286
27 0 89.3868 13.6262 1218 103.621 1042.33 470.232
28 0 93.485 12.7507 1192 106.393 1042.18 467.905
29 0 94.2696 12.0505 1136 108.702 1043.12 465.834
30 0 98.194 13.7483 1350 106.059 1043.13 463.054
31 0 101.352 13.3988 1358 106.145 1042.94 461.789
32 1 52.1609 11.2536 587 98.3782 1043.75 487.116
33 0 53.2613 11.453 610 96.9098 1044.33 486.356
34 0 53.1481 11.4397 608 92.829 1043.79 486.771
35 0 55.0678 10.9864 605 91.7471 1043.18 484.625
36 0 57.1247 11.2561 643 90.986 1043.48 484.254
37 0 60.2091 12.4068 747 89.0977 1043.19 482.541
38 0 60.1777 11.5824 697 85.901 1044.15 479.321
39 0 62.2263 11.2814 702 86.8348 1043.77 476.16
40 0 64.0757 10.4252 668 88.3024 1044.22 476.025
41 0 66.2267 10.9774 727 87.293 1044.46 477.011
42 0 68.1985 12.7276 868 85.9147 1043.96 475.213
43 0 71.2756 10.6488 759 91.1304 1044.1 476.881
44 0 73.1268 13.1963 965 85.857 1044.03 476.442
45 0 76.2215 11.3485 865 90.6601 1043.83 474.073
46 0 78.2864 9.59298 751 93.0373 1044.06 471.534
47 0 78.1325 11.4037 891 91.6622 1043.77 471.859
48 0 81.1311 10.292 835 94.9234 1044.22 469.744
49 0 84.2557 10.3969 876 96.1769 1044.06 468.495
50 0 88.0598 11.9237 1050 94.9124 1043.25 465.579
51 0 91.1465 11.4321 1042 96.499 1043.85 463.237
52 0 96.2136 12.3995 1193 95.5499 1043.32 465.523
53 0 97.2373 10.788 1049 103.884 1043.42 461.12
54 1 48.1013 12.2658 590 92.1492 1043.65 487.927
55 0 51.0949 11.782 602 93.9668 1042.41 483.92
56 0 51.1325 12.3405 631 93.9873 1042.27 483.87
57 0 54.0301 12.1969 659 92.6677 1044.17 486.299
58 0 55.037 11.8647 653 93.9433 1043.85 485.836
59 0 56.0426 10.8132 606 95.3927 1044.08 486.168
60 0 57.056 10.7263 612 96.5964 1043.11 482.603
61 0 59.129 11.8893 703 94.495 1043.85 482.166
62 0 62.0418 11.6051 720 95.4514 1043.81 480.599
63 0 63.1156 11.5978 732 95.5861 1044.42 481.429
64 0 65.0792 11.8932 774 95.4251 1043.84 479.686
65 0 68.0779 12.4416 847 93.3377 1043.61 475.898
66 0 71.0793 12.6901 902 93.8869 1043.03 476.702
67 0 71.2115 12.498 890 97.1449 1043.76 474.688
68 0 74.1462 11.828 877 99.041 1043.69 474.575
69 0 76.163 12.3682 942 99.1698 1043.2 468.065
70 0 79.1706 10.6984 847 103.392 1043.95 471.581
71 0 82.206 12.0672 992 99.505 1043.12 472.815
72 0 86.1625 13.0219 1122 98.4403 1043.12 468.106
73 0 84.1611 12.1671 1024 131.084 1044.15 466.508
74 0 92.1447 11.3409 1045 101.6 1043.36 464.76
75 1 44.1321 12.5306 553 91.8662 1042.9 486.128
76 0 46.103 12.2769 566 92.1643 1043.27 487.178
77 0 47.0219 10.1867 479 93.9833 1043.52 490.106
78 0 47.0651 9.94368 468 94.4231 1043.03 486.998
79 0 49.0402 10.8075 530 92.8868 1043.21 488.511
80 0 49.0853 11.368 558 93.6774 1044.41 488.201
81 0 52.0905 12.4015 646 91.3189 1044.51 485.339
82 0 54.101 12.4582 674 90.8546 1044.26 485.042
83 0 55.062 10.8423 597 93.4171 1043.93 483.43
84 0 59.0487 10.2966 608 93.1316 1044.77 484.426
85 0 60.0627 12.3537 742 90.0485 1043.86 482.495
86 0 62.0928 12.6263 784 89.7883 1043.61 481.037
87 0 64.0461 13.0375 835 89.1988 1043.72 480.331
88 0 67.0774 11.9862 804 90.1318 1043.53 481.756
89 0 67.11 12.4721 837 91.4456 1044.05 480.523
90 0 68.0901 11.2204 764 94.1911 1044.09 478.88
91 0 71.2552 9.93611 708 97.2599 1044.09 472.732
92 0 76.2845 12.6631 966 90.5921 1043.27 472.684
93 0 76.1094 11.5492 879 93.8601 1042.76 470.474
94 0 79.0831 11.6586 922 93.9685 1043.48 472.449
95 0 83.0882 12.4085 1031 93.0291 1042.48 469.111
96 0 85.192 12.1021 1031 93.6799 1043.19 469.477
97 0 88.1324 11.9479 1053 94.3248 1043.63 471.802
98 0 90.155 11.1142 1002 96.8333 1043.6 467.828
99 1 50.142 10.6298 533 89.6492 1042.92 487.066
100 0 49.1876 9.59591 472 88.8136 1042.9 488.763
101 0 53.0387 12.2175 648 84.946 1043.38 487.767
102 0 53.217 11.6128 618 83.8657 1043.17 487.277
103 0 54.2529 11.1515 605 84.995 1043.27 487.22
104 0 56.0504 12.7564 715 82.7049 1043.4 486.448
105 0 57.1185 11.0822 633 86.2496 1042.93 484.276
106 0 59.0477 12.8709 760 83.8053 1042.95 484.209
107 0 61.1419 12.6591 774 86.1537 1042.64 481.832
108 0 61.064 13.5104 825 85.6618 1043.03 482.173
109 0 65.0871 13.2284 861 86.4657 1042.41 480.017
110 0 65.1036 13.8241 900 86.4233 1042.91 480.29
111 0 67.0489 12.5878 844 88.7867 1042.02 480.944
112 0 69.1096 12.907 892 89.7287 1042.53 477.228
113 0 69.0523 12.0488 832 93.0649 1041.43 476.703
114 0 71.0378 10.7689 765 95.5712 1041.4 480.186
115 0 73.0618 11.7161 856 94.9089 1041.4 477.491
116 0 77.0746 11.3007 871 96.0356 1041.37 475.576
117 0 79.1567 11.5467 914 96.7888 1041.91 472.908
118 0 80.0782 10.8019 865 99.2775 1041.97 472.379
119 0 85.1088 10.8919 927 99.4186 1041.91 469.498
120 0 88.2185 11.8229 1043 98.0786 1041.99 469.156
121 0 90.2451 11.1253 1004 100.695 1042.09 462.06
122 1 47.0509 10.6905 503 98.6799 1042.22 486.252
123 0 48.0656 10.1944 490 91.9347 1042.49 485.149
124 0 47.0415 9.14087 430 87.9395 1041.46 481.44
125 0 52.1384 10.0502 524 82.75 1042.28 483.195
126 0 52.0443 10.2221 532 84.0376 1041.64 481.455
127 0 54.0898 11.0187 596 92.9866 1041.41 486.941
128 0 59.0842 11.9491 706 89.9065 1042.11 486.092
129 0 59.042 11.6866 690 91.5739 1041.03 484.839
130 0 60.0761 11.0527 664 93.375 1041.83 481.643
131 0 63.0555 10.1181 638 93.8182 1041.82 484.15
132 0 65.0589 10.6212 691 95.0434 1041.44 480.178
133 0 68.0755 13.4116 913 90.7667 1041.32 478.469
134 0 69.0344 10.9945 759 94.9433 1040.83 479.219
135 0 72.0897 11.777 849 95.9411 1041.43 476.245
136 0 75.1441 11.8971 894 95.2427 1041.55 475.814
137 0 76.1859 10.9075 831 98.018 1041.42 475.337
138 0 78.0525 11.4666 895 97.4782 1041.05 475.951
139 0 82.0791 12.4514 1022 97.8669 1041.09 472.289
140 0 84.0633 12.1337 1020 98.9294 1041.43 469.565
141 0 87.1188 11.2146 977 99.3869 1041 472.288
142 0 88.1777 10.717 945 101.072 1042.63 471.004
143 0 92.1652 10.8284 998 102.054 1042.25 469.641
144 1 53.0861 11.2835 599 98.4624 1043.78 485.459
145 0 50.0294 10.8536 543 94.1897 1042.75 479.68
146 0 50.0624 9.90763 496 97.3972 1042.54 478.097
147 0 53.0523 9.16078 486 97.9239 1042.23 478.389
148 0 54.0432 10.177 550 96.4164 1042.82 478.233
149 0 57.1136 10.3653 592 96.5811 1042.33 475.436
150 0 57.021 8.82131 503 99.4115 1043.08 474.64
151 0 61.0657 10.808 660 95.2333 1042.28 474.036
152 0 62.1065 9.93454 617 97.953 1043.11 472.329
153 0 66.2331 9.9799 661 96.1029 1043.38 472.607
154 0 69.0448 10.3846 717 96.053 1042.15 470.275
155 0 71.0504 10.4996 746 95.8391 1042.68 467.543
156 0 75.17 10.2701 772 96.7008 1042.38 464.789
157 0 74.0206 8.98398 665 102.093 1042.31 463.024
158 0 81.1678 12.8746 1045 95.5962 1041.73 465.636
159 1 39.0406 10.4251 407 83.8108 1041.89 485.182
160 0 38.0258 8.9676 341 87.8152 1042.03 483.182
161 0 38.1111 7.68804 293 90.0648 1042.47 484.703
162 0 40.1004 8.62835 346 86.8439 1041.81 486.832
163 0 41.0631 7.13537 293 88.2287 1040.81 488.3
164 0 43.0863 10.5602 455 95.9231 1040.24 489.644
165 0 48.0844 12.3117 592 89.2939 1041.31 487.316
166 0 49.0748 10.7998 530 92.6113 1040.43 489.86
167 0 49.0513 11.2943 554 92.5126 1041.12 489.004
168 0 48.0651 8.98781 432 95.3958 1041.09 490.414
169 0 53.0363 11.1433 591 92.7445 1040.68 486.415
170 0 53.183 9.02545 480 95.775 1040.7 486.842
171 0 58.0983 11.0674 643 91.7387 1040.58 484.468
172 0 56.0688 8.98895 504 94.4802 1040.48 486.774
173 0 59.1093 10.0153 592 93.6166 1040.35 483.071
174 0 64.0853 10.8449 695 89.6662 1040.78 483.531
175 0 62.0809 9.90643 615 92.1366 1041.32 481.577
176 0 68.1214 10.3639 706 90.6742 1041.18 479.646
177 0 69.0646 10.0341 693 91.8124 1041.21 477.508
178 0 73.0771 10.14 741 90.1808 1040.95 478.131
179 0 72.0715 9.29632 670 90.009 1041.45 478.925
180 0 79.1 9.63337 762 89.9711 1041.06 475.51
181 1 42.0584 11.8169 497 86.3803 1041.35 489.529
182 0 44.0243 11.0621 487 87.8953 1041.35 489.809
183 0 44.0659 10.4843 462 89.3853 1041.06 489.513
184 0 49.0183 12.4851 612 84.7092 1040.99 487.489
185 0 47.0992 9.618 453 90.362 1040.91 488.856
186 0 49.1617 10.3332 508 89.1299 1041.07 485.632
187 0 50.0686 12.1833 610 86.2885 1041.4 485.802
188 0 53.0872 11.4152 606 87.4884 1040.74 483.927
189 0 55.0674 11.2226 618 87.6327 1041.29 483.083
190 0 57.0911 12.0159 686 86.5729 1040.9 482.254
191 0 59.0519 12.3281 728 86.7637 1041.03 481.235
192 0 62.1842 11.7715 732 87.097 1041.13 479.833
193 0 62.0585 12.7299 790 86.0899 1040.64 479.386
194 0 65.0754 12.0783 786 86.9237 1040.6 482.501
195 0 68.0979 11.5569 787 88.2465 1041 480.184
196 0 71.2029 12.4152 884 86.9389 1040.31 476.363
197 0 71.1669 11.0023 783 90.8199 1041.2 476.098
198 0 74.2093 11.6158 862 89.9165 1040.82 473.943
199 0 78.1521 11.4904 898 93.5312 1041.17 472.195
200 0 80.1427 13.6506 1094 90.4744 1041.43 469.838
201 0 82.2699 13.4679 1108 91.2374 1040.83 471.233
202 0 85.4272 13.1808 1126 93.8259 1041.63 468.875
203 1 42.0429 12.0353 506 95.9289 1040.69 487.599
204 0 44.1129 11.1759 493 95.8479 1040.74 488.961
205 0 44.188 11.7679 520 100.371 1041.46 487.737
206 0 46.1359 11.141 514 102.335 1041.82 487.558
207 0 51.276 12.8325 658 97.3192 1042.19 486.731
208 1 95.2951 11.9104 1135 101.628 1041.36 465.802
209 0 98.1609 11.9294 1171 103.262 1040.67 455.644
210 0 100.21 11.2763 1130 103.742 1041.13 462.889
211 0 105.177 12.6453 1330 100.613 1041.91 463.752
212 0 108.231 13.2033 1429 100.999 1041.91 460.013
213 0 111.228 11.454 1274 104.283 1042.27 460.817
214 0 115.146 12.5058 1440 103.64 1042.05 456.022
215 0 119.298 12.54 1496 103.493 1042.63 453.536
216 0 122.362 11.94 1461 103.865 1042.6 454.953
217 1 58.1109 11.0822 644 95.1956 1044.01 483.185
218 0 59.1307 10.0625 595 97.2118 1042.95 483.334
219 0 63.1487 10.9899 694 95.6354 1042.38 481.333
220 0 65.0682 12.0796 786 94.2328 1042.2 480.268
221 0 68.1075 10.7184 730 96.8315 1042.09 479.545
222 0 70.1151 11.3813 798 96.5238 1042.22 477.026
223 0 71.1014 10.6186 755 96.9364 1041.95 477.803
224 0 75.1336 11.7125 880 96.0216 1042.29 474.077
225 0 78.1172 11.0475 863 95.6385 1042.7 475.586
226 0 81.1369 11.6963 949 95.0601 1042.12 473.488
227 0 82.1253 10.7397 882 96.297 1042.2 473.206
228 1 45.0425 11.3004 509 92.1002 1042.45 489.171
229 0 47.0822 11.002 518 92.2529 1042.03 489.597
230 0 48.1766 10.9804 529 91.8752 1042.11 488.834
231 0 49.0813 11.2263 551 91.5717 1042.74 489.134
232 0 51.0847 10.7077 547 92.5484 1042.75 487.179
233 0 52.0807 11.4438 596 90.9648 1042.49 486.426
234 0 56.2099 12.8269 721 87.0763 1042.84 485.387
235 0 56.07 12.5022 701 88.3038 1042.2 484.949
236 0 56.0908 11.6062 651 90.1843 1042.72 485.094
237 0 59.1622 11.4769 679 90.5243 1041.98 481.445
238 0 63.1174 12.6748 800 87.0012 1042.34 481.755
239 0 63.0698 10.9244 689 90.6415 1041.89 478.952
240 0 64.0851 12.9515 830 86.8096 1042.07 480.719
241 0 65.1376 11.8211 770 89.4909 1042.16 476.649
242 0 67.1695 13.2649 891 86.8788 1042.25 475.908
243 0 69.1367 11.1229 769 90.2679 1042.11 477.252
244 0 71.1691 12.0558 858 87.965 1042.19 476.071
245 0 74.1134 11.8332 877 88.4333 1042.33 473.59
246 0 74.1727 10.9339 811 90.4612 1041.86 470.364
247 0 80.102 12.4966 1001 86.8382 1041.46 470.542
248 0 80.1257 11.9937 961 87.9553 1041.27 472.821
249 0 82.1103 11.4846 943 89.1166 1041.22 472.485
250 0 85.0437 11.4765 976 86.7613 1041.86 467.789
251 0 90.0972 12.7196 1146 82.7504 1041.21 463.356
252 0 90.1516 10.6709 962 86.6871 1040.95 463.031
253 1 45.0464 7.08159 319 83.2006 1041.22 486.633
254 0 46.0413 9.51319 438 80.8265 1041.01 482.767
255 0 48.1046 9.06357 436 81.2156 1041.09 484.566
256 0 50.0249 10.055 503 80.2306 1040.87 481.014
257 0 55.0794 9.69509 534 80.5019 1041.32 478.605
258 0 55.0531 11.5706 637 78.2873 1041.46 477.854
259 0 54.0871 11.5369 624 78.8558 1040.77 478.25
260 0 56.13 8.83662 496 83.1048 1041.44 474.585
261 0 59.1818 8.19509 485 83.0969 1042.03 476.876
262 0 63.1379 12.3064 777 77.5161 1041.23 476.133
263 0 61.0549 10.3513 632 81.6234 1041.48 470.918
264 0 66.0807 11.7129 774 80.2997 1041.19 470.058
265 0 68.1087 11.6578 794 80.5617 1041.84 468.892
266 0 69.122 11.1253 769 82.0481 1040.98 468.545
267 0 71.1749 11.4647 816 81.9914 1041.4 468.542
268 0 71.1257 9.74331 693 85.7792 1041.41 468.707
269 0 78.3356 11.7826 923 86.9263 1040.97 462.899
270 0 80.3047 11.9296 958 92.1044 1041.36 463.625
271 0 83.2861 13.9759 1164 89.0163 1041.38 465.857
272 0 87.2913 12.5213 1093 92.3824 1040.56 466.359
273 1 43.1518 9.75625 421 93.677 1041.64 485.19
274 0 45.0179 8.59658 387 86.4444 1042.17 485.23
275 0 45.0688 9.62972 434 81.9516 1041.6 482.039
276 0 48.0906 9.39892 452 80.6416 1042.41 487.584
277 0 50.0613 9.48837 475 80.5095 1042.19 488.143
278 0 52.1043 11.7073 610 81.6475 1041.38 487.456
279 0 53.105 11.9575 635 82.0457 1042.39 482.647
280 0 58.0536 11.4205 663 80.6833 1042.41 489.86
281 0 56.0743 9.07724 509 85.3949 1042.05 484.701
282 0 62.0412 11.4924 713 80.7728 1041.69 483.913
283 0 64.1577 11.5185 739 81.5359 1042.86 481.349
284 0 65.0796 13.5834 884 79.6889 1042.1 480.673
285 0 67.1653 13.1765 885 81.0881 1042.64 478.991
286 0 69.0898 11.1739 772 83.8135 1042.39 478.325
287 0 73.1501 12.1941 892 82.1637 1041.62 477.548
288 0 73.1229 11.7337 858 84.6911 1042.06 474.864
289 0 76.1114 11.851 902 84.6353 1042.01 476.782
290 0 77.1761 10.3918 802 88.0923 1042.26 474.128
291 0 81.137 11.5237 935 87.4802 1042.12 470.813
292 0 84.1159 12.8156 1078 86.0696 1041.22 468.871
293 0 87.2729 12.2604 1070 87.9243 1041.63 468.566
294 0 90.1313 12.5262 1129 88.4686 1041.15 465.006
295 0 91.1111 11.3817 1037 91.4918 1040.94 465.51
296 0 96.2404 12.1259 1167 90.7686 1040.27 465.048
297 0 99.1125 12.5615 1245 90.7767 1040.66 462.161
298 1 55.0739 12.7102 700 91.4029 1041.09 483.499
299 0 52.0759 13.0194 678 87.9425 1041.13 482.254
300 0 55.0388 12.4094 683 87.4334 1042.65 481.978
301 0 56.1598 11.6275 653 89.7274 1042.46 479.587
302 0 58.0325 10.1495 589 91.1205 1041.97 480.917
303 0 58.0514 11.0764 643 92.4308 1041.83 475.667
304 0 61.0324 10.2896 628 93.4252 1042.09 476.575
305 0 63.0591 10.6091 669 94.6981 1041.53 472.611
306 0 66.0869 11.6816 772 92.7435 1041.65 472.386
307 0 65.0823 10.0949 657 95.4749 1041.12 470.522
308 0 72.0721 11.5024 829 92.2014 1042.34 469.584
309 0 76.0876 11.8285 900 91.5156 1041.68 469.567
310 0 76.1212 10.457 796 94.6683 1041.57 466.338
311 0 79.1044 11.8325 936 91.2254 1041.5 468.281
312 0 80.0839 9.95207 797 94.0627 1041.82 464.636
313 0 82.0806 11.0014 903 91.3954 1042.26 468.065
314 0 90.1432 12.7908 1153 99.2619 1042.91 466.535
315 0 93.1809 12.2665 1143 100.687 1042.15 465.653
316 0 95.084 11.3794 1082 101.344 1042.48 467.071
317 0 101.095 12.8493 1299 99.2718 1041.79 463.314
318 0 101.151 11.6262 1176 101.737 1042.7 463.85
319 0 105.099 11.6557 1225 101.153 1042.27 463.411
320 0 108.139 12.8353 1388 99.7543 1042.47 459.024
321 0 109.184 12.9048 1409 99.8566 1041.94 456.502
322 0 114.137 13.7203 1566 98.705 1042.25 452.962
323 0 116.142 13.4662 1564 99.6944 1041.95 453.201
324 0 122.136 13.2885 1623 100.097 1041.96 453.689
325 0 123.161 13.7381 1692 100.389 1042.64 453.674
326 0 130.138 13.4703 1753 100.394 1042.3 450.351
327 0 134.161 14.6764 1969 98.6684 1042.68 447.085
328 0 137.135 13.257 1818 101.854 1042.8 445.15
329 0 142.176 14.0741 2001 101.224 1042.77 441.599
330 0 148.346 14.4999 2151 100.77 1043.6 439.645
331 0 151.171 13.0184 1968 107.075 1042.13 413.048
332 0 158.155 13.7903 2181 104.908 1041.71 420.111
333 0 163.42 15.3042 2501 102.285 1041.75 418.169
334 0 169.25 14.9011 2522 101.236 1041.99 422.133
335 0 174.298 13.6949 2387 102.28 1041.77 418.94
336 0 180.344 13.624 2457 103.289 1042.37 416.69
337 0 186.187 12.7882 2381 102.743 1042.41 417.034
338 0 191.21 12.7556 2439 102.348 1042.11 416.365
339 0 200.229 15.7969 3163 98.2096 1042.19 414.857
340 0 205.206 14.4684 2969 102.887 1041.48 409.838
341 1 129.154 12.7135 1642 104.375 1041.69 451.568
342 0 133.187 12.9066 1719 102.547 1041.77 447.185
343 0 138.122 13.9949 1933 95.3875 1041.26 440.116
344 0 141.169 12.9419 1827 98.1834 1041.57 436.04
345 0 147.223 12.3079 1812 98.8024 1041.77 435.888
346 0 154.271 14.0596 2169 95.0544 1041.76 434.851
347 0 161.463 13.198 2131 97.5894 1042.2 432.053
348 0 168.238 13.4333 2260 98.4823 1042.13 429.74
349 1 76.0456 12.8344 976 97.5881 1041.48 469.947
350 0 76.1394 11.4395 871 91.0253 1041.44 466.652
351 0 79.1706 12.3278 976 83.5676 1041.41 467.42
352 0 85.1892 12.3372 1051 83.2131 1041.64 465.914
353 0 87.1927 11.3312 988 84.1437 1041.44 462.989
354 0 90.1141 10.631 958 84.5804 1041.27 465.22
355 0 94.273 10.9257 1030 85.0864 1042.09 462.454
356 0 97.1178 12.7268 1236 83.6642 1041.55 458.481
357 1 54.1146 12.0855 654 89.2768 1041.55 484.885
358 0 56.249 11.8224 665 86.8722 1041.64 484.146
359 0 55.3179 12.4914 691 87.0796 1040.88 481.042
360 0 56.0802 13.2489 743 82.8183 1041.41 478.991
361 0 58.1175 11.0982 645 86.8961 1041.62 479.394
362 0 59.1281 10.8578 642 87.2446 1041.99 477.318
363 0 61.2175 11.0589 677 86.4948 1041.6 477.589
364 0 62.1145 11.3661 706 86.9589 1041.82 476.05
365 0 62.2042 10.2083 635 90.7291 1040.93 471.765
366 0 65.12 11.2408 732 88.7199 1041.33 471.081
367 0 71.1273 11.3599 808 88.9431 1041.63 476.442
368 0 73.1664 11.4533 838 89.1277 1042.45 476.965
369 0 78.1174 11.8155 923 88.0726 1042.24 476.087
370 0 81.1802 11.3451 921 88.8284 1042.43 475.152
371 0 81.167 12.4928 1014 87.9586 1042.09 475.178
372 0 84.3549 12.4593 1051 88.6327 1042.05 471.646
373 0 88.2858 12.7654 1127 88.2059 1041.61 470.385
374 0 89.1746 10.7093 955 91.5141 1041.68 468.88
375 0 92.1514 11.8826 1095 89.389 1042.22 467.121
376 1 51.1502 11.7888 603 88.3101 1042.48 487.108
377 0 52.0643 12.5422 653 85.1715 1042.88 486.652
378 0 53.0432 11.3304 601 88.9384 1043.51 487.92
379 0 53.0562 12.1569 645 88.7535 1042.9 485.715
380 0 57.0935 11.9453 682 88.7449 1043.34 486.198
381 0 54.029 10.883 588 92.2908 1042.9 482.956
382 0 59.0932 12.0488 712 88.7289 1043.21 484.274
383 0 61.2338 12.3461 756 88.6323 1042.36 482.722
384 0 62.2001 12.1543 756 89.7249 1042.4 481.103
385 0 66.1233 12.4313 822 89.1667 1042.65 479.449
386 0 68.1284 12.9755 884 88.7059 1041.82 478.736
387 0 70.2185 12.7032 892 88.8509 1041.79 476.732
388 0 73.2211 12.4964 915 89.3016 1042.09 475.145
389 0 75.0794 12.6 946 89.1987 1041.94 475.743
390 0 77.0943 13.2046 1018 90.0206 1041.78 467.889
391 0 80.12 13.2302 1060 89.1189 1041.87 469.351
392 0 82.1337 11.7004 961 90.2914 1041.6 471.15
393 1 42.0154 10.3533 435 88.092 1042.14 490.844
394 0 46.0067 10.2811 473 84.5983 1040.68 491.892
395 0 48.1081 11.2663 542 85.3321 1041.69 488.865
396 0 48.1588 10.8599 523 88.109 1041.41 487.237
397 0 51.2345 12.3159 631 85.6957 1041.91 488.024
398 0 52.2313 10.1472 530 89.2736 1041.63 486.998
399 0 52.1016 11.6311 606 87.6914 1041.29 486.86
400 0 56.1277 10.387 583 88.0858 1041.1 485.722
401 0 56.1552 11.1833 628 87.0526 1041.33 483.896
402 0 58.0824 11.0877 644 89.0435 1041.11 483.616
403 0 61.2004 11.7319 718 87.0404 1040.95 484.689
404 0 61.0455 11.4832 701 88.5164 1041.87 481.612
405 0 63.0944 11.8869 750 87.708 1041.87 480.456
406 0 66.0838 11.8789 785 87.2968 1041.04 480.939
407 0 68.1385 11.6821 796 87.8744 1041.61 479.073
408 0 71.0536 11.4421 813 87.818 1042.09 478.428
409 0 73.1562 12.0701 883 87.0668 1041.58 476.291
410 0 76.2627 12.7716 974 86.4055 1041.29 474.941
411 0 79.1753 12.2387 969 87.3529 1041.39 474.599
412 0 79.1776 11.5942 918 89.1242 1041.49 471.084
413 0 82.1682 10.3933 854 90.8384 1041.91 470.45
414 0 86.1477 10.8651 936 91.7297 1041.76 464.686
415 0 89.3323 11.6195 1038 89.7081 1040.95 463.493
416 1 46.2318 9.97149 461 85.9978 1041.5 487.774
417 0 49.0735 10.9428 537 82.9628 1041.52 488.128
418 0 48.022 9.32906 448 83.6071 1041.86 490.893
419 0 51.043 10.5009 536 81.8563 1041.72 490.642
420 0 52.1262 9.63047 502 81.8506 1041.44 488.229
421 0 52.113 10.0934 526 82.4639 1041.58 489.12
422 0 55.1665 9.06347 500 80.168 1040.88 483.506
423 0 56.1379 9.95762 559 80.229 1041.32 481.857
424 0 59.066 10.3274 610 82.0197 1041.87 485.661
425 0 63.1212 11.9294 753 79.2058 1042.04 483.195
426 0 66.1659 10.655 705 80.2837 1042.01 486.926
427 0 68.1065 11.3939 776 79.9343 1041.6 483.446
428 0 70.2775 10.6293 747 80.5408 1041.35 483.261
429 0 70.0665 10.9325 766 80.8864 1041.42 482.611
430 0 74.1262 10.5496 782 81.2941 1041.09 478.633
431 0 78.1962 11.6246 909 79.9318 1041.47 477.256
432 0 80.1116 11.0596 886 81.6117 1041.39 475.376
433 1 40.0558 10.036 402 82.0498 1041.43 496.562
434 0 43.1363 10.7102 462 82.5887 1042.13 494.052
435 0 41.042 11.7197 481 83.9501 1041.34 491.859
436 0 43.1166 9.90338 427 82.3911 1041.15 486.609
437 0 43.0655 9.79903 422 82.3104 1041.48 487.903
438 0 44.1172 8.84009 390 83.7718 1041.23 490.531
439 0 48.0856 11.3963 548 80.5602 1042 489.365
440 0 50.0376 11.0917 555 84.4198 1041.41 491.921
441 0 51.1713 10.9241 559 82.6476 1041.12 485.17
442 0 53.0118 11.0541 586 84.3618 1041.8 489.889
443 0 51.0816 10.0427 513 87.4425 1041.95 485.813
444 0 55.1064 10.5795 583 86.0755 1041.75 489.065
445 0 58.0491 11.9554 694 84.6268 1041.27 486.357
446 0 59.0446 10.0263 592 84.522 1041.33 486.647
447 0 61.0472 11.4501 699 84.3648 1042.43 482.04
448 0 64.0442 10.5552 676 85.2752 1041.25 480.679
449 0 67.2785 11.9057 801 84.0687 1041.17 481.047
450 0 69.0358 11.6751 806 84.6179 1041.27 480.783
451 0 71.1585 11.6922 832 85.905 1041.28 478.237
452 0 75.1357 11.8452 890 88.127 1041.82 474.845
453 0 77.1016 10.6613 822 88.4964 1041.47 477.479
454 0 82.0367 11.0073 903 88.5692 1040.92 474.323
455 0 82.0574 10.0174 822 94.5779 1041.46 469.938
456 0 90.155 12.412 1119 90.84 1041.01 469.934
457 1 49.1255 10.1169 497 89.6157 1042.18 489.028
458 0 51.0982 11.9574 611 86.1522 1041.77 490.563
459 0 53.0544 11.5353 612 87.1176 1041.8 489.451
460 0 56.0771 12.6076 707 85.5856 1041.38 487.484
461 0 59.1537 14.5215 859 82.468 1041 485.381
462 0 60.14 12.1217 729 87.1646 1041.35 485.647
463 0 61.0958 10.459 639 89.8701 1041.59 486.365
464 0 64.1333 12.3025 789 86.7212 1040.74 483.929
465 0 66.1601 12.4698 825 87.3564 1041.02 481.038
466 0 69.1914 13.5711 939 85.9286 1041.63 479.332
467 0 70.0549 10.3347 724 88.442 1040.96 478.3
468 0 75.1985 12.5933 947 84.6515 1041.29 478.113
469 0 74.1372 11.8564 879 87.4323 1040.52 475.09
470 0 80.1666 11.788 945 87.9069 1041.1 474.647
471 0 81.1029 11.4792 931 90.1869 1040.96 473.354
472 0 85.0845 12.5287 1066 89.1407 1041.31 472.164
473 0 89.2107 12.8236 1144 90.7911 1041.42 468.968
474 0 92.1327 12.0913 1114 91.3689 1042.08 472.171
475 0 94.1614 12.0431 1134 93.1129 1041.59 467.701
476 0 99.1246 12.8929 1278 91.1416 1041.54 468.426
477 0 103.172 12.8038 1321 92.2491 1041.22 464.69
478 1 55.1706 11.0022 607 87.514 1041.1 489.666
479 0 56.2822 11.6555 656 88.8354 1040.88 486.825
480 0 57.2882 12.2364 701 96.6434 1040.53 480.775
481 0 60.0741 12.2182 734 95.0068 1040.69 487.281
482 0 61.0937 13.7657 841 92.7634 1040.92 482.621
483 0 63.0628 13.2249 834 94.3345 1040.56 477.899
484 0 64.0755 13.0939 839 95.677 1040.64 476.979
485 0 66.2138 11.3571 752 99.2327 1040.25 473.938
486 0 68.0715 13.4711 917 94.9477 1040.69 474.983
487 0 70.0726 13.0864 917 95.6652 1040.49 475.596
488 0 73.0696 13.6035 994 94.5785 1040.19 476.624
489 0 75.2723 11.4385 861 98.7247 1040.03 475.465
490 0 77.1563 12.8829 994 96.8491 1040.85 472.85
491 0 81.2738 12.7963 1040 98.9779 1040.79 470.397
492 0 83.2005 13.5696 1129 97.3871 1040.76 468.705
493 0 88.1684 14.7899 1304 94.6365 1040.65 466.238
494 0 91.2223 13.8453 1263 95.7458 1041.23 464.563
495 0 93.2782 13.851 1292 96.9806 1040.48 461.87
496 0 96.2102 14.5099 1396 95.0566 1041.07 460.38
497 0 98.2557 13.6582 1342 97.2481 1041.35 457.835
498 0 103.194 13.7507 1419 95.4778 1041.26 457.037
499 1 51.1491 8.30904 425 91.7059 1041.46 480.529
500 0 52.0971 10.5572 550 85.8545 1041 478.371
501 0 56.0629 10.2207 573 82.0105 1041.78 478.979
502 0 54.0432 10.6026 573 82.8237 1040.87 476.075
503 0 55.0609 10.9152 601 82.8652 1041.22 476.764
504 0 59.0519 10.7871 637 82.135 1041.14 475.728
505 0 61.1257 10.8792 665 82.1699 1041.15 473.871
506 0 61.1115 10.9472 669 83.5366 1041.45 473.578
507 0 64.0841 11.6097 744 82.1008 1041 474.431
508 0 66.033 12.3877 818 82.3594 1041.61 470.539
509 0 68.0632 14.0458 956 80.8902 1040.96 467.106
510 0 71.1406 10.5285 749 86.3605 1040.96 468.939
511 0 74.1331 10.7779 799 87.204 1040.68 464.889
512 0 76.1665 10.9628 835 87.3988 1041.01 462.99
513 0 80.067 9.81678 786 89.6641 1040.9 459.809
514 0 80.1091 11.5842 928 87.4213 1041.24 461.08
515 0 84.0621 11.9911 1008 86.9891 1041.14 460.167
516 0 88.0818 12.2159 1076 87.0818 1040.3 457.322
517 0 89.0529 12.0153 1070 87.9252 1040.25 459.173
518 0 94.1641 12.3083 1159 87.101 1039.82 459.192
519 0 99.4014 12.4747 1240 87.721 1040.53 455.031
520 1 50.2162 9.16039 460 83.087 1040.58 479.646
521 0 55.0974 12.5596 692 86.815 1040.72 485.052
522 0 56.0692 11.1291 624 87.6058 1040.47 486.856
523 0 57.0199 12.9429 738 85.0772 1039.97 485.416
524 0 58.1112 12.2868 714 86.6401 1040.7 481.452
525 0 60.1017 12.3291 741 86.5682 1040.93 482.159
526 0 64.0487 13.2243 847 84.2385 1041.23 481.569
527 0 65.2363 11.6653 761 87.4691 1040.22 480.729
528 0 67.0718 11.5995 778 88.144 1040.03 477.594
529 0 69.1053 11.5621 799 88.1564 1040.14 477.677
530 0 71.0614 13.0028 924 86.5714 1039.98 476.847
531 0 74.0455 12.0872 895 88.038 1040.56 476.116
532 0 75.3326 12.6506 953 88.0336 1040.71 475.296
533 0 79.3975 12.3681 982 87.8116 1040.81 474.932
534 0 81.0688 13.4947 1094 88.2029 1040.52 469.854
535 0 83.2329 12.5551 1045 90.2919 1040.64 471.145
536 0 85.1376 11.687 995 92.1789 1041.04 471.087
537 0 89.1141 12.6916 1131 90.3616 1041.32 467.957
538 0 89.1119 11.6932 1042 93.2006 1040.57 464.418
539 0 94.0547 12.0781 1136 92.4727 1040.37 466.526
540 0 98.2226 13.1131 1288 90.7345 1040.58 464.472
541 1 51.0674 11.4555 585 93.2957 1040.71 486.969
542 0 54.0908 12.0353 651 92.8879 1041.14 487.183
543 0 56.2133 11.1006 624 94.5433 1041.48 485.688
544 0 60.2648 11.7813 710 95.1746 1041.37 482.996
545 0 62.2305 10.7343 668 96.8563 1041.54 484.588
546 0 63.211 11.8967 752 95.8218 1041.63 481.689
547 0 64.0839 10.6891 685 97.3547 1042.19 483.431
548 0 66.075 12.8188 847 95.0437 1040.87 481.097
549 0 68.088 11.9845 816 97.2806 1041.08 479.727
550 0 69.1002 12.5759 869 97.3118 1040.93 478.557
551 0 72.1075 12.7449 919 96.0359 1041.09 478.849
552 0 74.1859 11.579 859 100.139 1041.34 473.813
553 0 76.2841 11.562 882 100.664 1041.68 475.214
554 0 79.1572 12.7468 1009 98.663 1041.77 472.728
555 0 81.137 12.7192 1032 92.811 1041.76 473.035
556 0 83.1065 11.5033 956 97.3222 1042.19 471.791
557 0 85.0747 12.3186 1048 97.9847 1042.32 471.667
558 0 86.0797 12.5117 1077 90.1848 1042.26 473.566
559 1 47.038 11.395 536 89.5672 1042.15 493.147
560 0 46.0173 10.9959 506 91.1067 1041.92 491.524
561 0 46.0198 11.3212 521 90.2495 1041.83 490.476
562 0 48.0532 10.7381 516 99.7539 1041.53 491.147
563 0 47.0405 10.6291 500 102.402 1041.09 490.654
564 0 48.1234 10.4523 503 102.644 1040.67 489.833
565 0 48.0451 10.3236 496 101.48 1040.82 491.016
566 0 51.1166 11.6987 598 97.3077 1041.47 488.197
567 0 52.1099 10.4395 544 99.1195 1041.08 487.926
568 0 54.1029 10.48 567 97.6332 1041.19 486.242
569 0 55.1094 11.2503 620 95.429 1040.93 486.708
570 0 57.0661 11.8284 675 93.4118 1040.73 487.022
571 0 59.0733 11.4096 674 94.0608 1040.93 483.059
572 0 60.1431 13.0189 783 91.2656 1040.29 484.222
573 0 62.0597 11.8596 736 93.1332 1041.6 484.379
574 0 64.0858 12.0776 774 93.9974 1041.16 482.34
575 0 67.2195 11.3658 764 94.6086 1040.74 483.126
576 0 68.0818 11.8681 808 95.3688 1040.55 482.141
577 0 69.1919 10.7672 745 97.2872 1040.81 482.774
578 0 71.0811 10.2277 727 99.2105 1040.92 478.432
579 1 40.0158 9.19636 368 94.3125 1041.23 496.976
580 0 40.1544 10.4098 418 94.4378 1041.73 495.33
581 0 41.0661 11.445 470 92.3064 1042.19 495.081
582 0 40.1213 10.4433 419 99.7112 1041.88 491.494
583 0 42.009 11.4023 479 98.7787 1042.14 493.964
584 0 43.0316 11.2476 484 101.351 1041.79 492.182
585 0 39.0165 8.56049 334 110.542 1041.34 491.524
586 0 45.0222 12.1496 547 101.592 1041.23 492.885
587 0 45.0274 9.59416 432 110.137 1041.66 492.405
588 0 47.0306 11.9071 560 107.439 1041.33 490.418
589 0 47.0615 10.1357 477 113.499 1041.48 492.052
590 0 50.0669 11.3648 569 110.443 1041.48 491.039
591 0 47.0733 10.3031 485 116.771 1042.06 489.124
592 0 52.0476 10.9707 571 112.921 1041.04 490.137
593 0 53.0452 10.9152 579 115.114 1041.75 489.164
594 0 56.1193 12.2952 690 111.955 1041.59 487.412
595 0 53.1117 10.8451 576 118.55 1041.51 487.12
596 0 54.0447 11.583 626 117.343 1041.52 487.094
597 0 57.0634 11.4084 651 117.773 1041.02 488.344
598 0 58.0446 11.6634 677 118.783 1041.24 486.892
599 0 61.0959 12.1285 741 117.008 1040.34 486.399
600 0 59.1317 10.8402 641 122.239 1040.62 484.85
601 0 61.2017 12.6794 776 118.45 1039.91 483.113
602 0 65.2036 12.9901 847 116.047 1040.04 483.037
603 0 66.2112 13.2153 875 115.801 1040.24 483.138
604 0 69.0887 13.128 907 115.448 1040.66 480.828
605 0 69.0535 12.6569 874 117.011 1039.79 481.207
606 0 74.0279 12.3332 913 116.116 1040.42 480.828
607 0 76.1926 12.6784 966 116.105 1040.77 479.398
608 0 79.0319 13.387 1058 114.543 1039.68 476.626
609 0 80.0422 13.6178 1090 113.255 1039.78 478.686
610 1 40.0224 10.744 430 113.521 1039.23 496.088
611 0 42.1138 11.2077 472 111.655 1039.26 496.011
612 0 40.0875 11.9239 478 107.58 1039.99 493.994
613 0 40.0276 10.4678 419 106.05 1040.67 491.158
614 0 41.0319 11.9663 491 102.11 1040.42 490.275
615 0 41.0474 11.1822 459 106.259 1039.97 490.176
616 0 40.0148 10.5711 423 109.7 1040.76 488.747
617 0 42.0433 11.06 465 108.099 1040.73 488.602
618 0 43.029 11.0623 476 107.628 1039.88 488.214
619 0 47.0365 10.2474 482 107.734 1040.66 488.467
620 0 45.1111 10.6847 482 108.095 1039.98 486.768
621 0 48.0769 11.6896 562 105.169 1040.06 485.539
622 0 49.029 9.89211 485 108.497 1040.42 484.235
623 0 53.132 12.7042 675 102.031 1040.56 482.714
624 0 56.0304 12.1006 678 101.661 1039.98 483.282
625 0 55.1076 11.6136 640 102.827 1039.06 481.838
626 0 55.1123 10.1429 559 104.637 1039.72 479.551
627 0 57.0942 11.735 670 100.657 1038.61 479.972
628 0 60.0883 11.1835 672 101.976 1039.35 479.159
629 0 61.1097 12.3385 754 99.9363 1039.16 477.166
630 0 66.1104 11.6472 770 99.7364 1039.22 476.612
631 0 66.1314 12.6264 835 98.9234 1039.54 474.007
632 0 68.1288 11.1994 763 101.434 1039.32 469.393
633 0 71.1403 11.0908 789 101.18 1038.61 471.71
634 0 74.2285 11.761 873 100.029 1039.99 479.073
635 0 78.0863 12.3581 965 99.0321 1039.14 477.936
636 0 82.0676 12.112 994 100.079 1039.45 475.334
637 0 84.1017 11.9855 1008 101.204 1038.59 475.032
638 0 85.1383 10.6415 906 104.053 1039.19 472.461
639 0 90.069 11.9908 1080 100.791 1038.7 472.83
640 0 93.1407 13.7319 1279 99.2416 1039.47 469.554
641 0 97.1114 12.2128 1186 102.351 1039.33 469.058
642 0 101.281 12.1741 1233 102.513 1039.38 466.539
643 0 103.223 12.4294 1283 100.981 1038.8 466.591
644 1 59.1958 12.1124 717 97.6039 1039.51 487.529
645 0 58.0527 10.456 607 93.0758 1039.57 487.04
646 0 61.0288 11.1914 683 95.1786 1039.36 486.672
647 0 64.2198 11.7876 757 88.3501 1039.8 483.66
648 0 65.2264 10.6399 694 91.2709 1039.78 482.112
649 0 64.0881 10.7352 688 91.7907 1039.85 480.109
650 0 69.173 11.9989 830 89.2024 1039.68 482.704
651 0 70.0491 11.649 816 91.6397 1039.41 478.071
652 0 73.0821 10.714 783 93.9502 1039.39 478.576
653 0 77.1134 11.6841 901 93.192 1039.5 477.324
654 0 79.0868 11.1397 881 94.4495 1038.73 477.083
655 0 82.0421 11.2503 923 106.095 1039.54 474.418
656 0 87.1896 12.9488 1129 104.078 1039.43 474.508
657 0 89.0652 11.9575 1065 108.146 1040.05 469.877
658 0 93.1176 13.6601 1272 103.574 1039.07 470.406
659 0 93.108 12.0613 1123 108.044 1039.01 467.392
660 0 95.0438 12.3312 1172 106.005 1039.64 465.626
661 0 98.1253 12.0968 1187 106.791 1039.79 466.253
662 0 102.217 11.593 1185 108.91 1039.67 463.145
663 0 104.08 12.3752 1288 108.418 1039.45 460.797
664 0 106.097 12.3944 1315 108.699 1039.89 460.299
665 0 114.255 12.7085 1452 106.286 1040.11 459.57
666 0 116.227 12.3723 1438 108.668 1040.02 454.984
667 0 120.122 11.9129 1431 110.071 1040.31 453.92
668 0 124.127 12.2053 1515 110.378 1040.14 452.688
669 0 131.098 12.8988 1691 107.982 1039.94 453.672
670 0 134.119 12.8618 1725 109.774 1040.18 449.23
671 0 139.083 13.9414 1939 108.696 1040.01 444.338
672 0 143.079 13.9154 1991 108.72 1039.76 442.815
673 0 148.153 12.8381 1902 110.927 1039.75 436.865
674 0 152.152 13.4339 2044 109.797 1040.36 436.483
675 0 161.113 14.6481 2360 106.511 1040.05 432.45
676 0 164.217 13.3725 2196 110.305 1040.8 429.265
677 0 169.182 13.3879 2265 110.131 1040.86 431.872
678 0 175.224 12.4298 2178 113.207 1040.18 428.001
679 1 84.098 11.9622 1006 105.625 1040.58 468.474
680 0 86.142 11.6203 1001 108.781 1040.96 467.483
681 0 91.1473 12.4524 1135 107.213 1041.07 465.997
682 0 94.0674 11.7044 1101 107.952 1041.21 467.041
683 0 96.1405 11.8472 1139 111.737 1041.32 462.932
684 0 101.145 12.1015 1224 111.037 1041.15 461.966
685 0 102.185 12.0272 1229 111.384 1042.08 457.915
686 0 108.107 12.4968 1351 107.729 1040.95 456.493
687 1 46.0762 9.67962 446 99.6861 1042.2 490.047
688 0 49.0574 10.661 523 101.25 1041.58 488.14
689 0 44.0566 9.01114 397 100.582 1040.48 481.237
690 0 45.0632 10.6739 481 98.7089 1040.84 479.688
691 0 46.0216 9.27824 427 101.005 1041.45 479.937
692 0 50.0992 10.1798 510 98.9431 1040.64 478.626
693 0 51.0441 9.95218 508 100.167 1040.73 478.449
694 0 51.0608 9.71391 496 103.194 1040.73 475.242
695 0 55.0441 10.7187 590 101.488 1040.35 477.005
696 0 56.0714 10.0408 563 102.503 1039.97 473.75
697 0 63.0382 11.3899 718 100 1039.78 474.595
698 0 66.0604 11.0051 727 105.777 1040.48 479.993
699 0 66.031 10.8585 717 103.339 1041.44 481.038
700 0 68.1329 11.14 759 104.354 1041.89 478.184
701 0 69.0919 10.0446 694 107.171 1041.99 476.718
702 0 73.0389 10.0358 733 107.855 1041.54 475.224
703 0 76.1219 11.4422 871 105.658 1041.15 474.37
704 0 78.1185 11.1753 873 107.245 1042 473.723
705 0 83.0913 12.3238 1024 105.216 1041.38 470.787
706 0 85.1057 12.9369 1101 103.378 1041.51 467.849
707 1 49.0534 9.80564 481 103.628 1042.03 490.605
708 0 50.0443 11.3899 570 99.5158 1041.85 489.847
709 0 51.0249 10.5439 538 99.1078 1041.6 485.877
710 0 52.1177 11.0711 577 98.0849 1042.2 487.52
711 0 53.1388 11.3853 605 98.7719 1041.52 486.304
712 0 55.0707 10.0235 552 101.777 1040.93 488.319
713 0 54.0824 10.9463 592 100.797 1040.45 487.676
714 0 57.108 12.4851 713 98.5554 1040.32 484.314
715 0 57.0507 12.1471 693 98.8543 1040.11 486.694
716 0 59.054 12.4293 734 98.5926 1041.35 487.06
717 0 61.0866 13.1289 802 99.1534 1041.12 484.693
718 0 64.1026 12.7452 817 100.909 1042.08 482.258
719 0 64.0645 13.3303 854 99.9438 1041.49 480.165
720 0 66.1443 12.3215 815 101.388 1040.85 482.744
721 0 68.0826 12.8814 877 100.726 1041.61 479.426
722 0 71.0636 13.312 946 100.661 1042.08 478.829
723 0 71.063 12.5522 892 102.914 1041.64 476.91
724 0 74.0522 12.7343 943 103.448 1041.27 474.262
725 0 80.0497 14.4285 1155 98.8338 1040.98 473.787
726 0 81.0478 12.9183 1047 104.095 1041.42 470.19
727 0 84.0755 13.9993 1177 101.535 1040.55 468.876
728 0 86.1645 14.0893 1214 101.544 1040.16 467.612
729 0 89.205 13.923 1242 102.549 1041.73 465.436
730 0 93.1588 15.2213 1418 98.1982 1041.66 465.411
731 0 91.0865 13.4707 1227 103.284 1041.91 462.422
732 0 97.049 13.8693 1346 101.163 1041.52 464.604
733 0 98.1234 13.1263 1288 103.05 1041.32 460.052
734 0 101.163 13.6809 1384 102.445 1041.23 456.974
735 1 57.0703 12.1079 691 97.9349 1041.07 481.394
736 0 58.1135 11.9766 696 98.5762 1040.94 481.527
737 0 59.0351 10.6547 629 100.226 1040.83 479.124
738 0 58.0552 9.06034 526 104.762 1041.33 475.992
739 0 63.0608 13.5108 852 95.615 1041.58 475.869
740 0 68.121 12.4044 845 96.4213 1041.46 476.402
741 0 66.1138 11.9037 787 100.443 1041.31 472.032
742 0 73.0807 12.3152 900 101.464 1040.35 477.682
743 0 77.0511 12.1737 938 101.697 1040.64 478.591
744 0 80.0947 11.6987 937 102.496 1040.45 476.954
745 0 82.094 13.1556 1080 100.321 1040.41 475.581
746 0 81.1681 11.47 931 103.923 1039.98 476.675
747 0 89.1637 12.2135 1089 102.163 1040.35 472.845
748 0 91.1694 13.1184 1196 101.267 1040.9 469.961
749 0 93.1986 13.0903 1220 102.664 1040.64 466.189
750 1 50.0654 11.6448 583 98.0429 1040.21 488.439
751 0 52.0374 11.8761 618 98.6278 1040.31 485.638
752 0 49.0813 9.67782 475 96.2274 1040.67 490.566
753 0 53.1277 10.2583 545 92.8972 1041.06 488.859
754 0 56.0866 10.5908 594 91.0724 1040.93 487.322
755 0 59.0909 10.5092 621 91.5169 1041.01 486.808
756 0 61.2204 11.2707 690 89.087 1040.72 487.252
757 0 61.0486 9.35321 571 92.1419 1041.28 487.219
758 0 63.1165 9.15767 578 93.1644 1041.04 483.398
759 0 68.0892 11.1031 756 87.4974 1041.08 485.763
760 0 70.0704 9.60463 673 90.9777 1040.51 482.293
761 0 74.1032 11.0791 821 88.3289 1040.56 479.108
762 0 76.0569 9.96623 758 89.8984 1040.27 478.154
763 0 78.1757 10.3357 808 89.0025 1040.43 478.662
764 0 83.1521 12.0262 1000 87.031 1040.07 473.929
765 0 84.0609 10.3615 871 89.0195 1040.01 470.381
766 0 88.1498 11.3557 1001 88.3297 1039.74 471.272
767 0 94.122 11.687 1100 86.7791 1041.01 471.489
768 0 95.2166 10.2083 972 90.3354 1040.37 467.389
769 1 52.1184 11.2436 586 86.4164 1040.61 491.447
770 0 52.1035 11.5347 601 90.3494 1040.46 489.319
771 0 52.093 11.0955 578 92.6419 1040.68 488.455
772 0 55.1245 11.9729 660 90.2394 1040.27 488.377
773 0 56.151 10.8101 607 91.9077 1040.69 485.974
774 0 59.1224 12.0259 711 89.8368 1040.91 485.35
775 0 61.1445 11.481 702 89.4188 1040.96 486.761
776 0 61.1167 10.979 671 91.4173 1040.14 483.501
777 0 65.1038 11.9809 780 88.4244 1039.26 484.027
778 0 66.09 11.333 749 89.6342 1039.75 481.913
779 0 66.09 11.3784 752 125.222 1040.74 482.031
780 0 69.1148 11.6618 806 88.8052 1039.54 478.669
781 0 73.065 13.0295 952 86.2353 1040.74 478.809
782 0 73.1535 11.264 824 85.7027 1039.54 474.735
783 0 78.1859 11.3959 891 85.2963 1040.28 473.506
784 0 80.1218 12.0566 966 84.2836 1040.12 474.503
785 0 81.1661 10.9898 892 87.8307 1040.48 470.853
786 0 85.1105 9.78728 833 89.0876 1040.25 469.809
787 0 90.0985 11.6428 1049 87.1592 1040.08 469.008
788 0 92.1573 11.7191 1080 87.1389 1039.64 466.627
789 1 49.0165 8.24212 404 85.9777 1040.92 490.225
790 0 53.0411 11.3497 602 80 1040.98 489.201
791 0 55.2778 11.7588 650 78.9738 1041.83 486.803
792 0 56.181 10.9824 617 81.0308 1041.57 485.746
793 0 53.0214 9.88281 524 76.9027 1040.28 482.515
794 0 57.1911 9.66934 553 77.5226 1040.23 481.439
795 0 55.1116 13.2458 730 74.589 1040.48 477.879
796 0 59.0638 9.15959 541 79.1238 1039.8 480.057
797 0 61.0996 8.44522 516 80.4167 1040.77 477.215
798 0 61.0447 12.3516 754 76.8607 1040.72 474.322
799 0 64.0594 11.0835 710 78.5014 1040.84 475.182
800 0 63.0256 10.3609 653 80.5299 1039.9 471.328
801 0 65.1078 7.28023 474 85.5654 1039.66 474.289
802 0 70.0771 11.0307 773 82.2367 1040.16 469.062
803 0 78.1315 9.98317 780 90.4256 1039.65 477.056
804 0 79.0721 12.0017 949 90.2845 1039.76 475.271
805 0 85.0832 12.1293 1032 89.2578 1039.53 470.701
806 0 82.1053 10.4987 862 93.7912 1039.2 468.954
807 0 89.0701 11.0587 985 92.4102 1040.05 471.837
808 0 93.1392 10.5541 983 92.0783 1040.35 473.909
809 0 92.1629 10.7744 993 95.2145 1040.18 469.747
810 0 97.1256 10.4607 1016 95.8819 1040.27 464.481
811 0 95.066 10.3086 980 97.1755 1039.68 454.595
812 0 102.132 12.0334 1229 96.6786 1039.83 459.563
813 0 107.074 11.478 1229 93.8535 1039.77 462.376
814 1 59.0363 9.28242 548 92.6022 1039.99 485.971
815 0 62.1594 9.42738 586 93.1877 1039.06 484.954
816 0 62.07 9.95651 618 93.2783 1039.97 482.215
817 0 68.0936 11.4401 779 90.6226 1039.73 481.831
818 0 69.122 10.9806 759 92.3979 1039.62 481.09
819 0 72.0777 13.3051 959 89.2941 1039.78 476.977
820 0 76.2565 12.4973 953 91.2277 1040.09 475.984
821 0 78.0985 11.063 864 93.8067 1039.64 472.61
822 0 82.0472 13.1266 1077 92.1699 1040.03 473.366
823 0 85.056 11.6747 993 94.0232 1039.98 472.467
824 0 88.0998 11.941 1052 100.245 1039.84 468.01
825 0 91.1731 11.0559 1008 96.5476 1040.12 468.938
826 0 96.1394 12.253 1178 93.843 1040.21 468.9
827 1 48.0941 10.4795 504 97.5556 1039.47 487.478
828 0 48.1959 10.4988 506 94.3676 1039.26 483.642
829 0 52.0361 10.3198 537 92.1806 1039.94 489.747
830 0 54.0536 10.8966 589 90.6876 1039.88 490.847
831 0 55.0945 10.7633 593 91.2091 1039.87 489.487
832 0 58.0832 11.9484 694 90.2363 1039.87 486.408
833 0 59.0942 10.4748 619 92.1034 1039.48 485.63
834 0 60.0804 10.9021 655 93.7389 1040.48 481.246
835 0 65.0882 11.6611 759 90.087 1040.27 485.473
836 0 67.0982 12.3848 831 90.9098 1040.06 483.678
837 0 68.1406 11.1094 757 93.4135 1039.86 481.642
838 0 68.0685 11.4444 779 93.1476 1039.22 482.804
839 0 74.1534 10.5592 783 95.1545 1039.24 478.847
840 0 77.2297 11.8348 914 93.616 1039.14 476.48
841 0 81.121 12.4752 1012 93.4219 1040.05 473.764
842 0 83.1028 9.59053 797 98.7177 1040.59 472.901
843 0 88.1038 12.1448 1070 94.5187 1040.24 474.247
844 0 90.0827 11.6782 1052 98.499 1041.75 469.241
845 0 92.0754 11.7295 1080 98.4907 1041.01 468.893
846 0 97.1379 12.055 1171 99.8608 1040.72 467.106
847 1 54.0501 10.8048 584 95.5223 1040.81 483.572
848 0 58.0462 12.6451 734 96.5804 1039.97 485.529
849 0 55.0884 10.2381 564 93.156 1041.54 489.993
850 0 58.0683 10.1432 589 94.2801 1041.58 487.066
851 0 62.0676 11.1975 695 92.5424 1041.76 485.232
852 0 62.105 11.1746 694 92.8184 1041.3 485.699
853 0 65.1105 10.6742 695 93.823 1041.65 484.719
854 0 67.0844 11.8209 793 92.2472 1041.47 484.264
855 0 71.0828 9.91802 705 95.2014 1041.14 483.955
856 0 73.0581 10.2658 750 93.4827 1040.6 485.037
857 0 78.0645 10.7731 841 93.3424 1039.56 479.593
858 0 78.06 11.5296 900 93.2422 1039.96 477.317
859 0 81.1958 10.4932 852 90.9765 1040.12 468.134
860 0 81.0692 9.80643 795 99.3346 1040.08 467.887
861 0 89.106 12.502 1114 99.5314 1039.89 471.772
862 0 91.1106 11.7879 1074 101.665 1039.51 470.055
863 0 96.1203 12.6612 1217 99.7962 1039.93 468.853
864 0 98.0758 11.3993 1118 102.706 1040.39 466.649
865 1 54.055 12.6168 682 89.4076 1040.53 491.151
866 0 55.0794 10.9115 601 90.7404 1040.54 489.331
867 0 56.0977 11.8721 666 89.3198 1039.77 486.869
868 0 58.049 11.8176 686 92.9796 1039.58 486.974
869 0 60.0268 12.1113 727 91.8487 1040.11 487.04
870 0 61.0895 11.966 731 93.3242 1039.43 483.908
871 0 66.0644 12.8814 851 90.8649 1039.25 484.073
872 0 68.0347 11.744 799 92.7009 1039.58 482.532
873 0 67.0699 11.9428 801 94.3421 1039.38 481.986
874 0 69.0234 11.5613 798 94.8722 1039.31 482.219
875 0 74.0861 12.499 926 93.5821 1039.23 478.641
876 0 77.1138 12.1509 937 94.5838 1039.52 477.435
877 0 80.1429 12.5526 1006 92.7793 1039.63 476.918
878 0 83.2426 12.3735 1030 103.092 1039.88 472.717
879 0 85.0673 11.2969 961 102.96 1040.31 474.749
880 0 88.0689 12.354 1088 102.87 1040.48 468.839
881 0 91.1372 11.9161 1086 102.586 1040.73 470.653
882 0 94.0995 12.2317 1151 101.036 1038.88 467.547
883 0 97.0696 11.806 1146 102.787 1039.64 466.122
884 1 53.0632 10.6477 565 96.2106 1039.21 488.264
885 0 55.0847 12.0723 665 92.0722 1039.73 488.553
886 0 57.0909 10.8774 621 94.2432 1039.38 488.072
887 0 60.0701 12.1858 732 92.4645 1039.75 486.261
888 0 60.0424 11.8749 713 93.5848 1039.94 485.217
889 0 61.0272 11.0606 675 95.8652 1040.07 484.919
890 0 65.1368 12.1744 793 92.8184 1040.34 484.492
891 0 68.1105 13.1257 894 91.1286 1039.92 483.368
892 0 69.1422 11.0786 766 96.1332 1040.19 480.078
893 0 72.0611 12.4755 899 93.3771 1039.44 480.425
894 0 75.0724 12.1616 913 94.6156 1039.98 477.614
895 0 77.1708 13.4248 1036 93.2336 1039.72 476.892
896 0 79.0699 12.8241 1014 94.644 1039.49 476.68
897 0 81.3331 12.3074 1001 97.05 1039.92 474.585
898 0 85.2315 13.7273 1170 95.0632 1040.44 471.618
899 0 87.2092 12.3037 1073 85.9096 1040.4 473.847
900 0 91.1315 12.8496 1171 97.9436 1040.54 469.197
901 0 93.2239 12.6577 1180 99.0093 1040.59 466.675
902 0 95.0694 11.3075 1075 102.754 1040.6 469.479
903 0 99.1303 13.225 1311 99.1762 1040.39 465.766
904 0 103.379 10.4277 1078 103.679 1039.99 466.854
905 0 106.139 8.74324 928 107.414 1039.85 463.597
906 0 109.304 10.4388 1141 102.313 1040.03 466.238
907 0 112.141 12.7518 1430 96.9629 1039.43 457.555
908 1 57.0239 9.45217 539 94.9128 1040.04 488.974
909 0 60.0359 10.8768 653 93.2435 1040.17 487.44
910 0 62.0635 11.0693 687 93.3057 1040.39 483.971
911 0 64.1425 12.2228 784 89.9809 1040.49 485.352
912 0 67.1246 11.3967 765 91.9686 1041.03 482.289
913 1 136.196 12.0561 1642 96.6845 1039.86 448.482
914 0 137.295 10.8307 1487 98.8124 1040.29 449.595
915 1 76.1345 9.49635 723 93.4191 1040.75 480.492
916 0 80.0925 12.3357 988 88.4383 1039.8 475.563
917 0 81.1209 9.97277 809 90.9382 1040.03 478.252
918 0 88.0561 10.1072 890 91.4135 1040.44 474.492
919 0 89.1093 12.1536 1083 88.7922 1040.84 471.054
920 0 96.0988 10.3851 998 91.6313 1040.64 468.664
921 0 96.1784 11.5203 1108 92.2058 1041.08 469.708
922 1 51.1594 11.3371 580 94.7172 1040.49 489.098
923 0 53.1582 11.795 627 94.7751 1040.8 484.971
924 0 55.0883 12.3075 678 94.9498 1040.02 485.617
925 0 55.1449 11.0436 609 97.2496 1040.56 486.709
926 0 58.1166 11.8899 691 95.1997 1040.32 485.567
927 0 59.0433 11.6186 686 96.2609 1040.07 485.098
928 0 60.1761 12.4302 748 94.5013 1040.66 483.513
929 0 65.1066 13.2552 863 91.8946 1040.66 481.772
930 0 66.1568 12.3646 818 93.3007 1040.47 481.268
931 0 66.185 12.6313 836 94.0191 1041.26 476.803
932 0 70.0996 12.0115 842 94.6876 1040.65 476.482
933 0 73.097 12.1209 886 94.167 1040.66 477.679
934 0 76.2794 11.7725 898 94.637 1040.27 475.646
935 0 77.3457 12.0757 934 95.1692 1040.84 471.922
936 0 80.2138 11.3447 910 94.8451 1039.68 473.276
937 0 81.1671 11.6673 947 94.4636 1040.98 469.353
938 0 85.1508 12.6129 1074 91.6639 1040.8 470.758
939 0 88.2446 12.2954 1085 92.8166 1041.68 469.913
940 0 91.1981 12.6538 1154 91.7426 1040.73 468.593
941 0 94.2114 12.8328 1209 92.0513 1040.14 463.99
942 0 98.1657 12.3363 1211 92.3807 1040.98 465.192
943 0 100.279 12.6846 1272 92.1399 1040.61 460.517
944 0 104.202 13.9536 1454 89.3171 1040.05 459.688
945 0 106.369 12.9267 1375 90.9236 1040.02 459.953
946 1 61.1795 12.2753 751 91.7723 1040.21 479.609
947 0 64.0959 12.2317 784 82.5906 1040.05 477.861
948 0 66.14 9.85788 652 82.6871 1041.27 480.129
949 0 67.0779 12.7165 853 81.2005 1040.42 474.319
950 0 69.1234 12.8032 885 80.9864 1040.71 475.678
951 0 69.0418 12.2534 846 86.0816 1040.67 472.437
952 0 76.1584 11.7518 895 87.0436 1040.37 468.49
953 0 79.1169 11.78 932 87.9539 1040.09 467.548
954 0 80.1775 12.6095 1011 87.3551 1040.32 467.57
955 0 86.2131 14.7309 1270 85.1528 1040.14 464.106
956 0 87.0923 13.434 1170 87.7932 1039.93 462.884
957 0 91.0995 12.9858 1183 90.1217 1039.44 460.694
958 0 98.2594 14.5737 1432 89.7828 1040.42 464.437
959 0 99.1652 15.5196 1539 88.9253 1040.38 460.761
960 0 103.36 13.2739 1372 93.8819 1040.83 459.146
961 0 108.171 14.209 1537 92.9499 1040.03 456.451
962 0 111.271 14.568 1621 93.7705 1041.23 452.342
963 0 116.268 13.7527 1599 95.3352 1040.16 453.564
964 0 121.114 14.5978 1768 93.3411 1040.4 454.93
965 0 124.213 13.8874 1725 94.8846 1039.62 450.13
966 0 130.234 14.7273 1918 93.0271 1040.05 448.687
967 0 134.233 13.6255 1829 94.7676 1040.14 444.845
968 1 69.1633 10.5258 728 94.7431 1040.58 478.793
969 0 74.1382 12.0181 891 92.7475 1041.65 478.191
970 0 76.1235 14.3451 1092 89.9451 1040.36 475.462
971 0 79.1476 11.9018 942 93.3928 1040.87 476.78
972 0 81.137 13.8038 1120 91.4964 1040.84 473.296
973 0 86.0887 13.8462 1192 91.4748 1040.42 468.972
974 0 91.1097 14.0051 1276 90.3824 1040.76 470.513
975 0 90.0688 11.8243 1065 95.5577 1039.35 466.916
976 0 96.1534 12.6361 1215 93.4691 1040.5 465.793
977 0 99.0969 12.6846 1257 93.3071 1040.07 463.131
978 0 104.198 13.3208 1388 92.7882 1040.14 461.237
979 0 107.316 13.6326 1463 92.4258 1040.14 461.663
980 0 111.115 12.6715 1408 96.093 1040.18 457.683
981 0 117.171 13.3224 1561 97.533 1040.3 452.505
982 0 124.241 14.5121 1803 93.1558 1040.03 450.678
983 1 64.1029 11.7311 752 88.7048 1040.46 481.016
984 0 62.1039 10.418 647 90.1267 1040.18 473.688
985 0 64.1296 10.8374 695 88.954 1039.76 476.176
986 0 70.0168 12.397 868 84.6567 1040.89 481.204
987 0 74.1655 12.7822 948 89.9061 1040.28 477.09
988 0 75.1495 12.5749 945 90.9905 1040.19 475.628
989 0 77.0875 12.155 937 93.2145 1040.76 472.54
990 0 81.2798 12.4385 1011 92.905 1040.32 472.172
991 0 84.3156 12.7497 1075 93.3898 1040.23 468.571
992 0 89.1301 13.5757 1210 91.2942 1040.27 470.398
993 0 88.193 12.6881 1119 94.3664 1040.11 464.438
994 0 94.3016 13.1811 1243 92.9155 1040.25 465.064
995 0 96.2327 11.5657 1113 94.796 1040.23 466.171
996 0 101.291 12.2419 1240 94.8194 1040.06 461.494
997 0 104.155 12.1166 1262 94.9842 1040.03 461.243
998 0 105.115 11.5207 1211 96.725 1039.71 453.984
999 1 58.1308 10.8032 628 85.7213 1039.34 483.022
1000 0 61.0668 10.0873 616 85.2435 1040.36 484.976
1001 0 60.0615 10.5225 632 85.9921 1040.35 483.31
1002 0 64.0424 10.2432 656 86.8232 1040.19 482.764
1003 0 64.0574 9.91299 635 88.1512 1039.88 480.187
1004 0 69.151 10.3542 716 87.9679 1039.99 477.338
1005 0 72.0697 10.5037 757 89.0079 1040.36 474.012
1006 0 75.0385 11.2742 846 88.7695 1040.55 476.174
1007 0 77.1159 11.165 861 91.1127 1040.57 473.454
1008 0 81.1784 12.183 989 92.4894 1040.33 468.632
1009 0 87.1562 12.3112 1073 94.6738 1040.63 470.41
1010 0 88.2102 13.1731 1162 95.4234 1041.04 464.244
1011 0 89.2024 11.3562 1013 100.037 1040.91 462.444
1012 0 95.0875 11.8102 1123 99.9466 1040.54 461.424
1013 0 98.2318 11.7579 1155 96.5974 1040.45 462.595
1014 0 101.274 13.5079 1368 93.8947 1040.41 458.735
1015 0 103.226 10.2978 1063 96.1082 1040.37 461.761
1016 0 109.218 11.6281 1270 96.7606 1041.06 456.228
1017 0 113.076 10.1436 1147 98.7585 1041.19 457.944
1018 0 115.108 11.3632 1308 99.117 1041.85 451.327
1019 1 64.0673 9.41198 603 98.3798 1041.81 479.216
1020 0 69.0731 11.0897 766 93.7063 1041.02 476.807
1021 0 69.0706 9.91738 685 95.0803 1041.98 479.152
1022 0 73.1383 11.6355 851 92.8801 1041.06 476.429
1023 0 75.201 12.42 934 92.4111 1041.04 473.515
1024 0 80.1944 12.9311 1037 91.0434 1040.46 472.981
1025 0 81.1266 9.92276 805 96.0162 1041 475.476
1026 0 85.1605 11.9304 1016 93.8602 1041.08 472.384
1027 0 85.0905 10.7415 914 97.0263 1040.45 470.33
1028 0 90.1578 12.1787 1098 95.8015 1041.21 467.597
1029 0 93.1201 11.2006 1043 99.21 1041.03 463.886
1030 0 98.0698 12.9907 1274 94.6287 1041.81 466.106
1031 0 109.284 11.6303 1271 103.384 1041.22 461.336
1032 0 107.139 12.2085 1308 103.307 1040.63 458.573
1033 0 110.265 12.089 1333 102.374 1040.84 452.613
1034 0 114.351 12.208 1396 105.649 1040.37 449.325
1035 1 63.0806 11.1762 705 97.7064 1041.56 478.984
1036 0 67.1028 11.5494 775 95.48 1041.79 480.769
1037 0 67.1758 11.6262 781 93.9539 1042.28 476.501
1038 0 70.0602 11.0762 776 94.7023 1041.94 475.594
1039 0 73.1196 10.8179 791 94.5424 1041.67 474.468
1040 0 75.0887 11.6795 877 93.7024 1041.71 473.188
1041 0 79.0889 12.0244 951 92.1724 1042.02 474.283
1042 0 79.0906 11.0506 874 94.8764 1041.19 469.61
1043 0 85.1264 11.6768 994 93.1972 1040.8 470.515
1044 0 85.1822 12.4439 1060 93.1142 1040.77 467.537
1045 0 89.1283 11.4778 1023 95.5054 1041.13 464.404
1046 0 93.1186 14.1433 1317 91.5938 1041.37 463.985
1047 0 95.2145 13.3173 1268 94.7106 1041.28 462.501
1048 0 99.4222 12.8643 1279 96.416 1040.69 459.651
1049 0 101.298 13.0309 1320 97.447 1041.03 458.407
1050 0 105.266 13.4326 1414 98.2539 1040.63 456.96
1051 0 107.14 11.1536 1195 107.069 1040.82 458.205
1052 0 112.238 13.0705 1467 102.542 1040.67 455.851
1053 0 115.331 13.7778 1589 102.699 1040.51 449.001
1054 0 120.191 12.9627 1558 104.929 1040.76 450.922
1055 0 121.325 12.7014 1541 107.096 1040.45 447.522
1056 1 69.0663 9.65739 667 105.876 1041.17 474.585
1057 0 71.1523 10.2878 732 104.607 1041.14 473.777
1058 0 73.1265 10.9536 801 104.9 1040.31 470.099
1059 0 75.0824 13.8381 1039 99.589 1040.19 467.81
1060 0 79.1715 12.555 994 101.025 1041.02 469.421
1061 0 83.2151 13.1587 1095 98.1534 1041.82 471.192
1062 0 82.0405 11.8966 976 101.058 1041.1 469.715
1063 0 82.0405 11.8478 972 150.506 1040.09 469.624
1064 0 90.0948 11.5434 1040 101.933 1041.74 468.722
1065 0 92.1118 11.5729 1066 103.453 1041.37 466.374
1066 0 95.108 10.9665 1043 103.038 1040.87 467.072
1067 0 97.1862 11.1333 1082 105.308 1040.75 464.971
1068 0 102.154 13.0196 1330 99.8511 1040.85 463.974
1069 0 104.132 12.6954 1322 101.073 1040.79 459.607
1070 0 109.211 10.8414 1184 103.098 1041.38 462.026
1071 0 113.162 11.7884 1334 102.152 1041.09 458.345
1072 0 116.244 11.3898 1324 103.319 1041.18 456.048
1073 1 63.1305 11.3416 716 97.3073 1042.43 481.23
1074 0 62.0844 9.16494 569 104.729 1040.61 477.656
1075 0 66.0743 11.3811 752 95.238 1040.31 475.997
1076 0 70.0919 12.0271 843 85.344 1040.17 468.571
1077 0 68.0603 10.7846 734 88.1758 1040.26 468.92
1078 0 70.1175 10.5537 740 89.4527 1041.21 468.02
1079 0 70.0942 12.1123 849 88.2792 1040.41 465.355
1080 0 75.0275 11.4225 857 89.2252 1040.4 463.723
1081 0 76.0647 11.0432 840 90.7976 1040.82 460.926
1082 0 80.0537 12.4042 993 88.7432 1041.32 463.401
1083 0 88.0369 10.8023 951 95.5994 1040.92 466.411
1084 0 88.1778 10.9665 967 95.3682 1041.51 467.013
1085 0 93.2097 11.9408 1113 94.3181 1040.95 463.538
1086 0 94.1418 12.205 1149 94.0914 1041.13 462.174
1087 0 98.1781 12.6912 1246 93.0193 1041.12 461.864
1088 0 99.1793 10.4659 1038 96.8102 1041.79 459.298
1089 0 102.13 11.0252 1126 98.1439 1041.45 455.595
1090 0 109.291 12.6269 1380 93.5167 1041.08 457.351
1091 0 113.256 12.6086 1428 95.409 1040.64 452.978
1092 0 118.199 12.902 1525 96.6721 1041.64 447.198
1093 0 123.283 12.8241 1581 94.0658 1040.89 445.55
1094 1 63.0726 11.2727 711 89.7623 1041.76 475.309
1095 0 68.0451 12.286 836 87.2632 1041.94 474.667
1096 0 68.0688 12.4433 847 86.0449 1041.39 473.04
1097 0 75.1142 13.9255 1046 82.2725 1041.87 472.695
1098 0 76.0607 11.3988 867 86.7278 1041.38 470.423
1099 0 76.0964 11.9848 912 85.9605 1041.53 469.48
1100 0 81.097 13.9339 1130 81.8186 1041.15 466.779
1101 0 84.095 12.9853 1092 83.0165 1040.94 469.402
1102 0 88.3559 13.0042 1149 82.5178 1041.57 466.298
1103 0 90.2464 12.3994 1119 83.8543 1041.22 464.367
1104 0 91.0953 11.6252 1059 85.7743 1041.51 463.732
1105 0 97.0704 10.0752 978 84.5072 1041.65 461.488
1106 0 97.1014 11.4725 1114 82.6697 1041.59 460.013
1107 0 102.185 11.3618 1161 81.3566 1041.37 455.53
1108 0 107.169 12.3823 1327 80.2969 1042.23 457.736
1109 0 109.306 9.5603 1045 82.8565 1041.81 458.068
1110 0 114.11 11.7869 1345 80.9204 1041.89 453.19
1111 0 117.406 12.3418 1449 78.1815 1041.5 450.492
1112 1 68.0926 12.1159 825 75.2473 1042.15 478.779
1113 0 69.0634 11.6704 806 76.7382 1040.49 474.72
1114 0 71.1214 10.9531 779 74.0899 1041.35 469.295
1115 0 72.0802 9.80851 707 76.3395 1041.81 472.359
1116 0 76.2197 11.7424 895 73.7028 1041.15 470.501
1117 0 79.109 11.7559 930 74.5376 1041.58 469.72
1118 0 81.2187 11.4752 932 76.4517 1042.03 468.433
1119 0 81.1285 10.5265 854 77.4297 1042.1 472.728
1120 0 87.1212 7.50679 654 81.0199 1042.13 471.098
1121 0 89.2007 11.3452 1012 77.5603 1042.04 467.108
1122 0 90.1255 9.84183 887 83.0485 1042.16 461.855
1123 0 97.3021 12.2402 1191 86.8035 1041.06 459.566
1124 0 99.2259 10.6928 1061 90.2677 1041.68 455.719
1125 0 103.359 11.1166 1149 87.5135 1041.26 453.634
1126 1 54.101 10.0368 543 85.2652 1041.35 473.365
1127 0 57.319 11.0784 635 83.1764 1041.81 477.085
1128 0 59.1234 10.7402 635 84.0709 1041.23 479.099
1129 0 60.1329 11.3083 680 78.1118 1041.91 478.065
1130 0 62.0737 10.8097 671 79.2563 1041.59 477.741
1131 0 66.0405 11.6747 771 78.0467 1041.51 478.121
1132 0 67.0325 11.6958 784 78.7844 1042.19 475.663
1133 0 71.0945 12.9546 921 76.9566 1041.85 476.21
1134 0 73.107 13.3913 979 77.43 1041.66 474.106
1135 0 75.0814 13.5453 1017 78.3294 1041.44 473.256
1136 0 77.1057 12.4115 957 81.1693 1041.54 470.785
1137 0 79.0578 12.7122 1005 81.2239 1041.63 471.806
1138 0 82.1848 13.6278 1120 80.7812 1041.62 469.263
1139 0 84.147 12.597 1060 83.4755 1041.09 464.933
1140 0 88.154 14.0776 1241 82.3811 1041.6 464.753
1141 0 89.0971 12.2002 1087 86.8574 1041.14 464.776
1142 0 94.1609 13.3495 1257 89.008 1042.08 462.918
1143 0 96.1189 13.2544 1274 85.7826 1041.88 460.283
1144 1 55.1318 12.2797 677 86.6263 1041.28 480.873
1145 0 58.1727 12.5488 730 85.4192 1040.93 480.789
1146 0 58.1245 11.7334 682 87.6378 1041.31 479.129
1147 0 60.171 12.5974 758 87.748 1041.72 475.012
1148 0 63.1696 13.1234 829 86.5271 1042.17 477.2
1149 0 64.1788 11.7952 757 89.5931 1042.6 474.815
1150 0 65.0952 12.6891 826 95.1538 1041.41 474.649
1151 0 68.1112 13.4486 916 93.8592 1042.14 472.894
1152 0 67.1351 11.8567 796 98.0854 1042.18 472.71
1153 0 70.0364 11.4655 803 98.3935 1041.46 470.77
1154 0 75.2178 14.8369 1116 91.4471 1042.89 471.2
1155 0 76.133 13.8967 1058 93.9811 1041.27 469.26
1156 0 80.247 12.1126 972 97.2551 1042.06 468.494
1157 0 81.1582 12.4448 1010 96.702 1042.17 468.548
1158 0 84.1328 13.027 1096 96.8294 1042.71 466.192
1159 0 87.0857 13.3087 1159 96.4038 1042.53 464.332
1160 0 91.1825 12.7766 1165 98.3519 1042.22 461.761
1161 0 92.1188 12.3862 1141 100.404 1042.77 459.746
1162 0 99.2274 11.0957 1101 101.428 1042.44 461.071
1163 0 95.0899 11.2104 1066 103.609 1042.45 457.137
1164 0 104.056 13.7714 1433 97.7034 1042.46 454.743
1165 1 57.097 9.93048 567 99.7002 1041.89 477.843
1166 0 60.1288 11.8246 711 95.8101 1041.82 477.886
1167 0 62.0723 11.9377 741 95.1862 1042.42 479.497
1168 0 60.1073 11.912 716 99.5628 1042.04 471.82
1169 0 58.1452 11.3853 662 103.077 1042.37 471.208
1170 0 65.0975 13.042 849 96.8163 1042.42 472.948
1171 0 67.0648 11.1683 749 100.656 1042.4 474.332
1172 0 69.0862 11.8548 819 98.4493 1041.84 474.466
1173 0 73.1011 12.216 893 99.1344 1042.85 471.121
1174 0 72.1135 11.2462 811 100.882 1042.33 472.651
1175 0 77.1052 12.243 944 98.3538 1043.57 469.68
1176 0 81.0861 12.8752 1044 97.9253 1042.88 466.166
1177 0 85.1645 11.9533 1018 97.8821 1043.04 468.476
1178 0 84.1357 11.5171 969 99.8111 1042.92 466.114
1179 0 90.1018 12.9631 1168 97.2714 1042.6 461.466
1180 0 91.121 13.3339 1215 96.884 1041.64 459.797
1181 0 93.0602 12.637 1176 97.506 1042.12 459.436
1182 0 97.2091 11.8199 1149 99.4796 1042.07 456.28
1183 0 95.0612 10.5932 1007 103.781 1041.66 452.673
1184 0 97.245 11.5584 1124 101.753 1041.57 453.232
1185 0 106.114 12.6373 1341 99.5436 1041.81 451.214
1186 0 105.186 11.3418 1193 103.505 1041.62 448.624
1187 0 110.138 11.8942 1310 102.87 1042.19 446.505
1188 0 116.192 11.9199 1385 100.897 1042.65 448.012
1189 0 120.246 11.7676 1415 102.304 1041.78 440.914
1190 1 65.076 8.95875 583 100.103 1041.77 471.25
1191 0 70.1092 10.4409 732 98.0301 1041.98 470.321
1192 0 73.0605 12.5923 920 92.6348 1041.68 474.507
1193 0 75.0432 10.3807 779 96.2555 1041.32 474.42
1194 0 77.0682 11.7039 902 95.9712 1040.7 469.508
1195 0 81.0414 12.1173 982 95.6843 1041.38 467.697
1196 0 84.1596 12.7971 1077 94.6267 1041.42 465.67
1197 0 87.0694 13.7477 1197 92.7962 1041.79 464.921
1198 0 89.054 12.7563 1136 95.2738 1041.36 463.016
1199 0 92.105 13.4412 1238 94.3142 1042.23 461.796
1200 0 94.112 11.7413 1105 97.5991 1041.58 459.705
1201 0 97.1248 13.3745 1299 94.4819 1041.55 456.915
1202 0 98.0897 11.8667 1164 98.1778 1041.79 454.639
1203 0 99.1729 14.0159 1390 95.0525 1042 453.333
1204 0 103.146 13.6118 1404 94.7222 1041.14 452.571
1205 0 102.122 12.7984 1307 97.7345 1041.45 446.845
1206 0 105.146 14.6748 1543 92.2016 1041.36 448.018
1207 0 105.185 12.4447 1309 96.5202 1041.67 443.54
1208 0 110.252 12.9794 1431 95.6373 1042.01 438.948
1209 0 114.257 12.6206 1442 95.6103 1042.93 438.548
1210 0 117.159 13.3323 1562 93.9949 1042.78 433.953
1211 0 121.071 13.4549 1629 94.4966 1043.25 432.151
1212 0 127.171 12.8174 1630 94.7847 1042.53 430.037
1213 1 68.084 8.6364 588 93.9694 1042.79 460.463
1214 0 70.1254 9.24059 648 91.7577 1042.49 459.361
1215 0 76.0565 11.2679 857 86.8063 1041.81 460.25
1216 0 79.1095 11.3387 897 81.5329 1041.96 458.652
1217 0 85.1157 10.5738 900 81.5133 1041.94 462.323
1218 0 93.0913 11.0322 1027 86.1451 1042.95 463.855
1219 0 95.1645 11.5799 1102 85.7142 1043.02 463.4
1220 0 96.1251 10.2575 986 90.5335 1043.15 460.416
1221 0 100.257 11.5303 1156 88.9351 1042.77 461.525
1222 0 101.15 11.913 1205 90.6656 1042.71 453.89
1223 0 107.128 12.135 1300 89.9131 1043.02 453.868
1224 0 110.164 13.1986 1454 89.304 1042.96 452.799
1225 0 113.141 12.2767 1389 90.7027 1043.05 453.489
1226 0 113.126 12.7291 1440 92.1243 1041.91 454.312
1227 0 118.094 13.54 1599 91.2108 1041.75 450.575
1228 0 121.101 13.947 1689 94.5477 1041.88 444.058
1229 0 127.118 14.4197 1833 92.6198 1041.47 448.502
1230 0 131.16 13.7085 1798 95.0117 1042.62 444.852
1231 0 131.216 12.1403 1593 98.8161 1042.91 438.109
1232 0 137.151 12.9857 1781 96.6334 1042.11 439.118
1233 0 142.144 12.4169 1765 96.1881 1042.37 434.826
1234 0 142.267 11.1902 1592 98.1162 1042.16 431.042
1235 1 82.163 9.50549 781 84.5864 1042.72 465.665
1236 0 86.1329 10.4141 897 84.7079 1041.8 463.223
1237 0 91.0714 11.749 1070 85.7383 1042.64 466.78
1238 0 90.0328 10.6739 961 88.6993 1042.97 463.426
1239 0 95.0947 12.3666 1176 87.1922 1043.18 465.122
1240 0 95.1004 7.7497 737 94.4071 1043.26 454.909
1241 0 97.1556 10.6427 1034 91.4952 1042.95 455.493
1242 0 106.22 12.3706 1314 95.8965 1042.38 458.493
1243 0 109.093 12.668 1382 95.1946 1042.71 458.253
1244 0 112.188 11.659 1308 95.8884 1042.66 459.626
1245 0 110.134 10.3147 1136 97.2729 1042.67 454.192
1246 0 115.303 11.8123 1362 99.2291 1042.32 454.621
1247 0 120.196 10.8823 1308 98.302 1043.08 454.934
1248 0 124.118 11.183 1388 97.5627 1042.03 454.019
1249 0 127.145 11.8841 1511 97.5023 1042 445.875
1250 1 69.1405 10.2979 712 92.9916 1042.28 474.518
1251 0 72.1253 11.9237 860 91.2895 1041.72 474.974
1252 0 73.1242 12.2942 899 97.1924 1042.5 473.89
1253 0 74.0877 10.933 810 100.277 1042.03 471.67
1254 0 78.1778 11.7936 922 98.154 1042.63 471.472
1255 0 80.1256 11.3197 907 99.2635 1042.57 471.846
1256 0 84.1207 11.8758 999 98.1431 1042.88 469.909
1257 0 84.2037 11.6978 985 99.3817 1042.44 468.225
1258 0 86.2158 13.4894 1163 96.8366 1042.52 464.976
1259 0 88.0703 11.6952 1030 99.599 1042.47 466.237
1260 0 91.0387 12.3354 1123 98.6981 1043 465.089
1261 0 92.1023 9.97803 919 103.982 1042.72 462.726
1262 0 95.0965 12.3033 1170 100.156 1043.12 461.679
1263 0 98.1592 11.7972 1158 101.988 1042.45 458.133
1264 0 99.0871 12.7262 1261 100.377 1042.82 459.082
1265 0 103.06 12.1482 1252 101.876 1042.34 458.557
1266 0 104.096 12.1811 1268 102.448 1042.56 455.041
1267 0 106.122 12.0521 1279 103.344 1042.03 454.919
1268 0 110.151 12.0471 1327 103.087 1042.55 451.849
1269 0 113.259 12.3346 1397 102.512 1042.67 448.562
1270 0 116.164 12.3532 1435 98.1888 1043.14 446.532
1271 0 120.168 12.4825 1500 101.641 1043.5 446.334
1272 0 125.2 13.1709 1649 99.6731 1042.62 442.342
1273 0 131.211 12.7962 1679 99.0107 1043.09 443.899
1274 0 134.224 11.8607 1592 99.1137 1042.32 439.607
1275 0 139.267 12.7381 1774 97.4583 1042.46 438.117
1276 0 144.134 11.8848 1713 97.8027 1042.7 435.813
1277 0 150.357 11.772 1770 98.7994 1043.15 430.097
1278 1 85.2052 10.2576 874 86.9806 1042.89 468.998
1279 0 88.123 11.4499 1009 91.227 1042.32 467.218
1280 0 89.0314 10.9849 978 92.6503 1042.49 467.233
1281 0 90.0965 11.0104 992 86.127 1043.2 465.055
1282 0 94.2275 10.7081 1009 86.9257 1043.06 463.067
1283 0 96.2863 11.2685 1085 85.9032 1042.27 461.935
1284 0 98.0913 11.9073 1168 86.4726 1043.19 460.58
1285 0 102.195 10.2549 1048 89.021 1043.71 461.512
1286 0 103.254 11.1763 1154 90.2669 1042.89 457.217
1287 0 106.19 10.2363 1087 92.1969 1043.23 455.466
1288 0 109.237 10.1614 1110 93.0342 1043.21 457.869
1289 0 111.123 9.56601 1063 95.2775 1044.25 456.059
1290 0 116.115 11.5575 1342 95.4091 1043.48 447.224
1291 0 116.219 9.76605 1135 99.1568 1044.09 447.333
1292 0 121.336 11.3486 1377 97.5294 1042.65 448.67
1293 0 125.13 11.4201 1429 98.1658 1042.65 446.523
1294 0 127.146 10.5234 1338 101.217 1042.88 442.136
1295 0 129.351 11.8051 1527 99.7158 1042.76 441.097
1296 0 132.232 11.1697 1477 101.96 1043.19 436.299
1297 0 139.201 11.566 1610 100.842 1043 436.135
1298 0 141.116 11.5082 1624 101.847 1042.98 434.751
1299 0 147.22 12.3557 1819 100.123 1042.93 433.532
1300 0 149.262 11.711 1748 102.405 1042.09 429.649
1301 0 154.339 12.6281 1949 102.248 1043.17 425.155
1302 0 162.302 13.0744 2122 101.483 1042.83 427.098
1303 1 92.3235 11.9471 1103 93.5177 1043.65 463.856
1304 0 94.3024 11.9509 1127 96.2671 1042.73 459.85
1305 0 97.3601 12.9519 1261 89.0111 1042.53 463.578
1306 0 99.1535 11.0939 1100 93.0891 1043.58 461.035
1307 0 103.206 11.54 1191 92.7154 1042.92 458.673
1308 0 105.209 12.1853 1282 91.6669 1043.3 457.582
1309 0 109.327 12.0282 1315 93.3475 1043.26 455.106
1310 0 110.11 11.0889 1221 96.8509 1042.98 453.187
1311 0 118.168 11.179 1321 95.402 1042.87 452.385
1312 0 119.212 11.165 1331 95.0293 1042.71 453.696
1313 0 124.32 12.6045 1567 94.6535 1042.5 446.606
1314 0 128.217 12.0811 1549 95.869 1041.22 443.42
1315 0 130.309 10.6133 1383 100.552 1041.81 440.138
1316 1 76.2245 11.5711 882 95.7007 1042.45 472.791
1317 0 74.1557 10.1273 751 95.5246 1042.54 466.36
1318 0 78.1927 12.2134 955 94.1131 1042.28 466.909
1319 0 77.1147 10.9447 844 97.8578 1042.87 466.231
1320 0 82.1413 13.3307 1095 93.3342 1042.44 464.645
1321 0 82.2619 12.2657 1009 97.9158 1042.35 464.442
1322 0 85.256 12.1751 1038 98.9605 1041.73 461.182
1323 0 85.13 13.0154 1108 98.6751 1042.04 461.637
1324 0 87.1769 11.5742 1009 102.857 1041.19 460.46
1325 0 91.2039 12.9051 1177 100.381 1041.61 457.652
1326 0 93.1031 12.2015 1136 98.9005 1041.59 461.635
1327 0 95.2444 12.0007 1143 98.622 1041.36 461.629
1328 0 93.2047 11.4265 1065 101.938 1041.11 456.709
1329 0 95.0941 11.7568 1118 102.124 1040.47 455.704
1330 0 96.1401 10.4119 1001 105.277 1041.13 455.207
1331 0 103.106 11.7452 1211 102.671 1041.99 451.855
1332 0 103.213 11.1517 1151 104.714 1041.32 451.453
1333 1 56.1169 10.692 600 99.65 1042.06 472.347
1334 0 61.1102 11.9129 728 95.5591 1041.6 477.283
1335 0 62.2331 11.9872 746 95.9718 1041.13 477.987
1336 0 65.1974 11.0741 722 97.9404 1040.9 477.384
1337 0 66.2386 11.7454 778 97.1607 1040.39 476.292
1338 0 68.2357 11.8413 808 97.7203 1041.12 476.556
1339 0 71.1092 12.3331 877 96.057 1040.26 477.702
1340 0 73.2801 12.2407 897 95.767 1040.85 478.813
1341 0 74.1769 12.1871 904 96.969 1040.55 477.168
1342 0 77.144 12.0943 933 97.239 1039.92 473.487
1343 0 76.2569 12.13 925 97.6476 1039.57 471.954
1344 0 79.2243 12.1806 965 97.6912 1039.64 470.809
1345 0 82.136 13.7577 1130 93.6832 1039.73 472.185
1346 0 84.1758 13.1986 1111 94.9757 1040.79 472.257
1347 0 85.1694 12.8332 1093 96.0695 1040.5 471.046
1348 0 86.185 12.1947 1051 97.2198 1039.6 467.17
1349 0 86.1771 12.9965 1120 96.183 1038.98 465.962
1350 0 89.1846 12.5134 1116 96.5932 1038.96 465.418
1351 0 90.3344 11.1918 1011 99.0762 1038.23 462.509
1352 0 94.1723 12.5302 1180 96.0814 1038.81 460.727
1353 0 93.1659 12.7085 1184 96.6216 1039.12 459.707
1354 0 99.3352 13.3689 1328 94.3276 1039.32 458.165
1355 0 100.099 11.7384 1175 97.9702 1039.42 456.574
1356 0 100.099 12.3977 1241 97.0822 1039.44 456.732
1357 0 104.236 11.5699 1206 97.4005 1039.98 454.954
1358 0 106.1 11.6776 1239 96.8588 1039.83 454.269
1359 0 110.062 12.0841 1330 96.7278 1039.22 447.379
1360 0 115.164 13.4157 1545 92.7236 1038.35 446.76
1361 0 120.169 12.4325 1494 93.9913 1038.39 440.352
1362 0 123.197 11.9646 1474 94.8324 1038.72 438.638
1363 1 66.0967 9.31967 616 91.2792 1039.08 472.106
1364 0 72.1768 10.4327 753 94.3533 1038.79 478.865
1365 0 78.1624 11.7064 915 88.3016 1039.3 478.968
1366 0 77.0366 11.3712 876 90.5548 1039.38 477.616
1367 0 78.0618 10.7095 836 91.6459 1039.6 477.774
1368 0 81.0576 12.4973 1013 89.9931 1039.76 473.487
1369 0 82.081 11.0744 909 93.2233 1040.02 472.43
1370 0 82.0582 10.9556 899 93.9844 1039.63 472.447
1371 0 83.1128 10.2872 855 95.7053 1039.28 472.448
1372 0 87.0837 11.0698 964 94.2708 1038.82 470.274
1373 0 89.1425 10.9712 978 95.6084 1039.16 468.691
1374 0 89.0564 10.3081 918 97.9074 1038.85 466.112
1375 0 96.0595 13.0128 1250 92.8336 1038.92 465.44
1376 0 99.251 12.1409 1205 94.7295 1038.69 465.076
1377 0 97.0991 11.4831 1115 97.7731 1038.52 461.622
1378 0 105.09 13.3885 1407 92.5622 1037.92 460.829
1379 0 111.065 11.6418 1293 95.7626 1038.52 457.279
1380 0 109.128 11.931 1302 95.0161 1037.68 459.664
1381 0 113.163 10.4009 1177 97.1759 1037.95 453.311
1382 0 114.24 11.4933 1313 94.345 1037.35 447.353
1383 0 118.148 11.511 1360 94.6507 1038.07 448.359
1384 0 118.173 11.5424 1364 95.1114 1037.61 444.849
1385 0 125.146 13.0807 1637 93.0269 1038.2 441.374
1386 0 128.126 10.5443 1351 95.7565 1038.45 445.81
1387 1 72.0983 10.3886 749 88.4232 1039.03 471.223
1388 0 75.1234 11.1816 840 87.4429 1038.61 471.979
1389 0 80.0804 12.7247 1019 95.1796 1038.63 473.868
1390 0 82.1131 11.4963 944 92.9301 1038.44 477.858
1391 0 81.119 11.2427 912 95.9309 1038.9 474.587
1392 0 93.1046 9.31211 867 95.4787 1038.68 478.999
1393 0 91.23 12.4082 1132 92.6943 1037.69 471.149
1394 0 93.1017 12.6743 1180 93.4856 1038.48 467.792
1395 0 95.2167 12.9284 1231 93.108 1038.46 466.742
1396 0 97.1916 12.5422 1219 93.9434 1038.15 466.683
1397 0 101.125 13.2015 1335 93.042 1038.44 463.766
1398 0 104.162 13.7766 1435 92.2376 1038.44 465.656
1399 0 107.168 13.2782 1423 94.1757 1038.17 463.845
1400 0 111.256 14.6509 1630 91.265 1037.67 462.367
1401 0 111.09 12.4223 1380 96.6399 1037.89 461.393
1402 0 115.097 13.38 1540 94.6338 1037.38 455.705
1403 0 117.168 11.7438 1376 97.1214 1037.27 457.253
1404 0 124.108 14.1328 1754 99.0564 1037.4 455.449
1405 0 127.286 14.8956 1896 97.7553 1037.54 448.445
1406 0 128.156 13.7254 1759 101.976 1038.11 446.262
1407 0 132.274 13.8123 1827 101.21 1037.66 448.796
1408 0 139.219 13.2237 1841 102.334 1038.09 444.249
1409 0 142.238 14.0188 1994 101.183 1037.83 441.406
1410 0 148.226 13.6009 2016 100.71 1038.28 440.135
1411 0 150.366 13.3209 2003 103.213 1037.51 432.83
1412 0 158.346 12.7316 2016 102.301 1038.45 433.431
1413 0 162.312 12.4821 2026 102.353 1037.82 431.093
1414 0 166.475 10.6563 1774 104.499 1037.7 432.191
1415 0 173.427 13.8617 2404 98.1223 1037.43 425.629
1416 0 177.487 12.7277 2259 97.857 1037.43 424.484
1417 0 183.504 12.6101 2314 99.1992 1037.42 420.169
1418 0 188.524 12.81 2415 99.1946 1037.42 418.103
1419 0 196.261 12.2999 2414 101.811 1036.97 419.087
1420 0 198.188 12.8817 2553 102.886 1036.96 416.773
1421 0 206.393 11.8269 2441 105.865 1037.56 414.391
1422 0 213.611 14.0115 2993 101.848 1037.05 414.742
1423 0 219.387 13.0363 2860 103.788 1037.1 409.874
1424 0 225.473 13.8686 3127 103.149 1037.23 401.422
1425 0 232.521 14.0805 3274 104.187 1036.9 399.939
1426 0 242.35 13.6868 3317 104.775 1036.92 394.541
1427 0 250.369 13.9274 3487 104.125 1037.46 392.285
1428 0 254.635 13.5331 3446 107.329 1037.94 382.344
1429 1 266.536 13.154 3506 106.208 1037.42 384.145
1430 0 275.339 13.3 3662 108.522 1036.82 376.908
1431 1 299.653 12.0139 3600 108.057 1037.18 378.003
1432 1 222.441 10.7489 2391 106.189 1036.72 408.366
1433 0 230.399 12.8516 2961 103.965 1036.25 396.138
1434 0 237.5 14.0547 3338 103.148 1036.6 390.296
1435 0 245.257 13.2066 3239 106.273 1036.66 390.054
1436 0 253.284 14.1225 3577 108.059 1036.35 381.863
1437 1 67.1102 10.222 686 87.8207 1037.54 477.273
1438 0 69.1423 10.1819 704 90.0213 1037.69 479.109
1439 0 71.0891 11.8865 845 89.0331 1038.29 477.017
1440 0 73.1447 10.6638 780 86.959 1038.04 481.265
1441 0 72.1286 8.24916 595 91.7916 1038.47 480.05
1442 0 79.1691 10.8628 860 88.857 1037.92 476.916
1443 0 78.0788 11.3219 884 89.3676 1037.64 473.952
1444 0 83.1295 11.7046 973 88.5488 1038.24 470.757
1445 0 86.1719 12.6724 1092 86.3571 1038.02 472.683
1446 0 89.0866 12.7629 1137 86.8496 1038.5 471.184
1447 0 90.0575 12.0479 1085 95.9401 1038.08 466.638
1448 0 95.08 12.0425 1145 94.8987 1037.72 467.427
1449 0 95.0991 11.0201 1048 96.7185 1038.36 467.966
1450 0 105.102 11.3033 1188 95.7736 1037.23 464.067
1451 0 103.071 11.8365 1220 96.5426 1038.46 459.94
1452 0 110.306 14.6502 1616 88.2648 1038.52 457.061
1453 0 111.157 12.271 1364 95.7119 1038.62 459.642
1454 0 112.202 11.7199 1315 99.124 1038.12 453.386
1455 0 119.099 12.7373 1517 95.5933 1037.94 456.158
1456 0 122.103 14.1028 1722 94.0714 1037.66 451.283
1457 0 126.147 12.4616 1572 96.0407 1037.77 452.699
1458 0 130.167 12.699 1653 95.994 1038.32 448.756
1459 0 135.155 11.8013 1595 96.5768 1038.97 444.697
1460 1 74.1098 9.09461 674 90.5119 1038.57 476.19
1461 0 75.1017 10.1329 761 89.8305 1038.16 476.209
1462 0 79.085 12.3285 975 92.3631 1038.69 474.449
1463 0 77.0491 10.7853 831 96.2563 1037.66 470.727
1464 0 82.0527 12.9673 1064 91.1532 1037.63 472.256
1465 0 83.0783 12.8192 1065 90.4094 1037.04 475.057
1466 0 86.229 10.994 948 95.2648 1037.43 470.627
1467 0 88.237 13.1804 1163 91.595 1038 469.44
1468 0 89.1569 11.8443 1056 94.3674 1037.89 468.043
1469 0 92.1347 13.0678 1204 93.2442 1038.4 465.488
1470 0 96.1007 12.6846 1219 93.6292 1037.88 464.701
1471 0 97.1468 12.3627 1201 95.3972 1038.54 464.067
1472 0 99.0864 11.7877 1168 97.2928 1037.98 461.951
1473 0 102.201 13.6397 1394 94.3357 1038.42 460.184
1474 0 104.206 13.0126 1356 95.8282 1037.83 462.742
1475 0 106.102 13.9489 1480 95.402 1037.69 457.616
1476 0 110.275 12.7772 1409 97.3158 1038.52 456.84
1477 0 114.263 14.1166 1613 94.31 1037.31 454.67
1478 0 117.281 13.1309 1540 96.7091 1037.65 456.111
1479 0 119.192 13.7006 1633 96.5003 1038.05 453.475
1480 0 124.357 14.2171 1768 94.9666 1037.89 449.813
1481 0 127.26 13.1227 1670 98.7778 1037.62 445.056
1482 0 130.244 14.1197 1839 97.6389 1037.72 445.287
1483 1 75.1194 11.2221 843 97.2456 1038.31 473.886
1484 0 75.0825 10.0023 751 100.623 1037.8 471.678
1485 0 77.0731 11.2101 864 98.2859 1038.32 470.488
1486 0 83.116 12.2359 1017 95.1327 1037.19 469.348
1487 0 83.0325 12.2 1013 92.6545 1037.33 469.147
1488 0 88.0767 12.6254 1112 91.4182 1036.65 467.754
1489 0 89.1156 13.3871 1193 90.9204 1037.47 464.085
