time division length width area intensity CMx CMy
0 0 51.0494 13.6926 699 127.455 1195.58 468.536
1 0 51.0984 12.7401 651 131.194 1195.76 467.28
2 0 51.0201 12.0345 614 133.515 1195.74 467.073
3 0 53.1857 13.1802 701 128.776 1196.02 466.846
4 0 55.0406 14.0078 771 126.678 1195.55 464.619
5 0 56.0448 14.988 840 122.719 1195.99 466.386
6 0 57.0832 13.9446 796 125.783 1195.89 465.286
7 0 58.1002 12.2031 709 131.539 1195.72 464.575
8 0 60.1077 13.0266 783 129.58 1195.24 463.754
9 0 61.0784 13.1962 806 129.424 1195.07 463.524
10 0 62.1141 13.282 825 131.281 1194.94 462.012
11 0 65.1185 14.3124 932 124.951 1195.19 463.318
12 0 66.1731 13.7669 911 126.594 1194.58 461.277
13 0 68.0787 12.8822 877 129.13 1194.86 458.921
14 0 68.0787 12.8087 872 149.62 1195.84 458.94
15 0 73.078 13.5061 987 125.856 1193.82 460.398
16 0 77.1298 13.4838 1040 126.129 1194.05 458.598
17 0 78.1208 14.1448 1105 124.735 1194.07 458.454
18 1 40.0034 12.8489 514 124.233 1193.89 476.905
19 0 42.0262 11.6118 488 128.928 1193.72 476.107
20 0 42.0237 12.2074 513 129.329 1192.72 474.39
21 0 44.0933 12.4055 547 124.876 1193.17 478.894
22 0 48.0179 13.1617 632 122.5 1192.79 474.745
23 0 48.0272 13.3049 639 124.202 1192.9 474.495
24 0 48.1867 14.2986 689 123.964 1192.62 472.642
25 0 49.0468 13.8235 678 118.122 1193.3 473.627
26 0 49.0343 12.8277 629 122.571 1193.32 474.143
27 0 51.0261 14.6984 750 117.344 1193.27 471.661
28 0 54.0184 14.0323 758 117.679 1193.3 471.376
29 0 54.0261 13.5305 731 120.265 1192.76 471.253
30 0 58.0743 12.9145 750 120.26 1192.78 470.841
31 0 59.0448 13.549 800 118.53 1192.38 470.945
32 0 61.1126 13.6306 833 119.423 1192.55 469.631
33 0 65.0914 14.1493 921 117.331 1192.78 467.397
34 0 67.1082 13.8284 928 116.762 1193.77 466.82
35 0 70.1013 13.994 981 115.409 1193.33 465.858
36 0 73.0737 13.0553 954 117.741 1193.15 464.312
37 0 75.0378 14.4461 1084 114.482 1192.54 463.141
38 0 78.0631 15.0007 1171 113.264 1192.38 460.892
39 0 81.0402 14.4249 1169 113.958 1192 459.03
40 0 85.1046 13.6185 1159 115.072 1192.66 457.664
41 0 86.0488 13.2018 1136 116.132 1192.68 456.908
42 1 44.039 12.8295 565 119.462 1192.76 477.533
43 0 47.0107 12.8694 605 117.512 1192.69 476.668
44 0 49.1015 13.9507 685 114.025 1192.18 475.533
45 0 50.0965 13.474 675 112.601 1191.73 476.114
46 0 51.0431 13.518 690 113.426 1191.88 476.025
47 0 53.0643 13.7004 727 111.906 1191.96 474.58
48 0 54.0658 13.7795 745 111.458 1191.98 474.23
49 0 56.0713 13.5898 762 111.58 1191.35 473.302
50 0 57.0917 13.6797 781 113.569 1190.97 473.022
51 0 57.0835 12.1576 694 117.846 1190.71 472.225
52 0 61.0601 13.6914 836 114.884 1190.99 469.638
53 0 60.0907 12.348 742 118.968 1190.96 468.323
54 0 65.0759 13.5073 879 114.472 1190.94 469.588
55 0 69.1721 13.4592 931 114.368 1190.85 466.55
56 0 71.2599 13.3736 953 114.086 1191.11 465.797
57 0 74.2649 12.9536 962 115.485 1190.75 464.021
58 0 77.2956 13.3125 1029 115.534 1190.89 461.423
59 0 78.1835 12.6114 986 117.255 1191.03 463.432
60 0 83.0909 13.9125 1156 113.935 1190.93 460.084
61 0 86.245 12.5688 1084 116.411 1190.11 460.381
62 0 87.119 11.6507 1015 119.104 1189.69 458.157
63 1 45.1128 11.5488 521 119.933 1190.49 475.812
64 0 49.118 12.5819 618 109.851 1189.62 474.843
65 0 51.1013 13.5613 693 114.075 1190.42 474.162
66 0 49.0174 10.9961 539 114.753 1191.15 476.071
67 0 49.0174 11.0165 540 122.506 1191.15 476.261
68 0 54.0476 11.2863 610 112.179 1190.85 474.843
69 0 55.1211 12.3183 679 109.499 1190.97 474.108
70 0 59.142 13.5099 799 106.707 1191.33 471.617
71 0 62.0967 13.4468 835 106.079 1191.08 470.96
72 0 62.0728 13.017 808 108.592 1191 469.223
73 0 64.0451 13.9121 891 107.401 1191.32 468.354
74 0 68.1135 12.6994 865 109.356 1191.14 468.251
75 0 70.0833 13.17 923 108.402 1191.04 467.869
76 0 73.1202 13.3069 973 107.916 1191.27 466.666
77 0 74.1086 13.3453 989 108.736 1191.59 463.92
78 0 79.1067 12.6538 1001 109.782 1190.95 464.419
79 0 82.1138 13.0672 1073 108.895 1190.63 462.3
80 0 85.0586 13.3085 1132 108.114 1190.34 460.546
81 0 88.0931 12.9181 1138 109.822 1190.48 459.551
82 0 90.1425 12.4359 1121 111.178 1190.04 458.725
83 0 94.2328 13.1801 1242 110.143 1190.33 454.667
84 0 97.098 13.1002 1272 110.89 1190.98 453.138
85 1 47.0522 11.1153 523 114.524 1189.64 476.499
86 0 47.0403 10.6717 502 107.769 1189.45 472.878
87 0 50.0621 12.3646 619 108.141 1189.21 477.456
88 0 52.0784 12.5772 655 107.652 1189.19 477.479
89 0 52.0675 12.2149 636 110.374 1189.36 476.344
90 0 56.0495 14.0768 789 105.73 1189 475.83
91 0 56.0665 13.8586 777 107.364 1189.22 473.35
92 0 60.1527 13.4491 809 107.404 1189.25 473.163
93 0 60.1235 13.1064 788 108.819 1189.31 474.603
94 0 62.0688 14.1617 879 107.603 1189.48 473.983
95 0 64.1388 11.0542 709 115.268 1189.44 472.748
96 0 67.196 14.1973 954 108.97 1188.88 470.485
97 0 70.1622 13.0127 913 112.711 1189.52 467.169
98 0 71.1894 13.2183 941 113.591 1189.63 467.157
99 0 73.1456 13.3979 980 113.581 1189.59 467.316
100 0 74.1108 12.8861 955 115.232 1189.1 466.103
101 0 78.1268 12.9149 1009 115.276 1189.1 464.467
102 0 80.2089 13.1407 1054 115.69 1189.22 461.274
103 0 82.1216 13.1512 1080 115.706 1188.88 461.751
104 0 85.2228 12.9543 1104 114.321 1189.16 460.918
105 0 89.1783 14.4093 1285 109.904 1189.78 457.724
106 0 92.1323 12.7534 1175 112.477 1189 459.755
107 0 97.0842 14.4205 1400 109.831 1189.02 455.594
108 0 101.129 13.636 1379 113.028 1188.61 456.519
109 0 101.121 13.1723 1332 114.675 1189.01 454.306
110 1 51.0924 11.7239 599 113.778 1190.07 478.19
111 0 53.0293 12.842 681 112.029 1189.9 476.047
112 0 54.0679 11.837 640 112.836 1189.01 474.959
113 0 54.1135 10.903 590 109.02 1189.96 474.658
114 0 57.0341 11.8175 674 106.185 1190 473.681
115 0 57.115 11.9583 683 106.505 1190 474.076
116 0 61.1073 11.2098 685 106.933 1189.89 474.234
117 0 64.0806 13.4986 865 103.102 1189.89 469.934
118 0 64.0893 11.8741 761 107.384 1190.06 471.105
119 0 67.0419 11.6047 778 107.353 1189.83 470.177
120 0 70.2027 12.0508 846 107.332 1189.77 468.342
121 0 71.1584 11.6922 832 108.925 1189.24 466.445
122 0 74.1152 12.8044 949 105.232 1189.41 468.494
123 0 78.0832 12.6916 991 107.316 1189.15 464.303
124 0 81.1832 12.946 1051 106.861 1189.66 463.835
125 0 82.0792 12.2077 1002 108.341 1188.66 463.984
126 0 83.1273 11.9215 991 110.577 1188.38 462.257
127 0 88.0653 12.9904 1144 108.863 1188.44 460.536
128 0 91.0822 12.3515 1125 110.517 1189.2 457.742
129 0 94.1418 12.3431 1162 110.694 1188.86 457.694
130 0 95.1535 11.6128 1105 114.42 1189.18 453.419
131 0 98.136 11.9324 1171 113.494 1189.63 450.954
132 0 103.378 13.146 1359 110.618 1190.07 449.015
133 0 104.218 11.6199 1211 113.016 1189.18 447.353
134 0 109.317 12.02 1314 111.447 1189.64 442.667
135 0 115.329 12.7461 1470 109.007 1189.42 437.37
136 1 56.2809 9.95009 560 102.195 1190.3 468.836
137 0 57.2058 9.8067 561 100.012 1189.99 467.16
138 0 58.0885 10.4324 606 104.992 1190.77 474.586
139 0 60.0752 12.9005 775 101.406 1190.58 471.979
140 0 61.099 11.9478 730 103.855 1191.14 470.29
141 0 66.102 12.5715 831 101.113 1190.51 470.061
142 0 67.0664 11.8688 796 105.064 1190.31 468.813
143 0 68.102 11.4094 777 106.651 1190.33 467.642
144 0 72.0981 12.5801 907 103.923 1190.31 466.97
145 0 73.1412 12.3186 901 105.375 1191.36 465.484
146 0 74.1414 13.2315 981 123.069 1192.35 464.033
147 0 78.0562 12.2604 957 106.754 1190.47 465.084
148 0 81.0797 13.7396 1114 106.443 1190.23 460.647
149 0 83.2277 11.9912 998 111.099 1190.06 461.097
150 0 87.1012 13.203 1150 109.188 1190.41 458.885
151 0 88.2079 13.3548 1178 109.149 1190.76 456.863
152 0 89.1125 13.208 1177 111.118 1189.92 456.088
153 0 90.0558 12.4034 1117 113.978 1190.39 458.67
154 0 92.1301 12.3847 1141 115.756 1191.17 453.477
155 0 98.0772 13.3976 1314 113.205 1189.44 451.786
156 0 100.107 12.9662 1298 113.705 1190.17 450.701
157 0 105.092 11.9324 1254 116.033 1190.24 451.014
158 0 107.115 12.0245 1288 117.481 1189.98 447.12
159 0 111.065 13.2445 1471 114.668 1189.65 447.073
160 0 114.16 12.1408 1386 117.108 1189.83 441.881
161 0 119.19 13.2058 1574 114.567 1189.55 441.381
162 0 123.221 13.4312 1655 113.562 1189.59 437.589
163 0 127.168 12.5503 1596 113.251 1188.93 433.305
164 0 130.168 12.5991 1640 110.746 1189.01 425.079
165 0 136.246 13.872 1890 107.731 1189.4 424.469
166 0 136.246 13.8353 1885 128.933 1190.4 424.465
167 0 144.283 13.1616 1899 110.109 1190.03 417.076
168 0 148.264 13.368 1982 110.449 1189.57 413.51
169 0 151.153 12.8082 1936 111.673 1189.89 405.153
170 0 155.221 13.1812 2046 111.166 1189.83 407.085
171 0 162.375 13.1547 2136 109.561 1189.25 406.067
172 0 168.254 12.6892 2135 110.208 1189.09 404.752
173 0 174.255 13.5951 2369 107.572 1188.71 399.362
174 0 179.457 11.858 2128 111.495 1188.66 396.272
175 0 186.315 12.1032 2255 111.161 1188.7 391.204
176 0 191.352 11.8421 2266 113.251 1188.57 389.203
177 0 204.337 13.4875 2756 109.507 1188.62 387.444
178 1 145.452 10.5258 1531 108.356 1189.61 421.55
179 0 150.301 12.4218 1867 109.618 1188.58 420.106
180 0 155.393 12.7226 1977 111.149 1188.98 422.92
181 0 159.242 12.7855 2036 112.05 1190.16 417.008
182 0 165.193 13.7657 2274 113.335 1189.03 415.449
183 0 170.165 12.7229 2165 116.095 1189.05 408.948
184 0 176.154 12.8297 2260 115.366 1188.65 407.212
185 0 180.278 12.4807 2250 116.876 1188.98 402.68
186 0 187.168 13.9393 2609 111.996 1189.16 406.385
187 0 191.163 12.56 2401 116.769 1189.26 402.131
188 0 199.197 13.946 2778 113.858 1188.96 398.421
189 0 206.209 13.6027 2805 114.481 1189.14 396.401
190 0 212.231 13.0282 2765 118.567 1188.39 392.119
191 0 221.427 14.4337 3196 116.189 1188.88 387.321
192 0 230.362 14.5033 3341 114.203 1188.88 384.05
193 1 176.34 13.4342 2369 114.236 1189.37 406.885
194 0 180.281 13.3957 2415 113.543 1189.18 401.394
195 0 187.299 14.2019 2660 109.395 1188.85 397.756
196 0 194.237 14.5956 2835 109.16 1188.48 393.773
197 0 201.335 13.2267 2663 111.799 1188.86 395.768
198 0 207.355 12.6835 2630 114.003 1188.74 392.839
199 0 215.386 13.2785 2860 113.575 1188.51 384.551
200 0 221.271 13.0926 2897 113.816 1188.16 384.127
201 0 229.389 13.0652 2997 115.07 1187.54 377.333
202 0 238.464 13.6289 3250 113.667 1187.33 371.249
203 0 248.367 15.159 3765 110.38 1187.94 368.541
204 0 257.422 13.4137 3453 114.478 1188.49 368.393
205 0 264.311 13.276 3509 116.64 1187.86 355.675
206 0 277.532 14.1713 3933 114.065 1187.87 354.431
207 1 64.0847 8.95689 574 97.0854 1187.83 460.549
208 0 66.1565 10.3845 687 91.0626 1188.45 464.086
209 0 68.2185 10.8768 742 98.7022 1187.77 466.116
210 0 71.1984 11.1519 794 96.5088 1188.17 468.78
211 0 75.1755 12.4775 938 93.4019 1188.05 466.588
212 0 78.2717 12.1372 950 93.3621 1188.39 464.757
213 0 78.1444 10.5062 821 98.0828 1187.55 461.533
214 0 84.4306 11.2163 947 101.615 1187.58 461.077
215 0 88.2748 12.4611 1100 97.8164 1187.48 457.14
216 0 89.1508 12.0694 1076 99.474 1189.65 456.949
217 1 48.0577 10.5914 509 92.5108 1188.99 476.424
218 0 50.079 10.763 539 92.0353 1190.15 478.065
219 0 52.0615 9.5464 497 89.668 1187.68 472.213
220 0 54.1023 11.811 639 89.8607 1190.01 473.355
221 0 55.0589 11.4423 630 91.7095 1190.37 474.686
222 0 58.1696 12.8761 749 87.8064 1189.73 474.611
223 0 57.1445 10.7272 613 94.3817 1189.77 471.458
224 0 60.2816 11.4463 690 93.2855 1190.29 469.684
225 0 61.2043 11.9436 731 93.5144 1190.21 468.804
226 0 63.1178 11.6291 734 94.312 1189.75 468.992
227 0 66.1294 11.916 788 93.7487 1189.43 468.69
228 0 69.0774 11.6536 805 94.1143 1189.86 467.445
229 0 69.0711 11.1914 773 95.3506 1190.19 467.043
230 0 74.0917 13.3753 991 90.5146 1190.04 466.911
231 0 74.1234 13.4775 999 90.9409 1189.98 464.46
232 0 75.2142 12.471 938 93.6791 1189.87 462.552
233 0 78.2299 12.5016 978 93.3793 1190.15 464.248
234 0 80.1577 11.2653 903 96.6501 1190.1 462.587
235 0 82.1783 12.5946 1035 94.8744 1189.57 461.399
236 0 87.085 12.8151 1116 96.0242 1188.59 459.272
237 1 46.0329 10.7314 494 96.8826 1188.28 479.285
238 0 49.1509 10.539 518 98.7104 1188.03 477.932
239 0 48.1185 9.16487 441 96.5329 1188.18 476.524
240 0 51.0502 12.0078 613 99.398 1188.4 475.148
241 0 52.0811 11.8469 617 98.3614 1189.84 475.476
242 0 54.1362 12.3762 670 97.1746 1190.08 475.443
243 0 54.1436 12.1529 658 99.0608 1189.89 474.795
244 0 55.0895 10.8732 599 97.0117 1190.03 475.571
245 0 59.0847 12.169 719 94.0765 1190.22 472.182
246 0 61.1343 13.3149 814 91.9079 1189.95 471.241
247 0 64.1791 13.2598 851 91.6263 1189.78 471.985
248 0 65.0919 11.6912 761 95.113 1190.37 470.767
249 0 68.0924 12.9236 880 92.7557 1190.34 469.322
250 0 68.1086 12.8031 872 94.0356 1190.96 469.156
251 0 70.104 11.5828 812 96.8116 1190.22 468.52
252 0 73.0504 14.0177 1024 91.9209 1189.52 465.633
253 0 76.2397 12.6443 964 93.7915 1189.41 465.365
254 0 77.0983 13.1391 1013 93.9704 1190.08 464.543
255 0 80.1942 12.9186 1036 94.0917 1189.88 462.746
256 0 82.0911 12.4374 1021 95.7238 1190 461.456
257 1 234.473 12.0483 2825 109.899 1189.14 391.022
258 1 87.243 11.4049 995 101.538 1190.29 457.487
259 0 91.191 12.7644 1164 95.1117 1189.96 456.496
260 0 95.1549 13.0944 1246 95.2849 1189.97 455.253
261 1 51.0887 11.8226 604 94.1705 1190.94 477.358
262 0 53.0996 12.1281 644 94.2547 1190.81 477.166
263 0 53.1157 12.501 664 96.7018 1188.77 473.628
264 0 55.126 12.5531 692 94.5809 1190.6 474.548
265 0 58.1144 13.1293 763 93.8349 1190.71 473.11
266 0 59.0747 12.1033 715 95.9035 1191.36 474.404
267 0 60.0728 14.266 857 92.7071 1191.35 472.496
268 0 62.0827 13.1277 815 95.1509 1191.51 471.531
269 0 63.1304 13.6068 859 94.3993 1190.88 471.52
270 0 67.1624 13.4301 902 94.2494 1190.81 470.686
271 0 69.1883 13.456 931 94.2868 1190.6 468.696
272 0 70.0834 13.0701 916 96.3188 1190.36 467.395
273 0 72.1426 13.1822 951 96.5058 1189.73 466.89
274 0 76.1157 14.3466 1092 94.1218 1189.91 467.687
275 0 75.2012 13.2578 997 99.0863 1190.06 463.304
276 0 79.1025 13.0464 1032 99.3682 1189.99 463.371
277 0 82.1152 14.2848 1173 98.1654 1189.65 460.921
278 0 84.1208 12.8981 1085 101.817 1189.68 460.103
279 0 90.1005 15.405 1388 96.4856 1189.94 461.875
280 0 92.1646 16.1667 1490 96.0899 1189.87 458.762
281 0 95.1233 14.8965 1417 98.2117 1190.04 457.291
282 0 97.1238 14.1263 1372 101.11 1189.62 453.563
283 0 101.179 13.7479 1391 102.793 1189.73 453.894
284 1 52.091 13.0733 681 105.144 1190.88 477.837
285 0 54.0485 13.2289 715 102.544 1189.89 476.217
286 0 53.0796 12.1516 645 100.891 1190.22 477.783
287 0 54.1723 12.2018 661 101.82 1189.78 476.411
288 0 58.1349 13.5203 786 97.8295 1190.13 474.969
289 0 58.114 13.8693 806 98.8945 1190.26 474.677
290 0 61.0855 13.7185 838 97.3974 1189.98 472.723
291 0 61.1312 12.9394 791 100.322 1190.16 473.024
292 0 65.1389 12.8495 837 100.211 1189.59 470.863
293 0 66.1245 13.2175 874 100.046 1189.79 472.873
294 0 66.095 11.0296 729 105.479 1189.81 471.628
295 0 69.1628 11.5958 802 104.259 1189.71 469.906
296 0 72.0449 13.2556 955 102.345 1189.05 466.92
297 0 76.0997 12.6545 963 103.267 1189.21 465.805
298 0 77.1164 13.2397 1021 73.1616 1189.14 469.419
299 0 81.096 11.8502 961 105.584 1189.35 462.649
300 0 85.2153 13.6947 1167 101.644 1189.53 462.093
301 0 87.1011 12.3764 1078 104.909 1189.31 460.614
302 1 44.0528 11.7132 516 140.37 1188.16 481.081
303 0 46.0385 12.0986 557 106.156 1188.74 478.605
304 0 48.0813 12.7908 615 104.872 1188.97 479.137
305 0 49.0411 11.9695 587 106.029 1189.29 477.792
306 0 54.0853 13.8485 749 98.7677 1189.92 476.41
307 0 52.0542 12.8136 667 104.675 1189.25 476.421
308 0 54.0451 12.7671 690 103.113 1189.08 477.503
309 0 56.1099 12.2795 689 105.434 1189.53 475.855
310 0 57.0526 13.1808 752 104.812 1188.82 473.027
311 0 61.032 13.1734 804 104.235 1189.19 472.377
312 0 61.0512 13.1856 805 105.436 1188.81 472.118
313 0 65.0594 12.4963 813 107.09 1188.76 470.118
314 0 67.0967 12.8769 864 105.148 1188.37 467.963
315 0 70.0881 12.3416 865 107.32 1188.59 468.542
316 0 72.0965 12.9826 936 105.741 1187.59 467.515
317 0 76.098 12.024 915 108.631 1188.29 466.438
318 0 76.1179 12.0734 919 111.32 1188.28 464.806
319 0 80.1457 13.3133 1067 109.071 1187.99 463.189
320 0 85.1664 13.5382 1153 107.912 1188.2 462.186
321 0 86.1049 13.6694 1177 108.658 1188.74 461.25
322 0 90.2081 13.4356 1212 110.238 1188.9 459.089
323 0 93.1242 12.9719 1208 114.197 1188.34 456.93
324 1 46.0446 13.2046 608 113.141 1188.53 480.738
325 0 49.1089 13.3377 655 111.084 1189.36 478.631
326 0 50.0093 12.5977 630 115.473 1189.7 476.99
327 0 52.1156 13.0479 680 110.482 1190.03 477.081
328 0 56.1023 12.7446 715 117.635 1189.87 475.81
329 0 55.1726 13.195 728 117.827 1190.76 473.801
330 0 55.147 13.1648 726 164.277 1191.78 473.766
331 0 59.1782 14.6845 869 115.403 1190.67 471.161
332 0 62.1025 13.2845 825 118.035 1190.41 471.493
333 0 63.095 13.8363 873 117.112 1190.58 469.107
334 0 64.2739 12.8046 823 120.843 1190.74 469.303
335 0 66.1058 14.386 951 118.006 1190.67 467.779
336 0 71.1979 13.7925 982 118.226 1190.56 466.957
337 0 72.2843 13.1702 952 121.071 1190.72 466.16
338 0 74.1139 13.857 1027 120.341 1190.77 464.219
339 0 77.1808 14.8483 1146 118.78 1190.66 462.771
340 0 78.459 13.8671 1088 123.149 1190.4 463.387
341 0 83.3058 13.9846 1165 122.778 1190.23 461.971
342 0 84.3417 13.6469 1151 125.709 1190.53 460.45
343 0 87.2753 14.4142 1258 123.901 1191.08 459.002
344 0 89.4001 14.0939 1260 126.444 1190.78 457.19
345 0 93.4819 14.2808 1335 126.057 1190.93 455.711
346 0 96.4524 14.6082 1409 125.265 1190.53 455.801
347 0 98.3463 13.9609 1373 128.412 1190.32 451.654
348 1 53.3111 11.8362 631 128.978 1191.23 474.856
349 0 56.1757 12.7101 714 125.578 1191.74 474.581
350 0 56.2508 12.6576 712 128.042 1191.69 472.136
351 0 59.2348 13.9783 828 123.511 1191.15 472.69
352 0 60.1253 14.6361 880 122.403 1190.82 470.632
353 0 63.0873 12.7126 802 126.7 1191.13 469.849
354 0 68.2103 13.6197 929 122.95 1190.98 470.076
355 0 67.09 14.488 972 123.734 1191.23 466.177
356 0 69.1904 14.2794 988 123.976 1190.3 467.081
357 0 71.1964 13.2872 946 127.506 1190.6 465.218
358 0 74.155 13.4853 1000 125.718 1191.36 465.776
359 0 78.1317 15.2691 1193 120.858 1191.62 462.748
360 0 80.0659 13.8886 1112 125.21 1191.12 461.368
361 0 84.1574 14.2471 1199 123.617 1191.25 460.158
362 0 86.0983 13.5427 1166 125.407 1191.04 457.762
363 0 89.1918 13.9811 1247 123.8 1191.38 456.67
364 0 92.1441 14.5641 1342 122.854 1190.98 454.539
365 0 94.1024 14.633 1377 122.168 1190.55 454.216
366 0 97.1562 14.6156 1420 122.408 1191.02 450.587
367 0 101.133 14.3375 1450 122.795 1190.73 449.437
368 0 105.119 15.0972 1587 118.713 1190.39 446.812
369 0 108.132 13.5852 1469 121.938 1190.66 446.015
370 0 111.226 15.4101 1714 117.431 1190.52 442.797
371 0 115.109 13.4307 1546 121.356 1190.81 440.798
372 1 59.0288 9.96124 588 124.782 1190.46 464.837
373 0 64.0723 10.9876 704 120.669 1190.21 464.979
374 0 67.0811 12.9097 866 115.915 1189.84 464.21
375 0 69.079 11.6244 803 118.939 1190.25 464.325
376 0 72.1022 13.4947 973 114.612 1190.26 462.786
377 0 75.0684 13.0548 980 115.942 1189.62 461.145
378 0 77.0718 13.2474 1021 116.127 1188.99 460.429
379 0 79.0995 14.21 1124 113.394 1189.87 460.497
380 0 80.0707 12.7512 1021 119.181 1189.39 456.906
381 0 86.061 12.8049 1102 118.294 1189.41 454.473
382 0 89.0924 13.1998 1176 117.439 1189.38 455.736
383 0 91.0941 12.3608 1126 120.045 1189.58 453.082
384 0 96.1001 12.8408 1234 119.951 1189.15 450.326
385 0 100.136 14.0909 1411 117.211 1188.98 448.896
386 0 104.122 14.3197 1491 116.733 1188.88 447.638
387 0 104.075 12.8657 1339 122.193 1189.38 447.022
388 0 107.129 13.3858 1434 121.86 1189.52 443.038
389 0 111.118 13.0402 1449 123.096 1188.68 441.732
390 0 115.096 13.3888 1541 122.429 1188.68 439.883
391 0 118.088 13.9727 1650 120.448 1188.64 438.347
392 0 124.155 14.4658 1796 119.724 1189.07 436.609
393 0 126.125 12.6303 1593 127.091 1189.36 432.824
394 0 133.164 13.6298 1815 123.792 1188.78 432.7
395 0 138.184 13.6992 1893 123.922 1188.79 430.707
396 0 138.118 13.0396 1801 123.585 1189.82 429.716
397 0 142.197 12.9609 1843 125.825 1190.15 423.254
398 0 149.147 14.7238 2196 120.229 1190.27 426.269
399 1 70.0622 10.9474 767 104.525 1190.74 468.405
400 0 73.0724 9.26478 677 106.774 1190.48 468.086
401 0 76.0799 10.9096 830 104.913 1190.33 465.319
402 0 77.1007 9.7016 748 105.59 1190.76 465.94
403 0 77.0698 8.84913 682 108.205 1190.57 465.144
404 0 81.1388 9.34202 758 108.377 1190.3 462.612
405 0 84.1144 10.8424 912 106.712 1190.39 459.542
406 0 87.0782 10.1862 887 108.865 1190.07 459.302
407 0 88.0944 11.5104 1014 108.553 1190.65 455.446
408 0 92.126 11.2346 1035 108.32 1191.15 457.613
409 0 94.0828 9.35347 880 110.378 1190.52 454.805
410 0 96.2798 9.49317 914 109.402 1191.13 454.548
411 0 100.125 9.67788 969 109.776 1191.27 452.357
412 0 106.216 11.2412 1194 106.061 1190.93 452.061
413 0 107.108 9.48577 1016 109.449 1191.14 447.732
414 0 107.222 8.30051 890 109.976 1190.42 445.461
415 0 111.166 8.6537 962 108.21 1190.59 448.991
416 0 115.261 9.14449 1054 107.927 1190.57 444.227
417 0 115.465 9.77788 1129 108.125 1190.15 441.306
418 0 123.17 7.59925 936 110.498 1189.79 439.248
419 0 128.258 9.44968 1212 108.319 1190.63 436.335
420 1 71.0814 8.27221 588 102.23 1191.5 464.81
421 0 74.0903 8.2062 608 103 1191.34 459.408
422 0 79.1153 9.96014 788 100.212 1191.59 461.235
423 0 80.1512 7.27376 583 104.199 1192.32 463.763
424 0 85.1132 7.96586 678 103.714 1191.43 460.038
425 1 255.638 10.245 2619 131.058 1189.22 360.415
426 1 46.1099 8.91349 411 99.3723 1192 477.18
427 0 45.173 8.43425 381 100.058 1191.37 480.029
428 0 44.0985 8.82116 389 101.607 1191.67 480.56
429 0 44.0584 6.96803 307 104.147 1191.56 482.85
430 0 43.0669 7.73216 333 105.153 1191.9 479.58
431 0 49.1134 5.70109 280 106.536 1192.51 480.468
432 0 48.1304 6.77326 326 104.353 1192.04 479.589
433 0 45.0361 6.79454 306 105.046 1191.9 477.379
434 1 57.0812 8.02366 458 100.38 1191.5 475.524
435 0 58.0628 8.7836 510 98.4784 1191.7 475.51
436 0 57.1957 7.90269 452 101.296 1191.44 473.586
437 0 65.1038 9.3543 609 97.4236 1190.96 471.913
438 0 64.2252 9.31099 598 99.3612 1190.28 471.224
439 1 138.284 11.8307 1636 104.397 1190.15 432.794
440 0 140.239 10.4964 1472 108.71 1190.5 427.618
441 0 149.254 11.7786 1758 105.442 1190.3 427.886
442 1 76.1491 10.834 825 97.8073 1190.25 463.888
443 0 80.1436 9.89474 793 99.6356 1190.84 466.831
444 1 40.0148 9.09663 364 105.195 1191.72 483.121
445 0 42.0544 10.8907 458 105.334 1192.01 480.17
446 0 44.0535 11.8719 523 101.231 1192.06 481.771
447 0 45.1223 11.8345 534 100.684 1191.36 479.457
448 0 47.1405 11.7521 554 103.809 1192.04 480.8
449 0 47.0576 11.8366 557 102.722 1191.26 480.007
450 0 51.0803 11.6092 593 104.12 1191.33 479.28
451 0 51.1108 11.7001 598 106.674 1191.52 478.559
452 0 52.0779 12.2893 640 105.745 1192 479.606
453 0 51.0661 11.5537 590 110.981 1191.97 479.11
454 0 53.1206 11.8975 632 110.46 1191.61 477.328
455 0 57.1484 11.5489 660 108.953 1192.21 479.109
456 0 55.1224 12.0641 665 112.017 1191.68 476.689
457 0 58.1104 11.3405 659 114.281 1191.8 477.745
458 0 60.143 12.1377 730 112.626 1191.58 474.4
459 0 63.1303 13.0841 826 109.751 1191.78 475.352
460 0 62.1538 11.9381 742 114.168 1191.7 474.611
461 0 63.1036 11.7426 741 114.815 1191.28 473.528
462 0 66.1128 13.2501 876 111.158 1191.21 470.873
463 0 69.1475 13.276 918 109.805 1191.06 470.678
464 0 71.1152 11.6993 832 113.5 1191.76 470.504
465 0 73.1837 12.7078 930 112.383 1191.73 467.204
466 0 76.1675 12.7088 968 111.877 1191.25 466.802
467 0 78.2065 12.4798 976 113.116 1191.43 464.235
468 0 78.2065 12.4926 977 134.53 1192.45 464.24
469 0 82.1584 13.547 1113 111.191 1191.63 462.181
470 0 86.1417 12.6536 1090 111.785 1191.41 461.315
471 1 44.0556 12.5977 555 109.261 1191.58 481.609
472 0 45.0183 11.6397 524 113.073 1191.7 480.901
473 0 47.1161 11.8219 557 111.583 1191.06 479.226
474 0 49.029 12.4212 609 108.624 1191.31 479.962
475 0 49.0409 11.2151 550 112.651 1191.21 479.518
476 0 52.1023 13.2432 690 107.509 1191.19 477.842
477 0 52.0506 12.6608 659 109.1 1190.52 478.291
478 0 54.0128 13.2191 714 107.699 1191.45 476.375
479 0 58.0495 13.5574 787 105.017 1191.18 474.076
480 0 58.0555 12.5914 731 107.844 1190.64 473.297
481 0 61.0663 13.6409 833 104.621 1190.12 474.149
482 0 63.1435 12.1469 767 107.222 1190.38 469.638
483 0 64.1659 12.4365 798 107.233 1189.8 470.005
484 0 67.0589 12.6307 847 105.433 1190.15 469.433
485 0 70.0572 13.6603 957 104.936 1190.19 467.664
486 0 73.1437 12.3729 905 106.04 1190.49 466.704
487 0 77.1901 13.2271 1021 103.774 1190.89 464.124
488 0 79.1009 13.1478 1040 103.856 1190.47 464.548
489 0 81.0915 12.3441 1001 106.355 1189.98 463.495
490 0 85.1036 14.0182 1193 102.39 1189.76 462.054
491 0 86.0664 13.873 1194 104.394 1190.12 457.598
492 0 90.1341 13.2802 1197 104.986 1190.55 460.774
493 0 93.1021 13.9954 1303 104.326 1190.06 455.878
494 0 96.0938 13.2579 1274 106.517 1189.94 456.376
495 0 98.0753 13.5304 1327 106.311 1189.94 454.626
496 0 103.214 13.845 1429 103.866 1190.17 454.777
497 0 107.169 14.3978 1543 103.994 1190.49 449.653
498 1 55.0622 10.6607 587 111.041 1193.26 477.354
499 0 54.0251 11.4206 617 113.567 1192.73 474.865
500 0 58.1307 11.887 691 109.909 1192.78 474.653
501 0 59.0954 12.9452 765 111.85 1192.42 474.878
502 0 61.0888 13.5377 827 111.021 1191.97 473.817
503 0 64.0748 14.0149 898 108.864 1192.52 472.523
504 0 62.081 13.0636 811 143.434 1193.45 471.221
505 0 66.0487 12.2334 808 114.653 1192.24 470.332
506 0 68.0975 12.6583 862 113.307 1192.13 468.76
507 0 72.0761 12.903 930 110.937 1192.48 469.549
508 0 72.125 12.4645 899 114.604 1191.74 467.9
509 0 77.1713 12.2714 947 114.674 1192.18 466.483
510 0 78.1365 13.4764 1053 112.975 1191.07 462.795
511 0 82.1883 13.5299 1112 111.573 1190.78 461.405
512 0 86.1771 14.1337 1218 109.091 1191.29 462.04
513 0 87.1764 13.6964 1194 111.306 1191.17 459.084
514 0 90.2199 13.2898 1199 113.189 1190.67 455.972
515 0 95.3708 13.4423 1282 111.785 1190.52 453.221
516 0 94.3727 11.6983 1104 117.882 1190.13 453.149
517 1 52.3571 10.0082 524 116.714 1189.91 475.387
518 0 52.3936 10.3448 542 116.795 1190.4 472.611
519 0 54.0168 10.7559 581 115.112 1192.13 476.053
520 0 58.0785 12.3626 718 110.529 1192.51 474.078
521 0 59.1342 11.8882 703 111.99 1191.62 472.869
522 0 59.1192 11.9081 704 111.634 1190.74 474.47
523 0 61.1246 12.5481 767 111.018 1190.31 472.308
524 0 62.1817 12.4635 775 111.194 1191.71 470.435
525 0 64.2752 12.6799 815 110.833 1191.19 470.039
526 0 64.2752 11.8397 761 153.98 1191.27 471.013
527 0 68.229 11.7106 799 113.063 1191.1 469.075
528 0 68.2499 12.4249 848 113.133 1190.91 467.805
529 0 72.2042 12.5339 905 111.717 1191.61 468.557
530 0 75.2615 12.822 965 111.011 1191.57 468.356
531 0 76.1384 13.4755 1026 111.262 1192.03 465.026
532 0 79.1413 13.0147 1030 113.321 1191.39 464.233
533 0 81.1409 13.8032 1120 109.415 1191.73 464.11
534 0 81.1652 13.8729 1126 110.541 1191.81 463.844
535 1 45.0755 10.6488 480 114.152 1191.78 480.865
536 0 46.1005 10.9977 507 115.034 1191.86 478.819
537 0 49.147 10.5805 520 113.035 1191.55 479.256
538 0 49.0209 12.1785 597 112.03 1192.27 478.826
539 0 52.0329 12.8572 669 111.025 1191.61 476.928
540 0 51.1983 12.8715 659 111.42 1191.2 476.906
541 0 55.2768 12.8083 708 111.475 1191.07 476.422
542 0 53.1481 11.8913 632 117.065 1191.07 475.578
543 0 55.1815 10.3839 573 119.773 1191.09 475.532
544 0 57.2509 12.2968 704 116.432 1191.1 474.902
545 0 58.2396 11.8304 689 118.033 1191.26 474.73
546 0 62.1832 13.0903 814 114.966 1191.04 472.891
547 0 65.2676 13.6975 894 112.409 1190.74 473.888
548 0 66.1989 12.6588 838 116.227 1191.17 471.928
549 0 67.1748 12.6238 848 118.585 1191.06 469.815
550 0 69.2661 12.849 890 117.944 1190.96 470.678
551 0 71.2264 12.734 907 118.619 1191.14 469.252
552 0 73.2845 12.6493 927 120.491 1190.57 467.348
553 0 76.2107 13.3971 1021 119.153 1190.5 465.225
554 0 78.1887 13.186 1031 120.825 1190.64 464.251
555 0 82.1994 14.6351 1203 117.13 1190.76 463.065
556 0 84.2004 13.3372 1123 121.24 1190.77 463.637
557 0 84.3019 12.3603 1042 125.838 1190.82 462.477
558 0 89.1852 12.3563 1102 126.69 1190.82 458.808
559 0 90.1369 12.7806 1152 126.806 1190.8 456.868
560 0 94.1515 12.2781 1156 127.744 1190.49 456.792
561 1 53.0199 12.4104 658 119.894 1191.63 477.66
562 0 53.0931 11.056 587 124.971 1191.4 477.721
563 0 55.0439 11.6271 640 122.481 1191.25 476.539
564 0 54.0758 13.4996 730 113.616 1189.26 476.074
565 0 58.0978 12.0659 701 117.468 1190.29 477.459
566 0 59.044 12.4822 737 117.396 1190.11 474.114
567 0 61.0176 12.7832 780 117.268 1189.73 473.39
568 0 63.0906 13.441 848 114.807 1188.99 473.438
569 0 61.0801 12.2626 749 120.136 1188.81 472.154
570 0 65.0737 12.5243 815 119.34 1188.66 469.236
571 0 68.0475 13.0644 889 118.696 1189.08 468.079
572 0 70.0505 13.0049 911 118.189 1189.3 467.384
573 0 73.0472 13.1559 961 118.045 1189.76 465.98
574 0 76.1293 12.9648 987 118.872 1191.71 466.291
575 0 78.0964 13.5089 1055 118.037 1190.2 466.711
576 0 80.2187 13.3635 1072 118.988 1190.85 463.479
577 0 83.0949 13.8877 1154 118.342 1191.42 462.238
578 0 86.1768 14.1105 1216 119.487 1191.13 460.252
579 0 89.1015 12.8842 1148 122.72 1190.59 460.003
580 0 92.1304 13.4809 1242 120.033 1190.93 457.737
581 0 95.2577 14.613 1392 117.535 1190.89 457.384
582 1 51.0454 11.0882 566 124.784 1190.31 480.334
583 0 53.0581 12.458 661 123.938 1190.73 479.029
584 0 55.0832 12.1997 672 123.637 1189.37 475.143
585 0 57.2444 12.0012 687 116.195 1191.32 476.229
586 0 58.0837 12.1893 708 117.004 1191.3 474.859
587 0 59.135 13.038 771 115.057 1190.97 473.004
588 0 63.0572 12.7186 802 114.909 1191.29 474.237
589 0 63.0496 11.9588 754 117.296 1191.22 473.296
590 0 64.0826 12.874 825 114.727 1191.12 470.992
591 0 67.0703 12.4496 835 113.964 1190.85 469.544
592 0 70.07 12.6302 885 113.884 1190.97 469.788
593 0 71.1226 13.9196 990 111.199 1190.89 468.288
594 0 74.0989 14.4267 1069 112.15 1190.35 466.37
595 0 77.115 14.018 1081 114.606 1190.84 465.909
596 0 78.2043 13.3369 1043 117.484 1190.74 465.703
597 0 80.0885 13.7223 1099 116.903 1190.86 464.151
598 0 86.1157 15.4792 1333 111.167 1190.06 463.514
599 0 86.1994 14.2808 1231 116.271 1190.11 459.466
600 0 89.1486 14.4254 1286 116.554 1190.58 458.757
601 0 93.2006 14.163 1320 116.925 1190.81 458.147
602 0 95.2082 14.6416 1394 115.933 1190.27 457.737
603 1 48.1112 11.3279 545 120.334 1190.08 479.934
604 0 48.1927 11.205 540 121.059 1191.15 479.891
605 0 52.0661 12.4265 647 119.263 1191.34 478.991
606 0 52.0405 12.1252 631 122.071 1191.45 478.067
607 0 53.0339 12.8786 683 121.287 1191.72 475.974
608 0 55.0382 12.1734 670 122.9 1191.53 477.024
609 0 56.0616 12.7182 713 122.116 1191.19 476.205
610 0 59.1157 14.1249 835 117.281 1191.28 475.81
611 0 58.0844 12.5163 727 123.521 1191.16 474.567
612 0 61.1768 12.7009 777 121.982 1190.92 474.154
613 0 62.1718 12.7067 790 120.756 1191.05 474.195
614 0 64.183 13.555 870 119.989 1190.93 471.934
615 0 67.1311 14.2855 959 117.432 1190.46 471.017
616 0 70.1865 13.3359 936 118.444 1189.87 470.002
617 0 71.1747 14.2326 1013 116.226 1190.8 469.699
618 0 72.2259 12.4747 901 121.497 1190.26 467.423
619 0 75.1316 12.7776 960 119.792 1190.78 467.138
620 0 79.3195 13.1494 1043 117.411 1191.2 463.493
621 0 80.1437 12.4901 1001 118.819 1190.99 463.799
622 0 88.1973 13.4698 1188 113.505 1190.82 464.134
623 0 86.1923 12.855 1108 116.609 1190.17 458.886
624 1 47.0609 10.4333 491 106.106 1190.41 483.358
625 0 47.0436 9.96948 469 106.475 1190.51 481
626 0 48.0498 11.28 542 105.349 1190.06 481.441
627 0 49.0795 11.8583 582 102.938 1190.09 480.648
628 0 50.1178 12.0117 602 101.633 1189.95 480.664
629 0 49.0204 11.5462 566 103.673 1189.39 479.124
630 0 54.0246 13.9751 755 96.5974 1189.14 477.583
631 0 54.0547 11.6919 632 102.354 1190.31 476.505
632 0 56.089 12.1949 684 101.05 1189.94 476.776
633 0 60.108 13.4092 806 97.4653 1190.34 474.828
634 0 61.101 12.9131 789 99.0317 1190.48 472.88
635 0 62.0588 12.2626 761 100.502 1190.44 471.949
636 0 65.0422 13.6373 887 97.3089 1190.4 471.378
637 0 66.0697 13.7582 909 98.1991 1190.76 470.053
638 0 70.128 13.2187 927 98.8209 1191.06 471.225
639 0 72.1142 13.7144 989 99.089 1190.31 466.825
640 0 75.0758 13.1867 990 104.976 1189.55 466.616
641 0 76.1298 11.9927 913 106.602 1190.32 467.732
642 0 81.1116 12.3164 999 105.776 1189.63 464.688
643 0 84.181 13.2572 1116 103.583 1190.02 463.797
644 0 84.0925 12.5219 1053 105.479 1189.6 460.657
645 0 87.2261 12.737 1111 104.32 1189.91 459.752
646 1 42.0312 11.5628 486 100.615 1190.62 483.708
647 0 43.0447 12.1502 523 98.696 1189.89 481.342
648 0 44.0512 11.9633 527 99.4668 1189.7 481.767
649 0 46.1908 10.6082 490 102.424 1188.92 481.037
650 0 47.1423 11.8789 560 99.3804 1188.91 479.05
651 0 48.0439 12.0515 579 98.8221 1188.81 478.983
652 0 50.0505 11.1288 557 99.7522 1189.36 479.061
653 0 51.0365 11.384 581 99.6833 1189.09 478.06
654 0 51.1179 10.2899 526 101.403 1189.54 476.023
655 0 55.2086 11.6467 643 98.8538 1189.69 475.863
656 0 58.0517 13.2296 768 94.9661 1190.22 475.085
657 0 61.165 11.2156 686 97.691 1189.49 474.958
658 0 62.0834 12.2899 763 96.4443 1189.58 472.712
659 0 64.0451 11.3202 725 98.2248 1189.67 472.825
660 0 66.0434 10.2357 676 100.105 1189.2 471.527
661 0 71.0522 11.6956 831 98.8893 1188.69 468.921
662 0 73.0894 13.463 984 96.4146 1188.46 468.629
663 0 74.1 11.336 840 101.604 1188.76 467.921
664 0 76.0882 11.3158 861 100.614 1189.55 466.725
665 0 81.2039 12.6349 1026 98.5731 1190.58 462.625
666 1 43.0788 11.4906 495 97.7293 1190.99 480.42
667 0 46.1734 11.5868 535 96.1047 1191.17 481.54
668 0 46.0829 13.3889 617 93.825 1189.67 479.815
669 0 49.065 13.1662 646 92.2059 1189.76 480.983
670 0 50.0852 11.74 588 95.631 1189.56 479.947
671 0 51.2944 12.1846 625 95.552 1189.02 480.786
672 0 52.1075 12.8772 671 95.0864 1189.32 478.785
673 0 52.2754 11.975 626 97.9153 1189.93 477.661
674 0 55.2794 12.2107 675 97.4785 1189.77 477.521
675 0 58.0969 12.5996 732 98.3265 1190.22 477.357
676 0 58.2094 13.0907 762 98.8648 1190.11 475.752
677 0 62.0705 12.808 795 99.439 1190.18 474.194
678 0 62.1929 13.1365 817 99.0636 1190.2 474.518
679 0 65.0684 12.9863 845 100.631 1189.76 473.859
680 0 67.0818 13.9084 933 100.088 1189.25 470.819
681 0 69.1278 11.9778 828 104.075 1189.14 471.06
682 0 72.0781 12.0425 868 103.835 1189.79 471.758
683 0 76.1398 13.4752 1026 100.916 1189.27 469.514
684 0 76.1205 13.4261 1022 103.63 1190.22 465.01
685 0 81.1051 13.6613 1108 104.163 1189.55 462.866
686 1 39.0946 11.0501 432 106.838 1190.05 485.609
687 0 39.2488 11.3634 446 108.691 1188.51 483.009
688 0 40.0596 11.5827 464 109.677 1188.98 482.802
689 0 44.0512 12.4401 548 106.23 1189.09 482.434
690 0 44.0569 11.9164 525 109.362 1189.04 482.457
691 0 46.0501 13.4419 619 104.499 1190.38 482.3
692 0 48.0423 12.5306 602 106.879 1190.38 481.618
693 0 48.0189 12.6409 607 109.784 1189.21 481.346
694 0 49.0254 12.2998 603 113.022 1188.9 479.474
695 0 52.1067 14.5663 759 107.414 1188.73 478.348
696 0 53.1029 13.5586 720 110.692 1189.31 477.658
697 0 55.1137 13.2453 730 112.051 1189.81 476.474
698 0 56.0658 13.4842 756 112.923 1189.74 476.116
699 0 58.0905 13.7544 799 112.866 1189.51 474.92
700 0 60.0437 14.8392 891 110.951 1189.61 472.764
701 0 63.0611 13.8754 875 112.842 1189.56 473.821
702 0 65.1263 15.0477 980 109.753 1189.44 472.843
703 0 67.2217 14.1026 948 113.483 1189.63 470.43
704 0 70.2866 14.7966 1040 111.686 1189.36 468.705
705 0 71.2782 13.6367 972 116.175 1189.12 465.697
706 0 74.1933 13.7614 1021 114.515 1189.79 466.29
707 0 75.2348 12.5341 943 116.496 1188.63 464.432
708 0 79.1539 13.6064 1077 114.744 1188.84 461.085
709 0 81.2917 12.4244 1010 118.369 1189.1 457.449
710 0 82.3474 12.3258 1015 119.274 1189.37 452.789
711 0 86.2899 13.8603 1196 116.166 1189.11 451.604
712 0 89.1443 13.3828 1193 117.919 1189.24 450.864
713 1 44.1623 10.3708 458 118.814 1189.45 469.105
714 0 51.2242 12.5331 642 112.642 1190.15 471.559
715 0 51.0552 12.3396 630 115.278 1188.84 474.943
716 0 55.1779 12.7406 703 118.229 1190.48 476.617
717 0 56.0549 12.5413 703 120.757 1191.13 475.649
718 0 55.0899 12.3979 683 122.941 1191.24 473.167
719 0 60.0594 13.3868 804 119.738 1190.9 472.558
720 0 63.1833 12.3134 778 122.946 1190.93 472.67
721 0 66.2434 13.9486 924 119.319 1191.04 470.524
722 0 66.0338 12.8722 850 124.132 1190.36 470.904
723 0 69.0907 12.5198 865 125.037 1190.22 470.368
724 0 69.1599 12.5072 865 127.146 1189.99 468.531
725 0 74.1706 13.5498 1005 124.193 1190.03 466.541
726 0 76.1849 12.7453 971 125.714 1189.85 467.217
727 0 79.1382 14.203 1124 122.852 1189.56 464.599
728 0 80.1468 13.1509 1054 127.082 1189.36 462.372
729 0 82.0927 13.0584 1072 127.907 1189.63 462.15
730 0 85.2811 14.3291 1222 125.938 1189.38 459.128
731 0 89.1668 13.6374 1216 126.85 1189.83 459.404
732 0 90.2518 13.3405 1204 128.667 1190 458.541
733 0 94.2536 13.6547 1287 127.913 1189.78 455.954
734 0 97.1386 13.6609 1327 128.85 1189.74 456.575
735 0 99.3378 12.9357 1285 130.689 1189.23 454.177
736 0 102.216 13.3541 1365 130.623 1189.81 449.928
737 0 107.255 13.6031 1459 128.645 1189.61 449.521
738 0 109.104 13.1434 1434 129.919 1189.25 447.67
739 0 114.095 12.5685 1434 130.935 1189.18 444.941
740 0 118.119 13.3848 1581 128.942 1189.14 441.363
741 0 122.13 13.7559 1680 127.564 1188.5 440.217
742 0 124.063 12.4695 1547 132.844 1187.93 434.709
743 0 131.153 12.9315 1696 128.346 1188.08 439.419
744 0 135.171 12.5545 1697 131.239 1188.29 434.949
745 1 69.0756 11.7408 811 123.475 1187.61 464.61
746 0 69.128 11.7029 809 123.403 1188.5 459.032
747 0 71.1977 10.9554 780 124.367 1187.92 460.318
748 0 73.3217 12.1792 893 121.381 1188.1 457.424
749 0 77.4611 10.8312 839 120.287 1188.95 457.354
750 0 81.1377 11.6838 948 114.581 1189.16 460.256
751 0 81.105 11.2693 914 114.749 1189.5 465.14
752 0 87.1508 12.0251 1048 112.435 1189.47 463.613
753 0 89.1494 11.1723 996 116.031 1189.61 461.374
754 0 91.0973 11.1749 1018 116.368 1189.85 458.936
755 0 95.1503 11.6132 1105 116.184 1189.62 456.525
756 0 97.1871 11.9769 1164 116.634 1189.3 452.219
757 0 100.084 11.7102 1172 116.524 1189.28 454.132
758 0 105.094 12.1415 1276 116.204 1189.33 453.125
759 0 108.101 12.2664 1326 116.06 1189.47 452.049
760 0 111.149 12.8926 1433 117.426 1188.65 447.131
761 0 116.123 12.0561 1400 119.326 1188.57 445.757
762 0 117.149 11.3104 1325 121.242 1188.91 443.929
763 0 124.187 12.8355 1594 117.146 1188.51 442.203
764 0 128.232 11.4714 1471 119.295 1189.18 441.181
765 0 134.063 13.1804 1767 114.737 1188.9 437.011
766 0 137.148 12.4902 1713 117.422 1189.49 433.219
767 0 142.372 12.3058 1752 117.071 1189.31 430.703
768 1 80.4672 10.3645 834 110.616 1190.13 462.326
769 0 83.1003 11.9975 997 106.922 1188.8 460.692
770 0 89.1599 11.5859 1033 105.523 1189.16 461.612
771 0 90.1644 12.4218 1120 104.945 1189.25 459.092
772 0 92.0599 11.2753 1038 108.212 1189.57 457.542
773 0 96.24 11.783 1134 114.399 1189.57 455.392
774 0 96.2353 11.8252 1138 140.395 1188.57 455.479
775 0 103.171 11.6021 1197 111.959 1189.64 450.086
776 0 106.196 11.2527 1195 111.102 1189.34 450.818
777 0 108.132 11.0605 1196 112.119 1190.06 446.927
778 0 113.117 11.2362 1271 109.537 1189.86 447.965
779 0 118.227 11.2411 1329 108.898 1189.56 448.744
780 0 118.091 11.0254 1302 110.99 1189.52 442.674
781 0 121.249 10.5568 1280 110.712 1188.97 442.756
782 0 128.121 12.4648 1597 106.924 1188.72 440.346
783 0 130.264 12.0524 1570 107.101 1189.67 438.178
784 0 135.314 14.2631 1930 102.963 1189.83 434.23
785 0 138.297 12.4226 1718 109.2 1189.6 429.804
786 0 141.201 12.252 1730 108.782 1189.59 431.446
787 1 77.1497 9.83801 759 101.115 1190.18 466.478
788 0 79.216 10.2631 813 102.323 1189.95 465.09
789 0 81.2582 11.3219 920 100.873 1189.53 464.227
790 0 85.1718 12.058 1027 99.4703 1190.17 462.554
791 0 85.1944 10.9632 934 103.179 1189.63 461.642
792 0 89.2397 12.1246 1082 101.616 1189.29 459.215
793 0 91.2913 11.8522 1082 102.248 1189.64 458.24
794 0 94.1945 12.1876 1148 102.665 1189.59 456.481
795 0 96.2406 11.8869 1144 103.336 1189.48 455.028
796 0 99.2059 13.0133 1291 101.248 1189.21 455.292
797 0 103.116 12.7236 1312 101.142 1189.74 451.319
798 0 104.15 11.7235 1221 105.209 1189.5 449.029
799 0 110.118 11.4968 1266 105.638 1189.68 451.321
800 0 111.235 12.0286 1338 104.908 1189.46 447.681
801 0 114.133 13.0899 1494 103.137 1189.5 445.825
802 0 117.235 13.5199 1585 103.461 1188.95 442.532
803 0 122.179 12.9564 1583 106.21 1189.26 440.989
804 0 126.284 12.0206 1518 108.683 1188.98 441.956
805 0 132.417 13.9333 1845 105.651 1188.4 436.159
806 1 72.424 11.5707 838 104.062 1188.29 468.329
807 0 73.246 11.9734 877 106.293 1188.94 467.448
808 0 76.1714 12.485 951 105.206 1188.48 464.681
809 0 78.1874 12.7898 1000 104.524 1188.38 466.864
810 0 81.264 13.6961 1113 99.8356 1189.47 461.817
811 0 82.2142 12.6256 1038 103.685 1189.93 461.693
812 0 87.1976 12.9476 1129 102.872 1189 460.816
813 0 89.1586 12.8535 1146 103.504 1189.67 460.649
814 0 92.1054 12.8766 1186 101.674 1190.21 457.953
815 0 96.1587 12.8537 1236 101.865 1190.25 458.061
816 0 99.2569 14.2257 1412 98.6055 1189.84 456.103
817 0 102.202 13.6494 1395 100.146 1190.1 454.647
818 0 104.169 12.4797 1300 104.387 1189.86 452.548
819 0 106.214 11.0437 1173 107.893 1190.14 453.361
820 0 106.214 11.0814 1177 142.997 1190.14 453.446
821 1 60.0803 9.92006 596 108.686 1190.98 475.628
822 0 62.114 11.5272 716 107.317 1189.42 475.697
823 0 66.0644 13.3203 880 107.447 1189.54 473.992
824 0 67.0294 13.8148 926 107.303 1187.66 471.877
825 0 69.0497 12.5851 869 110.223 1187.72 469.783
826 0 71.0445 14.5824 1036 104.622 1187.9 469.091
827 0 69.0751 11.3065 781 113.666 1187.39 470.289
828 0 72.087 11.3474 818 114.965 1188.16 469.147
829 0 74.0687 11.7189 868 114.334 1187.67 467.505
830 0 78.1319 11.711 915 114.973 1187.95 465.035
831 0 81.0591 11.3497 920 115.213 1187.22 465.892
832 0 84.171 12.439 1047 113.61 1187.56 463.291
833 0 87.091 12.9175 1125 113.237 1187.92 463.02
834 0 89.1757 12.1558 1084 115.581 1187.87 461.486
835 0 91.1693 11.6596 1063 117.272 1187.36 461.327
836 0 94.1603 12.8292 1208 113.148 1187.99 460.782
837 0 96.1851 11.9041 1145 115.81 1187.79 459.793
838 0 102.164 12.9889 1327 113.443 1188.16 456.645
839 0 104.194 12.8798 1342 115.382 1188.11 453.256
840 1 54.0121 10.257 554 113.366 1187.56 476.614
841 0 56.0654 10.791 605 108.929 1187.78 473.522
842 0 57.0482 12.7611 728 105.283 1187.13 476.951
843 0 58.114 10.3417 601 111.401 1187.28 478.181
844 0 59.0609 11.8691 701 108.522 1187.59 476.138
845 0 62.1572 12.1145 753 107.129 1187.95 476.194
846 0 64.0345 12.1653 779 107.721 1187.91 473.709
847 0 66.0627 12.3519 816 107.499 1187.45 470.567
848 0 67.0953 11.5656 776 109.187 1186.87 470.258
849 0 70.0984 12.3683 867 107.48 1187.58 470.99
850 0 71.1534 12.5363 892 109.027 1187 468.437
851 0 75.1314 12.9373 972 106.921 1187.74 469.348
852 0 77.1148 11.8395 913 110.576 1188.11 467.844
853 0 79.1348 12.7251 1007 109.322 1188.46 466.658
854 0 81.1638 11.7417 953 112.311 1188.28 466.077
855 0 84.2005 11.3539 956 113.395 1188.32 465.792
856 0 85.1148 11.6666 993 115.309 1188.36 459.97
857 0 88.09 11.545 1017 115.077 1188.5 459.029
858 1 50.0977 11.1981 561 111.431 1188.49 480.05
859 0 50.0181 11.9357 597 104.844 1188.13 477.687
860 0 53.029 11.7483 623 106.567 1188.73 477.912
861 0 54.0819 11.5196 623 109.565 1188.36 477.732
862 0 56.162 13.2296 743 107.349 1187.9 474.433
863 0 55.0975 12.1784 671 110.054 1188.02 475.539
864 0 59.0617 11.852 700 109.483 1187.94 475.966
865 0 60.0549 12.6384 759 108.08 1187.9 475.086
866 0 61.0484 12.5802 768 109.863 1188.19 472.867
867 0 62.0831 12.4672 774 110.373 1187.91 471.693
868 0 65.1129 13.8682 903 105.682 1187.91 472.388
869 0 65.0997 12.2888 800 110.835 1187.61 470.571
870 0 69.1334 12.541 867 108.383 1187.72 468.948
871 0 71.1244 13.8349 984 105.73 1188.16 467.682
872 0 73.157 13.2181 967 106.545 1187.95 467.468
873 0 76.0637 12.0557 917 109.969 1187.96 467.11
874 0 78.0982 12.8172 1001 108.618 1188.05 462.74
875 0 82.1254 12.5418 1030 110.42 1188.51 462.896
876 0 83.0765 12.3741 1028 111.409 1188.38 463.56
877 0 86.0475 13.0625 1124 110.718 1188.28 458.695
878 0 91.0778 12.923 1177 111.249 1188.02 458.75
879 0 93.0873 13.3208 1240 111.02 1187.87 456.306
880 0 95.0752 12.6426 1202 113.949 1188.08 455.32
881 1 53.0647 11.7027 621 112.549 1187.35 479.63
882 0 54.0459 13.359 722 111.183 1187.48 477.364
883 0 56.0383 12.7056 712 117.126 1187.23 477.097
884 0 57.0542 12.9526 739 117.604 1187.69 475.77
885 0 57.0542 12.9701 740 151.124 1187.69 475.803
886 0 59.2013 12.0774 715 121.712 1187.96 473.392
887 0 61.0518 12.3502 754 121.009 1187.9 471.829
888 0 64.0797 13.4832 864 117.413 1187.91 471.119
889 0 65.0642 13.479 877 118.193 1187.67 469.027
890 0 68.047 13.476 917 117.99 1188.03 470.266
891 0 68.0684 13.5305 921 120.428 1188.51 467.394
892 0 71.0952 13.5452 963 120.482 1188.32 465.943
893 0 73.0549 13.0724 955 121.847 1188.8 465.847
894 0 76.121 14.8054 1127 117.587 1188.99 464.031
895 0 78.0668 13.8343 1080 121.107 1188.42 462.515
896 0 79.1082 13.1466 1040 124.714 1188.27 463.062
897 0 82.1426 13.9148 1143 119.241 1188.73 462.887
898 0 86.1965 14.0493 1211 119.65 1188.61 461.224
899 0 86.1475 15.1833 1308 118.878 1188.47 459.455
900 0 91.2492 13.5015 1232 124.663 1188.91 455.774
901 0 93.3039 13.1613 1228 126.783 1189.22 453.361
902 0 96.3255 13.8489 1334 122.949 1188.94 450.863
903 0 100.328 13.6552 1370 121.155 1188.49 449.758
904 0 102.449 13.2944 1362 122.019 1188.97 448.651
905 0 107.325 13.6036 1460 119.012 1187.94 441.025
906 0 111.367 12.8224 1428 121.307 1188.45 440.504
907 1 59.1652 10.6989 633 120.774 1188.5 465.695
908 0 60.0395 11.1093 667 121.948 1187.58 466.09
909 0 64.0793 11.6418 746 120.066 1188.19 466.682
910 0 66.1077 12.646 836 118.746 1187.65 462.874
911 0 67.1334 11.2612 756 124.303 1187.57 465.067
912 0 70.1141 11.9234 836 120.512 1187.95 466.304
913 0 74.0866 12.1075 897 110.592 1188.46 463.727
914 0 76.0716 11.7389 893 118.3 1189.43 461.9
915 0 81.0762 9.54658 774 120.735 1189.44 462.234
916 0 82.0923 10.8171 888 119.33 1189.14 459.805
917 0 85.1682 11.3305 965 118.359 1188.96 458.477
918 0 88.0396 10.6657 939 122.15 1188.94 454.4
919 0 93.0916 11.3866 1060 120.281 1189.2 454.506
920 0 95.0662 11.35 1079 119.776 1189.72 455.285
921 0 98.0626 9.88144 969 124.393 1190.04 453.536
922 1 51.0611 11.026 563 112.144 1190.27 477.316
923 0 51.1173 11.1313 569 117.083 1187.23 476.432
924 0 53.0502 12.1395 644 116.643 1190.06 477.854
925 0 55.03 11.2848 621 119.362 1190.05 476.931
926 0 57.1556 14.0669 804 111.672 1189.97 474.711
927 0 61.0773 13.0818 799 112.902 1189.27 474.411
928 0 60.1669 13.2132 795 114.337 1189.09 474.369
929 0 61.1491 13.0337 797 115.563 1189.65 472.043
930 0 65.132 12.2828 800 116.625 1190.02 471.77
931 0 69.1356 14.2618 986 110.588 1189.56 470.453
932 0 71.0714 13.789 980 112.526 1190.47 469.306
933 0 74.1071 13.0217 965 114.05 1190.6 468.525
934 0 72.124 12.9638 935 116.973 1190.48 465.357
935 0 77.0807 13.2069 1018 115.437 1190.66 465.715
936 0 79.1014 13.7039 1084 113.738 1190.91 465.197
937 0 82.0997 13.2035 1084 116.332 1190.74 462.069
938 0 84.1179 12.5776 1058 120.155 1190.89 460.078
939 0 87.1329 12.7392 1110 119.351 1190.37 460.842
940 0 90.0891 13.3645 1204 119.691 1190.87 458.137
941 0 93.1925 12.7693 1190 120.361 1190.57 458.393
942 0 95.1217 11.7954 1122 121.744 1190.5 457.986
943 0 101.097 13.3238 1347 116.752 1190.22 454.839
944 1 57.0499 10.9027 622 122.601 1190.87 474.098
945 0 58.0245 12.0811 701 120.545 1190.38 472.553
946 0 62.1413 13.7268 853 110.109 1190.5 473.839
947 0 62.1106 13.4599 836 111.844 1190.22 472.56
948 0 63.1895 11.7741 744 116.477 1190.25 469.69
949 0 65.1191 12.7612 831 112.1 1190.2 470.507
950 0 68.2699 12.0404 822 111.08 1190.16 470.345
951 0 71.1567 12.8027 911 109.353 1190.25 468.778
952 0 74.1538 13 964 107.993 1190.36 466.503
953 0 75.205 12.6321 950 110.196 1190.42 468.945
954 0 77.2201 12.7687 986 111.967 1190.17 465.561
955 0 82.1396 14.1466 1162 108.084 1189.96 464.987
956 0 83.1069 12.6945 1055 111.952 1190.31 462.973
957 0 86.2444 12.4646 1075 111.893 1190.65 461.044
958 0 90.186 13.3613 1205 109.452 1189.9 459.274
959 0 93.1378 12.2399 1140 113.044 1190.59 457.752
960 1 51.0349 11.2864 576 117.597 1190.73 477.736
961 0 52.0548 12.1603 633 115.283 1191.43 476.346
962 0 56.0783 11.8584 665 116.271 1191.18 477.014
963 0 55.0425 12.1542 669 118.339 1191.52 474.912
964 0 57.0554 12.7771 729 116.512 1191.4 473.989
965 0 58.0429 12.7664 741 117.051 1191.28 474.368
966 0 61.0618 13.2161 807 114.765 1191.1 474.912
967 0 61.1046 12.6995 776 117.82 1189.28 473.63
968 0 63.0345 13.3578 842 116.848 1189.37 472.322
969 0 63.0901 12.1255 765 120.542 1189.14 472.31
970 0 65.0358 12.5623 817 118.913 1189.72 469.995
971 0 69.1725 13.17 911 115.279 1188.42 468.662
972 0 72.1913 13.7551 993 112.299 1188 468.269
973 0 73.1265 13.5655 992 114.555 1188.73 465.089
974 0 73.1782 12.9137 945 116.479 1188.57 464.476
975 0 76.1271 12.466 949 116.747 1189.18 464.107
976 0 79.1532 12.5074 990 115.343 1189.05 463.011
977 0 83.1117 12.2486 1018 114.829 1189.18 463.504
978 0 82.1625 12.4631 1024 115.972 1189.49 459.861
979 0 86.181 13.6573 1177 112.105 1188.95 458.25
980 0 89.1857 12.5244 1117 115.163 1189.27 457.08
981 0 93.2542 13.1576 1227 113.033 1188.75 455.492
982 1 49.1471 10.5805 520 114.029 1188.12 476.685
983 0 53.0286 12.9741 688 106.583 1187.55 477.14
984 0 53.0381 12.9906 689 131.83 1186.54 477.061
985 0 55.0368 12.0828 665 108.701 1187.91 476.684
986 0 58.0524 11.8341 687 109.268 1187.81 475.051
987 0 57.0777 12.299 702 110.333 1187.84 472.456
988 0 60.0689 12.0195 722 109.543 1188.52 473.618
989 0 61.1131 11.3233 692 111.773 1188.27 471.461
990 0 61.0351 12.0914 738 110.703 1188.41 471.183
991 0 64.0219 12.7456 816 108.684 1187.96 468.729
992 0 67.0688 12.599 845 108.146 1188.23 469.391
993 0 69.0613 12.612 871 108.715 1187.97 468.303
994 0 70.1204 11.138 781 112.186 1188.27 467.115
995 0 75.0906 13.0376 979 106.876 1188.89 465.169
996 0 74.1238 12.1958 904 109.572 1188.42 464.333
997 0 77.1418 12.5094 965 108.49 1188.74 461.269
998 0 81.2269 14.0348 1140 104.727 1188.67 460.925
999 0 81.0858 12.6656 1027 108.567 1188.57 457.128
1000 0 85.1189 12.5354 1067 107.112 1188.94 459.656
1001 0 90.1694 13.5523 1222 104.387 1189.23 454.753
1002 0 91.4265 13.2019 1207 105.246 1189.39 453.873
1003 0 92.3865 11.3112 1045 108.73 1190.01 450.136
1004 1 50.1379 10.4911 526 103.778 1190.62 475.452
1005 0 53.1296 11.8954 632 101.611 1190.48 474.663
1006 0 55.0792 12.9087 711 99.789 1187.94 473.428
1007 0 57.0623 12.39 707 102.289 1188.56 473.576
1008 0 57.055 12.5844 718 103.114 1187.74 472.695
1009 0 60.1079 11.9119 716 104.11 1187.03 471.698
1010 0 62.0486 12.9415 803 103.203 1187.81 469.809
1011 0 63.0528 13.1477 829 103.098 1187.55 469.614
1012 0 64.0478 12.4907 800 104.518 1187.57 469.472
1013 0 67.0585 13.2869 891 104.548 1187.94 467.316
1014 0 69.0635 13.5962 939 103.146 1187.75 468.915
1015 0 71.0597 13.2846 944 105.055 1187.61 467.143
1016 0 75.0796 13.8919 1043 103.162 1187.92 466.279
1017 0 74.1556 12.7165 943 107.917 1189.79 464.058
1018 0 80.1818 13.0204 1044 106.771 1190.04 463.498
1019 0 81.2049 12.6717 1029 109.338 1189.49 460.561
1020 0 85.1401 14.0005 1192 105.781 1188.85 457.935
1021 0 89.109 14.3083 1275 103.856 1189.71 459.203
1022 1 47.0321 10.7161 504 109.496 1190.51 479.343
1023 0 49.0395 12.806 628 106.412 1190.98 477.576
1024 0 51.086 11.5883 592 105.38 1190.17 478.997
1025 0 53.0755 12.1525 645 102.625 1189.94 478.82
1026 0 53.0493 12.9879 689 101.936 1189.87 477.776
1027 0 55.1266 13.079 721 102.616 1189.52 476.29
1028 0 57.0288 14.0981 804 100.765 1188.66 475.658
1029 0 58.1415 13.7767 801 101.684 1188.29 475.287
1030 0 57.0717 12.6858 724 106.747 1189.24 474.413
1031 0 63.1417 14.6337 924 101.005 1189.43 472.791
1032 0 64.0689 14.3752 921 102.153 1189.5 471.745
1033 0 65.0812 13.6906 891 104.418 1189.19 472.46
1034 0 68.0858 13.8355 942 104.494 1188.57 470.591
1035 0 69.0745 14.26 985 105.782 1188.85 469.669
1036 0 71.1134 13.9074 989 106.583 1189.54 468.02
1037 0 74.1416 14.5532 1079 104.863 1189.81 465.601
1038 0 76.1226 13.7673 1048 106.323 1189.55 464.97
1039 0 79.1823 14.0183 1110 107.123 1189.82 462.854
1040 0 82.0589 13.1369 1078 108.191 1187.95 466.042
1041 0 84.1182 13.2908 1118 110.007 1188.15 460.211
1042 0 88.0991 14.3021 1260 106.977 1188.39 460.456
1043 0 92.1295 14.2517 1313 106.259 1188.06 459.425
1044 1 48.1122 12.2006 587 113.871 1188.04 480.259
1045 0 52.0175 12.7073 661 112.401 1188.26 479.21
1046 0 52.3386 13.0878 685 111.721 1188.28 475.415
1047 0 54.1189 12.6943 687 118.223 1188.41 476.355
1048 0 58.039 12.6294 733 117.326 1187.77 477.059
1049 0 56.0407 13.1512 737 117.459 1187.62 475.578
1050 0 60.023 12.2453 735 119.837 1188.07 475.05
1051 0 62.0708 13.1302 815 116.526 1188.45 472.099
1052 0 63.0546 13.2425 835 116.304 1188.2 472.998
1053 0 65.0633 13.2947 865 116.22 1188.5 470.446
1054 0 66.0631 13.6082 899 116.482 1188.24 468.387
1055 0 70.1354 13.3314 935 116.035 1187.71 466.401
1056 0 72.1727 13.7032 989 114.974 1189.17 467.934
1057 0 75.1362 13.1095 985 116.16 1188.87 465.999
1058 0 76.2481 14.361 1095 113.915 1189.34 463.552
1059 0 79.1197 13.5744 1074 116.17 1189.3 463.25
1060 0 79.145 12.9383 1024 120.209 1188.84 462.683
1061 0 84.2544 13.4474 1133 117.855 1188.67 462.395
1062 0 87.1907 14.1414 1233 116.936 1189.15 460.612
1063 0 90.3121 12.789 1155 119.542 1189.01 456.554
1064 1 45.0464 11.5214 519 113.865 1191.25 478.981
1065 0 47.1583 12.3202 581 113.854 1190.63 478.663
1066 0 48.1053 12.4103 597 113.358 1190.61 478.762
1067 0 51.0375 13.2256 675 113.394 1189.43 477.825
1068 0 52.0118 12.1126 630 117.287 1188.74 476.238
1069 0 55.0599 13.2038 727 113.71 1188.3 476.371
1070 0 57.1304 14.4407 825 111.275 1188.82 475.873
1071 0 59.0559 13.1401 776 115.573 1188.64 474.557
1072 0 62.0759 13.854 860 112.733 1188.73 474.198
1073 0 63.0489 14.0684 887 112.475 1189.03 471.048
1074 0 63.1 13.4548 849 116.548 1188.5 470.082
1075 0 67.1037 13.6803 918 116.077 1188.27 470.723
1076 0 68.0507 12.9462 881 119.449 1188.57 468.507
1077 0 73.0683 13.3437 975 117.468 1188.5 468.815
1078 0 74.1303 12.7208 943 119.533 1188.44 467.959
1079 0 79.1243 13.3714 1058 116.625 1188.69 465.737
1080 1 41.0324 12.2586 503 118.328 1188.96 482.99
1081 0 43.0289 12.8983 555 113.449 1188.6 483.663
1082 0 44.1476 12.5488 554 117.052 1190.33 479.922
1083 0 45.0707 12.6024 568 116.215 1189.91 481.754
1084 0 47.0748 13.2555 624 115.008 1190.79 479.351
1085 0 50.1704 13.4143 673 112.25 1189.66 481.083
1086 0 51.0328 13.3248 680 113.816 1190.06 479.797
1087 0 53.0517 14.6273 776 111.331 1189.93 478.557
1088 0 52.0824 12.4226 647 118.541 1190.12 477.436
1089 0 54.1226 13.1738 713 116.682 1190.28 476.725
1090 0 58.0756 14.1884 824 112.718 1189.94 476.17
1091 0 59.0969 14.7047 869 111.082 1190.53 475.583
1092 0 61.1387 15.3912 941 110.238 1190.2 473.584
1093 0 63.0672 15.3328 967 110.505 1189.64 473.404
1094 0 64.1797 13.8517 889 115.147 1189.43 472.341
1095 0 65.1388 13.2026 860 117.372 1188.69 470.502
1096 0 67.135 14.0165 941 115.011 1188.59 470.125
1097 0 68.2307 14.0846 961 116.022 1188.79 467.54
1098 0 71.2438 14.7522 1051 114.065 1188.86 465.567
1099 0 76.173 15.8849 1210 109.707 1188.75 466.074
1100 0 76.2457 13.5745 1035 116.837 1188.69 465.802
1101 0 81.1817 14.215 1154 114.81 1188.38 463.151
1102 0 82.2787 14.3658 1182 115.041 1188.61 461.691
1103 0 85.2259 14.7373 1256 114.137 1188.53 457.67
1104 0 87.2778 12.9013 1126 118.27 1189.08 460.123
1105 0 93.282 14.7295 1374 116.846 1188.7 456.634
1106 0 95.0824 13.8511 1317 110.82 1189.18 458.838
1107 1 51.0279 12.2678 626 111.703 1188.64 477.952
1108 0 55.2506 12.7058 702 113.821 1188.75 477.42
1109 0 57.0592 12.671 723 117.339 1188.71 477.289
1110 0 58.0143 12.5314 727 117.99 1187.62 475.506
1111 0 58.0813 12.5858 731 119.741 1188.09 474.027
1112 0 61.0571 13.9541 852 115.31 1187.9 473.903
1113 0 63.0657 13.0499 823 116.512 1187.24 473.829
1114 0 64.0331 12.8371 822 119.217 1187.45 470.541
1115 0 67.0358 12.829 860 118.395 1187.16 469.406
1116 0 70.1049 13.2373 928 117.058 1187.02 468.808
1117 0 71.0699 12.8043 910 119.236 1187.71 466.789
1118 0 76.271 13.1505 1003 117.426 1187.84 466.508
1119 0 76.1408 12.3061 937 119.854 1187.89 466.498
1120 0 77.3859 12.9481 1002 119.853 1188.35 463.732
1121 0 82.1515 13.1951 1084 117.321 1187.61 464.645
1122 0 85.1186 13.1816 1122 117.471 1187.78 463.22
1123 0 87.4339 13.7018 1198 116.707 1188.14 461.457
1124 0 89.1557 12.9773 1157 118.653 1188.23 459.888
1125 0 92.1876 13.1254 1210 118.461 1188.74 458.127
1126 0 95.2978 13.3476 1272 117.726 1188.75 456.8
1127 0 95.4405 12.7409 1216 118.989 1188.67 456.123
1128 0 97.392 11.5513 1125 117.737 1188.54 453.343
1129 0 102.235 12.3832 1266 116.46 1188.64 451.8
1130 0 104.181 12.1328 1264 116.523 1188.74 451.106
1131 0 107.344 12.6322 1356 116.508 1188.87 445.486
1132 0 113.34 12.7492 1445 117.391 1189.15 442.112
1133 0 116.348 12.7634 1485 115.368 1189.71 443.831
1134 1 61.2361 10.9086 668 115.71 1189.17 468.412
1135 0 66.2399 10.7337 711 114.495 1189.37 467.225
1136 0 68.2647 11.5433 788 113.294 1188.97 463.047
1137 0 69.1301 11.3843 787 111.731 1187.85 461.057
1138 0 69.0595 12.5109 864 111.328 1187.59 457.968
1139 0 74.102 12.1724 902 104.742 1188.61 461.88
1140 0 76.2034 11.2331 856 108.074 1189 458.048
1141 0 76.2581 9.82191 749 111.961 1188.87 458.911
1142 0 83.1923 11.3352 943 108.685 1188.54 457.174
1143 0 84.3395 9.81747 828 112.844 1189.07 455.38
1144 0 87.1502 10.6024 924 110.611 1188.41 455.78
1145 0 92.2542 11.2407 1037 110.351 1188.87 453.731
1146 0 94.232 10.697 1008 111.824 1188.61 454.94
1147 0 96.4801 11.847 1143 111.43 1187.9 448.725
1148 0 100.238 12.4404 1247 110.037 1187.36 449.197
1149 0 107.333 12.1957 1309 110.314 1186.99 449.256
1150 1 58.1173 13.1802 766 101.718 1187.37 472.671
1151 0 57.0329 10.5027 599 107.25 1186.77 471.643
1152 0 63.1176 13.5144 853 109.835 1186.88 469.205
1153 0 65.183 13.4698 878 112.915 1189 470.987
1154 0 64.1582 12.6562 812 116.584 1188.39 469.336
1155 0 68.2494 13.8316 944 112.178 1188.45 470.375
1156 0 69.1494 12.7695 883 115.487 1188.13 467.727
1157 0 73.1887 12.5976 922 113.813 1188.99 467.95
1158 0 75.1717 12.9969 977 113.201 1188.73 465.337
1159 0 78.2489 13.3165 1042 114.444 1188.67 462.615
1160 0 80.1956 13.7539 1103 113.898 1188.39 461.942
1161 0 81.1828 12.2933 998 119.053 1188.91 462.151
1162 0 83.259 13.2118 1100 118.158 1188.73 459.628
1163 0 88.1582 14.1904 1251 115.373 1188.38 458.607
1164 0 91.2394 13.8646 1265 115.1 1188.86 458.361
1165 0 93.2802 14.1295 1318 115.255 1188.56 456.116
1166 0 98.2072 14.4287 1417 113.683 1189.21 455.347
1167 0 98.1908 13.5552 1331 117.092 1188.26 451.847
1168 0 103.297 14.3663 1484 113.567 1188.75 451.544
1169 1 54.0906 11.4992 622 114.635 1188.82 476.204
1170 0 57.1554 10.5327 602 112.566 1189.95 474.935
1171 0 58.228 10.7508 626 115.216 1189.6 474.981
1172 0 61.191 12.747 780 111.335 1189.79 473.355
1173 0 62.247 12.9002 803 112.263 1189.72 471.981
1174 0 64.207 12.2261 785 113.743 1189.62 470.417
1175 0 67.3347 13.1284 884 111.962 1189.26 469.182
1176 0 68.1274 10.9354 745 116.858 1188.8 468.554
1177 0 69.2999 12.7417 883 115.239 1188.57 466.169
1178 0 72.1615 12.2642 885 114.522 1188.67 464.779
1179 0 74.2216 11.3714 844 114.29 1188.88 467.596
1180 0 78.1329 11.0581 864 113.703 1189.65 466.076
1181 0 79.2319 11.8008 935 108.169 1189.36 461.824
1182 0 83.1818 11.7333 976 108.011 1189.17 459.323
1183 0 87.2659 11.5853 1011 108.578 1188.91 458.46
1184 1 43.0564 9.38305 404 107.98 1190.55 482.592
1185 0 45.0329 11.2362 506 106.648 1190.49 479.943
1186 0 47.0695 11.8548 558 106.106 1188.05 478.993
1187 0 50.2063 13.1657 661 102.048 1188.18 478.868
1188 0 50.165 11.8011 592 107.066 1187.93 478.098
1189 0 52.0702 12.3487 643 105.686 1187.27 477.33
1190 0 53.033 12.6148 669 105.442 1187.14 475.993
1191 0 55.033 13.2103 727 104.583 1187.74 475.197
1192 0 57.0922 11.823 675 107.45 1187.52 475.884
1193 0 57.0268 12.8185 731 109.778 1189.02 474.741
1194 0 59.2334 13.7422 814 108.431 1188.89 472.875
1195 0 60.0954 11.7313 705 110.877 1188.91 474.055
1196 0 61.1044 13.256 810 108.147 1189.2 472.272
1197 0 66.1674 13.4659 891 106.035 1188.86 471.122
1198 0 66.0523 12.9594 856 107.722 1189.54 472.35
1199 0 68.0583 13.2827 904 106.611 1189.48 469.226
1200 0 69.083 11.9711 827 110.21 1189.69 468.938
1201 0 72.0594 11.8375 853 110.284 1189.37 470.515
1202 0 74.0314 14.1697 1049 105.162 1189.22 467.499
1203 0 74.2176 13.0292 967 108.676 1189 465.194
1204 0 78.1812 12.9954 1016 107.626 1188.99 465.098
1205 0 80.0858 13.7353 1100 106.608 1188.59 462.979
1206 0 83.1019 14.392 1196 104.888 1189.26 463.018
1207 0 83.1019 14.3318 1191 124.101 1190.24 462.998
1208 0 87.2394 14.9359 1303 104.933 1188.5 458.961
1209 0 87.07 11.5309 1004 114.178 1188.52 460.626
1210 0 89.2382 12.786 1141 112.275 1188.35 457.425
1211 0 92.1426 12.6543 1166 112.241 1188.21 456.639
1212 0 98.188 12.5881 1236 110.891 1187.9 456.603
1213 0 96.1731 11.6665 1122 114.916 1188.4 452.747
1214 1 56.0361 11.6354 652 107.262 1188.15 474.261
1215 0 59.0423 11.7373 693 105.195 1187.76 473.372
1216 0 60.0743 11.7854 708 106.165 1188.36 466.27
1217 0 62.0474 12.1198 752 107.082 1188.48 470.339
1218 0 63.0369 11.6757 736 108.455 1188.55 470.054
1219 0 67.0778 12.6719 850 105.588 1188.09 470.792
1220 0 70.0397 12.4215 870 106.451 1189.14 467.071
1221 0 72.091 13.3442 962 105.165 1189.05 468.127
1222 0 74.0574 12.1797 902 109.315 1188.66 465.772
1223 0 78.0478 13.0305 1017 107.428 1188.79 463.744
1224 0 81.2265 14.3057 1162 104.522 1188.78 462.213
1225 0 83.1589 14.0694 1170 106.845 1188.39 459.322
1226 0 86.1169 12.843 1106 107.857 1188.25 463.68
1227 0 90.1887 13.3165 1201 108.048 1188.85 459.47
1228 0 94.1558 12.2881 1157 113.053 1188.5 456.806
1229 0 96.1835 11.9979 1154 115.146 1187.41 452.783
1230 1 50.1432 11.1281 558 111.581 1187.54 474.409
1231 0 50.1432 11.0683 555 144.286 1188.53 474.418
1232 0 54.1096 13.2694 718 103.643 1187.07 474.389
1233 0 54.1298 11.9712 648 107.713 1187.62 473.457
1234 0 57.0876 11.9641 683 106.572 1187.17 472.006
1235 0 60.214 13.7509 828 105.585 1189.48 472.604
1236 0 62.1165 13.7805 856 103.498 1188.71 473.021
1237 0 64.1365 14.2353 913 103.415 1188.32 469.781
1238 0 67.0767 13.5069 906 105.139 1188.26 470.04
1239 0 69.0954 14.4293 997 105.196 1188.71 468.552
1240 0 70.1383 13.1597 923 108.243 1188.05 466.066
1241 0 72.1047 13.2308 954 107.232 1187.94 466.339
1242 0 77.081 14.3356 1105 103.275 1188.05 467.381
1243 0 77.1433 13.261 1023 109.036 1188.03 462.883
1244 0 80.1775 13.2082 1059 108.637 1188.38 463.314
1245 0 82.1309 13.5272 1111 108.947 1188.47 462.224
1246 0 87.1254 14.5078 1264 106.055 1188.53 459.654
1247 0 90.1397 14.4664 1304 105.814 1188.27 457.669
1248 0 92.155 14.2586 1314 106.938 1188.28 457.499
1249 0 94.085 13.0945 1232 109.799 1188.76 456.981
1250 0 97.0958 12.8842 1251 111.241 1187.92 454.057
1251 1 51.158 11.4352 585 110.764 1188.15 477.578
1252 0 53.1913 11.1296 592 113.932 1188.32 474.704
1253 0 53.0606 11.6659 619 95.7997 1187.34 474.108
1254 0 55.0784 10.8573 598 98.0251 1187.29 473.659
1255 0 57.0301 12.7301 726 94.6061 1187.9 472.124
1256 0 58.0365 12.3371 716 96.6564 1187.88 471.11
1257 0 60.0788 11.6514 700 106.794 1187.52 475.999
1258 0 61.0781 11.5262 704 108.327 1186.69 474.112
1259 0 65.0544 12.8969 839 104.29 1186.61 471.692
1260 0 67.0945 12.9817 871 103.812 1186.83 471.529
1261 0 71.0938 13.9675 993 101.636 1187.66 468.029
1262 0 72.0214 13.2738 956 103.6 1187.23 466.758
1263 0 75.063 13.8817 1042 102.337 1187.26 466.15
1264 0 75.063 13.895 1043 131.638 1186.25 466.075
1265 0 80.0875 13.7849 1104 103.774 1187.95 466.866
1266 0 83.0872 14.9482 1242 101.809 1187.11 463.462
1267 0 83.0872 14.8398 1233 133.728 1187.13 463.431
1268 0 88.0582 13.4343 1183 106.851 1187.43 459.921
1269 0 90.1122 13.4277 1210 107.616 1187.64 459.683
1270 0 95.0753 15.0828 1434 104.045 1186.74 456.695
1271 0 99.1207 14.4571 1433 104.512 1186.93 456.375
1272 0 100.086 13.0188 1303 109.885 1186.76 455.252
1273 0 102.08 12.9702 1324 110.407 1187.41 453.706
1274 1 54.0556 11.4882 621 147.829 1187.98 476.775
1275 0 60.1044 13.4766 810 106.905 1187.64 475.086
1276 0 57.1553 10.1303 579 107.812 1186.7 476.142
1277 0 59.1035 10.8115 639 106.482 1187.28 475.255
1278 0 61.0809 10.4943 641 107.507 1186.88 474.321
1279 0 65.0201 11.5041 748 105.055 1186.69 472.313
1280 0 65.0555 12.3279 802 105.853 1187.28 469.596
1281 0 68.0913 11.7342 799 106.199 1187.3 469.093
1282 0 69.2161 10.8212 749 105.919 1187.48 470.57
1283 0 72.0731 12.7093 916 102.733 1188.23 465.655
1284 0 78.1785 11.9854 937 102.461 1188.25 466.222
1285 0 80.113 9.84858 789 100.956 1188.08 465.719
1286 0 86.1321 11.7726 1014 98.1174 1187.87 462.098
1287 0 85.2088 10.2572 874 102.007 1187.91 461.803
1288 1 46.1104 10.1279 467 97.015 1187.14 481.467
1289 0 46.1124 10.5178 485 97.9711 1187.69 478.342
1290 0 48.0781 10.8573 522 95.6935 1188.52 476.247
1291 0 49.1533 11.3929 560 98.7536 1187.4 480.123
1292 0 49.1696 12.2027 600 98.2383 1187.55 478.282
1293 0 54.0804 12.389 670 95.4925 1187.65 478.424
1294 0 54.0804 12.4075 671 125.188 1185.64 478.462
1295 0 55.1539 11.8215 652 97.1074 1187.69 474.118
1296 0 55.0499 9.95461 548 102.901 1187.69 476.394
1297 0 59.0796 12.4239 734 97.5695 1187.54 473.725
1298 0 60.0418 11.492 690 99.6971 1187.51 473.578
1299 0 62.0882 11.9024 739 99.6171 1187.73 471.962
1300 0 64.0979 11.6072 744 99.3763 1187.82 473.445
1301 0 66.1573 11.3517 751 101.336 1187.88 471.154
1302 0 66.2122 9.69609 642 104.947 1187.75 471.559
1303 0 70.1116 11.7242 822 101.024 1189.08 467.64
1304 0 73.0571 12.5929 920 99.6587 1188.86 467.324
1305 0 74.3205 11.5177 856 102.435 1188.3 466.44
1306 0 78.1981 11.8417 926 101.557 1189 464.839
1307 0 81.2978 13.3829 1088 99.7151 1188.28 464.018
1308 0 85.2557 13.1252 1119 100.051 1188.71 463.82
1309 0 87.1489 13.6433 1189 101.561 1189.43 461.125
1310 0 90.2044 13.3031 1200 103.165 1188.73 459.283
1311 0 92.1428 12.6651 1167 106.529 1188.79 457.659
1312 0 96.3052 13.0315 1255 106.108 1188.78 455.531
1313 1 49.0858 12.3661 607 100.735 1188.41 480.026
1314 0 50.0777 12.1411 608 102.737 1188.72 478.197
1315 0 52.0326 12.1847 634 102.623 1188.55 476.888
1316 0 53.084 12.8287 681 102.411 1187.95 477.999
1317 0 53.1133 12.7087 675 105.04 1187.74 476.335
1318 0 53.0815 10.9831 583 110.751 1187.32 477.985
1319 0 56.0692 11.8782 666 108.566 1187.75 475.962
1320 0 58.144 12.0219 699 108.753 1186.82 474.286
1321 0 62.1228 12.4914 776 107.027 1187.36 474.098
1322 0 63.0809 13.2211 834 107.182 1187.51 470.805
1323 0 66.1773 11.983 793 109.189 1187.01 470.165
1324 0 67.0966 12.0274 807 110.998 1187.4 468.743
1325 0 68.1035 12.5251 853 110.462 1187.26 468.299
1326 0 73.1384 13.4129 981 107.938 1187.29 466.212
1327 0 76.0977 13.0359 992 108.309 1187.43 466.138
1328 0 78.1226 12.9028 1008 109.277 1187.62 464.568
1329 0 82.0513 13.2356 1086 108.08 1187.7 462.208
1330 0 82.0813 12.7678 1048 110.025 1187.89 461.26
1331 0 86.1013 13.1125 1129 108.707 1187.57 460.795
1332 0 90.1488 13.7883 1243 107.146 1187.43 459.154
1333 0 93.1338 13.3679 1245 108.215 1187.82 458.742
1334 0 95.1859 13.4159 1277 108.458 1188.13 455.313
1335 1 52.149 12.7136 663 104.747 1188.69 477.199
1336 0 52.2178 10.8009 564 108.477 1188.54 477.479
1337 0 55.0568 12.3145 678 104.718 1188.85 477.42
1338 0 54.0993 11.5528 625 109.696 1189.26 473.96
1339 0 58.1556 12.5181 728 105.008 1189.26 473.64
1340 0 57.0694 13.7201 783 105.285 1188.97 473.969
1341 0 58.0863 12.7052 738 106.653 1188.62 474.843
1342 0 60.1804 11.4157 687 108.397 1188.71 473.934
1343 0 64.0487 12.3188 789 105.475 1188.69 472.881
1344 0 66.1395 12.9424 856 99.6916 1187.37 467.634
1345 0 68.1836 12.833 875 99.232 1187.58 468.296
1346 0 69.0821 12.4634 861 102.318 1187.64 465.447
1347 0 72.1624 12.2224 882 100.885 1187.07 467.563
1348 0 74.1477 12.4886 926 102.093 1187.68 466.006
1349 0 76.0905 11.6046 883 104.683 1187.65 463.785
1350 0 79.1253 10.932 865 105.719 1188.1 461.718
1351 0 84.1941 14.4428 1216 98.2664 1187.87 461.021
1352 0 85.1334 12.8974 1098 101.423 1187.8 461.48
1353 0 89.1525 12.9778 1157 101.194 1188.34 459.1
1354 0 90.2824 12.0954 1092 104.129 1187.66 456.602
1355 0 96.3349 13.3804 1289 100.639 1186.96 453.618
1356 0 98.4599 12.1166 1193 104.194 1187.29 452.974
1357 0 103.22 12.9239 1334 103.07 1187.36 451.146
1358 0 107.198 13.4518 1442 106.143 1187.09 447.175
1359 0 107.201 13.5073 1448 141.233 1187.11 446.977
1360 1 54.2294 10.1052 548 104.281 1187.19 475.026
1361 0 60.1562 11.3039 680 100.91 1186.1 471.941
1362 0 60.0982 11.5977 697 101.055 1186.62 471.825
1363 0 64.1117 11.9479 766 98.8407 1186.26 470.322
1364 0 65.1532 11.2658 734 100.839 1186.26 469.033
1365 0 69.124 13.5698 938 96.2324 1186.38 467.837
1366 0 69.127 13.6705 945 124.556 1187.39 467.792
1367 0 72.1742 11.7355 847 101.365 1186.76 466.094
1368 0 74.2542 11.528 856 100.836 1186.54 463.85
1369 0 77.1113 11.6455 898 101.514 1186.85 460.009
1370 0 79.104 11.2257 888 100.323 1186.35 460.506
1371 0 83.1458 10.7161 891 103.526 1187.11 460.232
1372 0 86.1807 12.3926 1068 100.248 1187.8 457.377
1373 0 90.2103 10.4201 940 104.931 1187.95 457.744
1374 0 92.1332 11.2772 1039 104.206 1187.21 455.448
1375 0 95.1159 11.6805 1111 103.264 1187.23 456.511
1376 1 48.035 11.0128 529 100.085 1188.65 478.989
1377 0 53.2582 11.6414 620 99.5403 1187.09 475.44
1378 0 55.2076 12.5888 695 97.9568 1187.28 473.941
1379 0 54.1612 10.9488 593 103.352 1187.05 478.056
1380 0 56.0813 12.0896 678 100.196 1187.69 476.758
1381 0 57.1392 11.0782 633 103.216 1187.76 476.485
1382 0 60.046 12.224 734 101.369 1187.78 475.388
1383 0 61.2694 9.98868 612 106.833 1186.72 473.131
1384 0 63.0746 11.4785 724 103.541 1186.77 472.999
1385 0 66.0639 12.1398 802 102.042 1186.97 472.261
1386 0 67.1479 11.2438 755 104.697 1187.47 470.71
1387 0 71.063 12.7492 906 99.5916 1187.46 469.798
1388 0 72.1017 12.0386 868 103.245 1188.09 467.847
1389 0 75.1575 12.3208 926 101.396 1187.58 468.752
1390 0 77.1286 11.3447 875 104.106 1188.63 465.469
1391 0 79.0766 10.9641 867 105.28 1187.28 464.602
1392 0 82.1067 11.4972 944 105.502 1187.33 461.094
1393 0 85.1658 12.188 1038 103.198 1187.18 463.471
1394 0 91.1584 12.4838 1138 103.253 1187.17 460.123
1395 0 91.2053 12.9378 1180 105.153 1186.84 456.236
1396 0 96.0826 12.635 1214 103.609 1187.12 458.131
1397 0 99.2473 12.3731 1228 103.915 1188.28 453.985
1398 1 53.2148 11.3502 604 103.406 1188.29 475.791
1399 0 55.3201 11.6233 643 102.568 1188.42 473.883
1400 0 58.1863 12.0647 702 100.412 1188.62 475.4
1401 0 59.0596 11.9371 705 101.539 1188.73 473.782
1402 0 59.0846 11.5259 681 102.708 1188.73 471.031
1403 0 64.1017 13.1822 845 98.0154 1188.4 470.785
1404 0 65.1052 12.4414 810 100.484 1188.31 469.838
1405 0 65.0873 11.2618 733 104.132 1187.89 465.984
1406 0 70.0673 13.1445 921 98.4853 1187.7 465.788
1407 0 71.1066 12.7696 908 99.5771 1187.88 463.925
1408 0 73.1283 12.1157 886 101.169 1187.72 466.958
1409 0 77.0838 12.2853 947 101.083 1187.74 463.873
1410 0 76.1649 11.5014 876 103.704 1187.64 460.412
1411 0 81.1255 12.2033 990 101.416 1187.89 462.982
1412 0 83.1058 11.9125 990 103.97 1187.48 458.883
1413 0 87.1722 13.2382 1154 101.127 1187.39 456.265
1414 0 90.1401 12.9576 1168 103.062 1187.46 457.482
1415 0 92.0937 12.585 1159 104.41 1188.07 456.896
1416 0 94.1794 13.6336 1284 102.739 1187.73 451.484
1417 0 98.163 12.7237 1249 105.453 1187.74 449.285
1418 0 100.057 12.7926 1280 105.831 1186.93 448.531
1419 1 54.2165 11.325 614 110.176 1186.61 472.601
1420 0 50.0641 9.72754 487 106.817 1187.04 465.476
1421 0 54.0444 10.9725 593 95.8196 1187.46 467.582
1422 0 55.1039 9.5093 524 99.5439 1186.34 466.011
1423 0 57.1316 9.6619 552 99.3986 1186.64 463.931
1424 0 54.073 10.4119 563 99.1368 1187.08 462.687
1425 0 60.0379 10.2768 617 99.1167 1187.47 464.113
1426 0 62.0472 11.5396 716 96.6606 1188.28 465.075
1427 0 64.0258 10.4489 669 98.7235 1187.93 464.178
1428 0 67.024 10.7424 720 98.1444 1187.81 462.189
1429 0 70.1719 12.7116 892 102.118 1187.32 464.914
1430 0 71.123 12.1902 867 104.311 1187.03 461.764
1431 0 75.1346 12.9634 974 102.938 1187.19 461.722
1432 0 76.1198 13.5313 1030 102.307 1187.05 462.404
1433 0 80.2237 11.9042 955 106.194 1186.96 458.814
1434 0 82.1956 13.0907 1076 104.129 1187.04 457.546
1435 0 84.2711 13.9787 1178 102.739 1187.21 455.653
1436 0 87.215 13.6444 1190 103.285 1187.64 455.027
1437 0 91.2537 12.4926 1140 104.912 1187.56 455.218
1438 0 93.4633 13.3635 1249 104.961 1187.47 451.07
1439 1 50.3805 11.1551 562 109.411 1188.26 469.413
1440 0 53.4119 12.207 652 101.638 1188.26 469.603
1441 0 55.3601 11.3078 626 100.158 1188.65 471.284
1442 0 51.133 10.4434 534 104.532 1189.28 470.358
1443 0 54.1747 11.5737 627 101.97 1189.19 470.44
1444 0 56.0993 12.0144 674 101.521 1189.21 469.108
1445 0 57.0563 11.55 659 102.52 1188.87 470.748
1446 0 59.0467 12.5155 739 100.962 1188.17 469.315
1447 0 62.0342 11.2196 696 103.194 1189.11 468.43
1448 0 64.1065 12.2297 784 102.077 1189.46 467.987
1449 0 65.0766 12.4622 811 101.694 1189.48 466.055
1450 0 67.1431 13.8957 933 98.6367 1189.12 463.983
1451 0 71.077 13.4783 958 98.4969 1188.93 465.803
1452 0 71.077 13.4643 957 123.026 1188.93 465.764
1453 0 74.1552 12.1906 904 102.067 1189.12 461.191
1454 0 77.1964 13.4721 1040 99.2029 1188.86 461.249
1455 0 80.1037 13.083 1048 100.367 1189.22 459.392
1456 0 83.0688 12.8568 1068 100.738 1188.8 458.211
1457 0 84.1037 11.9376 1004 103.029 1189.07 458.611
1458 0 85.1036 12.1499 1034 103.681 1188.91 454.46
1459 0 90.1078 13.1287 1183 101.146 1188.91 454.971
1460 1 49.0379 10.808 530 102.189 1189.6 475.74
1461 0 49.0754 11.8593 582 100.4 1190.33 474.655
1462 0 51.162 10.5743 541 102.046 1189.57 473.738
1463 0 54.1101 12.9366 700 96.9614 1189.62 473.313
1464 0 55.0968 11.7793 649 99.1032 1187.61 475.875
1465 0 58.1112 13.3537 776 96.1959 1187.62 470.91
1466 0 58.1075 11.2894 656 100.971 1188.19 472.905
1467 0 60.1512 13.6988 824 95.8119 1187.23 470.606
1468 0 63.0678 13.7471 867 95.3783 1186.41 471.042
1469 0 62.1126 12.7832 794 82.6146 1187.45 470.757
1470 0 62.1126 12.7349 791 129.455 1188.44 470.733
1471 0 67.1033 12.4435 835 99.8347 1187.93 466.909
1472 0 69.1286 12.9903 898 99.1514 1187.56 465.078
1473 0 72.0908 13.1362 947 98.9989 1187.69 464.716
1474 0 74.1147 12.3862 918 100.821 1187.36 465.361
1475 0 75.0884 13.8104 1037 97.9229 1187.49 463.198
1476 0 77.0819 13.6867 1055 98.8701 1187.85 462.198
1477 0 81.0551 13.7314 1113 98.1788 1187.92 462.545
1478 0 83.0593 13.8816 1153 98.157 1187.62 459.472
1479 0 86.0973 13.2873 1144 98.215 1187.66 456.536
1480 0 89.0891 14.0084 1248 97.3277 1187.42 458.484
1481 0 90.0876 12.6433 1139 101.147 1186.82 455.326
1482 0 94.065 12.3957 1166 101.742 1186.73 456.973
1483 1 55.0769 12.655 697 99.9168 1186.36 475.23
1484 0 54.0672 10.8199 585 107.81 1186.15 474.679
1485 0 57.042 11.4302 652 106.192 1186.49 474.451
1486 0 61.0862 14.3404 876 100.218 1186.76 472.298
1487 0 59.0271 12.4519 735 106.612 1186.23 470.241
1488 0 63.115 12.9446 817 103.083 1186.19 472.215
1489 0 64.1072 12.2919 788 104.681 1186.75 472.152
1490 0 65.0447 11.2692 733 108.141 1186.5 469.217
1491 0 67.1609 12.82 861 104.988 1187.1 468.211
1492 0 71.1591 12.5775 895 107.352 1186.45 467.287
1493 0 73.1433 13.2343 968 106.5 1187.11 466.319
1494 0 74.2529 11.8244 878 111.3 1187.06 463.453
1495 0 78.251 12.5366 981 108.988 1186.55 464.606
1496 0 81.1974 13.7812 1119 106.696 1186.52 462.181
1497 0 84.187 12.4366 1047 110.261 1186.67 461.036
1498 0 86.2243 12.8038 1104 108.614 1186.6 462.114
1499 0 87.2211 11.3046 986 113.946 1186.64 459.811
1500 1 49.0516 11.3554 557 110.363 1185.59 477.093
1501 0 50.0777 10.4238 522 112.816 1185.43 478.82
1502 0 52.1178 12.3566 644 106.261 1186.36 477.463
1503 0 51.0501 11.5965 592 97.3632 1187.24 477.78
1504 0 54.0615 12.3748 669 96.6442 1188.38 476.399
1505 0 54.129 13.2646 718 96.8914 1188.5 477.309
1506 0 52.0567 12.1406 632 102.445 1188.01 475.718
1507 0 54.116 11.9558 647 106.107 1188.54 474.924
1508 0 54.0497 12.544 678 105.671 1188.36 474.729
1509 0 57.2053 11.7122 670 108.542 1188.01 475.363
1510 0 56.0703 12.4487 698 107.443 1188.4 474.934
1511 0 58.0889 11.8611 689 107.071 1188.44 474.279
1512 0 59.1456 12.1395 718 106.525 1188.34 473.35
1513 0 61.092 12.162 743 105.145 1187.95 471.341
1514 0 63.098 13.1066 827 102.833 1188.37 471.036
1515 0 64.0493 11.741 752 105.094 1188.1 470.106
1516 0 66.1772 13.1919 873 101.904 1187.85 471.134
1517 0 68.0887 12.8656 876 102.685 1187.73 468.355
1518 0 69.0473 12.4697 861 104.347 1188.04 467.843
1519 0 72.1334 11.6174 838 106.259 1187.7 466.177
1520 0 73.1381 11.991 877 106.555 1187.76 465.678
1521 0 74.1142 11.9545 886 108.429 1187.73 465.502
1522 0 77.1445 11.5757 893 110.831 1187.63 465.669
1523 0 79.1554 12.6334 1000 109.335 1187.38 463.775
1524 0 82.1176 12.6648 1040 111.308 1187.5 462.678
1525 1 45.0114 10.9306 492 117.26 1188.7 480.852
1526 0 44.2348 11.3033 500 119.078 1186.77 478.44
1527 0 47.2539 12.8878 609 114.424 1186.15 477.456
1528 0 46.0231 12.4068 571 119.296 1185.09 477.981
1529 0 49.089 11.7949 579 121.116 1185.3 477.743
1530 0 51.031 13.2664 677 117.62 1185.53 477.827
1531 0 51.1254 11.6576 596 123.035 1186.1 476.982
1532 0 53.1688 14.2 755 116.677 1185.76 476.31
1533 0 54.1311 12.4512 674 122.408 1186.01 475.516
1534 0 55.1534 13.127 724 121.443 1186.62 474.865
1535 0 55.1534 13.1089 723 131.559 1187.65 474.887
1536 0 57.1422 12.9676 741 124.453 1185.86 472.089
1537 0 58.1256 12.2321 711 125.841 1186.02 473.039
1538 0 60.1645 13.3467 803 123.324 1186.7 470.821
1539 0 60.0929 11.6486 700 128.346 1186.34 470.86
1540 0 65.11 12.763 831 123.406 1186.26 470.211
1541 0 65.0799 11.9853 780 126.592 1185.81 469.118
1542 0 68.07 12.781 870 122.595 1185.97 467.937
1543 0 72.1275 13.4068 967 120.111 1186.07 467.885
1544 0 73.1337 12.6617 926 122.823 1185.16 467.119
1545 0 74.1512 12.2992 912 124.029 1185.58 464.901
1546 0 79.1447 13.7343 1087 118.85 1185.74 463.23
1547 0 81.1782 13.649 1108 118.321 1185.99 463.499
1548 0 84.0907 15.1146 1271 114.889 1185.58 461.415
1549 0 84.0907 15.1146 1271 139.376 1184.56 461.382
1550 1 46.0229 9.64737 444 121.304 1184.16 478.982
1551 0 49.0271 11.565 567 113.691 1184.5 478.337
1552 0 51.045 11.8131 603 116.138 1184.52 476.34
1553 0 52.0993 12.5722 655 113.997 1184.42 477.165
1554 0 55.0409 11.9002 655 114.811 1184.56 475.879
1555 0 56.018 11.8355 663 114.964 1184.55 473.903
1556 0 58.0872 14.1684 823 108.012 1184.43 474.231
1557 0 60.0476 14.1554 850 107.98 1184.91 471.939
1558 0 62.0784 12.7259 790 111.201 1184.37 473.339
1559 0 61.0554 11.94 729 110.123 1184.88 472.717
1560 0 65.0655 12.9716 844 107.557 1184.82 471.04
1561 0 67.0856 12.5959 845 108.194 1184.78 470.458
1562 0 68.0788 13.3375 908 107.518 1184.83 469.903
1563 0 69.0653 12.7126 878 110.449 1184.8 466.598
1564 0 71.0645 12.8756 915 109.212 1184.65 467.161
1565 0 76.1523 12.2255 931 109.19 1184.85 465.872
1566 0 77.1581 12.118 935 111.222 1184.53 465.292
1567 0 80.1201 13.9665 1119 106.644 1185.32 461.116
1568 0 81.1429 13.8151 1121 107.628 1185.09 462.346
1569 0 84.1531 14.1409 1190 107.319 1184.5 460.024
1570 0 88.1031 13.6999 1207 108.554 1184.6 456.893
1571 0 91.2074 14.7137 1342 106.825 1184.84 455.281
1572 0 92.1619 14.3443 1322 108.691 1184.79 454.991
1573 0 98.3407 13.9515 1372 109.044 1184.51 454.866
1574 0 99.2512 13.9646 1386 110.224 1184.98 451.532
1575 0 105.179 13.8336 1455 109.233 1185.06 452.975
1576 0 108.096 16.1986 1751 104.143 1185.26 448.495
1577 0 111.327 14.9829 1668 106.77 1185.07 449.167
1578 0 113.298 15.1723 1719 107.514 1185.38 444.689
1579 0 117.288 15.1081 1772 107.902 1184.54 443.796
1580 0 122.322 15.0505 1841 107.983 1185.05 441.656
1581 0 125.439 13.68 1716 112.73 1184.64 434.674
1582 1 68.1961 11.3496 774 110.253 1186.84 466.959
1583 0 71.12 12.6265 898 98.5557 1186.03 466.118
1584 0 75.208 12.02 904 100.001 1185.96 464.949
1585 0 75.2135 12.0723 908 138.174 1185.98 465.048
1586 0 78.1945 11.6121 908 102.645 1186.21 462.101
1587 0 84.231 12.4776 1051 99.8934 1186.18 461.374
1588 0 84.1655 12.2259 1029 101.99 1185.82 457.46
1589 0 88.2977 12.3333 1089 101.116 1186.45 459.262
1590 0 91.16 12.5823 1147 100.938 1185.96 457.525
1591 0 94.1209 12.6539 1191 102.2 1185.57 454.953
1592 0 98.1337 13.1963 1295 101.706 1186.2 453.354
1593 0 99.1949 13.3475 1324 101.867 1186.07 452.8
1594 0 103.24 13.89 1434 101.098 1186.46 452.19
1595 0 106.186 12.9679 1377 104.128 1186.54 450.595
1596 0 109.307 13.1281 1435 104.231 1185.71 444.992
1597 0 111.265 12.6545 1408 104.362 1185.87 443.807
1598 0 116.227 13.1466 1528 103.702 1186.02 442.306
1599 0 121.205 12.1612 1474 107.393 1185.54 440.948
1600 1 64.0723 10.5818 678 100.767 1185.68 470.333
1601 0 68.1306 11.4926 783 98.3614 1185.66 470.429
1602 0 69.0882 11.782 814 98.3526 1185.51 470.141
1603 0 72.0788 11.7372 846 98.182 1184.88 466.918
1604 0 73.0418 12.4038 906 96.9592 1185.19 466.265
1605 0 77.1319 12.3555 953 96.7377 1185.46 466.65
1606 0 76.0905 10.7109 815 100.557 1185.41 462.656
1607 0 78.2065 11.3801 890 99.936 1185.37 461.408
1608 0 82.0937 12.6319 1037 96.6201 1185.38 461.073
1609 0 84.0858 12.4873 1050 98.2867 1185.92 458.191
1610 0 85.1825 12.1739 1037 99.3095 1185.96 459.082
1611 0 89.2187 12.6207 1126 99.0036 1185.51 457.807
1612 0 89.2402 12.9986 1160 98.6052 1185.01 458.353
1613 0 91.2052 11.1507 1017 102.948 1185.54 455.344
1614 0 95.257 12.9439 1233 99.8994 1185.64 452.522
1615 0 99.1534 12.6672 1256 100.178 1185.05 455.393
1616 0 99.1534 12.7378 1263 132.96 1185.03 455.448
1617 0 108.314 12.2515 1327 108.411 1185.09 451.888
1618 0 108.26 12.1744 1318 109.624 1185.03 448.53
1619 0 110.199 12.5772 1386 109.514 1184.87 445.902
1620 0 114.294 11.9954 1371 109.985 1185.28 442.27
1621 0 118.143 12.5695 1485 104.399 1185.49 440.026
1622 0 123.18 11.3979 1404 106.719 1185.18 440.837
1623 0 126.263 10.7633 1359 108.812 1185.77 439.875
1624 0 130.233 11.3258 1475 108.241 1185.4 437.433
1625 0 138.2 11.3749 1572 108.009 1185.02 434.901
1626 1 78.163 11.169 873 103.518 1185.86 461.099
1627 0 78.1565 11.1955 875 130.841 1186.85 461.333
1628 0 81.2549 8.70102 707 100.9 1185.18 456.46
1629 0 86.1928 11.2306 968 96.7417 1185.02 455.591
1630 0 87.2193 10.0895 880 99.2227 1184.84 448.618
1631 0 91.3096 11.1489 1018 97.498 1184.93 450.107
1632 0 92.4025 10.6491 984 99.7785 1184.72 446.045
1633 0 92.2934 10.6075 979 101.749 1185.29 444.319
1634 0 99.2515 11.9696 1188 99.4773 1185.51 441.944
1635 0 101.268 11.7411 1189 101.492 1185.78 441.696
1636 0 103.209 12.0145 1240 102.012 1185.71 438.535
1637 0 107.292 10.5413 1131 107.782 1186.05 440.806
1638 0 111.128 11.4013 1267 109.094 1185.74 441.751
1639 0 116.213 11.6596 1355 108.015 1185.14 436.032
1640 0 119.195 10.7639 1283 116.289 1184.58 439.968
1641 0 126.504 12.3949 1568 110.68 1185.04 433.859
1642 0 133.425 13.0485 1741 110.385 1185.44 432.331
1643 1 76.5335 11.7726 901 105.352 1185.25 461.083
1644 0 77.6247 12.6249 980 105.166 1184.76 457.283
1645 0 80.2141 12.2173 980 105.848 1184.63 458.546
1646 0 79.2467 11.0162 873 110 1184.9 457.459
1647 0 83.1864 11.6365 968 106.784 1184.9 456.748
1648 0 86.2405 14.1233 1218 96.7939 1184.65 460.337
1649 0 90.1767 13.4846 1216 103.037 1185.01 454.137
1650 0 94.2874 13.9998 1320 101.249 1184.99 452.102
1651 0 96.4732 13.724 1324 102.33 1184.13 449.838
1652 0 96.266 12.2681 1181 106.994 1184.59 447.29
1653 0 99.1948 13.6197 1351 103.815 1184.47 442.717
1654 0 99.2217 11.4793 1139 110.143 1184.58 444.261
1655 0 103.359 11.6003 1199 111.386 1184.96 433.055
1656 0 105.435 10.9072 1150 112.404 1185 433.597
1657 0 108.414 12.0372 1305 109.648 1184.77 438.473
1658 0 112.394 12.8121 1440 107.878 1184.1 436.058
1659 0 114.344 10.5558 1207 113.394 1184.04 435.914
1660 0 119.451 12.2561 1464 109.724 1184.15 432.578
1661 0 124.623 11.6271 1449 111.666 1184.69 428.57
1662 1 71.1471 10.7102 762 107.755 1185.19 455.575
1663 0 75.3031 14.0632 1059 98.9669 1184.62 459.165
1664 0 74.117 11.7922 874 106.394 1185.17 453.944
1665 0 78.0977 12.6124 985 103.244 1185.82 459.626
1666 0 83.0816 13.8177 1148 99.5854 1185.87 458.668
1667 0 84.1136 11.9719 1007 105.426 1186.24 454.349
1668 0 83.0627 10.8472 901 108.911 1185.96 453.456
1669 0 90.0819 13.3212 1200 102.983 1185.94 452.83
1670 0 94.1833 14.5673 1372 100.273 1186.38 450.428
1671 0 93.0472 12.4668 1160 106.709 1185.95 448.737
1672 0 97.1156 13.8289 1343 104.392 1185.37 446.185
1673 0 102.13 13.8256 1412 104.943 1185.67 444.995
1674 0 102.294 13.0701 1337 108.168 1186.38 441.731
1675 0 100.116 10.8075 1082 116.453 1186.33 445.483
1676 0 105.084 12.2187 1284 113.584 1185.96 443.05
1677 0 112.184 13.362 1499 108.972 1185.7 445.466
1678 0 114.257 12.7082 1452 112.534 1185.86 437.89
1679 0 117.237 14.9953 1758 108.301 1184.73 431.172
1680 0 123.366 15.3284 1891 106.877 1185.25 429.808
1681 1 71.2004 10.6179 756 111.39 1184.9 453.59
1682 0 73.1295 10.2011 746 110.462 1184.38 457.885
1683 0 75.1522 12.2951 924 100.347 1184.65 453.012
1684 0 78.2144 11.0466 864 99.0856 1185.15 452.69
1685 0 82.1882 10.9748 902 99.5543 1185.01 450.232
1686 0 83.1683 11.2783 938 100.553 1184.54 448.857
1687 0 86.2076 11.7043 1009 100.025 1185.05 446.925
1688 0 87.2994 11.535 1007 101.765 1185.09 446.575
1689 0 94.3311 11.7141 1105 100.144 1184.8 443.784
1690 0 96.3336 11.9065 1147 101.039 1184.47 443.793
1691 0 100.237 13.039 1307 99.2862 1184.19 442.643
1692 0 102.196 11.8596 1212 107.249 1184.78 443.347
1693 0 107.141 13.1136 1405 107.791 1183.85 444.873
1694 0 106.083 12.0283 1276 111.631 1183.28 440.642
1695 0 113.12 12.9951 1470 108.238 1184.04 437.022
1696 0 116.159 12.9048 1499 108.334 1184.82 434.262
1697 0 119.271 13.2891 1585 109.262 1184.85 431.063
1698 0 122.274 12.382 1514 111.353 1184.84 431.394
1699 1 66.1269 11.0243 729 102.968 1185.22 459.059
1700 0 69.0892 9.66865 668 107.973 1183.54 460.051
1701 0 74.1365 11.9105 883 110.294 1184.51 462.716
1702 0 76.2681 12.6396 964 108.48 1184.2 463.849
1703 0 78.3596 13.1828 1033 108.294 1184.16 461.316
1704 0 82.3076 13.4981 1111 103.468 1184.1 463.212
1705 0 84.4866 12.9843 1097 105.335 1184.39 461.102
1706 0 86.3543 12.3792 1069 107.199 1184.39 459.382
1707 0 89.3518 13.2062 1180 106.636 1184.65 458.2
1708 0 91.4564 12.9242 1182 107.793 1184.73 456.115
1709 0 94.5021 12.6981 1200 108.626 1184.72 455.33
1710 0 96.4984 11.4199 1102 112.131 1184.83 455.696
1711 0 99.5528 12.1041 1205 112.538 1184.54 452.524
1712 0 101.63 13.0277 1324 110.421 1185.12 449.193
1713 0 101.63 13.067 1328 151.366 1185.13 449.16
1714 0 109.626 12.8072 1404 111.291 1185.12 447.006
1715 0 112.548 13.1321 1478 111.183 1185.14 443.959
1716 0 115.373 12.3512 1425 114.033 1185.29 441.277
1717 0 119.336 12.2344 1460 114.913 1185.02 439.35
1718 1 66.3339 10.0703 668 113.611 1184.64 466.09
1719 0 69.4141 11.2369 780 110.686 1185.41 466.419
1720 0 71.3093 11.359 810 110.684 1184.65 465.407
1721 0 74.189 11.0663 821 111.107 1184.37 465.019
1722 0 77.1411 11.5243 889 109.675 1183.86 462.11
1723 0 80.1784 12.2726 984 107.678 1184.39 460.421
1724 0 81.1521 12.3718 1004 108.862 1184.61 458.231
1725 0 83.1849 11.9733 996 109.41 1184.19 459.351
1726 0 86.1571 12.2799 1058 109.422 1184.16 458.774
1727 0 87.1554 12.2769 1070 111.117 1184.37 454.729
1728 0 91.2144 12.0705 1101 111.081 1184.46 456.977
1729 0 94.1566 13.212 1244 109.429 1184.65 453.986
1730 0 95.2687 12.2076 1163 113.206 1184.37 455.252
1731 0 99.2451 13.2399 1314 111.363 1184.59 453.352
1732 0 103.229 13.688 1413 110.921 1184.01 450.529
1733 0 103.134 12.8667 1327 114.85 1184.51 448.527
1734 0 103.134 12.8667 1327 157.767 1184.51 448.489
1735 0 113.28 13.5682 1537 113.525 1184.32 445.995
1736 0 115.358 13.5838 1567 114.454 1183.8 444.374
1737 0 117.294 14.4594 1696 113.226 1184.5 445.102
1738 0 120.327 12.9647 1560 117.728 1184.69 439.858
1739 1 68.3475 11.8951 813 113.765 1185.13 465.456
1740 0 66.1213 10.4051 688 116.209 1184.09 461.045
1741 0 68.2244 11.2277 766 113.54 1184.65 459.103
1742 0 73.1676 10.3734 759 107.286 1184.59 468.808
1743 0 71.143 10.5843 753 132.308 1184.6 468.98
1744 0 78.1634 11.7958 922 103.826 1184.68 466.868
1745 0 78.09 10.6928 835 106.654 1184.23 465.352
1746 0 80.1272 10.5957 849 106.939 1184.16 463.006
1747 0 83.1389 11.4507 952 104.25 1184.01 464.104
1748 0 87.1359 11.3157 986 105.738 1183.71 459.333
1749 0 89.1367 11.4992 1025 104.377 1183.75 460.456
1750 0 94.269 12.4962 1178 102.815 1183.63 457.417
1751 0 94.1523 12.2036 1149 104.005 1183.4 458.76
1752 0 96.187 11.9975 1154 105.246 1183.64 457.388
1753 0 101.131 12.4492 1259 104.635 1183.92 455.14
1754 0 100.169 11.7601 1178 107.739 1184.14 452.116
1755 0 103.204 10.8426 1119 109.175 1184.04 452.437
1756 0 107.132 12.0972 1296 106.228 1184.49 449.054
1757 0 111.122 12.8507 1428 106.395 1184.3 444.248
1758 0 114.139 13.0893 1494 105.195 1184.38 443.36
1759 0 119.148 13.328 1588 106.671 1184.11 439.08
1760 0 122.242 13.0069 1590 106.599 1184.08 441.692
1761 0 126.211 11.0609 1396 110.145 1184.79 441.698
1762 0 130.137 13.0939 1704 106.44 1184.13 437.678
1763 0 134.243 12.7977 1718 108.092 1184.07 433.632
1764 1 72.1464 9.93813 717 106.96 1184.66 469.322
1765 0 73.0649 12.1262 886 104.375 1184.15 465.748
1766 0 77.0941 14.2164 1096 101.069 1183.63 463.578
1767 0 79.0746 15.34 1213 98.8137 1184 464.657
1768 0 80.2074 13.8641 1112 102.859 1184.18 464.307
1769 0 83.2388 14.3683 1196 101.548 1184.15 461.08
1770 0 86.2309 13.6378 1176 103.026 1183.97 461.069
1771 0 88.2157 13.4897 1190 104.346 1184.18 456.318
1772 0 90.1652 13.6638 1232 103.898 1184.5 457.329
1773 0 95.3762 14.9723 1428 100.909 1184.6 456.214
1774 0 97.2561 14.0351 1365 103.111 1184.54 454.478
1775 0 100.202 14.4708 1450 103.045 1184.43 452.485
1776 0 104.254 14.9827 1562 102.158 1184.11 449.787
1777 0 104.312 12.338 1287 109.764 1184.59 448.923
1778 0 109.372 14.0347 1535 105.612 1184.38 448.336
1779 0 109.35 13.1321 1436 109.097 1184.09 444.221
1780 0 117.357 15.1163 1774 103.569 1184.6 444.718
1781 0 120.432 13.2606 1597 109.567 1184.5 436.195
1782 1 64.2244 12.6276 811 108.179 1184.73 465.792
1783 0 65.3362 11.2801 737 110.841 1185.15 463.445
1784 0 67.3076 11.336 763 109.296 1184.8 460.152
1785 0 70.2045 11.6374 817 99.8874 1185.56 460.933
1786 0 72.1292 11.3823 821 102.301 1186.54 457.742
1787 0 76.4435 12.0089 918 100.715 1185.31 457.307
1788 0 77.2477 10.9 842 103.85 1185.68 456.303
1789 0 79.2228 11.3982 903 102.381 1185.5 454.512
1790 0 83.233 12.9756 1080 99.3185 1185.93 452.869
1791 0 86.2236 12.572 1084 99.6107 1186.26 453.191
1792 0 88.0956 12.1686 1072 99.9711 1186.02 456.063
1793 0 90.1372 11.8486 1068 101.044 1186.15 456.307
1794 0 92.0932 11.4232 1052 102.296 1186.16 455.031
1795 0 97.1704 12.1127 1177 100.537 1186.33 452.719
1796 0 100.194 12.9348 1296 100.717 1186.38 449.719
1797 0 104.206 11.7172 1221 103.821 1186.3 448.114
1798 0 107.099 12.7359 1364 101.093 1185.03 446.773
1799 0 110.2 11.2795 1243 103.682 1185.52 447.134
1800 0 115.311 12.514 1443 101.67 1185.18 442.612
1801 0 116.119 11.5399 1340 104.31 1185.83 442.837
1802 1 64.1614 10.8476 696 99.3491 1186.78 466.955
1803 0 67.1512 11.5262 774 97.9044 1186.89 468.667
1804 0 68.1824 11.8799 810 94.4049 1186.19 461.505
1805 0 72.159 11.0173 795 96.7396 1185.51 463.141
1806 0 73.224 11.8267 866 96.4723 1185.71 460.88
1807 0 75.2077 12.0732 908 96.8029 1185.09 459.691
1808 0 76.1465 10.1646 774 100.532 1185.62 461.076
1809 0 79.0858 10.9122 863 100.254 1185.27 458.076
1810 0 82.2616 10.6003 872 101.005 1186.1 456.814
1811 0 85.125 10.0675 857 101.681 1185.99 457.921
1812 0 90.1159 12.1066 1091 98.2786 1185.39 455.593
1813 0 90.1383 11.4602 1033 101.294 1184.84 451.864
1814 0 94.1345 11.0693 1042 101.038 1185.79 453.725
1815 0 97.1555 11.5588 1123 101.114 1185.56 449.236
1816 0 99.1777 11.1315 1104 101.646 1185.45 448.824
1817 0 104.201 13.0037 1355 97.4982 1185.7 448.148
1818 0 107.178 12.5772 1348 99.5111 1186.09 445.069
1819 0 108.279 10.1127 1095 104.969 1185.67 444.567
1820 0 112.358 11.5435 1297 102.906 1185.42 440.442
1821 0 118.283 12.115 1433 100.505 1186.02 443.242
1822 1 65.0935 10.5387 686 98.3892 1186.3 465.802
1823 0 66.069 10.4739 692 99.1402 1186.13 461.556
1824 0 70.1799 11.7555 825 95.88 1186.17 463.187
1825 0 73.1531 11.223 821 97.419 1186.39 463.447
1826 0 76.1768 11.0139 839 97.1907 1186.27 461.603
1827 0 80.1674 12.2993 986 94.7485 1186.14 460.297
1828 0 79.1728 10.8749 861 97.3055 1186.37 459.056
1829 0 81.2859 11.1951 910 97.4407 1186.08 459.32
1830 0 87.2962 13.1506 1148 92.8894 1186.29 460.005
1831 0 86.2135 11.1236 959 98.3066 1186.04 455.434
1832 0 91.1229 11.5009 1048 96.9227 1186 456.127
1833 0 94.3308 12.0639 1138 95.7627 1186.15 455.966
1834 0 98.1247 12.0663 1184 95.9198 1186.16 451.172
1835 0 98.2971 11.3635 1117 97.8326 1185.61 450.461
1836 0 105.134 12.3272 1296 96.4884 1186 448.597
1837 0 107.293 12.1909 1308 98.2301 1185.94 446.585
1838 1 57.1068 10.8043 617 95.3468 1186.79 473.721
1839 0 57.1068 10.8744 621 125.718 1186.79 473.66
1840 0 57.1068 10.9094 623 125.156 1186.78 473.543
1841 0 60.0491 9.92521 596 100.926 1186.55 469.22
1842 0 63.0933 11.6336 734 96.8311 1186.33 470.056
1843 0 66.0335 12.4785 824 95.2888 1186.11 467.557
1844 0 66.1181 10.7232 709 98.646 1185.99 466.928
1845 0 70.125 11.9501 838 96.3258 1186.31 464.629
1846 0 72.1588 11.1975 808 97.7327 1186.02 464.559
1847 0 74.1235 11.4943 852 101.028 1185.99 465.93
1848 0 77.2339 11.4069 881 100.183 1186.08 464.537
1849 0 79.2642 10.8624 861 100.202 1186.22 463.957
1850 0 83.4318 11.9619 998 98.5281 1185.9 460.459
1851 0 87.2276 12.496 1090 97.1633 1185.97 461.938
1852 0 91.2091 12.7728 1165 96.9416 1186.28 460.933
1853 0 92.1831 12.6596 1167 97.8535 1185.55 459.554
1854 0 94.4932 12.2019 1153 99.8578 1185.29 456.048
1855 0 100.215 13.5608 1359 97.1582 1185.58 455.879
1856 0 101.276 12.4906 1265 99.5668 1185.55 456.621
1857 0 106.241 12.2645 1303 100.665 1185.24 452.421
1858 0 109.434 12.8753 1409 99.785 1185.83 448.805
1859 0 115.636 13.7328 1588 98.2412 1185.69 447.258
1860 0 118.535 12.7894 1516 100.011 1185.12 445.437
1861 0 121.445 13.15 1597 100.646 1185.52 443.968
1862 0 127.399 13.0692 1665 100.977 1185.53 442.138
1863 1 71.4962 11.8468 847 100.939 1186.3 466.399
1864 0 72.1477 11.7259 846 94.7778 1186.1 466.77
1865 0 75.1412 10.5934 796 96.0892 1186.62 461.765
1866 0 79.0866 11.8857 940 93.2064 1186.65 463.016
1867 0 79.1097 11.3008 894 94.1734 1186.43 462.32
1868 0 83.0355 11.3084 939 95.6677 1186.5 459.723
1869 0 86.1129 12.3791 1066 93.272 1186.74 457.634
1870 0 90.2053 12.0503 1087 93.4103 1186.3 456.306
1871 0 92.158 12.8909 1188 91.963 1186.79 456.176
1872 0 97.2008 11.9649 1163 91.945 1186.16 455.092
1873 0 100.131 12.4238 1244 91.5474 1186.47 452.195
1874 0 103.071 12.5933 1298 91.8328 1185.28 452.857
1875 0 106.153 12.3689 1313 93.0586 1185.37 450.533
1876 0 109.214 12.1596 1328 95.927 1185.09 447.501
1877 0 112.471 11.8787 1336 97.628 1185.07 442.68
1878 0 116.2 12.4527 1447 99.9281 1185.54 440.487
1879 0 119.468 12.1958 1457 103.482 1185.04 436.258
1880 0 123.393 13.1288 1620 102.223 1185.84 436.775
1881 0 125.389 12.1781 1527 104.701 1185.96 434.078
1882 0 129.226 11.4915 1485 104.331 1185.86 438.038
1883 0 133.308 11.8748 1583 105.243 1186.03 432.354
1884 0 138.32 12.2181 1690 105.36 1186.6 428.249
1885 0 142.345 11.2052 1595 107.065 1186.1 431.015
1886 1 78.2937 10.2435 802 101.254 1186.67 461.544
1887 0 81.3892 11.4389 931 100.551 1186.38 460.597
1888 0 82.249 12.2433 1007 100.635 1186.34 456.318
1889 0 85.3695 10.0739 860 105.129 1186.6 455.999
1890 0 88.3462 11.5908 1024 102.108 1186.02 456.874
1891 0 89.3918 12.2606 1096 101.328 1185.98 456.491
1892 0 93.2717 12.2009 1138 103.301 1186.15 452.387
1893 0 94.3391 10.9181 1030 106.537 1186.32 452.094
1894 0 99.2994 12.1854 1210 104.04 1185.84 448.207
1895 0 101.464 11.0975 1126 106.314 1185.81 449.506
1896 0 106.439 12.6081 1342 103.6 1186.05 448.594
1897 0 107.352 12.8642 1381 103.828 1185.68 446.759
1898 0 111.242 13.547 1507 103.477 1186.35 444.35
1899 0 114.219 12.7387 1455 106.548 1186.48 441.896
1900 0 118.211 11.6655 1379 109.094 1186.34 442.121
1901 0 123.236 12.6181 1555 107.035 1186.41 440.862
1902 0 127.253 13.0292 1658 105.483 1186.38 439.72
1903 0 132.266 12.3841 1638 107.699 1186.27 435.88
1904 0 138.236 13.5637 1875 105.532 1186.34 432.403
1905 1 73.0564 11.32 827 104.879 1185.55 463.73
1906 0 78.17 12.2298 956 101.57 1186.4 464.275
1907 0 79.1813 12.364 979 103.466 1186.64 458.258
1908 0 82.2454 12.0128 988 103.362 1186.99 460.57
1909 0 84.1447 12.6687 1066 103.013 1186.34 458.709
1910 0 85.0594 11.5096 979 105.006 1186.29 460.115
1911 0 89.141 13.0131 1160 103.349 1186.89 456.134
1912 0 91.16 12.5823 1147 105.258 1186.47 454.52
1913 0 95.1222 13.141 1250 102.537 1186.17 456.992
1914 0 96.2583 12.6431 1217 106.887 1186.59 451.689
1915 0 100.203 12.784 1281 106.525 1186.5 450.311
1916 0 102.287 13.472 1378 105.603 1186.56 449.321
1917 0 107.215 12.9086 1384 107.136 1186.53 449.137
1918 0 109.185 13.5 1474 105.797 1186.18 449.107
1919 0 111.117 11.8163 1313 110.425 1186.36 447.361
1920 0 115.143 12.8883 1484 109.559 1186.57 444.605
1921 0 120.181 12.4146 1492 110.827 1186.43 442.092
1922 0 124.189 13.9142 1728 107.672 1186.25 437.316
1923 0 127.232 13.1021 1667 110.163 1186.71 436.561
1924 0 132.197 13.5101 1786 110.043 1185.77 433.508
1925 1 73.229 12.1673 891 103.8 1186.5 468.101
1926 0 74.2025 11.509 854 107.473 1186.19 464.488
1927 0 77.2251 12.7031 981 105.069 1186.56 463.439
1928 0 77.1373 11.9786 924 102.653 1186.28 464.715
1929 0 81.201 12.1673 988 103.771 1186.08 463.61
1930 0 84.2464 12.2142 1029 106.221 1186.54 462.16
1931 0 84.1569 11.3241 953 107.087 1186.22 460.666
1932 0 88.1976 12.9142 1139 108.167 1185.74 457.971
1933 0 92.2606 12.9741 1197 107.821 1185.83 458.204
1934 0 94.294 12.6201 1190 111.544 1186.24 455.484
1935 0 95.403 12.704 1212 112.846 1185.51 455.559
1936 0 98.3564 12.048 1185 116.212 1184.99 450.315
1937 0 104.326 14.2918 1491 111.625 1184.95 448.027
1938 0 104.31 12.6258 1317 118.612 1185.36 447.5
1939 0 107.356 12.3514 1326 120.345 1185.3 447.353
1940 0 110.42 12.534 1384 124.203 1185.1 443.961
1941 0 115.36 13.5489 1563 122.56 1184.85 441.949
1942 0 118.501 13.4007 1588 121.805 1185.42 436.025
1943 0 122.474 13.4559 1648 122.103 1185.5 435.664
1944 0 125.446 12.7066 1594 125.605 1185.78 433.531
1945 0 129.283 14.8202 1916 119.718 1185.9 431.354
1946 0 130.281 11.9587 1558 127.575 1186.47 433.418
1947 0 136.265 13.0041 1772 126.347 1186.45 432.725
1948 1 80.3501 11.4499 920 121.991 1186.83 459.467
1949 0 82.0544 12.0286 987 120.34 1185.09 457.194
1950 0 84.1313 12.849 1081 119.108 1184.29 453.696
1951 0 88.3855 12.1174 1071 122.866 1184.67 449.384
1952 0 87.1643 11.92 1039 125.075 1183.84 452.846
1953 0 91.0734 11.9354 1087 125.199 1184 453.981
1954 0 91.2705 12.9943 1186 123.224 1184.2 453.227
1955 0 94.0663 12.4168 1168 124.693 1184.13 447.952
1956 0 94.1912 11.7208 1104 128.856 1185.38 448.447
1957 0 97.2439 12.4429 1210 130.286 1185.53 441.256
1958 0 100.194 12.6654 1269 128.559 1185.76 441.511
1959 0 105.267 13.651 1437 125.955 1185.35 440.933
1960 0 106.291 12.287 1306 131.215 1184.82 438.145
1961 0 113.154 13.5833 1537 126.5 1185.07 437.269
1962 0 115.488 13.5512 1565 127.248 1185.69 435.196
1963 0 119.237 13.3515 1592 128.053 1185.57 432.513
1964 0 122.225 12.8288 1568 129.112 1185.36 431.844
1965 0 127.257 13.0916 1666 128.888 1185.72 425.691
1966 0 132.184 12.876 1702 128.357 1185.21 426.861
1967 0 135.252 12.1773 1647 131.557 1185.47 421.679
1968 1 80.0538 10.3056 825 124.733 1186.19 452.981
1969 0 84.0743 11.9894 1008 120.003 1186.24 451.769
1970 0 84.0427 11.5418 970 121.884 1184.34 449.582
1971 0 86.0682 13.0478 1123 118.79 1184.4 448.198
1972 0 91.1053 11.5141 1049 121.765 1184.72 447.516
1973 0 91.1529 12.298 1121 120.5 1184.76 448.303
1974 0 96.0958 12.6124 1212 120.893 1184.71 442.426
1975 0 100.178 13.2963 1332 118.566 1184.73 441.754
1976 0 103.163 13.7743 1421 117.637 1185.14 440.338
1977 0 104.069 11.5789 1205 123.997 1184.99 440.589
1978 0 110.076 11.6646 1284 123.829 1184.32 438.741
1979 0 110.12 12.0868 1331 114.177 1183.8 437.886
1980 0 115.196 11.6757 1345 119.759 1184.34 439.432
1981 0 122.129 12.0773 1475 118.268 1184.22 438.941
1982 0 127.115 12.4297 1580 115.934 1185.03 437.899
1983 0 131.181 12.3417 1619 115.401 1184.55 434.477
1984 1 75.0604 10.6048 796 117.06 1184.11 460.055
1985 0 79.0871 12.1891 964 114.985 1184.65 459.781
1986 0 80.1326 11.8429 949 113.946 1184.97 454.521
1987 0 81.2208 11.8073 959 114.568 1184.94 451.682
1988 0 83.2066 11.4414 952 116.523 1184.4 449.266
1989 0 84.1385 10.4708 881 120.192 1185.03 446.888
1990 0 88.0726 11.8993 1048 117.792 1185.05 446.431
1991 0 91.0859 11.5605 1053 118.189 1185.47 447.369
1992 0 92.1577 11.0137 1015 121.97 1184.57 445.267
1993 0 97.1196 13.3032 1292 116.057 1184.66 446.94
1994 0 100.204 14.2709 1430 113.647 1185.07 447.195
1995 0 101.104 12.2052 1234 120.785 1185.19 444.619
1996 0 100.094 11.7989 1181 152.693 1185.2 443.236
1997 0 107.142 12.3387 1322 120.619 1184.96 444.003
1998 0 109.172 11.5689 1263 122.54 1184.85 438.804
1999 0 114.078 11.7726 1343 122.588 1184.69 436.467
2000 0 115.19 12.5619 1447 121.453 1184.16 435.142
2001 1 67.0257 9.51874 638 113.536 1184.47 462.359
2002 0 70.0636 9.09174 637 111.185 1184.33 463.047
2003 0 72.1323 11.8948 858 109.747 1186.66 462.871
2004 0 75.1096 12.1556 913 106.044 1186.87 464.465
2005 0 78.0444 12.1341 947 106.342 1187.22 462.297
2006 0 80.0815 11.2635 902 108.729 1187.22 461.681
2007 0 83.05 12.0771 1003 106.719 1186.58 461.465
2008 0 85.1878 12.1144 1032 107.178 1186.83 459.281
2009 0 87.0822 11.5753 1008 109.367 1186.87 454.985
2010 0 91.0691 12.8144 1167 105.913 1186.58 455.163
2011 0 94.1 13.1456 1237 105.758 1186.64 453.519
2012 0 95.1233 11.0488 1051 111.347 1186.79 453.386
2013 0 97.1437 12.4558 1210 108.889 1186.6 452.29
2014 0 102.152 12.266 1253 109.322 1186.74 449.482
2015 0 102.222 10.9663 1121 109.658 1185.81 444.868
2016 0 107.114 12.1273 1299 107.665 1185.38 443.177
2017 0 111.195 12.0599 1341 108.951 1185.96 442.683
2018 0 114.182 12.156 1388 107.977 1186.18 442.937
2019 0 118.19 13.013 1538 106.722 1185.35 439.493
2020 0 121.172 13.2539 1606 107.036 1184.83 439.547
2021 0 122.257 12.3756 1513 109.872 1184.93 435.856
2022 0 128.08 13.109 1679 108.729 1184.59 434.032
2023 0 133.211 11.966 1594 113.023 1184.94 432.07
2024 0 138.277 11.665 1613 112.877 1185.39 430.857
2025 0 141.308 11.2732 1593 116.779 1185.45 426.497
2026 0 146.452 12.4615 1825 111.357 1185.22 423.453
2027 0 153.314 13.0908 2007 114.028 1185.48 424.956
2028 1 89.1494 12.0808 1077 110.033 1185.3 459.02
2029 0 93.2103 12.0588 1124 109.806 1185.01 460.302
2030 0 94.1163 11.5283 1085 109.195 1184.95 457.334
2031 0 98.1003 12.793 1255 106.269 1184.95 454.249
2032 0 101.165 12.5538 1270 107.685 1184.82 450.569
2033 0 104.152 13.3075 1386 105.5 1185.63 453.417
2034 0 107.162 12.6724 1358 107.12 1184.57 449.242
2035 0 112.225 13.3571 1499 104.648 1184.02 448.956
2036 0 115.225 13.4346 1548 103.835 1184.63 447.22
2037 0 117.108 12.2366 1433 104.347 1184.42 444.809
2038 0 121.163 13.2631 1607 103.981 1184.99 441.39
2039 0 124.205 13.3811 1662 104.742 1184.97 439.03
2040 0 129.128 13.2737 1714 105.661 1185.02 439.837
2041 0 135.169 13.5904 1837 104.489 1185.41 433.535
2042 0 137.068 12.3661 1695 107.891 1185.94 437.084
2043 0 143.342 13.1503 1885 108.011 1185.52 432.202
2044 0 146.329 12.9435 1894 111.44 1185.39 428.94
2045 0 151.178 13.1369 1986 113.499 1185.65 425.673
2046 0 158.283 12.9894 2056 115.783 1185.93 421.556
2047 1 86.2432 10.7835 930 110.818 1186.28 457.812
2048 0 88.1403 9.39412 828 111.219 1185.48 452.643
2049 0 94.2259 11.7271 1105 106.203 1184.91 452.812
2050 0 97.1882 11.6166 1129 105.902 1185.54 452.839
2051 0 99.1085 11.0889 1099 108.373 1185.6 450.071
2052 0 105.146 12.107 1273 106.299 1185.65 447.498
2053 0 106.225 11.1461 1184 109.16 1185.87 444.506
2054 0 110.171 11.2008 1234 109.853 1185.8 446.308
2055 0 114.175 12.3582 1411 108.388 1185.23 442.391
2056 0 117.17 12.3666 1449 108.589 1184.89 443.01
2057 0 122.095 13.2028 1612 106.617 1184.36 441.414
2058 0 125.207 12.1958 1527 109.819 1185.22 437.446
2059 0 127.262 12.4782 1588 109.983 1185.14 432.03
2060 0 131.339 12.1213 1592 110.407 1184.4 433.212
2061 1 72.1336 11.756 848 106.147 1184.87 462.796
2062 0 75.1831 12.6624 952 109.627 1185.85 466.038
2063 0 78.1625 13.1777 1030 106.906 1185.61 464.717
2064 0 82.1593 12.3784 1017 107.539 1185.99 464.179
2065 0 85.1657 13.1861 1123 105.749 1185.94 460.007
2066 0 86.238 13.2656 1144 106.24 1185.74 457.573
2067 0 88.1955 12.5063 1103 107.987 1186.4 459.931
2068 0 90.1473 12.4907 1126 108.922 1185.8 457.642
2069 0 93.1161 12.9086 1202 107.87 1185.4 454.084
2070 0 97.1735 12.5446 1219 108.789 1185.85 454.575
2071 0 101.097 13.4722 1362 107.467 1185.63 452.63
2072 0 100.085 11.72 1173 114.369 1186.19 451.215
2073 0 105.121 13.3275 1401 111.182 1185.73 449.6
2074 0 107.187 12.8561 1378 113.073 1185.37 448.724
2075 0 109.191 12.3179 1345 118.143 1185.24 445.757
2076 0 113.161 12.6546 1432 116.693 1185.27 446.951
2077 0 117.229 12.804 1501 116.954 1185.47 441.971
2078 0 121.276 12.5169 1518 117.339 1184.9 443.341
2079 0 123.159 12.4798 1537 118.686 1185.28 440.005
2080 0 129.13 13.3896 1729 115.314 1185.24 438.752
2081 0 132.201 13.9258 1841 113.948 1184.71 439.55
2082 0 137.238 13.1523 1805 116.137 1184.79 435.567
2083 0 142.18 12.224 1738 117.928 1185.06 433.826
2084 1 78.065 12.3359 963 110.263 1184.71 462.887
2085 0 83.16 12.6263 1050 107.56 1184.56 462.611
2086 0 81.1684 11.2359 912 112.455 1185.05 462.716
2087 0 84.0842 12.3329 1037 107.691 1185.43 460.263
2088 0 87.1431 11.6475 1015 109.281 1185.34 459.716
2089 0 90.1149 11.3078 1019 110.581 1184.58 459.268
2090 0 91.1075 12.3261 1123 111.956 1184.53 454.582
2091 0 97.3602 13.5065 1315 107.55 1184.81 454.706
2092 0 99.3824 13.3223 1324 108.06 1184.98 452.856
2093 0 101.133 12.1226 1226 112.676 1185.37 450.118
2094 0 103.253 13.7042 1415 113.066 1184.85 449.177
2095 0 107.302 13.4294 1441 110.083 1185.08 448.647
2096 0 110.323 13.0164 1436 112.034 1185.27 444.322
2097 0 112.296 12.1999 1370 115.161 1185.48 443.042
2098 0 114.478 12.8409 1470 116.25 1184.87 442.178
2099 0 117.332 12.4007 1455 117.553 1184.99 441.371
2100 0 124.327 11.9524 1486 118.18 1184.28 434.974
2101 0 124.322 11.9287 1483 144.641 1182.29 435.115
2102 0 131.349 12.8284 1685 116.139 1184.82 433.869
2103 0 135.351 12.7668 1728 117.427 1184.6 431.98
2104 0 139.254 13.0768 1821 116.219 1184.63 432.84
2105 0 145.245 13.1158 1905 116.794 1184.75 429.219
2106 0 148.444 12.5299 1860 119.491 1184.32 426.104
2107 0 154.257 12.6801 1956 119.247 1184.13 426.229
2108 0 157.25 12.7568 2006 119.614 1184.47 423.321
2109 0 164.285 13.9452 2291 117.495 1184.97 418.871
2110 0 172.346 13.6528 2353 117.825 1184.52 417.399
2111 0 176.367 14.844 2618 116.416 1184.82 411.231
2112 0 181.258 14.0739 2551 118.446 1184.87 411.785
2113 0 185.307 14.2197 2635 118.977 1184.25 408.349
2114 0 191.245 15.0226 2873 118.227 1185.14 406.739
2115 0 197.356 13.4022 2645 122.202 1184.93 408.083
2116 0 197.329 13.3432 2633 150.863 1184.93 408.184
2117 1 163.276 10.5343 1720 122.926 1184.8 432.031
2118 0 163.416 13.3524 2182 121.294 1184.82 422.734
2119 0 168.369 14.3791 2421 119.104 1183.89 420.026
2120 0 172.415 13.4733 2323 121.656 1184.38 418.295
2121 0 180.255 14.2354 2566 120.304 1184.48 414.331
2122 0 185.348 14.1356 2620 121.931 1184.26 407.896
2123 0 193.43 13.4519 2602 123.597 1184.43 404.83
2124 0 201.381 14.3211 2884 121.049 1184.59 406.163
2125 0 208.309 15.0162 3128 120.695 1184.22 398.242
2126 0 214.445 14.7124 3155 121.504 1184.51 396.609
2127 0 220.317 14.3747 3167 123.443 1184.47 390.115
2128 0 228.568 15.2865 3494 120.33 1184.48 391.737
2129 1 58.0476 13.2133 767 113.634 1184.63 470.125
2130 0 57.0323 11.6425 664 118.413 1184.96 469.937
2131 0 61.0415 12.6471 772 115.316 1184.83 468.978
2132 0 63.0219 13.7095 864 113.493 1184.82 467.826
2133 0 63.0219 13.6619 861 144.619 1184.8 467.807
2134 0 65.1876 13.07 852 119.44 1185.22 466.776
2135 0 69.1793 13.8047 955 117.612 1185.12 465.742
2136 0 71.0746 12.522 890 120.87 1185.08 466.431
2137 0 71.0945 13.4047 953 121.079 1185.12 465.593
2138 0 73.1472 13.4113 981 121.195 1184.77 463.845
2139 0 78.1353 14.7309 1151 116.979 1184.58 463.687
2140 0 78.0489 12.3 960 121.938 1184.64 464.6
2141 0 80.1089 13.0323 1044 120.967 1184.55 462.096
2142 0 82.1211 14.296 1174 119.113 1184.42 458.388
2143 0 87.1624 14.2034 1238 117.98 1184.44 457.894
2144 0 87.1233 14.3475 1250 119.284 1183.99 455.614
2145 0 88.2523 13.4048 1183 123.253 1184.02 453.21
2146 0 93.1659 14.6727 1367 119.577 1183.94 451.442
2147 0 94.3396 13.6104 1284 123.552 1183.94 449.798
2148 0 96.2413 14.0272 1350 122.08 1184.35 450.869
2149 0 98.204 14.2153 1396 123.386 1184.1 445.721
2150 0 102.145 12.0906 1235 129.103 1183.54 446.808
2151 0 102.145 12.1102 1237 150.558 1183.52 446.858
2152 0 102.143 12.1301 1239 150.05 1183.54 446.707
2153 0 104.159 15.1019 1573 122.212 1184.05 444.619
2154 0 106.181 15.2005 1614 121.926 1183.95 443.798
2155 0 107.134 14.916 1598 123.561 1183.77 442
2156 0 108.432 14.1563 1535 125.311 1184.56 443.357
2157 0 109.085 14.915 1627 123.676 1184.65 442.355
2158 0 111.191 15.5947 1734 122.524 1184.55 437.13
2159 0 110.38 15.0299 1659 124.554 1184.21 442.283
2160 0 112.267 15.1425 1700 123.82 1184.68 442.874
2161 0 111.259 15.3067 1703 125.036 1184.31 440.006
2162 0 114.333 15.2274 1741 123.666 1184.62 442.532
2163 0 115.121 15.905 1831 122.241 1184.34 440.093
2164 0 114.212 16.338 1866 121.487 1184.08 438.199
2165 0 113.187 14.4363 1634 126.845 1183.75 442.603
2166 0 115.172 14.9863 1726 124.588 1183.66 444.016
2167 0 117.303 16.1547 1895 121.787 1183.87 439.078
2168 0 117.124 16.0087 1875 121.921 1183.71 440.857
2169 0 115.307 14.6305 1687 126.984 1183.52 441.506
2170 0 118.177 15.5698 1840 123.755 1183.94 439.955
2171 0 118.222 15.6231 1847 123.656 1184.31 438.229
2172 0 118.143 15.6675 1851 123.318 1184.22 436.162
2173 0 118.209 15.8026 1868 122.768 1184.41 439.14
2174 0 120.211 15.3979 1851 123.413 1184.1 439.335
2175 0 121.128 14.786 1791 124.358 1184.02 437.896
2176 0 121.214 15.7572 1910 121.51 1184.41 437.787
2177 0 122.343 15.3748 1881 121.596 1184.64 439.974
2178 0 120.247 16.2332 1952 120.317 1184.31 438.994
2179 0 121.107 15.1601 1836 123.228 1184.11 437.434
2180 0 122.185 15.6239 1909 121.516 1184.55 436.737
2181 0 124.249 16.0403 1993 119.525 1183.96 436.421
2182 0 123.337 15.4455 1905 120.49 1183.85 436.83
2183 0 123.237 16.4805 2031 117.938 1183.75 436.558
2184 0 125.306 15.1788 1902 120.692 1183.95 435.029
2185 0 123.305 15.8063 1949 119.617 1184.34 435.643
2186 0 126.331 15.5385 1963 119.287 1183.71 437.359
2187 0 127.386 15.5904 1986 118.173 1183.76 436.722
2188 0 127.213 15.7531 2004 117.961 1183.65 437.474
2189 0 126.324 15.7611 1991 118.436 1183.96 436.855
2190 0 123.203 14.9266 1839 122.608 1183.95 434.995
2191 0 127.332 16.2567 2070 117.771 1183.79 436.145
2192 0 127.234 16.112 2050 118.325 1183.64 434.423
2193 0 128.234 15.3235 1965 120.696 1183.81 433.276
2194 0 129.251 16.085 2079 117.002 1184.65 436.418
2195 0 128.45 14.9397 1919 119.649 1184.22 436.747
2196 0 128.243 16.3595 2098 116.641 1184.41 433.853
2197 0 127.624 15.1147 1929 120.26 1184.27 435.739
2198 0 127.187 15.1667 1929 120.591 1183.89 433.864
2199 0 128.267 15.1871 1948 120.018 1183.77 434.672
2200 0 129.294 15.5537 2011 118.292 1184.02 436.401
2201 0 129.285 15.5934 2016 118.715 1183.73 435.873
2202 0 128.34 14.7421 1892 120.348 1183.49 434.812
2203 0 130.254 15.37 2002 118.182 1183.41 435.255
2204 0 129.226 15.2137 1966 118.654 1183.9 435.366
2205 0 129.483 14.3416 1857 120.152 1184.45 435.175
2206 0 129.163 14.741 1904 119.533 1184.13 434.722
2207 0 128.385 14.5656 1870 120.411 1184.19 433.435
2208 0 130.363 14.8355 1934 119.133 1184.63 433.79
2209 0 131.299 15.7275 2065 116.315 1183.84 433.694
2210 0 134.208 16.0199 2150 114.767 1183.88 433.591
2211 0 133.24 15.671 2088 115.879 1183.87 432.442
2212 0 132.189 14.5549 1924 119.275 1184.41 431.766
2213 0 133.176 15.0928 2010 160.657 1184.41 433.096
2214 0 133.362 14.4494 1927 117.9 1183.99 434.36
2215 0 132.244 14.9043 1971 117.595 1183.45 429.674
2216 0 136.267 14.9633 2039 115.683 1184.05 431.884
2217 0 134.237 15.1672 2036 115.748 1184.06 430.105
2218 0 137.219 14.9177 2047 115.345 1184.64 431.858
2219 0 136.299 15.3559 2093 114.379 1184.06 430.151
2220 0 136.568 14.6886 2006 115.675 1184.26 432.419
2221 0 139.28 14.5965 2033 115.367 1184.12 431.064
2222 0 139.262 15.5247 2162 112.447 1183.69 430.323
2223 0 135.207 14.23 1924 116.781 1183.79 427.675
2224 0 137.339 14.0601 1931 115.569 1183.5 433.092
2225 0 138.162 14.331 1980 116.145 1184.43 428.434
2226 0 138.235 14.6345 2023 114.79 1184.26 430.179
2227 0 139.261 13.1479 1831 116.093 1184.23 431.928
2228 0 139.158 13.2511 1844 116.711 1183.46 429.134
2229 0 141.268 14.1504 1999 112.442 1182.92 430.796
2230 0 139.333 12.7536 1777 117.038 1183.47 427.704
2231 0 141.336 15.9902 2260 109.725 1183.8 426.969
2232 0 143.316 15.1692 2174 110.653 1183.37 427.625
2233 0 142.443 14.9252 2126 110.646 1183.65 427.464
2234 0 143.242 14.9816 2146 110.719 1184.25 425.511
2235 0 142.373 14.8202 2110 110.951 1184.13 426.99
2236 0 144.177 14.6486 2112 110.926 1184.29 427.236
2237 0 143.187 14.7849 2117 111.119 1183.65 424.98
2238 0 143.421 14.5028 2080 111.409 1183.31 424.811
2239 0 143.274 14.4758 2074 110.84 1183.99 426.646
2240 0 144.252 13.7814 1988 111.79 1183.9 426.164
2241 0 146.275 15.8537 2319 107.144 1183.67 423.809
2242 0 146.26 14.0367 2053 110.372 1183.72 427.33
2243 0 147.237 12.9247 1903 112.765 1183.45 424.145
2244 0 149.363 15.3987 2300 106.467 1183.93 425.337
2245 0 150.272 14.7532 2217 107.598 1183.5 424.432
2246 0 149.21 15.5821 2325 106.653 1183.86 422.68
2247 0 149.187 14.6259 2182 108.273 1183.96 424.215
2248 0 150.259 16.252 2442 104.668 1183.68 421.003
2249 0 150.3 15.7817 2372 105.172 1183.76 420.013
2250 0 149.573 14.5414 2175 107.227 1183.61 423.904
2251 0 153.195 15.3921 2358 104.464 1183.72 424.025
2252 0 152.387 16.1365 2459 102.489 1183.82 424.914
2253 0 153.332 15.9523 2446 102.705 1184.02 422.642
2254 0 149.236 14.0582 2098 108.215 1183.99 423.065
2255 0 150.136 14.6734 2203 106.707 1184.3 423.593
2256 0 149.257 14.6123 2181 107.066 1184.56 423.645
2257 0 148.328 12.9915 1927 110.158 1183.2 424.273
2258 0 151.248 14.0101 2119 108.407 1183.78 424.346
2259 0 150.35 14.2601 2144 107.553 1184.07 424.111
2260 0 151.331 14.6632 2219 105.509 1183.88 425.501
2261 0 151.21 14.3112 2164 106.756 1183.32 427.278
2262 0 151.261 14.2601 2157 106.624 1183.25 427.608
2263 0 151.261 14.3329 2168 148.036 1183.26 427.673
2264 0 154.352 14.9982 2315 105.683 1182.69 431.265
2265 0 155.316 15.3751 2388 104.545 1181.83 432.242
2266 0 152.268 12.9902 1978 109.358 1181.71 433.518
2267 0 151.192 13.8169 2089 109.005 1181.67 430.856
2268 0 152.187 14.5939 2221 106.265 1181.15 434.124
2269 0 153.148 14.979 2294 105.379 1180.98 434.454
2270 0 152.286 12.6604 1928 109.222 1180.35 436.07
2271 0 152.34 15.6229 2380 104.051 1180.31 432.213
2272 0 152.441 14.7073 2242 106.375 1180.22 433.356
2273 0 152.454 14.7126 2243 142.86 1180.22 433.507
2274 0 155.283 14.2836 2218 106.156 1179.53 433.05
2275 0 155.206 14.4131 2237 106.274 1179.29 433.177
2276 0 152.189 12.8524 1956 109.433 1179.56 435.405
2277 0 153.422 13.8311 2122 107.534 1179.34 432.676
2278 0 151.395 12.7481 1930 109.552 1179.32 431.066
2279 0 151.161 13.7469 2078 108.168 1178.38 428.433
2280 0 156.405 14.5008 2268 104.414 1178.14 432.836
2281 0 153.337 14.2562 2186 105.771 1177.67 427.126
2282 0 155.343 13.9369 2165 105.484 1178.4 430.198
2283 0 153.371 13.1381 2015 106.602 1178.34 431.867
2284 0 153.431 13.1525 2018 106.621 1177.72 431.49
2285 0 153.701 13.5718 2086 106.879 1177.93 428.166
2286 0 155.337 13.9503 2167 105.383 1178.65 427.18
2287 0 154.297 12.6899 1958 107.633 1178.07 428.696
2288 0 156.356 13.7698 2153 105.277 1177.1 430.627
2289 0 157.297 14.889 2342 102.1 1177.4 431.856
