time division length width area intensity CMx CMy
0 0 63.2355 12.999 822 109.538 1269.78 479.057
1 0 66.0265 13.9792 923 103.451 1268.98 479.56
2 0 66.1233 12.764 844 105.488 1269.52 479.104
3 0 68.061 13.5026 919 102.754 1268.55 476.919
4 0 68.061 13.5467 922 135.794 1267.56 476.997
5 0 73.2769 12.5005 916 103.484 1269.52 475.8
6 0 77.125 13.8606 1069 99.6015 1270.27 474.607
7 0 79.0593 12.9397 1023 101.85 1269.57 475.319
8 0 82.1526 13.6575 1122 100.311 1269.94 473.926
9 0 83.166 13.1424 1093 101.994 1268.75 471.419
10 0 86.2024 13.5379 1167 102.044 1269.22 469.082
11 0 89.205 13.6988 1222 101.596 1269.02 465.379
12 0 89.1594 11.4626 1022 106.565 1271.58 467.344
13 0 93.1304 12.7993 1192 102.176 1271.19 465.918
14 0 97.1412 11.6223 1129 104.666 1270.79 464.314
15 1 56.1368 11.7748 661 108.805 1270.77 479.66
16 0 60.0736 12.6012 757 105.159 1270.55 480.223
17 0 63.1953 13.0231 823 103.324 1270.65 477.452
18 0 65.1623 12.6454 824 104.467 1271.12 475.165
19 0 68.1654 13.4379 916 101.254 1271 474.023
20 0 69.0969 13.7922 953 101.237 1270.62 472.816
21 0 69.0969 13.8067 954 144.783 1270.61 472.87
22 0 75.0709 15.0791 1132 96.8737 1270.09 472.096
23 0 77.1421 13.6112 1050 101.07 1270.14 469.665
24 0 79.1793 13.5642 1074 101.648 1270.53 467.37
25 0 82.1313 13.8437 1137 101.525 1270.28 465.752
26 0 83.1291 14.9286 1241 99.5157 1270.18 466.864
27 0 87.2672 13.8998 1213 101.824 1270.07 465.114
28 0 88.1298 12.4929 1101 107.336 1269.89 464.124
29 0 94.3494 13.9164 1313 103.349 1270.51 461.839
30 0 95.1698 12.8507 1223 107.085 1270.4 460.523
31 0 99.175 12.9569 1285 107.391 1270.33 458.701
32 0 103.162 15.2769 1576 102.102 1270.99 455.735
33 0 105.529 13.6076 1436 106.609 1271.19 457.67
34 0 109.546 14.7153 1612 103.86 1270.86 454.48
35 0 113.288 14.3528 1626 104.458 1270.16 452.597
36 0 117.402 13.4835 1583 106.203 1270.43 452.523
37 0 120.264 13.0546 1570 107.041 1269.96 448.165
38 0 126.238 13.6646 1725 103.957 1270.9 449.454
39 0 128.341 13.059 1676 105.644 1270.64 448.391
40 0 132.376 12.7968 1694 105.703 1271.11 448.106
41 0 138.23 13.5788 1877 104.09 1271.16 438.278
42 0 143.129 13.0651 1870 105.713 1270.66 438.142
43 0 149.169 13.2199 1972 103.741 1270.91 438.635
44 0 155.222 13.2456 2056 105.066 1270.84 434.624
45 1 81.1533 13.419 1089 109.269 1270.97 466.621
46 0 86.4366 15.4911 1339 102.512 1271.29 465.631
47 0 88.2124 15.6101 1377 102.815 1270.74 462.563
48 0 92.1979 13.8832 1280 107.141 1271.02 461.858
49 0 95.1686 14.7002 1399 105.132 1270.94 460.425
50 0 97.32 13.7176 1335 107.96 1270.09 457.274
51 0 100.337 12.9165 1296 109.796 1270.85 458.115
52 0 104.295 14.6411 1527 106.806 1270.26 455.612
53 0 107.157 13.7369 1472 108.026 1270.21 456.75
54 0 113.167 14.536 1645 104.669 1270.06 454.032
55 0 115.305 13.7375 1584 107.302 1269.94 452.443
56 0 118.134 13.4423 1588 109.514 1269.79 450.894
57 0 123.317 13.5991 1677 109.088 1270.82 450.514
58 0 127.317 14.4443 1839 108.07 1270.41 446.483
59 0 130.174 14.9723 1949 105.756 1270.62 446.679
60 0 139.195 14.9789 2085 103.978 1269.68 440.233
61 0 140.14 12.6302 1770 107.946 1270.35 445.685
62 1 72.0709 12.5154 902 113.247 1270.82 472.823
63 0 76.0661 14.2902 1087 106.954 1271.34 472.757
64 0 79.1001 14.9431 1182 105.421 1270.86 467.855
65 0 79.1597 13.3528 1057 109.48 1270.8 468.345
66 0 82.1402 13.4161 1102 109.086 1270.09 467.554
67 0 84.0853 14.1523 1190 107.609 1270.89 468.605
68 0 86.1142 13.3195 1147 109.729 1270.75 466.191
69 0 93.1897 15.9567 1487 101.605 1270.72 462.851
70 0 96.0709 14.1562 1360 105.645 1270.93 461.695
71 0 100.104 13.7057 1372 104.759 1270.14 462.371
72 0 102.119 14.444 1475 104.56 1270.46 456.938
73 0 102.119 14.4636 1477 152.705 1270.46 456.896
74 1 118.119 16.8474 1990 93.4246 1270.96 452.698
75 0 122.203 18.7147 2287 89.2204 1270.58 444.75
76 0 121.143 14.6769 1778 99.9786 1270.41 448.484
77 0 126.185 14.3202 1807 99.2125 1270.04 450.446
78 0 129.34 13.592 1758 100.566 1269.87 449.932
79 0 135.133 13.9122 1880 101.824 1269.98 443.466
80 0 141.141 13.7522 1941 109.32 1271.09 440.399
81 0 142.143 9.70147 1379 112.278 1271.18 447.886
82 1 66.3901 19.4155 1289 89.9527 1271.45 474.894
83 0 63.1821 14.7827 934 105.19 1270.75 478.225
84 0 65.247 14.2842 932 106.279 1271.64 478.221
85 0 67.0951 13.6821 918 107.733 1270.81 477.67
86 0 74.0865 17.6415 1307 95.0543 1270.84 472.056
87 0 76.1442 17.6639 1345 96.4164 1270.81 472.796
88 0 75.1422 15.118 1136 103.946 1270.58 471.63
89 0 80.1902 17.0969 1371 98.8446 1271.25 471.074
90 0 80.1444 14.5238 1164 107.108 1271.56 472.624
91 0 82.2241 14.6064 1201 107.833 1271.65 468.875
92 0 87.1339 14.7015 1281 106.287 1270.93 468.233
93 0 93.1322 18.2107 1696 96.7606 1270.47 462.49
94 0 94.109 15.6733 1475 103.204 1271.06 462.117
95 0 96.3132 15.0135 1446 106.095 1270.06 463.01
96 0 100.134 13.9513 1397 107.975 1270.35 461.89
97 0 104.241 16.1357 1682 103.426 1270.75 459.765
98 0 113.204 18.6565 2112 98.2467 1270.64 451.574
99 1 63.2089 19.5384 1235 83.6931 1271.03 479.615
100 0 66.0516 15.3214 1012 88.6196 1270.38 479.2
101 0 67.2538 17.1738 1155 85.2883 1270.12 477.889
102 0 63.083 16.3911 1034 90.646 1269.94 479.377
103 0 64.0794 17.9465 1150 87.6574 1270.17 478.202
104 0 62.1553 16.0565 998 93.2806 1270.29 475.492
105 0 62.0697 14.2582 885 98.9514 1269.81 477.953
106 0 63.0579 14.7959 933 97.7588 1269.71 477.618
107 0 65.0665 14.0472 914 99.349 1269.64 473.64
108 0 68.1772 15.0197 1024 96.9629 1270.07 474.099
109 0 71.0874 15.291 1087 96.1647 1269.29 471.799
110 0 74.0916 14.3066 1060 96.4368 1269.85 473.222
111 0 77.0838 14.7761 1139 95.331 1269.7 470.63
112 0 83.2141 16.7159 1391 89.0518 1270.49 466.358
113 0 87.0771 16.9849 1479 87.094 1269.33 465.358
114 0 86.4632 15.8564 1371 92.0861 1269.13 467.428
115 0 88.0849 14.8947 1312 94.2126 1269 466.613
116 0 88.0916 13.8719 1222 96.8592 1268.91 465.318
117 0 89.0757 13.7411 1224 98.0123 1269.25 462.727
118 0 93.123 13.5627 1263 98.2043 1269.57 462.865
119 0 96.0834 14.3001 1374 96.4323 1269.33 461.076
120 0 100.153 13.2298 1325 98.4649 1269.43 460.99
121 0 102.143 14.3426 1465 95.8724 1269.12 459.331
122 0 105.132 14.477 1522 96.0953 1269.07 457.183
123 0 109.098 13.2816 1449 98.381 1269.19 455.354
124 0 115.217 14.017 1615 96.5096 1268.37 453.956
125 0 116.201 14.2425 1655 97.6302 1269.01 449.636
126 0 117.184 13.3379 1563 101.162 1268.68 446.56
127 0 124.236 12.3394 1533 102.404 1268.86 448.23
128 0 126.241 11.7949 1489 103.594 1269.33 447.533
129 0 132.299 12.706 1681 102.704 1268.32 443.132
130 0 137.167 13.2102 1812 101.477 1269.19 439.57
131 0 143.245 12.5729 1801 102.497 1269.12 438.095
132 0 147.232 12.8912 1898 102.518 1268.98 433.666
133 0 153.184 12.7102 1947 102.795 1268.69 431.646
134 0 158.267 13.2308 2094 101.334 1268.45 431.137
135 0 162.268 13.2127 2144 103.109 1268.93 424.652
136 0 167.265 12.9256 2162 102.477 1269 423.501
137 0 174.393 13.0166 2270 102.224 1268.92 421.569
138 0 175.36 12.289 2155 103.902 1268.52 416.486
139 0 185.355 12.6784 2350 102.736 1268.56 415.535
140 0 191.364 12.6931 2429 101.971 1268.77 416.472
141 0 201.495 15.0971 3042 97.4609 1268.51 409.767
142 0 208.211 13.957 2906 100.291 1268.84 401.955
143 0 213.282 15.0692 3214 97.7287 1268.37 401.356
144 1 223.285 14.739 3291 96.7894 1269.41 399.877
145 0 230.378 13.352 3076 101.57 1268.69 393.865
146 0 240.292 14.1494 3400 99.4456 1268.6 395.175
147 0 247.3 13.3401 3299 103.31 1268.31 383.591
148 1 56.0692 9.47044 531 99.3578 1269.08 474.211
149 0 58.1991 11.1514 649 95.5886 1268.66 476.952
150 0 62.1452 11.7467 730 95.7671 1269.26 474.681
151 0 60.1471 9.95892 599 103.826 1268.73 470.608
152 0 63.0567 10.8632 685 102.299 1269.71 471.832
153 0 68.2062 11.304 771 98.4591 1269.9 473.569
154 0 69.1969 11.8358 819 98.1136 1268.81 470.14
155 0 69.2932 11.9781 830 96.8265 1269.48 469.628
156 0 73.0623 11.5244 842 97.5439 1269.08 465.854
157 0 75.1042 10.8649 816 99.9951 1269.04 462.87
158 0 76.2902 12.4524 950 96.6084 1268.87 463.531
159 0 79.1983 13.1063 1038 93.9085 1268.86 464.201
160 0 80.1675 11.5758 928 99.3966 1268.79 458.909
161 0 83.2217 11.8118 983 99.2004 1269.43 459.382
162 0 87.2067 12.1321 1058 97.8507 1268.62 457.854
163 0 87.0964 12.113 1055 100.146 1267.57 452.99
164 0 96.183 13.0168 1252 96.0511 1267.58 455.973
165 0 99.2536 12.1305 1204 99.7841 1268.64 456.728
166 0 103.189 12.3366 1273 101.631 1267.55 458.981
167 1 55.0593 10.189 561 89.2567 1268.74 484.123
168 0 54.077 8.93171 483 91.412 1268.47 484.267
169 0 59.1275 10.8579 642 89.7087 1268.17 482.949
170 0 60.0468 10.7916 648 87.6528 1268.41 483.358
171 0 61.0863 10.5261 643 89.0855 1268.56 481.072
172 0 62.0575 9.13669 567 91.194 1268.56 481.422
173 0 64.0927 10.6564 683 88.8316 1268.35 479.559
174 0 66.0787 10.6842 706 88.5722 1268.72 479.305
175 0 68.0454 11.0221 750 88.128 1269.37 477.917
176 0 67.1314 10.6508 715 89.6811 1269.25 477.466
177 0 72.0723 11.544 832 88.2921 1269.32 475.624
178 0 73.0498 11.0062 804 89.041 1269.1 473.321
179 0 76.0838 10.5541 803 89.5928 1269.49 471.291
180 0 79.0868 10.3304 817 89.4896 1269.19 473.295
181 0 79.1677 10.8377 858 89.5291 1269.4 469.831
182 0 81.1374 10.1679 825 92.3709 1269.24 468.279
183 0 84.3192 8.96592 756 94.3505 1269.25 467.81
184 0 85.1866 9.13289 778 95.6491 1269.08 464.228
185 0 90.2834 11.4971 1038 91.3449 1269.17 463.781
186 0 91.2495 9.98361 911 94.7728 1269.1 462.237
187 0 95.2087 11.186 1065 92.7192 1269.2 458.721
188 1 51.0819 8.14378 416 92.5553 1269.17 483.829
189 0 54.0396 9.43753 510 90.3353 1269.85 482.898
190 0 56.0623 9.64997 541 89.671 1269.34 482.405
191 0 49.0753 8.04885 395 84.6658 1267.74 486.537
192 0 51.0478 9.46171 483 83.8882 1268.05 483.501
193 0 52.0659 9.04623 471 84.344 1267.62 485.253
194 0 54.1596 9.47201 513 84.2359 1267.51 483.692
195 0 51.0432 8.75729 447 86.2237 1268.05 482.365
196 0 59.084 9.4611 559 84.2344 1266.95 481.292
197 0 60.1276 8.34892 502 85.9562 1267.65 478.665
198 0 62.0335 10.2364 635 83.263 1267.1 477.439
199 0 64.1295 10.1045 648 83.7639 1266.76 477.474
200 0 65.214 7.46773 487 87.4148 1266.95 480.493
201 0 68.0624 10.2259 696 83.7112 1266.34 480.013
202 0 66.0695 8.71809 576 87.5556 1267.47 479
203 0 70.1389 7.42812 521 89.4626 1267.46 477.457
204 0 73.2615 8.62663 632 88.6693 1267.43 474.84
205 0 72.2471 9.41214 680 88.7397 1267.03 474.959
206 0 77.267 7.24759 560 91.2554 1267.42 477.645
207 0 79.1367 10.2734 813 88.0209 1267.92 471.245
208 1 170.326 9.21761 1570 97.0815 1267.98 424.362
209 0 174.405 8.68097 1514 97.7708 1268.09 428.155
210 0 179.372 8.44612 1515 100.295 1268.28 420.948
211 1 141.382 8.19763 1159 99.3831 1268.69 440.431
212 0 147.376 10.3613 1527 96.5914 1268.82 437.732
213 0 146.269 9.32529 1364 97.0777 1269.15 437.529
214 0 148.465 8.56769 1272 98.4953 1268.94 437.164
215 1 49.0353 8.89156 436 88.5436 1269.05 487.089
216 0 51.0452 9.83443 502 85.9861 1269.09 489.691
217 0 53.0275 9.52336 505 87.7604 1269.51 484.879
218 0 55.0656 11.9857 660 83.5061 1268.72 486.348
219 0 58.1426 10.6462 619 85.6171 1268.22 484.809
220 0 59.1332 10.5186 622 87.2428 1268.03 483.579
221 0 61.069 10.9057 666 87.1547 1267.48 482.057
222 0 64.1235 10.6357 682 88.1642 1267.57 480.717
223 0 62.055 11.1353 691 87.4573 1268 481.392
224 0 64.1251 9.48146 608 89.8914 1268.41 483.684
225 0 67.1084 11.7422 788 87.0432 1269.01 480.723
226 0 72.1613 10.8923 786 89.229 1268.49 478.162
227 0 72.1789 10.7788 778 89.2725 1269.39 478.374
228 0 74.2036 12.6678 940 86.5362 1269.02 473.968
229 0 76.1386 11.2558 857 90.2719 1267.9 474.772
230 1 40.0181 9.54568 382 94.801 1268.62 492.225
231 0 45.0825 10.7359 484 91.1922 1268.08 490.366
232 0 45.0072 9.9984 450 94.2622 1267.83 490.338
233 0 45.0076 12.5979 567 91.7637 1267.83 489.037
234 0 50.0437 11.9496 598 91.6823 1268.17 489.162
235 0 50.1286 13.3656 670 90.6373 1267.75 488.048
236 0 50.068 12.2234 612 94.2598 1268.36 486.175
237 0 50.0263 12.1136 606 95.7459 1267.67 486.884
238 0 53.1352 12.1765 647 95.5116 1267.89 486.448
239 0 54.0496 11.6375 629 96.6646 1267.62 486.824
240 0 54.0705 12.0213 650 97.0323 1267.67 485.566
241 0 58.1601 11.434 665 96.3684 1267.9 486.511
242 0 58.0629 12.2626 712 96.3357 1268.18 484.324
243 0 58.0178 12.117 703 97.7112 1268 484.08
244 0 61.0931 12.4728 762 96.4934 1268.01 482.616
245 0 61.0348 11.6655 712 98.4944 1268.06 483.638
246 0 63.0259 12.8836 812 96.5936 1267.89 481.31
247 0 68.0503 12.4467 847 95.7804 1267.47 481.535
248 0 68.0498 13.0493 888 96.2804 1267.86 477.912
249 0 70.0566 13.1465 921 96.3398 1267.91 478.322
250 0 73.0712 10.6471 778 100.183 1268.69 479.17
251 0 75.0733 12.6809 952 96.0032 1267.99 477.65
252 0 78.1241 12.4033 969 96.8225 1267.98 476.438
253 0 78.2218 12.6563 990 96.4333 1268.26 475.301
254 1 40.0809 11.1774 448 98.6004 1268.3 490.219
255 0 40.0851 10.7771 432 92.2847 1268.47 490.722
256 0 37.1118 9.43096 350 94.5171 1267.96 486.189
257 0 40.0786 10.7539 431 90.2367 1268.33 486.223
258 0 40.0345 9.81654 393 94.1145 1268.86 482.443
259 0 44.0274 11.084 488 90.9734 1267.77 483.578
260 0 46.0553 13.6575 629 86.1717 1268.64 480.148
261 0 47.1446 12.0268 567 88.6808 1269.13 481.457
262 0 48.1557 10.5907 510 90.4608 1268.55 482.027
263 0 47.0331 10.4182 490 93.4755 1268.75 478.32
264 0 50.0296 11.2533 563 91.0426 1268.44 479.632
265 0 53.031 11.4838 609 90.3662 1269.16 478.112
266 0 54.0406 11.3803 615 91.4016 1268.25 477.54
267 0 55.0316 10.0124 551 86.0399 1268.62 481.802
268 0 56.0483 11.4366 641 85.6802 1268.72 481.808
269 0 59.0519 9.56785 565 89.446 1268.48 479.919
270 0 61.193 11.5209 705 84.9631 1268.82 481.292
271 0 62.1454 12.3742 769 86.052 1268.69 477.1
272 0 64.0976 10.0628 645 89.5984 1267.93 480.752
273 0 67.163 11.4498 769 89.0403 1268.61 476.986
274 0 70.0648 12.1316 850 86.7659 1269.15 476.799
275 0 73.137 12.9346 946 87.6448 1268.76 474.383
276 0 76.2063 11.3639 866 87.7852 1269.52 475.277
277 0 76.2009 11.1285 848 95.8514 1268.97 466.968
278 0 81.1524 12.3718 1004 92.8755 1268.3 468.231
279 0 85.1573 13.5631 1155 90.5048 1269.6 466.513
280 0 89.09 13.9859 1246 89.6541 1269.18 465.924
281 0 89.2639 11.8637 1059 95.3928 1268.78 463.659
282 0 100.087 17.265 1728 83.4774 1268.4 457.49
283 0 99.2225 6.42999 638 100.976 1269.91 474.889
284 0 99.223 7.03466 698 155.434 1271.86 472.029
285 1 66.5505 22.8698 1522 63.9744 1270.65 476.264
286 0 64.089 16.0558 1029 77.2536 1270.19 482.077
287 0 63.0996 15.119 954 81.0692 1269.06 480.936
288 0 59.0719 15.4049 910 85.3165 1269.52 484.325
289 0 59.0793 12.9487 765 90.766 1269.43 484.537
290 0 61.0809 12.8846 787 90.4676 1269.65 482.624
291 0 66.1367 13.0487 863 88.8911 1269.71 481.238
292 0 68.1122 13.1841 898 88.471 1269.24 481.008
293 0 70.0823 12.1001 848 90.1639 1269.29 480.093
294 0 73.1294 14.5906 1067 86.2559 1269.16 476.67
295 0 76.0787 13.0523 993 89.4663 1269.05 476.926
296 0 76.0861 12.9064 982 90.4837 1268.16 475.649
297 0 79.0986 12.7057 1005 89.9363 1268.46 473.722
298 0 82.1535 11.7828 968 91.6302 1268.52 471.496
299 0 86.1428 12.5954 1085 89.2157 1268.4 467.14
300 0 89.1274 13.0712 1165 88.8876 1269.61 467.279
301 0 92.1729 12.9431 1193 90.0897 1269.6 470.238
302 1 45.0439 11.7663 530 97.1189 1269.65 488.264
303 0 45.0733 13.6666 616 94.7045 1269.35 488.118
304 0 49.0865 12.2437 601 96.9551 1268.71 488.258
305 0 50.0874 13.0572 654 96.1239 1268.15 487.154
306 0 50.0361 12.5909 630 96.6571 1268.16 487.198
307 0 52.1612 14.321 747 92.3989 1267.78 486.754
308 0 55.0727 13.4368 740 93.6797 1269.01 486.085
309 0 56.0771 13.7133 769 93.9857 1268.57 483.2
310 0 59.0943 13.2162 781 93.0141 1268.4 483.931
311 0 60.0809 11.7841 708 95.4364 1268.11 481.726
312 0 62.0683 13.3724 830 91.7843 1268.57 482.546
313 0 64.1047 13.9927 897 90.5842 1268.97 480.035
314 0 67.0714 12.509 839 92.907 1269.41 480.557
315 0 70.0833 14.1974 995 89.6764 1268.61 479.651
316 0 69.0896 12.4187 858 93.2797 1269.03 480.023
317 0 72.0479 13.616 981 91.6055 1268.6 477.146
318 0 75.105 14.3399 1077 89.9684 1269.31 475.62
319 0 78.1298 13.4648 1052 91.4943 1269.7 474.994
320 0 81.2415 12.986 1055 92.2085 1270.14 468.553
321 1 40.0207 11.1442 446 87.5942 1268.85 494.291
322 0 41.0303 11.26 462 89.3095 1269.13 492.316
323 0 43.1172 11.2252 484 88.6674 1268.74 492.713
324 0 44.0264 12.2199 538 90.7825 1268.99 490.426
325 0 50.0943 17.8264 893 76.9048 1269.54 487.371
326 0 50.0596 14.6825 735 82.8095 1269.25 487.603
327 0 53.0295 15.1425 803 81.4122 1269.65 488.171
328 0 52.0427 15.0453 783 82.8761 1269.77 488.553
329 0 51.0693 12.6299 645 89.0419 1269.74 488.592
330 0 51.051 11.8705 606 90.033 1270.34 489.566
331 0 53.0214 13.0513 692 87.8569 1269.36 487.001
332 0 56.0172 14.0136 785 85.0968 1268.79 485.192
333 0 58.0461 12.8691 747 86.6225 1269.08 485.786
334 0 61.1168 12.9588 792 85.7677 1269.31 484.422
335 0 62.1177 12.9754 806 85.3983 1269.56 482.653
336 0 66.1497 14.7242 974 81.2392 1270.23 482.23
337 0 66.1714 13.2081 874 84.9256 1270.22 479.93
338 0 69.1281 13.6992 947 82.9145 1269.77 479.547
339 0 71.0598 14.3682 1021 82.0147 1269.54 476.553
340 0 73.1111 13.9787 1022 82.4286 1268.67 474.35
341 0 76.2368 13.8122 1053 81.8566 1268.77 473.122
342 0 78.0836 14.4204 1126 80.5364 1269.2 474.991
343 0 81.1514 14.5161 1178 80.4576 1268.73 474.188
344 0 83.1447 14.8897 1238 79.6179 1268.93 474.893
345 0 86.2636 14.2702 1231 81.3534 1268.84 469.02
346 0 89.1228 14.6988 1310 78.8611 1269.51 468.395
347 1 47.0311 8.69638 409 83.0513 1270.64 492.721
348 0 45.0704 10.0731 454 80.7401 1269.56 490.161
349 0 49.0929 12.7921 628 74.5955 1268.95 490.596
350 0 51.1121 12.541 641 74.2075 1269.15 486.995
351 0 51.1105 10.5849 541 77.3383 1269.25 487.497
352 0 55.0538 13.2053 727 72.8803 1269.47 486.616
353 0 57.0645 13.0204 743 72.6299 1269.19 485.334
354 0 58.1521 11.126 647 75.7017 1269.11 483.185
355 0 60.0941 10.9994 661 76.6672 1269.89 485.07
356 0 62.1795 12.2709 763 75.2975 1269.37 481.767
357 0 66.0807 12.9085 853 73.8101 1269.03 481.29
358 0 67.1003 12.6825 851 74.9777 1269.06 479.187
359 0 71.2511 10.8911 776 77.8466 1268.39 481.85
360 0 71.0886 13.4621 957 75.1651 1269.4 478.916
361 0 74.0945 11.7553 871 77.5258 1268.81 480.017
362 0 75.1542 11.523 866 78.9007 1270.09 479.746
363 0 80.1229 12.2811 984 77.5549 1269.58 476.41
364 0 80.0757 11.8638 950 80.1663 1269.14 474.264
365 0 85.0863 12.3992 1055 80.2237 1269.05 473.987
366 0 87.092 11.8495 1032 79.7607 1269.18 474.26
367 0 92.1384 10.7339 989 81.4176 1268.62 471.652
368 0 94.1214 11.4214 1075 80.8354 1269.19 468.416
369 0 99.0477 11.3279 1122 80.156 1268.91 467.788
370 0 96.1152 13.0156 1251 83.0216 1269.39 468.043
371 1 48.0476 12.5917 605 80.8645 1270.01 488.316
372 0 49.0687 10.5974 520 83.0635 1269.98 491.76
373 0 52.0834 11.4624 597 81.6817 1269.47 491.183
374 0 55.2168 11.6269 642 81.3598 1269.69 490.514
375 0 55.1855 11.4523 632 82.5886 1270.24 488.927
376 0 57.1119 12.5193 715 82.2224 1269.94 486.522
377 0 59.0732 11.6466 688 83.3503 1270.25 485.85
378 0 61.089 10.853 663 84.9578 1270.27 486.49
379 0 64.1277 12.4127 796 82.6596 1269.82 485.548
380 0 67.0702 13.7319 921 81.7557 1270.28 483.252
381 0 69.0585 12.4532 860 83.307 1269.81 483.974
382 0 70.142 13.3444 936 83.8697 1269.95 481.455
383 0 73.108 12.3379 902 84.8925 1269.51 483.477
384 0 77.3161 12.6623 979 85.4668 1269.6 478.245
385 0 79.0919 12.2769 971 84.6334 1269.2 479.437
386 0 78.1183 11.0729 865 87.659 1268.51 478.136
387 0 84.0862 11.3455 954 86.7306 1268.48 475.148
388 1 43.0286 12.1547 523 87.0516 1268.72 492.79
389 0 45.0883 12.9302 583 86.0274 1268.69 493.443
390 0 47.0338 12.9269 608 89.1513 1269 492.062
391 0 45.0484 10.8772 490 86.3265 1268.57 494.406
392 0 47.0271 10.6322 500 86.31 1268.04 494.504
393 0 48.0102 11.935 573 84.986 1268.38 492.656
394 0 48.054 11.82 568 84.081 1268.12 495.187
395 0 49.0311 10.218 501 87.8942 1268.66 491.802
396 0 52.0636 11.7741 613 83.6623 1268.03 492.364
397 0 54.1057 11.9026 644 85.1258 1268.51 489.116
398 0 56.0467 12.2398 686 84.258 1268.18 489.547
399 0 58.0209 11.2546 653 86.1317 1267.9 488.47
400 0 60.0366 11.543 693 86.7345 1267.64 485.519
401 0 60.0422 10.9256 656 86.3841 1267.82 487.247
402 0 63.0645 9.76778 616 87.9821 1268.22 486.44
403 0 68.0852 9.5028 647 87.017 1268.01 488.753
404 0 69.0876 12.0427 832 84.7224 1268.89 482.462
405 0 71.1161 11.8257 841 84.7348 1268.8 482.133
406 0 75.054 11.6316 873 84.6712 1268.07 479.123
407 0 76.0723 11.9229 907 85.1036 1268.42 477.633
408 0 79.148 10.5625 836 86.86 1268.35 478.14
409 0 83.078 12.2656 1019 84.1246 1267.84 474.796
410 0 84.0946 11.6298 978 83.5767 1267.7 478.184
411 1 44.0253 11.1981 493 84.2657 1267.58 495.819
412 0 45.0076 10.9759 494 84.3036 1267.73 494.389
413 0 46.0402 12.9235 595 80.679 1268.52 493.094
414 0 48.1347 12.9013 621 79.5894 1267.98 490.166
415 0 48.0742 12.5015 601 80.3461 1267.79 491.631
416 0 49.1171 11.7271 576 82.0642 1268.32 491.573
417 0 47.0311 9.82328 462 85.9113 1268.77 494.708
418 0 50.1646 10.7446 539 83.9685 1268.26 492.607
419 0 51.0904 9.4734 484 85.2128 1268.17 491.884
420 0 54.1882 12.2721 665 80.7549 1268.21 489.141
421 0 55.1075 11.9403 658 80.696 1268.4 489.181
422 0 56.0319 10.0835 565 82.3894 1268.19 490.858
423 0 61.0795 9.83963 601 82.2712 1268.64 488.85
424 0 60.1199 8.83234 531 83.6836 1269.5 488.011
425 0 64.0747 11.9392 765 79.3582 1269.55 484.838
426 0 65.3347 10.959 716 80.8324 1269.52 486.147
427 0 74.0795 6.07456 450 85.2356 1269.48 491.311
428 0 73.1532 8.62573 631 83.8399 1269.27 482.288
429 0 72.0855 9.03094 651 83.8817 1269.33 480.637
430 0 76.066 11.1877 851 81.0552 1269.08 477.41
431 0 79.0802 10.3313 817 83.1787 1269.37 476.461
432 0 79.1254 8.08843 640 86.2062 1269.54 479.511
433 0 85.0762 10.5435 897 83.9799 1268.98 475.557
434 0 87.1852 10.1508 885 85.6836 1269.74 472.389
435 0 90.1213 11.9617 1078 82.9082 1269.12 473.215
436 1 51.1288 9.87703 505 86.8832 1269.33 491.347
437 0 52.081 10.2341 533 86.2889 1269.6 491.101
438 0 53.0292 11.0128 584 85.8767 1269.01 490.283
439 0 54.033 10.8082 584 83.8767 1269.87 489.336
440 0 55.1474 11.3151 624 84.0561 1269.14 489.244
441 0 58.1344 12.0927 703 83.0725 1269.2 488.013
442 0 60.1007 11.7969 709 83.5557 1269.6 486.807
443 0 61.2858 11.2261 688 84.5625 1269.83 487.964
444 0 63.1509 11.8763 750 83.0107 1269.45 485.199
445 0 65.1309 13.2502 863 80.7416 1269 485.817
446 0 68.0654 10.5487 718 82.7674 1269.3 483.323
447 0 72.0975 12.7744 921 77.6732 1270.1 483.307
448 0 71.1005 11.9127 847 79.7285 1268.81 480.804
449 0 74.1376 12.6926 941 78.7418 1268.96 480.021
450 0 75.1034 11.5973 871 79.1538 1268.82 481.139
451 0 79.0299 12.1726 962 78.5083 1268.87 478.436
452 0 82.219 11.9315 981 79.2365 1269.43 476.713
453 0 87.3071 12.771 1115 77.6036 1269.16 476.122
454 1 44.053 11.5997 511 81.227 1269.14 493.638
455 0 45.0618 12.0723 544 79.7408 1269.45 494.741
456 0 45.1323 10.9899 496 81.504 1269.41 494.099
457 0 49.0234 14.3605 704 82.8466 1270.2 487.428
458 0 49.0195 10.71 525 90.6819 1269.98 491.259
459 0 52.0422 12.5475 653 87.2802 1269.96 490.562
460 0 54.0548 12.7833 691 87.2938 1269.57 488.54
461 0 54.0605 12.0791 653 89.3614 1269.14 489.534
462 0 54.1274 11.6207 629 92.1876 1269.53 487.118
463 0 56.0713 11.9134 668 91.6452 1269.75 487.585
464 0 58.1236 12.3874 720 91.1306 1268.94 486.558
465 0 60.1078 12.2114 734 91.7153 1268.83 484.131
466 0 62.043 13.6196 845 89.071 1269.49 482.211
467 0 63.0794 13.38 844 89.5036 1268.98 480.967
468 0 64.0645 11.3635 728 92.6113 1269.2 484.018
469 0 67.0694 11.8087 792 92.8232 1268.54 480.46
470 0 71.0878 12.6323 898 90.6926 1269.03 480.303
471 0 72.121 13.6299 983 89.5615 1268.83 478.879
472 0 74.0617 14.5824 1080 88.275 1269.21 475.196
473 0 78.1406 13.8596 1083 88.6814 1269.21 474.698
474 0 80.1083 13.4318 1076 88.948 1269.62 472.779
475 0 81.2783 12.6971 1032 91.063 1268.01 470.065
476 0 85.1579 12.9876 1106 88.925 1268.07 468.511
477 0 88.3237 12.7033 1122 86.2023 1267.68 464.6
478 0 92.0449 14.167 1304 81.8551 1267.61 462.926
479 0 94.1664 12.8815 1213 80.5359 1268.22 454.54
480 0 94.1475 12.0874 1138 82.6459 1267.52 453.572
481 0 99.1148 12.5915 1248 81.2965 1267.75 450.829
482 1 50.102 12.275 615 84.1512 1268.57 480.59
483 0 49.0554 11.171 548 87.2646 1268.21 483.378
484 0 50.0717 11.3437 568 86.8662 1268.08 482.004
485 0 55.1326 13.4222 740 82.5095 1267.67 480.655
486 0 55.0423 10.7554 592 86.6605 1268.11 482.096
487 0 58.0492 13.0062 755 83.1099 1268 477.784
488 0 60.0739 12.8009 769 83.7672 1267.55 477.326
489 0 62.23 12.5984 784 84.0115 1267.5 477.235
490 0 63.0991 12.0287 759 85.7299 1268.02 475.88
491 0 67.0998 13.5619 910 84.1308 1267.9 475.121
492 0 69.1434 11.5846 801 87.5094 1268 474.709
493 0 70.1577 12.3864 869 87.1922 1267.72 471.537
494 0 73.2561 12.7088 931 86.7519 1268.34 472.386
495 0 76.1851 13.7953 1051 85.4034 1267.58 469.576
496 0 81.1359 13.4343 1090 85.2404 1268.35 469.035
497 0 81.1053 12.305 998 88.6543 1268.73 467.125
498 0 87.1 12.9391 1127 86.5927 1268.58 464.797
499 0 89.1436 13.8316 1233 85.1087 1268.89 461.44
500 0 92.1295 13.2856 1224 87.0817 1268.11 462.133
501 0 94.1589 13.5409 1275 87.022 1268.05 457.487
502 1 47.1019 11.1036 523 87.4092 1268.41 484.65
503 0 46.0822 12.4343 573 87.4834 1268.52 483.089
504 0 50.0921 11.1594 559 86.4347 1268.27 483.263
505 0 50.1454 11.8655 595 85.0353 1268.28 484.187
506 0 53.0588 11.2517 597 86.541 1268.51 482.459
507 0 56.1186 11.7786 661 86.2648 1268 481.234
508 0 58.1798 13.4239 781 82.7721 1268.65 482.35
509 0 58.0566 12.4189 721 85.5881 1267.98 480.141
510 0 60.1583 12.1513 731 87.0301 1268.01 476.607
511 0 64.2024 11.1522 716 88.324 1267.65 475.587
512 0 66.0729 10.9576 724 88.7348 1268.08 474.913
513 0 69.2294 12.5236 867 85.5721 1267.93 475.619
514 0 69.0965 11.6938 808 88.4455 1268.31 470.908
515 0 75.1087 13.2741 997 84.4243 1268.15 470.19
516 0 78.2167 14.2936 1118 82.1494 1267.51 470.509
517 0 80.1142 13.0564 1046 84.1463 1267.45 468.836
518 0 80.2184 11.157 895 86.9698 1267.09 467.255
519 0 85.3203 12.1542 1037 84.5853 1267.81 463.182
520 0 90.2238 12.2252 1103 83.117 1267.78 462.622
521 0 94.1882 12.2733 1156 82.7941 1267.74 461.089
522 1 49.0275 9.11733 447 78.953 1268.02 484.756
523 0 50.1838 10.8601 545 75.367 1267.33 484.593
524 0 52.034 11.8769 618 75.2201 1268.29 482.526
525 0 55.1964 10.0912 557 76.7487 1268.48 482.043
526 0 56.0851 12.1601 682 80.2082 1269.04 489.485
527 0 57.0836 11.1065 634 80.4448 1268.07 491.349
528 0 60.123 11.7925 709 80.5529 1267.91 485.516
529 0 62.0648 10.3924 645 81.4419 1268.04 488.259
530 0 65.1391 14.4153 939 76.1523 1267.65 483.822
531 0 67.099 10.9689 736 80.9103 1268.36 483.959
532 0 69.1961 10.9688 759 80.6285 1267.93 484.022
533 0 72.2101 11.702 845 80.8592 1267.6 478.658
534 0 76.0693 12.1074 921 80.1346 1267.35 479.495
535 0 78.1959 12.2896 961 79.6004 1267.22 478.695
536 0 80.1095 11.9586 958 81.0532 1267.63 475.274
537 0 84.2508 13.7684 1160 78.6207 1268.14 473.522
538 1 46.0221 12.3202 567 84.1094 1267.05 492.205
539 0 44.0102 11.3156 498 87.9538 1266.75 491.369
540 0 50.1417 12.2852 616 84.3166 1267.41 490.602
541 0 51.0322 13.4033 684 86.1594 1267.6 491.512
542 0 53.0464 12.2346 649 89.0077 1267.37 491.006
543 0 55.083 13.3435 735 87.7918 1268.25 490
544 0 56.0826 13.0522 732 88.903 1269.25 488.497
545 0 58.0514 12.9713 753 89.8234 1269.31 487.129
546 0 59.1129 13.0936 774 88.9922 1269.53 488.795
547 0 60.0606 13.2533 796 90.0879 1269.32 485.182
548 0 62.0356 12.9764 805 90.4335 1268.72 486.042
549 0 63.0537 13.433 847 89.7119 1268.94 485.562
550 0 66.0478 13.7022 905 89.7602 1268.87 483.287
551 0 68.0809 13.4105 913 90.1993 1268.82 482.446
552 0 71.0645 14.311 1017 88.6726 1268.87 481.936
553 0 74.0421 14.5323 1076 88.0771 1269.04 480.652
554 0 77.0925 13.3995 1033 89.8916 1269.17 480.009
555 0 77.1125 13.5776 1047 87.0363 1269.24 478.765
556 0 79.0796 15.2505 1206 86.2272 1269.69 478.395
557 0 78.0654 12.8994 1007 94.7537 1269.72 476.353
558 0 80.0892 12.998 1041 86.4726 1269.45 477.371
559 0 81.0777 13.0245 1056 88.9148 1269.31 475.753
560 0 83.1334 13.737 1142 88.1007 1269.16 476.009
561 0 83.2704 14.0026 1166 90.0943 1268.69 474.045
562 0 84.143 13.5127 1137 91.6473 1268.69 473.952
563 1 45.2868 10.3121 467 93.8565 1268.08 491.698
564 0 42.1257 10.7298 452 96.3695 1267.87 492.546
565 0 44.1145 12.1275 535 92.3589 1268.09 493.363
566 0 46.1439 11.8759 548 90.5036 1267.73 492.958
567 0 48.0606 13.8991 668 86.8084 1266.98 491.169
568 0 49.068 12.2687 602 88.902 1266.94 491.638
569 0 52.0579 12.7166 662 86.2523 1266.75 491.363
570 0 53.0382 13.1603 698 85.0229 1267.84 491.683
571 0 54.1735 10.1341 549 90.2113 1268.62 489.964
572 0 57.0806 11.44 653 87.6233 1267.7 488.83
573 0 59.1016 13.0115 769 84.9233 1268.92 488.714
574 0 60.1064 14.3911 865 84.2566 1268.57 486.512
575 0 62.1763 11.4996 715 89.8839 1268.04 486.08
576 0 62.0338 12.3804 768 90.0781 1268.16 485.77
577 0 66.1298 13.6398 902 87.1951 1268.35 486.114
578 0 66.1273 12.3247 815 92.1239 1268.33 483.715
579 0 66.0821 11.6976 773 95.4851 1268.08 482.03
580 0 69.0466 14.0195 968 92.8616 1268.33 480.91
581 0 71.1222 13.6666 972 95.107 1268.69 481.827
582 0 72.1466 11.2687 813 101.567 1268.54 481.025
583 1 39.0102 11.3047 441 94.8526 1269.02 497.218
584 0 38.0569 11.0098 419 98.3652 1268.62 495.348
585 0 40.1025 10.8971 437 97.6384 1268.19 495.989
586 0 41.1935 12.7447 525 98.2857 1267.91 495.918
587 0 42.2512 12.9937 549 100.45 1268.09 493.435
588 0 43.2031 11.4344 494 104.559 1267.95 494.083
589 0 45.2026 12.6099 570 104.137 1268.6 493.74
590 0 44.1562 12.6143 557 106.427 1268.38 493.296
591 0 46.2042 11.4924 531 110.124 1268.85 492.356
592 0 48.1872 12.7627 615 108.158 1268.31 491.606
593 0 48.145 10.7799 519 113.773 1268.71 491.227
594 0 52.1321 13.063 681 107.186 1268.51 489.96
595 0 50.0924 11.6385 583 113.377 1268.61 490.535
596 0 55.1598 12.2009 673 111.97 1268.55 489.297
597 0 53.1248 12.2353 650 113.418 1268.3 488.923
598 0 56.1075 12.1018 679 113.77 1268.16 488.576
599 0 56.1163 11.3514 637 115.956 1267.48 488.196
600 0 59.1061 11.9446 706 113.935 1267.87 485.676
601 0 58.0827 10.9155 634 118.134 1267.14 486.591
602 0 60.2351 12.086 728 115.099 1267.19 486.129
603 0 63.1569 12.5244 791 113.489 1267.47 485.984
604 0 66.1453 13.2587 877 111.778 1268.7 484.569
605 0 68.1264 12.8291 874 112.415 1267.74 482.732
606 0 69.1253 11.3272 783 115.573 1268.44 483.275
607 0 72.158 12.4449 898 112.347 1268.7 481.386
608 0 74.1744 11.6887 867 113.068 1267.54 481.105
609 0 79.1232 13.3589 1057 109.092 1267.58 477.768
610 0 80.1485 12.6016 1010 110.688 1267.04 476.625
611 0 89.2063 10.5934 945 112.259 1267.08 476.633
612 0 89.3406 11.764 1051 110.438 1267.66 473.317
613 1 46.0737 9.68015 446 110.493 1268.35 492.377
614 0 43.0485 10.5695 455 106.6 1267.02 487.888
615 0 46.1156 10.0617 464 106.121 1268.11 487.58
616 0 47.0568 11.093 522 104.73 1268.12 487.389
617 0 51.1021 11.7216 599 99.7028 1266.84 493.457
618 0 53.2564 12.13 646 98.2477 1266.25 490.546
619 0 54.1873 11.9032 645 99.0326 1267.3 490.791
620 0 55.0783 10.9299 602 98.7724 1266.28 493.49
621 0 59.033 12.2982 726 96.7397 1266.83 490.979
622 0 57.0271 11.5033 656 99.4375 1267.25 489.779
623 0 62.0898 12.2886 763 96.8322 1267.56 488.239
624 0 64.0705 10.8942 698 97.5903 1266.88 489.46
625 0 68.0713 12.6338 860 94.7593 1265.55 486.391
626 0 68.0308 11.3625 773 93.9418 1266.71 488.213
627 0 72.0487 11.7698 848 93.7807 1265.56 484.312
628 0 73.1162 11.5843 847 95.2621 1265.84 482.779
629 0 78.0692 12.3096 961 92.7201 1265.95 482.834
630 0 83.1032 13.3569 1110 90.6739 1266.23 479.338
631 0 86.1632 12.5227 1079 92.088 1266.53 476.554
632 0 88.2324 11.6284 1026 93.9747 1266.72 476.824
633 1 49.0257 12.7076 623 93.4205 1266.58 494.034
634 0 51.1036 12.3866 633 94.0727 1266.63 493.201
635 0 52.105 14.1829 739 90.161 1265.94 491.87
636 0 52.1473 13.807 720 89.2778 1266.21 491.582
637 0 56.0898 13.9776 784 87.8253 1265.39 491.126
638 0 58.1808 14.1456 823 86.4593 1266.12 489.378
639 0 58.0503 13.2299 768 89.1393 1265.86 489.785
640 0 59.1183 13.5998 804 88.8221 1266.74 488.555
641 0 62.1669 13.5764 844 88.4846 1266.26 487.562
642 0 63.0654 12.3047 776 91.6366 1266.25 486.235
643 0 64.1385 12.5354 804 90.8246 1265.72 485.963
644 0 68.0932 11.6899 796 91.8455 1265.83 485.676
645 0 70.206 12.4063 871 90.3307 1266.32 483.999
646 0 73.1624 12.4928 914 90.3107 1266.23 482.972
647 0 76.1203 13.2028 1005 88.6308 1266.76 481.944
648 0 77.1445 11.8609 915 92.0448 1266.71 480.361
649 0 79.1202 13.5237 1070 89.0019 1266.66 479.835
650 0 82.0923 13.4361 1103 89.2022 1266.57 478.25
651 0 84.0814 12.5474 1055 91.0294 1266.3 477.804
652 0 87.0928 12.0561 1050 93.1733 1266.18 472.968
653 0 90.1068 11.5974 1045 93.4163 1266.36 475.188
654 0 93.1051 10.225 952 96.0336 1265.55 471.072
655 0 94.1261 10.3903 978 95.8282 1266.61 471.54
656 0 97.095 11.4733 1114 95.1086 1266.6 470.382
657 1 53.0204 11.1278 590 100.398 1267.28 489.239
658 0 53.0283 10.9753 582 100.974 1265.96 488.914
659 0 56.0834 12.5349 703 98.7127 1266.22 487.757
660 0 51.0779 12.4516 636 96.5959 1266.73 479.429
661 0 49.1695 10.4943 516 99.5523 1267.28 480.781
662 0 56.0942 12.5325 703 93.5036 1267.04 480.245
663 0 57.09 11.8234 675 95.9096 1266.94 479.81
664 0 61.0465 11.5977 708 96.4619 1267.18 478.716
665 0 62.1148 12.6057 783 94.9936 1267.46 478.623
666 0 62.0892 11.9828 744 99.1116 1267.24 474.733
667 0 65.0375 11.5626 752 99.8298 1267.36 477.299
668 0 69.0598 13.4666 930 97.6215 1267.21 474.731
669 0 71.0625 12.5523 892 101.15 1266.79 479.497
670 0 75.0885 12.4786 937 101.049 1267.22 479.711
671 0 80.195 13.3051 1067 99.0328 1267.12 477.482
672 0 81.0728 12.902 1046 101.139 1267.07 473.892
673 0 85.2901 13.0965 1117 99.4611 1267.23 474.579
674 0 88.2248 12.1848 1075 100.99 1267.84 472.856
675 0 91.1407 13.7041 1249 98.8815 1267.6 468.125
676 0 94.1345 12.599 1186 100.395 1268.32 469.014
677 0 99.3366 13.9224 1383 97.2806 1268.36 464.108
678 0 103.122 13.741 1417 97.3331 1267.69 462.138
679 1 56.0551 10.7216 601 95.8286 1267.81 487.669
680 0 58.133 11.2845 656 100.061 1267.85 487.293
681 0 61.0539 12.0058 733 99.5102 1267.82 482.894
682 0 64.049 12.2406 784 98.5 1268.06 482.958
683 0 65.1058 12.088 787 102.513 1267.94 481.41
684 0 68.1179 11.7737 802 101.722 1267.9 480.297
685 0 71.072 12.3818 880 98.2341 1268.92 480.585
686 0 74.1023 13.8052 1023 94.7087 1267.89 479.044
687 0 76.0882 12.4855 950 99.619 1268.35 475.519
688 0 79.1298 13.8127 1093 96.6112 1267.77 474.512
689 0 81.2082 12.2894 998 100.647 1268.03 472.935
690 0 86.1743 12.7648 1100 99.0073 1268.56 472.901
691 0 86.0869 12.2899 1058 101.069 1269.04 472.119
692 0 89.2311 12.3163 1099 102.197 1268.19 467.374
693 0 91.112 12.5011 1139 103.023 1268.34 467.054
694 0 97.2936 13.6494 1328 100.284 1268.54 465.363
695 0 99.1707 11.8987 1180 104.026 1268.03 465.78
696 0 102.181 11.0784 1132 101.712 1267.65 459.602
697 1 56.0864 12.249 687 101.32 1268.74 483.166
698 0 56.0706 11.2715 632 106.199 1269.07 480.932
699 0 60.0676 11.8367 711 103.156 1269.23 481.053
700 0 60.1695 13.6448 821 101.063 1268.99 482.267
701 0 64.1136 13.8192 886 99.6648 1268.24 484.228
702 0 63.1405 11.3398 716 106.765 1267.79 484.101
703 0 66.1679 12.2567 811 105.011 1267.48 481.813
704 0 67.2844 13.0342 877 104.747 1268.37 478.316
705 0 73.2612 13.2539 971 102.532 1267.95 477.969
706 0 73.3253 13.4878 989 102.61 1268.13 476.911
707 0 74.2297 12.2592 910 106.763 1267.92 473.196
708 0 77.3119 12.8312 992 103.065 1268.27 473.169
709 0 80.0871 11.2253 899 103.185 1268.84 473.3
710 0 84.1669 12.3208 1037 99.8959 1269.64 474.983
711 0 85.2419 11.4967 980 101.599 1269.59 473.609
712 1 43.1146 10.3445 446 94.1996 1269.81 493.841
713 0 42.2272 9.99356 422 97.064 1269.06 491.803
714 0 43.044 11.2675 485 98.2227 1268.18 489.105
715 0 46.0595 11.4417 527 101.896 1267.09 490.118
716 0 50.0588 12.0858 605 100.74 1267.95 491.324
717 0 49.0576 11.7413 576 105.526 1267.9 489.408
718 0 50.031 11.5728 579 106.679 1268.88 489.093
719 0 52.1852 12.5131 653 104.193 1268.19 487.726
720 0 55.0466 12.7528 702 102.541 1267.83 488.578
721 0 56.1467 11.5234 647 105.819 1268.44 487.481
722 0 57.1024 12.2937 702 104.051 1268.97 486.387
723 0 60.0659 13.1189 788 101.659 1268.57 485.468
724 0 60.1183 12.8912 775 102.783 1268.24 485.56
725 0 63.0717 13.667 862 100.412 1268.12 483.068
726 0 64.1121 13.6168 873 100.053 1268.58 484.35
727 0 66.0802 13.0145 860 101.46 1267.66 480.351
728 0 67.0535 12.2589 822 102.577 1267.22 479.984
729 0 69.0382 13.3404 921 100.789 1269.28 476.872
730 0 72.074 12.7785 921 99.9859 1269.31 477.477
731 0 75.1755 12.8366 965 99.0155 1269.43 477.778
732 0 78.1619 14.0862 1101 95.5913 1269.06 475.865
733 0 79.0924 14.2491 1127 94.1446 1268.85 474.187
734 0 83.2073 12.8715 1071 94.9907 1268.76 473.983
735 0 84.0989 11.4865 966 97.0911 1268.22 471.344
736 0 88.1286 11.9144 1050 95.1848 1268.38 470.669
737 0 91.1272 12.1369 1106 92.6971 1268.23 470.476
738 0 96.0676 13.0429 1253 89.7366 1268.83 468.622
739 0 97.2521 10.2928 1001 95.2488 1268.39 463.315
740 1 48.0625 9.92458 477 92.9224 1268.31 486.541
741 0 52.1465 11.6403 607 87.9934 1268.22 486.448
742 0 54.0685 12.6321 683 93.4451 1268.5 486.426
743 0 56.1836 11.4446 643 95.3826 1268.7 485.532
744 0 58.1287 13.126 763 90.8506 1268.3 486.713
745 0 60.1526 13.8149 831 90.1949 1268.13 484.231
746 0 62.1069 12.4463 773 91.6585 1267.66 486.069
747 0 63.2951 12.181 771 92.1025 1268.17 482.69
748 0 65.0848 12.1534 791 93.2377 1268.59 479.331
749 0 67.1602 12.6563 850 92.7659 1268.21 476.688
750 0 68.1366 12.2548 835 93.3365 1267.96 476.354
751 0 73.1401 12.4145 908 90.5617 1267.9 478.323
752 0 73.126 11.1588 816 92.5392 1268.01 472.637
753 0 76.0812 11.9478 909 90.9219 1268.31 473.8
754 0 79.1088 11.9582 946 90.6501 1268.18 471.682
755 0 80.1224 10.5464 845 92.8568 1268.04 472.361
756 0 83.236 11.0049 916 91.6234 1267.71 468.543
757 1 48.0355 11.1376 535 83.6112 1269.17 491.482
758 0 49.1338 9.97276 490 84.5571 1269.06 488.09
759 0 49.058 11.6801 573 80.0716 1267.55 488.595
760 0 48.09 11.3329 545 82.5211 1267.14 491.028
761 0 51.1173 8.60766 440 85.6227 1267.15 489.666
762 0 52.0842 11.6158 605 81.0826 1267.07 486.995
763 0 53.1896 9.71994 517 84.2959 1266.99 487.294
764 0 57.091 9.70381 554 83.556 1266.78 488.413
765 0 61.1073 10.4407 638 82.315 1267.13 487.784
766 0 64.0869 12.0461 772 81.456 1266.8 484.776
767 0 65.042 11.5156 749 82.8652 1267.93 483.303
768 0 67.1509 10.32 693 85.3723 1267.26 480.957
769 0 71.1359 11.0774 788 85.0761 1267.78 480.872
770 0 71.0456 11.1619 793 86.9697 1267.65 478.151
771 0 77.1051 12.4376 959 85.6601 1267.56 475.607
772 1 40.0235 10.5938 424 90.6887 1266.44 494.901
773 0 36.0477 11.1519 402 80.6741 1267.57 487.341
774 0 37.0455 7.55828 280 80.1179 1267.94 486.457
775 0 42.0503 10.749 452 84.6748 1267.83 495.285
776 0 45.0616 11.8283 533 82.7167 1266.48 495.447
777 0 44.0828 11.6145 512 84.043 1265.82 496.396
778 0 45.0533 11.5641 521 83.9827 1266.54 496.643
779 0 45.0533 11.5419 520 136.669 1266.58 496.771
780 0 48.0962 10.8117 520 85.8827 1266.25 495.908
781 0 50.0893 11.3797 570 85.6175 1267.48 492.379
782 0 54.0393 12.0098 649 82.8105 1266.52 493.663
783 0 54.1089 12.4009 671 82.8927 1267.16 492.952
784 0 55.1353 12.3696 682 83.8372 1267.63 489.012
785 0 56.0189 12.585 705 83.2397 1267.98 489.936
786 0 59.0594 10.4979 620 86.6581 1267.61 488.439
787 0 62.1201 10.3026 640 85.8703 1267.79 489.216
788 0 63.1146 12.0416 760 84.3645 1267.21 487.042
789 0 66.1142 10.7087 708 86.3037 1268.25 486.151
790 1 140.457 10.772 1513 100.64 1266.68 444.613
791 0 149.457 11.7559 1757 95.1383 1267.09 447.102
792 0 153.561 13.8642 2129 92.7149 1266.78 445.989
793 1 74.2537 10.4776 778 91.7841 1268.2 474.99
794 0 79.2193 11.3356 898 89.6693 1268.23 479.575
795 1 44.105 11.3366 500 91.042 1268.36 494.524
796 0 43.0698 12.3056 530 87.6377 1265.92 491.894
797 0 44.1134 11.4024 503 92.4394 1268.78 494.662
798 0 47.16 11.514 543 92.1639 1268.84 493.676
799 0 51.1653 13.2512 678 87.7375 1268.65 493.266
800 0 50.207 12.1895 612 91.2631 1267.71 491.745
801 0 52.0881 11.327 590 93.8373 1267.31 490.505
802 0 53.0919 12.2053 648 92.5293 1268 490.761
803 0 57.0376 11.7291 669 92.8072 1267.31 490.29
804 0 59.1901 13.2623 785 89.4803 1267.6 489.91
805 0 60.2408 12.1512 732 91.903 1267.67 489.768
806 0 60.0842 11.8667 713 93.8135 1267.14 486.258
807 0 63.0651 11.6546 735 93.2952 1267.77 486.712
808 0 65.1468 11.8962 775 92.12 1267.79 486.058
809 0 67.1123 11.5329 774 92.7016 1267.79 486.044
810 0 66.0876 12.4986 826 92.707 1267.73 484.944
811 0 71.1609 12.3242 877 93.5496 1267.48 481.432
812 0 73.1114 12.2826 898 93.0913 1267.23 481.807
813 0 77.1833 12.0492 930 91.5161 1266.55 479.208
814 0 80.0766 12.5879 1008 89.2163 1267.41 478.52
815 0 80.0852 11.3879 912 91.8991 1266.73 478.711
816 1 45.0525 12.2746 553 87.1555 1268.2 494.009
817 0 46.0535 11.0524 509 89.7053 1267.4 493.21
818 0 46.1093 10.5619 487 86.1622 1267.39 494.844
819 0 50.1642 11.7415 589 83.6146 1267.55 491.613
820 0 50.0819 12.4596 624 83.8526 1267.23 492.497
821 0 53.099 13.5407 719 81.0292 1266.8 490.498
822 0 51.0471 11.6363 594 85.005 1267.46 492.008
823 0 52.0173 10.6311 553 84.906 1267.34 493.756
824 0 52.0579 9.68154 504 88.4226 1266.8 489.619
825 0 55.1237 12.0456 664 84.3795 1267.56 488.526
826 0 56.0805 10.6454 597 86.536 1267.52 487.724
827 0 61.0415 10.9598 669 84.4978 1266.78 489.28
828 0 63.0952 10.4762 661 86.3086 1267.06 485.962
829 0 66.1412 12.7908 846 82.7388 1267.23 484.327
830 0 69.2092 11.4147 790 84.0899 1267.17 484.046
831 0 74.0384 12.0478 892 82.2388 1267.3 480.641
832 0 75.0615 11.8569 890 81.9944 1267.21 481.129
833 0 80.0923 12.0611 966 81.3727 1266.89 480.264
834 0 81.179 12.0844 981 82.0724 1267.57 478.446
835 0 79.1617 11.5081 911 86.5851 1267.32 476.721
836 1 90.1855 12.5297 1130 85.3071 1266.99 473.219
837 0 95.1524 12.1279 1154 84.9411 1266.5 473.34
838 0 97.2758 11.0716 1077 86.3436 1265.86 473.357
839 0 97.1328 11.2423 1092 86.554 1265.98 472.006
840 1 57.1543 13.3323 762 86.899 1266.07 486.793
841 0 58.114 12.8368 746 88.4558 1266.96 485.917
842 0 61.2785 12.843 787 87.9949 1267.28 485.316
843 0 62.1615 13.3041 827 87.9867 1266.98 484.917
844 0 64.1695 12.4826 801 90.0799 1268.6 484.15
845 0 69.2793 12.6733 878 89.1754 1267.64 482.669
846 0 69.1191 12.558 868 89.5783 1267.47 482.903
847 0 71.1538 13.8151 983 88.412 1267.34 479.822
848 0 73.3011 13.0421 956 89.8284 1266.8 479.394
849 0 75.2167 13.1088 986 90.2596 1267.71 478.25
850 0 76.1309 12.8463 978 91.5174 1267.59 476.149
851 0 81.2024 12.4381 1010 91.1564 1267.85 476.429
852 0 85.2732 12.6886 1082 90.6433 1267.46 474.418
853 0 87.1017 13.2604 1155 89.8753 1267.89 473.308
854 0 90.1188 12.5057 1127 91.8509 1267.9 473.536
855 0 94.1496 12.1402 1143 90.6973 1267.52 471.437
856 0 97.1867 12.4606 1211 90.6102 1266.94 468.694
857 0 101.232 12.5158 1267 89.738 1266.17 466.133
858 0 104.166 12.7393 1327 91.627 1266.81 463.662
859 0 106.108 12.4119 1317 92.5353 1267.13 465.058
860 1 55.1013 11.8872 655 85.9267 1267.05 489.414
861 0 59.0625 11.6656 689 84.8999 1266.9 488.424
862 0 61.0748 13.4917 824 81.4612 1267.04 488.084
863 0 60.2282 10.7425 647 87.7465 1267.08 484.133
864 0 63.0838 11.1281 702 86.594 1267.57 483.533
865 0 67.1491 12.0478 809 84.4314 1267.63 482.268
866 0 69.0686 11.3945 787 85.568 1267.22 483.38
867 0 73.1923 12.9385 947 82.8068 1267.01 480.197
868 0 75.1451 12.3627 929 83.6351 1266.87 480.467
869 0 77.0693 12.1579 937 84.9648 1267.48 479.003
870 0 80.1864 13.1569 1055 83.3194 1267.27 478.499
871 0 84.0992 12.2237 1028 85.4864 1266.98 475.152
872 0 85.2524 12.6213 1076 85.4814 1267.32 472.068
873 0 89.2123 14.5159 1295 82.7954 1267.2 470.298
874 0 93.0811 13.601 1266 84.4329 1267.37 470.779
875 1 50.1171 12.5506 629 85.3593 1267.36 490.607
876 0 51.025 10.681 545 87.0661 1267.58 491.275
877 0 53.123 13.0452 693 85.0866 1267.38 489.511
878 0 53.0685 11.1742 593 80.8061 1266.64 486.705
879 0 55.0555 13.7861 759 81.4519 1267.93 489.055
880 0 56.1016 11.8178 663 84.9653 1267.85 487.632
881 0 56.1666 11.733 659 85.5782 1268.57 487.382
882 0 60.137 11.7399 706 84.4094 1266.95 488.3
883 0 59.0836 11.9661 707 87.8996 1267.56 485.062
884 0 63.1144 11.2494 710 88.607 1267.36 485.369
885 0 64.0306 13.5404 867 87.1211 1267.3 483.557
886 0 67.0515 12.2443 821 89.5591 1267 483.469
887 0 70.1083 14.2066 996 92.4247 1266.97 480.916
888 0 72.1973 11.9395 862 96.7947 1267.34 478.835
889 0 73.1193 12.336 902 96.6973 1267.34 476.101
890 0 78.2968 14.394 1127 92.3044 1267.49 477.244
891 0 80.1727 13.446 1078 94.5473 1267.35 475.995
892 0 81.1449 13.1 1063 95.7799 1267.89 474.361
893 0 86.2319 13.4753 1162 94.3554 1266.8 473.639
894 0 88.219 12.7864 1128 95.9362 1267.18 471.629
895 0 90.122 12.9047 1163 96.3121 1266.9 470.281
896 0 93.1975 14.3566 1338 93.3057 1266.51 469.83
897 0 96.0949 13.7468 1321 94.8274 1266.34 467.774
898 0 98.22 13.1338 1290 95.5341 1267.08 466.076
899 0 102.314 14.1134 1444 81.0596 1267.13 464.517
900 0 104.219 13.2893 1385 96.6209 1267.36 461.684
901 0 108.399 13.6625 1481 95.2728 1267.5 461.34
902 0 111.18 13.6896 1522 95.5624 1267.61 459.911
903 0 113.281 13.7005 1552 96.4085 1267.19 454.983
904 0 120.326 14.976 1802 92.9273 1266.88 456.963
905 0 123.304 13.7303 1693 96.469 1266.83 452.002
906 0 128.317 15.5552 1996 91.7199 1267.18 452.367
907 0 133.284 14.653 1953 93.7015 1266.36 446.005
908 0 137.269 13.6666 1876 96.2612 1267.19 445.686
909 1 75.1874 12.0233 904 96.1659 1267.52 476.562
910 0 78.1916 13.4285 1050 97.5476 1268.06 474.394
911 0 82.4369 13.4527 1109 96.6032 1267.98 473.432
912 0 86.1426 13.0365 1123 96.0525 1268.12 473.753
913 0 88.1356 13.4338 1184 93.5549 1266.91 472.794
914 0 90.1091 11.7968 1063 96.7262 1267.27 470.468
915 0 95.2438 12.5782 1198 94.9908 1267.81 468.398
916 0 98.2372 13.1926 1296 93.2855 1266.96 467.28
917 0 101.156 13.0689 1322 92.8835 1267.16 463.606
918 0 103.203 11.366 1173 95.1091 1267.49 463.288
919 0 109.125 12.0321 1313 92.6245 1268.04 461.126
920 1 60.1669 10.8531 653 88.4227 1267.66 485.074
921 0 61.1308 12.6614 774 85.239 1268.2 482.805
922 0 61.0086 11.1624 681 85.8106 1267.54 485.062
923 0 64.1586 10.9261 701 86.4608 1267.96 483.545
924 0 67.1214 11.1291 747 85.0977 1267.16 482.506
925 0 71.1313 12.0622 858 82.2867 1267.68 480.315
926 0 73.1827 12.2023 893 81.8981 1267.36 477.873
927 0 72.0929 10.0981 728 84.6484 1267.02 483.724
928 0 77.118 11.9298 920 81.7076 1267.58 477.879
929 0 80.1196 10.5093 842 83.6188 1267.46 476.195
930 0 81.2285 10.612 862 82.7378 1267.25 477.635
931 0 85.1814 11.9979 1022 80.7388 1267.99 473.993
932 0 89.1662 9.65613 861 83.1684 1267.5 476.643
933 0 93.2446 11.6682 1088 79.693 1267.34 467.567
934 0 94.094 11.6373 1095 82.1425 1266.95 468.243
935 0 100.164 11.6109 1163 81.5082 1267.55 466.393
936 0 102.139 12.8942 1317 80.0205 1266.54 463.069
937 0 108.254 11.861 1284 81.6628 1267.55 462.396
938 0 111.169 11.0283 1226 83.3483 1267.41 459.247
939 1 58.0446 11.3361 658 83.0547 1268.26 486.815
940 0 60.0373 11.0431 663 92.3288 1268.37 484.062
941 0 59.1312 11.2293 664 81.7063 1267.32 486.946
942 0 60.1437 10.8906 655 82.3832 1268.05 486.823
943 0 61.093 11.5234 704 81.3835 1267.45 485.486
944 0 65.0913 11.6452 758 81.219 1266.77 483.441
945 0 68.0312 11.2889 768 81.3659 1267.18 483.512
946 0 71.3117 13.3779 954 79.3962 1267.21 478.906
947 0 73.1896 12.1329 888 79.7365 1266.89 474.947
948 0 76.2113 11.783 898 80.8653 1267.89 474.727
949 0 77.1437 11.1869 863 84.0162 1267.35 476.652
950 0 82.2439 12.8885 1060 81.5 1267.43 474.899
951 0 86.1122 12.054 1038 84.0405 1267.35 471.734
952 0 89.2483 13.1879 1177 89.7706 1267.16 467.429
953 0 94.3246 12.7432 1202 90.6589 1266.81 464.558
954 0 98.1222 10.915 1071 93.8413 1267.1 465.383
955 0 104.413 13.006 1358 90.2909 1266.91 462.967
956 1 54.0296 9.55031 516 91.9108 1267.48 487.614
957 0 55.1878 11.2706 622 92.4775 1266.71 486.5
958 0 54.0324 9.88296 534 87.8858 1267.15 488.255
959 0 58.0513 12.1444 705 83.8312 1267.32 487.218
960 0 60.0786 11.5349 693 86.2078 1267.92 484.771
961 0 64.0682 12.2526 785 84.3783 1267.27 485.968
962 0 65.0411 12.9918 845 85.0852 1268.34 482.501
963 0 68.1953 11.555 788 88.3896 1267.27 481.796
964 0 69.0481 10.8041 746 89.5657 1267.5 484.363
965 0 72.0532 12.9071 930 87.8 1266.89 477.645
966 0 74.0766 13.2296 980 87.6 1267.16 477.426
967 0 78.0883 13.0109 1016 91.4921 1267.31 474.945
968 0 80.1192 12.8059 1026 94.9337 1267.14 476.071
969 0 84.1649 12.9389 1089 94.1699 1268.7 473.176
970 0 87.1347 12.3257 1074 95.4749 1267.97 468.671
971 0 91.2732 12.5557 1146 93.993 1268.29 468.214
972 0 94.2035 12.3456 1163 94.2502 1268.32 466.696
973 0 96.2484 11.6989 1126 96.6279 1268.01 465.852
974 0 101.257 13.5694 1374 98.0196 1268.09 461.558
975 0 101.162 10.666 1079 103.52 1266.94 460.732
976 0 106.08 13.7727 1461 96.7433 1267.84 461.587
977 1 55.1067 11.7227 646 100.121 1267.56 486.071
978 0 59.078 13.2706 784 96.1837 1267.58 485.173
979 0 61.1114 12.5836 769 97.8648 1267.71 484.402
980 0 62.1074 13.4767 837 95.8423 1267.94 482.03
981 0 64.1307 11.9599 767 98.8553 1268.22 483.078
982 0 67.1339 12.9741 871 95.9518 1267.76 481.419
983 0 67.0738 11.1817 750 97.9067 1268.05 481.945
984 0 72.1648 12.0696 871 96.7796 1267.22 478.995
985 0 75.1449 14.4521 1086 90.7974 1266.9 476.485
986 0 78.1016 13.2008 1031 92.1494 1267.84 477.798
987 0 79.188 14.7245 1166 89.819 1267.5 474.967
988 0 81.2162 12.8053 1040 91.8317 1267.26 475.942
989 0 84.2323 13.0354 1098 92.6066 1268.06 471.474
990 0 88.138 11.7656 1037 93.404 1267.53 471.698
991 0 90.1995 13.5367 1221 89.9623 1267.64 470.378
992 0 93.1396 11.9498 1113 91.8095 1267.72 466.971
993 1 54.137 11.6926 633 84.6777 1267.8 488.809
994 0 56.1125 10.9245 613 84.5465 1267.86 486.569
995 0 57.0304 11.678 666 83.6922 1267.89 484.221
996 0 59.1484 12.7476 754 81.5345 1268.14 483.171
997 0 62.2272 12.2937 765 82.2366 1267.96 482.748
998 0 64.1696 11.3761 730 83.6863 1267.57 480.905
999 0 67.1094 11.9208 800 90.275 1266.78 480.839
1000 0 70.0613 12.4177 870 91.5506 1267.6 475.869
1001 0 72.1746 12.7884 923 90.0802 1267.57 476.665
1002 0 76.097 12.3132 937 90.1195 1267.18 474.818
1003 0 75.0995 11.2917 848 91.2264 1267.14 474.4
1004 0 80.1608 12.3003 986 87.2911 1267.32 474.145
1005 0 83.1397 11.7273 975 88.2051 1267.74 471.767
1006 0 86.0781 11.5476 994 87.9225 1267.96 471.294
1007 0 88.0825 11.7958 1039 87.9278 1268.08 466.64
1008 0 93.1095 11.9966 1117 87.1638 1267.71 467.643
1009 1 49.1636 9.94639 489 82.638 1268.51 489.904
1010 0 51.1207 10.5241 538 83.1357 1268.58 487.922
1011 0 53.1118 10.299 547 86.3656 1268.44 484.861
1012 0 55.175 10.657 588 89.5442 1268.22 483.804
1013 0 58.1817 11.8594 690 85.6652 1268.13 485.428
1014 0 58.188 10.0364 584 89.0993 1268.11 479.854
1015 0 62.2563 11.4205 711 84.7693 1267.94 481.783
1016 0 64.3206 10.8985 701 86.7033 1268.61 480.375
1017 0 64.112 10.7156 687 74.7918 1268.89 481.859
1018 0 63.0881 8.70212 549 78.7668 1269.42 477.12
1019 0 69.1298 8.02838 555 77.7045 1268.94 481.595
1020 0 68.0398 8.75958 596 77.0638 1268.42 481.654
1021 0 70.0896 9.00277 631 76.9477 1269.35 479.742
1022 0 75.083 9.57606 719 75.1001 1268.34 480.836
1023 0 80.1025 9.17575 735 76.4422 1268.25 475.788
1024 0 78.0512 8.34068 651 77.6544 1267.61 472.366
1025 0 83.0532 9.71667 807 75.4969 1268.12 473.373
1026 0 83.2077 8.74919 728 77.5632 1268.27 466.448
1027 0 91.1909 10.6041 967 74.8139 1267.64 468.499
1028 0 91.1696 9.90461 903 76.4983 1267.89 463.794
1029 0 93.1428 8.29909 773 78.9004 1268.08 463.128
1030 0 97.1236 7.92804 770 81.8442 1268.76 458.803
1031 0 103.108 11.2697 1162 78.7969 1268.35 459.336
1032 1 57.1512 9.58859 548 73.9781 1267.62 482.867
1033 0 57.0571 11.6901 667 70.7241 1268 481.904
1034 0 60.0505 10.1248 608 72.3141 1267.47 481.127
1035 0 62.0525 12.5217 777 68.9434 1268.3 479.714
1036 0 63.1001 11.4104 720 70.3472 1268.31 478.789
1037 0 67.0565 10.1109 678 71.4676 1268.67 475.329
1038 0 68.1462 9.72908 663 71.9095 1268.13 473.673
1039 0 71.1089 10.8003 768 71.0391 1267.89 477.462
1040 0 74.2407 11.4897 853 71.4724 1268.34 475.353
1041 0 78.093 11.8448 925 80.1481 1268.86 471.852
1042 0 87.1996 11.8808 1036 79.2992 1268.14 470.906
1043 0 84.0996 12.1998 1026 80.6686 1267.64 466.708
1044 0 91.1699 12.8003 1167 79.8552 1268.11 466.766
1045 0 91.1372 11.4004 1039 83.0635 1268.43 466.997
1046 0 98.1902 12.1397 1192 82.406 1269.02 466.466
1047 0 99.1339 12.5789 1247 83.9334 1268.08 461.95
1048 0 102.187 11.9095 1217 87.1298 1267.57 457.903
1049 0 109.184 13.1613 1437 85.4433 1267.94 457.775
1050 0 110.167 12.0362 1326 87.3726 1267.44 456.008
1051 1 57.1227 12.0092 686 77.2813 1268.57 484.761
1052 0 60.1642 12.3163 741 75.3401 1268.91 481.806
1053 0 63.0863 11.0959 700 77.3986 1267.94 481.593
1054 0 64.0573 12.2703 786 76.0445 1267.76 480.64
1055 0 66.1377 11.7633 778 77.1568 1267.47 477.964
1056 0 70.1907 12.58 883 75.4326 1269.11 478.207
1057 0 71.1944 12.192 868 77.1394 1267.8 475.793
1058 0 74.0851 11.8242 876 77.5993 1267.02 475.74
1059 0 77.1695 12.1551 938 76.7782 1268.22 475.246
1060 0 79.1538 12.5326 992 76.7198 1268.56 471.973
1061 0 83.1813 13.2722 1104 75.6504 1268.78 471.089
1062 0 85.1606 12.083 1029 77.7425 1267.92 472.462
1063 0 87.174 11.5057 1003 85.6341 1268.26 466.556
1064 0 92.1116 12.55 1156 82.5294 1268.55 466.409
1065 0 93.1067 12.0077 1118 79.314 1267.63 463.917
1066 0 98.2666 11.8148 1161 78.8613 1267.15 463.903
1067 0 99.3305 9.49356 943 83.5355 1266.95 458.462
1068 0 106.15 11.5403 1225 80.102 1267.13 460.273
1069 0 108.105 9.907 1071 83.4202 1267.34 459.037
1070 1 61.0842 12.1635 743 78.004 1267.91 481.184
1071 0 64.3004 12.9082 830 79.3012 1267.82 478.237
1072 0 66.1777 12.3607 818 80.4205 1267.91 476.935
1073 0 67.1162 11.8302 794 83.8338 1268.41 473.8
1074 0 70.2186 13.4153 942 81.7081 1267.58 472.686
1075 0 70.1178 11.5377 809 88.5402 1266.84 472.106
1076 0 74.058 11.9231 883 87.8086 1266.08 470.276
1077 0 75.1569 12.8797 968 87.5238 1266.83 468.699
1078 0 79.0831 12.7587 1009 88.1288 1267.63 469.3
1079 0 82.1251 13.0045 1068 88.2931 1266.77 465.844
1080 0 86.1187 12.7382 1097 88.6582 1267.33 466.374
1081 0 89.2223 13.203 1178 87.9321 1268.63 464.257
1082 0 91.2535 12.8433 1172 89.1988 1268.89 464.264
1083 0 95.2138 14.8928 1418 85.8258 1269.1 459.544
1084 0 98.3691 12.6869 1248 89.0072 1269.68 461.189
1085 0 104.153 13.0865 1363 88.3184 1268.8 458.123
1086 0 105.195 10.7135 1127 85.6717 1268.64 461.201
1087 0 110.173 11.6725 1286 84.7006 1268.59 455.465
1088 0 113.305 11.3411 1285 85.4778 1268.99 453.931
1089 0 115.175 11.1222 1281 87.5285 1268.84 449.585
1090 0 121.383 11.8468 1438 85.7956 1269.23 447.537
1091 0 126.217 12.0903 1526 86.1533 1268.82 446.393
1092 1 74.2798 11.8471 880 86.1591 1269.95 471.324
1093 0 76.0973 12.0898 920 88.9772 1267.8 467.788
1094 0 76.2491 12.0395 918 89.6078 1268.64 469.47
1095 0 79.174 12.5799 996 87.6998 1268.81 472.745
1096 0 81.1141 13.142 1066 87.3396 1268.33 470.034
1097 0 86.171 12.1154 1044 88.8113 1268.97 468.89
1098 0 87.2829 12.6485 1104 89.6042 1268.7 468.534
1099 0 86.3298 10.9232 943 92.5779 1268.9 468.349
1100 0 91.2052 11.666 1064 90.2613 1268.57 467.667
1101 0 95.2338 12.7371 1213 89.9184 1268.43 464.6
1102 0 99.5339 12.2571 1220 91.0246 1269.02 460.934
1103 0 101.354 12.6192 1279 91.7013 1268.69 459.474
1104 0 104.233 12.9229 1347 92.1826 1268.99 457.066
1105 0 109.357 11.9791 1310 92.2496 1268.9 453.741
1106 0 112.297 11.6922 1313 91.7578 1268.82 450.44
1107 0 114.285 11.2701 1288 92.3106 1268.71 451.101
1108 0 121.175 12.5439 1520 90.9434 1269.22 449.499
1109 1 67.0635 11.8395 794 85.607 1270.02 475.549
1110 0 66.1018 9.00126 595 83.4235 1268.98 467.193
1111 0 67.1998 8.378 563 82.071 1269.23 473.426
1112 0 72.0758 10.6138 765 82.0797 1269.78 477.226
1113 0 75.1074 10.1188 760 84.3526 1269.29 473.747
1114 0 75.1154 9.77163 734 85.3229 1269.3 473.48
1115 0 80.0737 9.766 782 85.5831 1269.65 472.387
1116 0 82.1218 11.1055 912 84.0998 1268.99 469.363
1117 0 85.1361 10.8062 920 85.2424 1269.32 467.753
1118 0 87.1006 10.6544 928 86.916 1269.8 464.961
1119 0 90.1287 10.0301 904 88.2788 1269.61 463.729
1120 0 94.0575 10.5893 996 88.2309 1269.12 463.613
1121 0 98.1852 12.1607 1194 86.8828 1269.11 461.175
1122 0 101.23 10.8169 1095 90.6849 1269.42 455.696
1123 0 102.238 11.8742 1214 90.2578 1268.29 454.696
1124 0 106.127 12.3437 1310 90.4527 1268.82 456.156
1125 0 110.208 12.2496 1350 91.9022 1268.52 453.39
1126 0 114.213 11.9776 1368 91.8816 1268.05 451.223
1127 0 114.331 10.9332 1250 94.0024 1268.1 451.698
1128 0 118.431 11.5595 1369 94.2184 1267.65 448.985
1129 0 123.293 11.2821 1391 94.5924 1268.09 446.862
1130 0 127.251 11.6777 1486 94.0357 1267.82 445.158
1131 0 129.255 10.87 1405 96.479 1267.66 443.842
1132 0 132.268 11.3406 1500 96.392 1268.45 440.366
1133 0 137.298 10.5974 1455 97.3127 1268.18 437.877
1134 0 143.272 11.7609 1685 94.9869 1268.3 435.365
1135 0 148.317 12.0688 1790 95.0972 1268.01 430.684
1136 1 87.238 10.0759 879 87.777 1268.14 468.413
1137 0 88.104 9.10288 802 91.5374 1269.18 467.237
1138 0 92.1526 11.6763 1076 85.1078 1269.41 464.508
1139 0 96.1359 11.567 1112 85.7725 1268.76 460.128
1140 0 99.1767 9.69986 962 89.3805 1269.44 459.387
1141 0 101.155 11.8729 1201 90.9384 1268.45 462.251
1142 0 106.147 11.5971 1231 87.537 1268.89 457.95
1143 0 109.122 11.73 1280 89.4516 1268.92 455.639
1144 0 111.175 10.6139 1180 91.3788 1267.75 456.105
1145 0 116.261 12.1795 1416 89.779 1267.49 449.868
1146 0 118.139 11.2325 1327 91.168 1268 450.528
1147 0 122.165 11.7383 1434 91.0948 1268.34 449.305
1148 1 68.1442 9.84676 671 88.2012 1268.66 476.216
1149 0 72.2171 10.69 772 87 1269.16 475.762
1150 0 71.0907 9.93097 706 89.3697 1268.1 471.462
1151 0 77.1731 10.7162 827 86.3688 1269.59 471.85
1152 0 77.2323 10.449 807 86.6456 1270.23 469.069
1153 0 80.2021 11.5458 926 85.4881 1269.63 467.568
1154 0 83.1816 12.5268 1042 83.8378 1270.89 464.981
1155 0 85.2192 11.4646 977 85.478 1269.27 465.019
1156 0 88.0647 13.104 1154 82.883 1269.31 464.875
1157 0 95.1298 11.2793 1073 92.5517 1269.11 465.415
1158 0 96.1056 12.84 1234 89.8436 1269.5 461.807
1159 0 95.1322 10.2174 972 94.9455 1268.95 457.97
1160 0 102.288 12.4649 1275 90.9937 1269.19 457.762
1161 0 105.175 12.1322 1276 90.3064 1269.92 456.09
1162 0 107.111 11.6235 1245 91.6257 1269.42 455.031
1163 0 110.161 12.5634 1384 88.4552 1269.65 454.681
1164 0 112.304 10.0085 1124 92.1851 1269.79 448.807
1165 0 118.391 10.4569 1238 88.5493 1269.03 451.942
1166 1 65.2921 11.1499 728 85.2624 1269.2 472.661
1167 0 67.2096 11.5013 773 82.9418 1269.61 472.55
1168 0 68.1949 12.303 839 80.5638 1269.8 472.714
1169 0 70.279 11.7816 828 80.6292 1270.02 473.756
1170 0 73.1657 13.1209 960 78.1917 1270.19 473.509
1171 0 72.3072 9.65326 698 83.3954 1269.71 469.33
1172 0 76.0955 12.1295 923 77.6869 1269.24 470.798
1173 0 77.1998 10.7125 827 79.5695 1270.28 471.793
1174 0 80.1305 10.6202 851 80.2703 1269.58 468.663
1175 0 85.1388 12.4385 1059 77.2153 1271 467.696
1176 0 89.1872 12.0869 1078 77.693 1270.4 467.072
1177 0 89.1653 11.1815 997 79.5848 1270.48 465.096
1178 0 92.1654 12.2823 1132 77.992 1270.45 465.684
1179 0 94.1361 12.8006 1205 78.4282 1270.08 461.295
1180 0 98.1566 12.9385 1270 77.8677 1269.28 461.522
1181 0 101.228 13.0201 1318 78.1973 1270.04 461.401
1182 0 104.099 12.786 1331 80.0053 1269.78 458.746
1183 0 105.078 12.1529 1277 81.1276 1269.58 459.69
1184 0 110.142 11.4216 1258 82.938 1269.37 455.229
1185 0 114.164 12.9638 1480 81.0777 1269.52 454.574
1186 1 68.0656 10.196 694 80.8199 1269.68 479.594
1187 0 67.0397 10.4416 700 81.7414 1270.36 479.3
1188 0 68.0967 10.2648 699 86.1874 1270.88 475.857
1189 0 72.121 12.4652 899 82.6607 1269.72 475.919
1190 0 74.1556 13.5526 1005 78.2298 1268.49 470.166
1191 0 76.1437 12.4501 948 80.3154 1268.81 470.189
1192 0 77.2281 12.2494 946 81.6342 1268.16 468.714
1193 0 79.2267 12.6977 1006 81.8618 1267.9 469.142
1194 0 84.2262 13.25 1116 81.56 1268.82 470.468
1195 0 85.1201 14.0742 1198 80.7095 1268.22 466.851
1196 0 87.2399 13.3081 1161 83.1645 1268.37 465.449
1197 0 89.3806 12.3293 1102 84.5236 1268.3 467.195
1198 0 92.2895 14.5629 1344 81.0513 1268.57 462.33
1199 0 93.0407 12.4354 1157 86.6223 1269.48 464.921
1200 0 96.1838 13.1311 1263 86.1869 1268.79 462.736
1201 0 97.2006 12.7057 1235 88.6721 1268.82 460.869
1202 0 100.195 13.1444 1317 87.5642 1269.1 460.659
1203 0 103.045 12.8099 1320 88.0606 1269.31 458.983
1204 0 105.23 12.2588 1290 88.8062 1268.45 456.254
1205 0 108.221 12.3913 1341 88.915 1268.46 455.131
1206 1 60.1633 9.80664 590 88.1203 1269.1 474.647
1207 0 60.1043 11.53 693 83.3651 1269.13 473.118
1208 0 66.0601 11.5047 760 87.9263 1268.72 473.346
1209 0 69.1482 11.6995 809 89.5612 1269.83 474.473
1210 0 73.1015 11.5045 841 89.1248 1269.65 474.719
1211 0 79.1465 10.6006 839 88.4422 1270.36 478.042
1212 0 78.1533 11.4902 898 88.5757 1269.43 474.239
1213 0 79.216 11.4371 906 90.3013 1269.22 469.108
1214 0 81.1608 12.2719 996 88.5141 1269.06 469.928
1215 0 84.2026 12.3155 1037 87.5072 1268.63 471.068
1216 0 82.1528 11.4664 942 89.5701 1269.06 468.758
1217 0 88.4077 12.6007 1114 87.6113 1269.21 468.158
1218 0 90.4605 12.0826 1093 88.9625 1269.48 465.777
1219 0 92.3688 12.331 1139 89.4293 1269.61 462.823
1220 0 96.2806 12.1416 1169 85.7032 1269.85 464.482
1221 0 99.289 12.0154 1193 87.2481 1269.58 464.12
1222 0 99.1308 12.3171 1221 87.0663 1269.91 460.609
1223 0 104.234 11.8675 1237 86.5142 1270.03 460.103
1224 0 104.159 10.5512 1099 89.1319 1269.95 459.49
1225 0 109.11 11.6763 1274 86.5754 1270.07 457.297
1226 0 112.25 12.7038 1426 85.817 1269.81 456.52
1227 0 116.284 11.5837 1347 86.634 1269.41 452.191
1228 1 60.0752 10.5368 633 78.4297 1270.02 478.88
1229 0 63.1243 11.0575 698 78.6519 1268.48 476.158
1230 0 66.2341 11.248 745 78.4617 1269.37 475.744
1231 0 67.1738 8.85762 595 81.521 1269.6 472.718
1232 0 68.3159 10.5246 719 79.7802 1268.52 473.833
1233 0 72.1162 11.1348 803 78.8829 1270.47 476.062
1234 0 75.2146 11.8993 895 77.7095 1270.3 473.905
1235 0 77.1646 11.1061 857 79.5041 1270.4 471.469
1236 0 79.1183 11.4386 905 79.3315 1270.03 474.359
1237 0 84.1345 10.507 884 81.4728 1270.96 472.46
1238 0 83.0795 11.0497 918 81.1863 1270.97 470.077
1239 0 86.3534 11.6266 1004 80.6823 1270.57 468.424
1240 1 172.219 10.7363 1849 98.2796 1269.96 426.326
1241 1 93.2638 12.7917 1193 88.7921 1269.9 462.868
1242 0 95.167 9.7828 931 93.7852 1270.08 462.501
1243 0 99.185 11.4634 1137 90.3465 1270.23 462.15
1244 0 102.185 10.706 1094 91.4634 1270.07 460.016
1245 0 104.181 9.79064 1020 93.6392 1269.75 462.016
1246 1 57.1323 7.80645 446 91.7937 1270.33 481.789
1247 0 60.1413 10.492 631 86.6989 1270.71 482.068
1248 0 61.2394 10.5651 647 90.34 1269.8 479.184
1249 0 63.1304 9.26654 585 83.7778 1269.42 477.8
1250 0 65.2592 12.3201 804 80.2363 1268.75 478.123
1251 0 68.1135 12.303 838 79.0644 1268.58 478.533
1252 0 68.1294 11.5516 787 75.1385 1269.3 474.123
1253 0 72.1521 11.4203 824 74.9624 1269.17 475.609
1254 0 74.2866 11.0249 819 76.2308 1269.82 473.103
1255 0 77.1562 11.6128 896 75.8371 1269.85 474.971
1256 0 80.1623 10.8904 873 76.8156 1270.18 473.073
1257 0 77.2037 9.58503 740 79.6622 1269.89 468.585
1258 0 85.2687 10.8598 926 77.9773 1270.1 470.936
1259 0 88.1241 12.3008 1084 76.4068 1269.25 470.363
1260 0 88.1842 11.0224 972 79.3673 1269.76 466.532
1261 0 92.1787 12.606 1162 77.1067 1269.58 463.96
1262 0 92.181 11.4666 1057 80.4409 1270.09 463.867
1263 0 97.1876 11.6682 1134 80.3845 1269.45 461.718
1264 0 100.149 12.062 1208 80.2028 1269.92 461.247
1265 0 103.23 10.5784 1092 83.9423 1269.38 458.266
1266 1 56.1746 10.6098 596 82.3792 1270.18 483.324
1267 0 57.303 12.0587 691 84.7844 1268.65 481.321
1268 0 58.2404 12.9978 757 82.5403 1269.33 478.96
1269 0 58.2064 11.4077 664 93.1401 1269.87 477.256
1270 0 61.0904 11.3111 691 92.4356 1270.29 477.514
1271 0 64.1294 11.4456 734 90.7248 1270.53 477.525
1272 0 64.176 12.3722 794 90.398 1269.79 474.366
1273 0 65.1531 11.7723 767 91.1956 1270.31 473.355
1274 0 67.1026 12.995 872 88.6365 1269.46 472.685
1275 0 68.1385 11.6968 797 91.2672 1269.51 473.646
1276 0 69.0626 12.0326 831 91.148 1269.36 471.921
1277 0 70.0694 12.1594 852 91.243 1269.9 470.594
1278 0 70.1866 11.8256 830 94.2108 1270.59 467.795
1279 0 73.1847 12.6666 927 91.8608 1270.19 468.064
1280 0 76.1858 12.6401 963 91.3219 1269.56 467.912
1281 0 80.338 13.3063 1069 89.4846 1269.69 466.677
1282 0 79.096 12.8451 1016 91.6053 1269.56 464.049
1283 0 83.0884 13.3111 1106 89.3336 1268.57 465.218
1284 0 86.1939 13.168 1135 89.4546 1269.66 462.951
1285 0 86.3704 11.6822 1009 90.5719 1270.07 466.158
1286 1 174.292 10.7349 1871 94.8776 1269.27 427.408
1287 1 93.1449 12.1638 1133 91.9647 1269.83 461.498
1288 0 95.1825 14.8767 1416 88.4251 1269.8 457.326
1289 0 99.3315 12.3526 1227 93.6536 1270.75 452.55
1290 0 104.257 12.9296 1348 92.0141 1270.1 448.603
1291 0 105.175 14.0908 1482 89.641 1270.59 448.85
1292 0 106.216 12.8135 1361 93.3453 1269.36 447.29
1293 1 58.096 11.3433 659 90.3566 1269.58 469.727
1294 0 64.2546 10.1471 652 89.434 1270.03 472.83
1295 0 64.1768 10.5022 674 91.1128 1269.89 470.81
1296 0 67.0879 11.9545 802 87.6035 1270.47 469.201
1297 0 68.1138 12.2442 834 86.7134 1270.35 469.944
1298 0 66.1566 13.2867 879 86.4528 1270.58 467.76
1299 0 71.2127 10.5178 749 89.7864 1270.63 468.023
1300 0 71.1111 11.2781 802 88.6858 1269.76 466.443
1301 0 70.1788 11.7129 822 89.5815 1270.65 462.397
1302 0 76.1301 12.3473 940 86.5436 1270.42 463.285
1303 0 78.0795 12.5769 982 85.5224 1270.9 461.826
1304 0 79.0678 12.9762 1026 84.9357 1270.07 460.534
1305 0 82.0855 12.5235 1028 82.5652 1269.52 459.27
1306 0 84.1478 11.6937 984 78.9756 1270.45 460.965
1307 0 87.2331 12.1628 1061 79.394 1269.96 458.763
1308 0 92.1226 12.364 1139 78.3266 1270.14 453.459
1309 0 93.1203 12.2745 1143 78.5844 1270.27 454.108
1310 0 99.1993 14.3146 1420 79.8458 1269.79 455.111
1311 1 57.0558 10.9892 627 79.9346 1269.48 479.593
1312 0 58.1534 10.5239 612 82.3382 1269.32 477.627
1313 0 64.1161 13.5535 869 80.3728 1269.07 479.106
1314 0 61.0718 11.2818 689 80.6415 1267.67 480.837
1315 0 62.0928 12.9484 804 78.1716 1268.28 481.124
1316 0 63.0785 12.3497 779 80.0347 1268.57 479.101
1317 0 65.187 12.3031 802 79.793 1268.7 478.648
1318 0 71.0855 11.24 799 79.9249 1268.6 476.991
1319 0 71.0893 12.1256 862 78.4814 1269.16 476.966
1320 0 70.1055 14.1644 993 76.5216 1268.74 474.316
1321 0 72.154 12.2516 884 77.8462 1268.57 477.713
1322 0 77.0932 11.4147 880 79.1443 1268.09 474.918
1323 0 78.0907 12.319 962 78.8264 1268.26 473.371
1324 0 81.1202 11.3289 919 80.605 1267.4 472.256
1325 0 81.0804 12.2718 995 79.4121 1267.83 472.012
1326 0 86.0431 12.3194 1060 79.3264 1267.69 469.152
1327 0 88.0601 10.913 961 81.0146 1268.16 470.533
1328 0 91.3391 11.9554 1092 79.8984 1268.05 469.686
1329 0 94.2029 11.1886 1054 82.7021 1267.93 465.625
1330 0 97.2347 12.8658 1251 80.4684 1268.78 461.025
1331 0 99.1179 11.6225 1152 80.9036 1268.3 465.068
1332 0 103.134 10.1712 1049 83.0257 1267.68 461.545
1333 1 57.0355 12.1679 694 79.3328 1267.6 479.941
1334 0 57.1101 11.1539 637 81.6546 1268.59 480.851
1335 0 57.0688 10.8816 621 78.9291 1268.14 484.754
1336 0 59.0972 11.8956 703 77.4765 1267.95 485.016
1337 0 60.0655 12.5863 756 76.9352 1267.34 481.7
1338 0 65.2469 11.74 766 77.359 1267.82 483.691
1339 0 62.098 9.14684 568 81.2377 1266.69 485.586
1340 0 67.135 11.6482 782 79.3542 1267.41 481.694
1341 0 65.0837 10.3713 675 81.9718 1267.27 479.698
1342 0 69.1892 12.3719 856 79.2827 1266.74 479.197
1343 0 69.0875 11.0005 760 82.4618 1266.43 476.159
1344 0 75.0708 11.669 876 80.6552 1266.54 478.643
1345 0 76.1796 10.4621 797 82.6048 1266.27 480.309
1346 0 79.1198 13.6628 1081 79.0675 1267.48 477.579
1347 0 80.09 10.663 854 84.1956 1267.39 477.694
1348 0 84.0832 14.6165 1229 78.1603 1266.66 475.738
1349 0 86.1482 12.8267 1105 81.7891 1266.13 474.107
1350 0 88.1788 12.4633 1099 82.5833 1266.66 467.543
1351 0 89.2506 11.8991 1062 84.5235 1265.71 471.03
1352 0 91.302 11.5112 1051 83.8677 1266.11 472.837
1353 0 92.2216 11.9169 1099 84.8662 1266.44 465.791
1354 0 93.1454 10.8647 1012 86.6769 1266.71 468.274
1355 0 97.0874 11.0416 1072 86.5326 1266.72 466.19
1356 0 103.162 12.7954 1320 83.7242 1266.55 464.537
1357 0 105.086 12.19 1281 84.5144 1267.21 465.943
1358 0 107.164 13.8013 1479 82.9202 1266.96 461.79
1359 0 111.197 11.2234 1248 86.8365 1266.41 462.727
1360 1 64.127 11.6955 750 84.5947 1265.35 485.483
1361 0 66.0808 13.2414 875 83.1074 1266.69 481.73
1362 0 68.1285 13.1957 899 82.5829 1267.17 482.067
1363 0 66.179 7.94814 526 80.0913 1266.98 488
1364 0 69.1083 9.79622 677 78.8508 1266.35 483.963
1365 0 72.0659 9.21379 664 79.2033 1266.57 484.389
1366 0 74.0684 11.6784 865 76.1595 1266.24 482.117
1367 0 77.1138 12.1379 936 75.5545 1266.45 480.681
1368 0 79.2028 11.1486 883 77.7939 1266.68 478.502
1369 0 80.1247 10.0968 809 79.5674 1266.88 476.253
1370 0 82.1363 10.5434 866 79.9434 1266.46 476.158
1371 0 87.1983 12.4085 1082 77.2431 1266.33 475.149
1372 0 88.1776 11.8171 1042 79.763 1266 473.242
1373 0 93.2139 12.4016 1156 79.8521 1266.23 470.332
1374 0 95.2284 12.7168 1211 81.6325 1265.98 469.187
1375 0 99.1583 12.6666 1256 81.2596 1266.08 468.845
1376 0 99.1268 10.4412 1035 84.7092 1266.23 467.428
1377 0 104.096 13.1897 1373 82.0918 1266.34 464.403
1378 0 107.123 12.2009 1307 85.2846 1265.87 462.631
1379 0 108.226 9.84054 1065 82.3268 1265.98 467.731
1380 0 114.235 10.7498 1228 81.4357 1265.16 465.645
1381 0 112.241 10.5487 1184 88.7542 1265.41 464.731
1382 1 58.2051 9.46653 551 84.1942 1264.95 489.838
1383 0 60.0405 10.1265 608 83.1513 1265.45 487.893
1384 0 61.0464 10.1071 617 82.3144 1265.12 489.441
1385 0 65.0859 8.94203 582 83.0894 1265.75 488.574
1386 0 67.1182 11.2935 758 79.2665 1266.26 488.392
1387 0 71.3285 11.3559 810 80.0358 1266.44 485.495
1388 0 74.1279 9.0924 674 83.6128 1266.13 483.746
1389 0 75.2232 10.9541 824 81.6735 1266.38 480.547
1390 0 75.1472 10.0602 756 82.9392 1265.47 482.239
1391 0 79.144 11.2327 889 81.937 1265.87 475.593
1392 0 82.2196 12.4423 1023 80.8104 1265.79 477.037
1393 0 85.1239 11.7593 1001 81.958 1265.5 478.421
1394 0 88.1225 12.006 1058 82.0718 1266.24 475.959
1395 0 90.0961 12.7974 1153 81.9454 1266.24 475.366
1396 0 93.1654 11.968 1115 84.7928 1265.97 473.387
1397 0 93.1664 11.0984 1034 87.7621 1266.32 470.275
1398 0 98.2351 12.1749 1196 86.5075 1266.3 471.477
1399 0 102.275 13.4149 1372 85.7937 1265.46 469.308
1400 0 103.305 12.3615 1277 88.3062 1264.9 465.701
1401 1 55.0612 11.3328 624 85.0385 1265.54 489.194
1402 0 59.1856 12.3003 728 82.4712 1264.9 487.166
1403 0 59.0746 10.0551 594 83.83 1265.08 490.842
1404 0 63.1631 11.684 738 84.9038 1264.88 486.202
1405 0 65.1563 11.4033 743 83.7281 1265.37 490.052
1406 0 65.1544 11.5111 750 83.2387 1265.86 488.599
1407 0 67.0998 13.0552 876 82.8858 1265.23 484.231
1408 0 68.0864 11.412 777 86.0785 1265.54 485.019
1409 0 73.134 13.4274 982 83.1578 1265.49 482.865
1410 0 72.106 11.913 859 86.8813 1265.93 484.093
1411 0 75.0515 12.6446 949 94.8156 1265.42 480.073
1412 0 79.101 11.9594 946 95.4915 1266.2 480.44
1413 0 79.173 11.8854 941 94.0117 1265.38 476.018
1414 0 82.0983 12.1562 998 93.7485 1265.31 477.822
1415 0 85.0947 11.6928 995 97.1327 1265.05 477.115
1416 0 85.0869 11.8937 1012 93.3804 1265.18 478.523
1417 0 90.169 11.9997 1082 93.3909 1265.18 476.402
1418 0 91.1048 11.2508 1025 94.1463 1265.18 475.837
1419 0 92.1912 10.8579 1001 98.2318 1264.45 469.911
1420 0 97.1391 12.4358 1208 95.4445 1264.27 468.299
1421 0 99.2794 11.3719 1129 98.8158 1264.91 467.404
1422 0 104.165 13.2098 1376 95.803 1264.31 464.86
1423 0 103.288 12.5378 1295 98.0046 1264.5 465.198
1424 0 108.163 11.6953 1265 99.3937 1264.68 462.215
1425 0 114.35 13.9571 1596 94.849 1264.37 460.248
1426 0 115.266 13.1609 1517 97.9407 1264.65 456.575
1427 0 118.276 13.0796 1547 96.9017 1265.27 457.949
1428 0 124.136 13.9767 1735 93.0455 1265.91 455.912
1429 1 65.1085 12.6251 822 85.0998 1265.51 485.85
1430 0 66.049 11.7489 776 85.2204 1264.74 485.053
1431 0 68.0375 12.7136 865 84.2382 1264.96 481.973
1432 0 71.1352 12.5254 891 87.1594 1264.51 480.972
1433 0 72.084 13.4565 970 85.8526 1264.06 481.213
1434 0 73.1174 10.572 773 91.1539 1264.41 478.814
1435 0 76.0636 12.3844 942 88.225 1264.3 478.46
1436 0 78.0789 12.2825 959 89.0907 1264.17 475.547
1437 0 81.0822 11.1615 905 90.6564 1264.82 476.118
1438 0 83.1162 12.8495 1068 89.1976 1264.35 473.819
1439 0 85.1887 13.3116 1134 92.4083 1264.85 473.231
1440 0 89.0714 11.6536 1038 94.1368 1264.76 474.224
1441 0 91.0716 13.0227 1186 92.129 1265.1 470.402
1442 0 95.1107 12.2594 1166 91.4854 1264.48 472.171
1443 0 97.0994 13.0485 1267 91.0071 1264.38 469.041
1444 0 100.054 13.9824 1399 88.767 1265.07 467.801
1445 0 101.112 13.9153 1407 88.8998 1264.77 466.692
1446 0 105.1 13.844 1455 88.2598 1265.21 465.261
1447 0 106.099 13.4686 1429 90.1337 1264.7 464.275
1448 0 111.097 13.4477 1494 89.419 1264.44 460.271
1449 0 114.16 13.5074 1542 89.2374 1265.09 461.086
1450 0 117.11 13.7477 1610 89.8745 1264.12 456.88
1451 0 122.258 14.0196 1714 89.1289 1265.37 454.379
1452 0 127.367 13.8655 1766 89.3352 1265.33 450.271
1453 0 130.27 13.2571 1727 90.2525 1265.7 448.769
1454 0 135.257 14.2322 1925 88.0104 1265.75 446.082
1455 0 139.305 13.2444 1845 88.6894 1265.66 442.344
1456 0 142.357 12.6443 1800 89.1172 1265.36 445.56
1457 0 147.154 14.0125 2062 86.501 1265.58 444.258
1458 0 153.39 12.5954 1932 88.3887 1265.23 441.827
1459 0 159.367 13.4595 2145 87.649 1265.77 435.255
1460 0 164.233 13.8401 2273 86.9842 1265 436.161
1461 1 91.1133 13.0168 1186 86.4604 1264.26 466.003
1462 0 93.0749 11.8722 1105 87.7213 1264.97 467.091
1463 0 98.1243 12.8918 1265 82.604 1265.82 469.968
1464 0 100.108 13.1658 1318 82.9097 1265.45 468.461
1465 0 100.166 13.4377 1346 83.1731 1264.88 466.562
1466 0 104.119 12.3513 1286 90.6221 1265.15 460.985
1467 0 107.146 13.9155 1491 88.1288 1265.69 460.594
1468 0 112.107 14.2364 1596 86.614 1265.25 459.873
1469 0 115.265 14.9222 1720 83.7808 1265.96 457.349
1470 0 119.131 14.1609 1687 84.4635 1265.34 450.412
1471 0 123.164 13.9976 1724 83.4507 1265.97 453.084
1472 1 65.0226 11.5498 751 84.4794 1266.02 483.402
1473 0 67.0442 13.1406 881 84.8059 1266.24 483.195
1474 0 70.0732 11.5879 812 88.3781 1265.35 480.874
1475 0 73.0616 12.8248 937 86.3917 1265.28 478.258
1476 0 75.0532 14.1366 1061 84.4854 1266.21 475.888
1477 0 75.1251 12.4725 937 87.9445 1265.32 474.171
1478 0 79.2419 12.7332 1009 87.447 1265.7 472.937
1479 0 84.1087 14.2316 1197 84.7193 1265.95 470.514
1480 0 85.2531 14.9672 1276 83.2727 1265.69 470.799
1481 0 87.0901 14.5941 1271 85.0897 1265.46 468.127
1482 0 90.1226 14.103 1271 85.6168 1265.63 467.884
1483 0 91.2263 13.6145 1242 85.6047 1265.95 466.731
1484 0 96.1905 13.2861 1278 85.2512 1265.42 463.818
1485 0 96.0688 11.8873 1142 88.8362 1264.84 463.399
1486 0 100.154 14.2281 1425 85.5228 1264.81 461.095
1487 0 103.25 12.6779 1309 88.1322 1264.96 460.23
1488 0 107.169 14.2952 1532 85.6913 1264.3 458.841
1489 0 109.088 13.1178 1431 87.3641 1264.98 455.241
