time division length width area intensity CMx CMy
0 0 68.0896 12.1605 828 99.6099 1345.35 471.251
1 0 70.0769 12.1866 854 99.9333 1344.66 469.959
2 0 73.2251 13.0556 956 95.6705 1345.04 467.068
3 0 78.1965 14.8088 1158 91.0371 1344.14 464.77
4 0 78.1965 14.8216 1159 135.766 1344.13 464.821
5 0 78.2107 13.7449 1075 95.7777 1344.76 465.239
6 0 80.0861 13.1858 1056 96.6951 1345.43 463.066
7 0 84.2046 12.9684 1092 96.4222 1344.81 463.041
8 0 85.1532 12.225 1041 98.464 1345.16 461.232
9 0 91.0804 18.8076 1713 83.15 1344.21 452.168
10 0 92.1075 13.3431 1229 93.7543 1344.73 458.066
11 0 92.1569 12.4462 1147 96.2964 1344.49 456.154
12 0 95.113 12.2276 1163 93.7283 1346.78 453.343
13 0 99.0517 13.1144 1299 92.0862 1346.62 454.506
14 0 103.161 12.9409 1335 91.9303 1346.18 455.015
15 0 104.151 13.9797 1456 89.8352 1345.9 455.971
16 0 109.134 13.4972 1473 91.2817 1345.72 451.794
17 0 114.188 12.9523 1479 94.1082 1345.44 447.282
18 0 117.197 12.7222 1491 95.3863 1345.97 444.725
19 0 120.15 12.3679 1486 88.5929 1345.88 447.441
20 1 69.106 12.0395 832 90.8245 1345.62 470.976
21 0 69.106 11.9671 827 136.704 1344.65 470.99
22 0 70.081 12.5997 883 91.026 1345.15 467.956
23 0 71.0495 11.6679 829 93.0832 1345.38 467.521
24 0 73.1239 11.8976 870 91.9057 1345.79 467.351
25 0 78.1053 12.1631 950 91.3 1345.69 466.056
26 0 79.1844 12.2751 972 90.8488 1345.48 465.485
27 0 80.0325 12.2825 983 91.3642 1345.4 461.693
28 0 82.15 13.0371 1071 89.7965 1345.36 463.789
29 0 86.1022 11.3586 978 92.3374 1345.94 460.709
30 0 90.1567 13.0994 1181 88.7714 1346.11 456.942
31 0 93.1306 13.3361 1242 88.1739 1346.07 456.253
32 0 96.0999 13.871 1333 86.7929 1346.68 456.156
33 0 95.2898 11.5752 1103 91.8033 1346.59 450.962
34 0 101.154 13.5338 1369 87.7056 1346.31 448.784
35 0 106.254 13.8912 1476 86.3801 1345.68 449.467
36 1 53.0844 10.5869 562 83.637 1346.22 478.05
37 0 55.0347 12.0469 663 81.0633 1345.62 476.787
38 0 57.1262 11.6234 664 79.988 1346.35 475.089
39 0 60.0665 11.5705 695 80.2763 1346.14 473.827
40 0 60.0293 12.5106 751 78.6338 1346.6 471.115
41 0 62.0679 11.7613 730 80.0055 1346.68 471.136
42 0 65.1554 12.4932 814 80.559 1346.08 468.731
43 0 67.0654 13.703 919 78.2231 1346.32 467.28
44 0 71.0679 13.6348 969 79.0402 1346.23 467.976
45 0 72.161 12.0287 868 82.0668 1345.94 469.598
46 0 75.0963 13.0765 982 80.942 1346.33 465.786
47 0 79.1283 12.9031 1021 81.5877 1346.02 466.125
48 0 81.0507 13.9542 1131 80.824 1346.37 463.935
49 0 84.1995 13.7293 1156 81.2085 1346.28 463.294
50 0 87.2139 12.9566 1130 83.8593 1345.46 463.863
51 0 89.0967 11.9309 1063 85 1346.02 461.723
52 0 92.3226 12.3697 1142 86.2618 1345.51 460.591
53 1 49.0874 11.2656 553 87.9873 1345.7 485.08
54 0 48.0381 11.4076 548 91.0839 1345.57 483.418
55 0 50.148 11.0274 553 90.8029 1345.64 484.156
56 0 52.2257 11.8907 621 89.9646 1345.55 483.475
57 0 55.0769 14.1439 779 85.3196 1346.72 479.29
58 0 55.1508 13.6716 754 86.6127 1346.19 478.52
59 0 55.0743 12.6375 696 87.7414 1346.26 479.256
60 0 60.0739 14.4322 867 85.1223 1345.26 470.413
61 0 60.1183 13.2905 799 88.0651 1345.87 467.564
62 0 64.0389 15.3344 982 84.0102 1346.03 465.858
63 0 65.069 13.3243 867 88.6332 1346.4 464.498
64 0 67.0358 13.5748 910 94.0187 1345.88 462.654
65 0 71.0993 14.1633 1007 91.2423 1345.91 463.471
66 0 75.0509 14.2437 1069 91.6352 1345.28 461.471
67 0 75.0712 14.7194 1105 92.0914 1345.81 459.463
68 0 77.0381 13.7854 1062 94.4115 1345.85 460.488
69 0 77.1567 13.6864 1056 95.4451 1345.76 457.882
70 0 81.2906 15.1801 1234 92.1394 1346.12 456.835
71 0 86.1249 14.328 1234 92.8525 1345.28 456.994
72 0 87.2208 13.8614 1209 93.9843 1345.58 455.408
73 0 87.2208 13.8728 1210 151.141 1346.59 455.419
74 0 92.06 13.9257 1282 92.3229 1345.94 451.665
75 0 95.1242 15.5902 1483 88.0775 1345.66 449.746
76 0 101.212 15.5219 1571 86.2673 1345.69 450.067
77 0 100.167 13.0682 1309 90.576 1345.35 447.543
78 0 108.178 15.4652 1673 88.0932 1345.19 441.954
79 0 109.171 13.0621 1426 93.6515 1345.1 440.973
80 1 57.0701 14.158 808 89.1275 1346.52 468.844
81 0 58.0574 14.8646 863 87.5052 1346.64 468.532
82 0 58.1204 13.5753 789 91.4626 1346.25 465.338
83 0 64.145 15.5897 1000 85.727 1345.95 466.482
84 0 64.0657 15.5778 998 85.5882 1346.87 467.126
85 0 66.0387 13.7949 911 90.1328 1345.94 464.461
86 0 68.1228 15.6042 1063 87.1665 1345.73 463.479
87 0 68.0914 13.57 924 92.211 1345.65 462.444
88 0 76.1197 17.6433 1343 81.4229 1345.72 461.226
89 0 76.0634 16.3942 1247 84.7859 1346.13 461.026
90 0 79.1035 20.1002 1590 77.6283 1346.33 458.37
91 0 81.1369 17.0206 1381 82.987 1346.79 460.38
92 0 81.1461 14.3075 1161 89.2145 1345.97 463.88
93 0 86.0384 14.8538 1278 87.928 1345.52 463.088
94 0 88.0997 13.5642 1195 90.0736 1346.22 461.181
95 0 91.0885 13.2069 1203 91.5154 1345.31 457.278
96 0 93.0903 15.1896 1414 88.1231 1345.69 454.568
97 0 92.1936 13.3957 1235 92.4462 1346.11 453.639
98 0 97.122 12.8395 1247 91.931 1346.11 454.651
99 0 102.178 11.3234 1157 88.344 1345.94 452.853
100 0 110.239 12.5091 1379 83.1342 1345.4 451.92
101 0 117.142 13.394 1569 82.1804 1345.19 450.122
102 1 64.1096 12.8218 822 75.0912 1345.24 477.967
103 0 64.1012 10.6862 685 78.2891 1345.38 477.499
104 0 67.0705 12.5092 839 81.9607 1345.72 477.263
105 0 69.1065 11.8513 819 84.1661 1345.27 474.877
106 0 72.169 11.8333 854 83.9005 1345.18 472.727
107 0 74.1574 11.7183 869 84.3636 1345.07 472.754
108 0 75.0727 11.8019 886 85.3205 1345.55 468.299
109 0 78.091 12.2037 953 85.3882 1344.8 469.502
110 0 84.1518 11.8476 997 85.1364 1345.27 468.433
111 0 86.0832 13.2779 1143 83.9746 1345.26 466.671
112 0 89.0911 11.7745 1049 86.1153 1345.72 463.78
113 0 93.1414 12.9373 1205 84.3079 1344.54 460.66
114 0 95.1317 11.7101 1114 86.4479 1344.57 461.651
115 1 49.0646 10.2926 505 81.7782 1344.46 479.822
116 0 53.1058 10.545 560 81.1446 1344.38 483.302
117 0 57.1113 10.6284 607 80.799 1344.62 480.437
118 0 59.0685 12.4093 733 77.6412 1344.95 479.917
119 0 58.122 12.2673 713 78.2188 1344.78 479.202
120 0 59.0692 9.92057 586 82.4846 1344.83 474.42
121 0 59.0794 11.0021 650 81.5708 1344.57 470.486
122 0 64.0729 11.7991 756 80.1402 1344.5 469.48
123 0 68.0776 12.5445 854 77.7752 1344.49 470.836
124 0 69.0683 11.2208 775 79.6761 1343.63 472.143
125 0 72.1308 11.4237 824 79.7464 1344.33 468.166
126 0 75.1294 10.5285 791 80.7838 1344 467.753
127 0 73.1351 9.81745 718 83.851 1344.06 461.471
128 0 76.2371 13.6416 1040 77.5356 1345.06 459.677
129 0 84.1264 10.924 919 81.6997 1343.82 460.69
130 0 83.1212 11.8502 985 81.2883 1344.69 457.907
131 0 88.0983 11.3283 998 82.4228 1344.62 454.933
132 0 90.1156 12.6171 1137 80.6763 1344.33 456.93
133 0 92.3296 10.4192 962 84.7775 1344.16 452.223
134 0 101.211 12.4788 1263 80.0784 1343.81 456.873
135 0 104.124 10.0745 1049 84.2974 1344.36 448.256
136 0 104.135 11.4179 1189 83.0387 1344.53 449.784
137 1 57.0742 9.05838 517 74.6634 1344.11 481.224
138 0 59.0376 10.7389 634 67.7902 1343.79 476.377
139 0 58.0634 8.57683 498 70.7048 1343.89 475.351
140 0 61.0602 9.89188 604 68.4023 1344.02 472.889
141 0 67.1381 9.01128 605 69.762 1343.71 472.64
142 0 66.0972 7.61001 503 71.0457 1344.14 465.903
143 0 70.0539 8.66476 607 70.5288 1343.84 470.55
144 0 71.0683 7.62647 542 70.2214 1344.99 469.391
145 0 73.1365 10.2138 747 68.0857 1344.12 465.651
146 0 76.1042 10.1177 770 68.1857 1344.04 465.819
147 0 81.0764 9.05319 734 69.8787 1343.71 466.247
148 0 88.2425 12.7036 1121 65.8475 1344.22 462.381
149 0 89.04 11.0063 980 68.9867 1343.61 460.101
150 0 94.1099 9.19138 865 71.0208 1344.17 459.947
151 1 49.146 10.54 518 71.749 1344.29 484.819
152 0 50.1978 8.02824 403 75.7221 1345.15 479.754
153 0 51.0366 8.58207 438 76.1621 1344.25 477.5
154 0 52.1021 8.52173 444 75.6937 1343.44 480.489
155 0 56.0352 8.38759 470 75.9043 1343.75 475.791
156 0 57.0574 8.46516 483 75.8716 1343.65 476.12
157 0 62.0625 9.00706 559 75.0859 1343.6 474.814
158 0 61.0446 9.35382 571 74.3503 1343.38 475.331
159 1 115.264 10.1246 1167 76.6641 1343.46 448.604
160 0 118.256 9.52174 1126 77.5577 1343.5 449.516
161 0 125.198 8.87396 1111 78.9451 1344.1 444.786
162 0 128.21 7.76069 995 79.5166 1343.27 447.664
163 0 132.182 8.7758 1160 79.2121 1342.42 444.354
164 0 135.106 6.69106 904 81.2389 1342.47 444.616
165 1 73.0498 10.6092 775 74.3432 1343.21 468.249
166 0 76.2314 8.56603 653 78.2481 1342.38 465.511
167 1 149.128 10.2597 1530 77.8105 1343.32 437.907
168 0 153.237 9.87358 1513 80.6649 1343.36 422.997
169 1 83.0894 10.1577 844 77.487 1342.61 463.142
170 0 79.0682 7.71486 610 81.0262 1342.62 454.102
171 0 82.0496 9.29926 763 78.7785 1342.64 455.543
172 0 90.1387 11.5711 1043 76.0518 1342.59 454.757
173 0 92.2088 10.2268 943 77.3383 1342.78 453.884
174 0 97.235 11.6213 1130 74.9345 1343.21 454.196
175 0 99.3035 8.53947 848 80.8078 1343.75 451.449
176 0 101.176 8.1146 821 83.4287 1343.47 443.861
177 1 49.1067 5.9666 293 73.4369 1344.18 475.706
178 0 53.1554 10.5351 560 68.1929 1343.91 481.182
179 0 49.0359 7.40274 363 72.1129 1344.62 475.471
180 0 48.1426 7.9763 384 74.5885 1344.62 473.544
181 0 50.0527 7.95162 398 75.7211 1344.97 470.455
182 0 54.0791 8.3951 454 81.0859 1344.83 469.692
183 0 55.0785 9.71341 535 78.9869 1344.8 472.002
184 0 55.0789 10.494 578 78.7855 1344.59 470.728
185 0 59.2222 9.20264 545 79.5119 1344.43 472.429
186 0 59.0669 9.51463 562 80.306 1344.66 467.637
187 0 60.0425 10.2594 616 79.6396 1344.8 466.38
188 0 66.0808 8.91332 589 81.2343 1344.21 464.83
189 0 66.0597 9.27949 613 79.2675 1344.81 471.625
190 0 68.1417 9.17206 625 80.8544 1344.38 467.869
191 0 70.331 9.45529 665 81.403 1344.51 467.074
192 0 78.1958 11.3305 886 78.0305 1343.91 465.13
193 0 80.0903 10.8752 871 78.8117 1343.31 465.021
194 0 79.156 9.6771 766 82.5653 1343.25 462.142
195 0 85.1908 10.3298 880 81.0523 1343.76 461.277
196 0 88.2119 10.8375 956 80.2918 1342.73 461.074
197 0 88.3729 10.4444 923 82.1365 1343.54 459.189
198 0 94.1131 11.1355 1048 80.5363 1343.17 458.704
199 0 97.1792 11.7515 1142 80.4536 1342.89 457.366
200 0 98.1455 12.8381 1260 78.8532 1343.28 457.094
201 0 103.151 11.3329 1169 81.5038 1342.47 455.459
202 0 108.239 10.7077 1159 82.2744 1343.5 454.826
203 0 109.192 11.7866 1287 81.8951 1343.79 453.964
204 0 114.111 11.5852 1322 83.708 1344.14 446.63
205 1 58.0655 9.12762 530 73.9113 1343.62 475.464
206 0 62.0737 11.4219 709 69.7955 1344.17 478.989
207 0 63.1117 11.2024 707 70.4894 1344.54 476.516
208 0 66.0974 13.6919 905 67.8983 1344.18 472.94
209 0 66.0892 12.0443 796 70.4284 1344.16 474.08
210 0 71.236 10.402 741 73.054 1343.95 470.923
211 0 73.1487 11.8116 864 71.6586 1344.44 470.999
212 0 74.1446 11.9901 889 72.5861 1344.2 467.922
213 0 75.1448 11.2583 846 74.7861 1344.65 467.494
214 0 76.093 9.85636 750 77.208 1344.23 464.936
215 0 81.0989 10.9619 889 75.7818 1344.99 463.069
216 0 85.2685 10.5901 903 76.7065 1344.9 463.674
217 0 85.151 11.2154 955 75.0545 1345.41 462.486
218 0 86.196 10.1281 873 77.9576 1344.44 456.489
219 0 94.0849 10.6287 1000 77.493 1343.91 458.593
220 0 96.1633 11.9068 1145 75.8987 1343.88 456.92
221 0 99.1043 13.1377 1302 76.01 1343.92 456.398
222 0 102.303 12.5119 1280 82.4875 1344.11 456.767
223 0 103.203 13.4201 1385 86.0823 1343.46 456.03
224 0 106.245 12.8383 1364 87.879 1343.78 450.362
225 1 55.1932 11.8674 655 88.9145 1344.27 475.177
226 0 60.1229 12.1584 731 87.5581 1343.87 475.358
227 0 56.0305 10.7263 601 92.6389 1343.69 471.131
228 0 63.1028 11.1247 702 90.1154 1343.6 469.813
229 0 66.0759 11.169 738 89.9295 1343.12 470.595
230 0 71.1143 13.2463 942 85.3408 1343.42 468.059
231 0 70.0969 11.156 782 90.3657 1343.92 468.197
232 0 73.2366 11.6199 851 89.7344 1344.09 466.739
233 0 74.1087 11.9284 884 89.8846 1343.91 466.454
234 0 79.1037 12.5784 995 88.0432 1344.1 465.252
235 0 79.0988 12.5539 993 89.6304 1343.54 465.012
236 0 86.1541 13.2901 1145 86.9188 1344.53 464.547
237 0 86.0967 13.0783 1126 88.2886 1343.8 462.963
238 0 90.2518 13.4402 1213 87.343 1344 463.188
239 0 91.201 13.2126 1205 89.4382 1343.73 458.323
240 0 96.1542 13.8944 1336 89.0427 1343.69 461.63
241 0 97.159 13.8639 1347 90.2747 1343.83 458.364
242 1 49.0583 9.31544 457 86.6543 1344.29 481.298
243 0 51.0601 10.8891 556 84.6385 1344.15 481.277
244 0 56.0701 11.8067 662 84.6737 1343.84 481.521
245 0 57.0904 11.0526 631 86.3249 1344.93 478.312
246 0 60.0718 13.6004 817 81.5692 1344.48 477.936
247 0 61.0754 11.5431 705 84.2355 1344.19 479.54
248 0 65.059 12.9114 840 82.3345 1344.53 476.918
249 0 64.0325 11.0725 709 86.8251 1344.48 474.707
250 0 65.0626 12.0038 781 85.4443 1345.09 472.793
251 0 71.0561 10.8506 771 85.4851 1344.45 474.796
252 0 71.0575 10.4141 740 88.3811 1344.01 470.093
253 0 74.0415 12.2634 908 85.0496 1343.68 472.061
254 0 73.1111 11.6945 855 86.3053 1343.69 468.857
255 0 79.0457 12.9545 1024 83.6094 1343.78 468.759
256 0 82.1353 12.5768 1033 83.6486 1343.36 467.995
257 0 81.1301 11.574 939 86.574 1343.71 462.428
258 0 86.2595 12.5667 1084 85.1928 1343.73 458.586
259 0 88.1299 11.8688 1046 88.6004 1342.9 458.941
260 0 93.0751 12.2589 1141 87.4312 1343.73 456.963
261 0 94.271 13.143 1239 85.5755 1344.31 456.087
262 0 97.0817 13.0509 1267 86.5004 1343.89 454.372
263 0 100.091 11.4396 1145 88.3712 1343.89 448.75
264 0 102.18 11.421 1167 89.0514 1343.55 453.091
265 0 106.1 10.3393 1097 77.7384 1344.44 458.059
266 0 104.092 10.0681 1048 85.5429 1343.33 449.033
267 1 56.0279 10.3163 578 82.7076 1344.22 475.837
268 0 57.0457 12.7442 727 78.4814 1344.13 475.063
269 0 58.0458 9.57864 556 84.2878 1343.62 474.567
270 0 59.2671 10.6636 632 76.4367 1343.65 474.047
271 0 65.1582 10.0985 658 80.4909 1343.63 470.64
272 0 66.0678 10.2016 674 81.9822 1343 469.217
273 0 65.1179 9.59798 625 83.8944 1343.38 465.683
274 0 70.1216 11.8366 830 79.1988 1343.94 465.234
275 0 74.0689 9.50467 704 82.2855 1343.85 464.009
276 0 76.199 9.39645 716 81.6969 1344.66 460.933
277 0 83.0336 9.56239 794 81.1877 1344.16 461.545
278 0 87.1276 11.2708 982 77.6914 1343.58 462.267
279 0 91.177 10.3206 941 78.7279 1344.79 457.942
280 0 95.2965 11.4905 1095 76.0475 1344.24 462.056
281 0 97.1397 9.07971 882 78.5193 1343.99 461.467
282 0 99.2287 12.4158 1232 74.7955 1343.47 458.598
283 0 104.112 12.3137 1282 74.5889 1344.64 456.996
284 0 104.112 12.3137 1282 130.874 1346.64 456.998
285 1 57.0812 8.8996 508 69.4055 1344.6 480.201
286 0 60.2162 9.73161 586 69.0358 1344.36 478.259
287 0 58.0438 6.78798 394 72.9137 1343.37 479.69
288 0 63.0791 9.4326 595 69.684 1343.93 479.106
289 0 66.1777 11.6656 772 68.4715 1344.12 476.165
290 0 68.1368 9.75977 665 70.4511 1344.18 473.838
291 0 72.1777 12.012 867 68.3449 1344.24 472.77
292 0 76.0544 10.9132 830 69.6867 1343.73 474.135
293 0 76.1907 9.4631 721 73.6755 1343.81 468.48
294 0 79.1063 11.238 889 71.315 1343.72 471.426
295 0 80.0871 11.7997 945 73.1228 1343.41 467.204
296 0 88.1061 11.6337 1025 74.7668 1342.6 461.517
297 0 89.1284 14.1706 1263 71.4743 1343.03 462.296
298 0 90.1024 12.7522 1149 73.5431 1343.09 464.67
299 0 94.2153 13.692 1290 72.6442 1343.16 463.716
300 0 96.2682 12.2678 1181 75.3108 1344.33 457.834
301 0 100.167 14.6456 1467 71.8071 1344.23 458.827
302 0 102.241 9.96663 1019 79.3454 1343.77 454.048
303 0 105.414 11.3552 1197 77.4211 1343.57 454.115
304 0 109.213 11.3814 1243 76.8874 1343.95 454.385
305 0 114.329 10.9771 1255 78.7283 1343.15 450.213
306 0 118.155 11.3918 1346 77.9993 1343.29 450.877
307 1 60.0671 8.80682 529 76.9206 1343.58 479.318
308 0 61.2504 11.2652 690 71.2754 1344.33 476.381
309 0 63.0877 11.6822 737 71.2972 1343.97 476.141
310 0 67.0812 10.8674 729 72.1372 1343.69 475.379
311 0 66.1222 10.5108 695 73.5094 1343.77 473.64
312 0 71.1248 10.3902 739 73.2449 1343.92 475.15
313 0 73.1452 11.8531 867 71.9066 1344.42 473.384
314 0 74.086 10.8927 807 74.8203 1344.82 469.803
315 0 76.0969 12.4578 948 74.4473 1344.22 471.095
316 0 80.2312 12.9127 1036 73.6371 1344.58 468.755
317 0 82.1775 9.61334 790 78.9987 1344.12 467.792
318 0 86.1304 13.6653 1177 73.328 1344.69 465.912
319 0 88.1064 11.2137 988 76.1619 1344.94 467.234
320 0 89.1896 10.3151 920 78.1413 1344.9 464.72
321 0 92.1577 12.2399 1128 76.7739 1344.32 458.745
322 0 97.1507 12.0946 1175 76.1149 1344.63 461.828
323 0 98.1463 11.1466 1094 77.2112 1344.23 462.397
324 0 99.1704 12.4029 1230 77.2431 1344.39 457.401
325 0 104.179 11.365 1184 77.2314 1345.01 458.47
326 0 108.202 13.0497 1412 74.9887 1344.69 455.873
327 0 110.218 11.4773 1265 77.3375 1345.12 453.957
328 0 115.192 12.7873 1473 74.6314 1345.33 455.033
329 0 116.136 11.3574 1319 77.9492 1345.11 449.462
330 1 61.0351 9.65019 589 71.1647 1345.59 479.093
331 0 64.1446 9.47858 608 71.1661 1344.75 478.867
332 0 66.0679 12.3207 814 74.2899 1344.56 468.152
333 0 68.119 9.89445 674 75.6677 1344.81 467.457
334 0 69.0816 10.5383 728 71.8544 1344.68 473.496
335 0 71.1671 11.2693 802 70.404 1344.59 472.901
336 0 73.2238 9.66898 708 73.8503 1345.18 465.384
337 0 77.2177 9.25954 715 74.7497 1345.11 466.62
338 0 80.3406 11.8993 956 69.5795 1344.9 472.032
339 0 82.1369 11.0912 911 71.2404 1344.81 467.102
340 0 86.13 10.5074 905 72.4331 1344.23 467.52
341 0 86.2055 8.82774 761 76.293 1344.36 458.938
342 0 91.158 9.26962 845 75.3609 1344.45 461.28
343 0 95.0666 11.8023 1122 73.664 1344 456.163
344 0 102.204 15.0386 1537 68.5621 1344.24 454.509
345 0 101.126 12.4992 1264 74.4921 1344.35 453.551
346 0 104.214 12.4935 1302 75.1674 1344.67 449.526
347 0 110.15 12.1925 1343 74.6054 1344.84 451.301
348 0 112.126 11.9508 1340 74.85 1344.6 449.77
349 0 117.158 12.9484 1517 71.8392 1344.03 450.018
350 1 61.1635 11.8208 723 67.2642 1344.06 476.64
351 0 64.0798 11.4857 736 74.8981 1343.81 474.842
352 0 62.0669 9.36086 581 78.4423 1343.9 472.929
353 0 69.1096 12.4874 863 73.2955 1343.79 472.929
354 0 70.1017 11.1695 783 76.249 1343.59 469.764
355 0 74.1166 13.02 965 72.9451 1344.37 470.999
356 0 77.103 13.3328 1028 73.036 1343.92 471.136
357 0 80.0786 12.6626 1014 74.1548 1343.64 468.153
358 0 81.1567 10.7693 874 76.6201 1343.8 466.539
359 0 85.124 12.7344 1084 74.536 1343.59 465.679
360 0 87.2131 12.2344 1067 75.2577 1344.38 463.515
361 0 93.0599 13.8728 1291 73.5662 1343.73 462.946
362 0 94.1181 13.3662 1258 74.7067 1344.74 462.637
363 0 97.1234 14.6103 1419 73.7569 1344.37 462.316
364 0 101.192 13.6967 1386 76.4098 1343.74 460.24
365 0 105.065 12.6207 1326 78.0807 1343.75 455.253
366 0 109.195 14.8267 1619 74.8678 1344.01 455.393
367 1 54.0439 10.8245 585 77.8872 1343.37 480.017
368 0 58.09 11.7232 681 76.4185 1344.51 479.692
369 0 59.1817 12.5714 744 74.4489 1344.35 478.964
370 0 60.0984 11.5977 697 70.5983 1344.26 478.379
371 0 62.0773 13.6443 847 68.9965 1344.33 478.39
372 0 65.1113 13.93 907 68.9768 1344.24 476.288
373 0 68.0264 14.171 964 69.5415 1343.66 475.68
374 0 71.1087 11.9817 852 72.5704 1343.72 476.32
375 0 73.1496 13.5476 991 71.2967 1344.34 471.803
376 0 75.074 14.7854 1110 70.9117 1344.2 470.807
377 0 78.0907 13.9453 1089 75.0432 1344.52 463.066
378 0 79.1503 14.1629 1121 75.5013 1344.47 464.821
379 0 81.1944 14.4222 1171 75.0333 1344.22 464.931
380 0 86.0461 15.5498 1338 72.7593 1344.74 467.951
381 0 88.162 14.8703 1311 74.762 1344.3 465.256
382 0 90.1413 16.463 1484 72.6887 1344.41 465.47
383 0 94.0762 14.839 1396 75.866 1344.31 462.508
384 0 95.1518 13.2105 1257 79.1535 1344.23 460.692
385 0 100.088 16.1558 1617 74.2066 1344.61 457.628
386 0 103.205 17.1989 1775 73.178 1344.15 457.908
387 0 106.169 14.5052 1540 76.4656 1344.27 456.438
388 1 55.034 11.9017 655 80.5863 1344.73 478.876
389 0 57.1038 12.416 709 75.0028 1344.46 479.766
390 0 58.0648 12.7444 740 75.8622 1343.86 475.973
391 0 60.0861 13.9966 841 74.069 1344.12 476.805
392 0 65.0697 12.9246 841 76.3734 1343.84 474.944
393 0 61.0631 11.4799 701 79.9715 1343.96 478.92
394 0 63.173 11.144 704 81.2628 1343.7 477.362
395 0 69.132 13.4815 932 77.5322 1344.45 474.927
396 0 70.1831 10.7861 757 82.3289 1343.68 474.618
397 0 74.1378 12.9623 961 79.1426 1344.27 472.132
398 0 76.16 13.0121 991 79.9627 1343.92 469.429
399 0 78.0882 12.1145 946 81.3552 1343.47 468.41
400 0 80.1382 11.6174 931 82.4672 1343.24 464.946
401 0 85.115 11.7723 1002 80.3623 1343.63 466.552
402 0 87.1183 13.0397 1136 79.1303 1343.74 460.864
403 1 47.132 12.8151 604 79.255 1343.81 481.798
404 0 48.1451 11.5277 555 80.0649 1344.5 482.258
405 0 52.0801 11.6743 608 78.6891 1344.54 481.352
406 0 53.096 13.598 722 76.9155 1343.71 477.943
407 0 53.0343 13.2744 704 76.6264 1344.08 479.472
408 0 54.0623 13.2255 715 77.6755 1344.04 476.441
409 0 56.0455 13.7567 771 77.1258 1343.59 478.585
410 0 59.0703 14.0849 832 76.2644 1343.46 475.688
411 0 62.1261 15.05 935 74.1572 1343.56 475.913
412 0 63.1148 13.8953 877 76.6488 1343.74 473.038
413 0 68.2092 14.5581 993 74.0201 1344.19 474.625
414 0 68.2488 13.4068 915 76.8492 1344.19 475.152
415 0 69.1201 11.8634 820 80.3634 1343.52 468.783
416 0 72.2035 12.9218 933 78.5766 1343.99 469.693
417 0 75.1342 17.1027 1285 72.0319 1344.15 471.914
418 0 77.1348 13.5347 1044 78.683 1343.55 469.298
419 0 79.0467 13.4477 1063 79.8457 1343.57 466.449
420 0 82.1089 14.1154 1159 78.5971 1343.32 464.984
421 0 82.1932 14.0644 1156 80.1393 1343.41 462.577
422 0 85.3975 14.3798 1228 79.8534 1343.22 460.813
423 0 88.0873 13.9861 1232 80.4578 1343.63 457.748
424 0 94.1355 16.6462 1567 75.9655 1343.91 459.38
425 0 94.1832 14.2701 1344 80.6414 1344.01 456.286
426 0 94.1704 13.7517 1295 82.9375 1343.95 456.407
427 0 99.2178 14.8461 1473 82.1066 1343.7 453.817
428 0 100.313 14.8136 1486 83.1548 1343.59 452.369
429 0 104.243 12.3749 1290 87.031 1343.54 454.233
430 0 110.132 14.982 1650 82.92 1343.34 450.035
431 0 111.139 13.1997 1467 86.1193 1343.68 453.425
432 0 119.205 13.9423 1662 85.13 1343.78 450.146
433 1 66.12 11.827 782 87.6253 1343.16 474.62
434 0 68.1564 11.1508 760 88.5855 1344.13 475.167
435 0 68.0426 12.9478 881 88.4404 1343.47 470.689
436 0 74.0879 12.0803 895 90.6056 1343.66 469.874
437 0 76.1003 14.6911 1118 85.8569 1343.77 468.267
438 0 79.0961 14.0841 1114 87.7118 1343.29 466.807
439 0 84.1405 13.5725 1142 88.0009 1344 464.378
440 0 87.1285 14.7368 1284 86.007 1343.46 462.88
441 0 87.1309 13.7724 1200 88.5808 1343.64 461.338
442 0 91.3125 14.4339 1318 86.6115 1344.22 459.556
443 0 93.0536 13.5191 1258 89.3744 1344.24 456.715
444 0 100.135 15.8586 1588 83.954 1344.18 453.977
445 0 102.144 15.1061 1543 85.1504 1343.72 453.51
446 0 105.289 14.6834 1546 85.7083 1344.01 453.952
447 0 107.15 13.3458 1430 89.0643 1344.85 449.793
448 0 112.22 14.1776 1591 88.2464 1343.71 445.921
449 1 57.0387 11.238 641 83.9938 1344.32 477.318
450 0 60.1403 10.7415 646 85.935 1344.36 471.904
451 0 61.0436 12.0733 737 83.2347 1344.38 472.25
452 0 66.1051 10.7859 713 83.0196 1343.99 475.431
453 0 66.1797 11.1666 739 83.3261 1343.78 474.313
454 0 69.0656 12.2782 848 82.2099 1343.47 473.029
455 0 69.0631 13.0316 900 81.1589 1344 473.424
456 0 73.0604 11.9216 871 83.3571 1343.53 471.522
457 0 76.1101 13.1389 1000 82.467 1343.94 467.331
458 0 78.1307 12.3255 963 83.1049 1344.38 466.497
459 0 81.2877 12.9909 1056 82.9934 1344.36 463.048
460 0 82.1117 11.594 952 86.7437 1343.88 460.221
461 0 87.2401 11.795 1029 86.2741 1343.54 462.472
462 0 91.1414 13.7588 1254 82.8317 1343.75 460.332
463 0 92.113 13.1795 1214 84.8476 1343.97 458.1
464 0 95.1308 13.3711 1272 84.7123 1343.17 455.7
465 0 100.128 11.725 1174 86.9634 1343.08 455.187
466 0 101.185 11.5135 1165 88.3082 1343.68 453.451
467 0 105.154 12.4579 1310 86.3061 1343.15 450.747
468 0 112.38 13.9615 1569 83.0943 1343.3 448.795
469 0 115.196 13.5248 1558 84.4512 1342.52 444.883
470 1 68.0545 10.9177 743 84.3109 1342.82 472.731
471 0 66.1423 11.0368 730 86.2384 1342.71 469.26
472 0 70.0793 12.1149 849 79.7797 1343.16 471.264
473 0 73.2323 12.7266 932 80.0891 1343.23 471.618
474 0 72.0844 12.2495 883 82.3148 1343.69 470.159
475 0 76.1558 11.831 901 82.8768 1343.19 470.094
476 0 81.0918 12.3317 1000 81.508 1343.2 467.267
477 0 80.0609 10.5045 841 86.2045 1342.71 463.958
478 0 86.1388 12.3173 1061 81.5806 1342.51 467.484
479 0 90.2739 11.8861 1073 82.2237 1342.94 465.071
480 0 92.1711 11.7716 1085 84.0553 1342.75 459.996
481 0 92.2334 10.9613 1011 85.5549 1342.99 457.936
482 0 96.1371 12.3261 1185 83.1426 1343.56 455.241
483 0 100.093 10.2704 1028 86.9329 1342.99 453.857
484 0 100.112 10.5182 1053 86.0836 1343.31 454.463
485 0 108.177 12.8401 1389 82.3564 1343.05 450.691
486 0 113.077 12.213 1381 82.6256 1343.52 448.971
487 0 122.148 13.4509 1643 80.6841 1343.23 445.083
488 0 128.235 12.8436 1647 81.1943 1342.89 450.662
489 0 131.214 12.3843 1625 78.7286 1342.58 447.453
490 1 70.0558 7.40838 519 79.262 1343.03 475.952
491 0 69.0898 10.1607 702 79.4843 1343.07 468.959
492 0 75.1362 10.2347 769 78.3225 1342.86 469.525
493 0 83.142 11.7871 980 74.8673 1342.76 468.984
494 0 85.1264 10.2671 874 76.016 1343.37 472.239
495 0 85.1331 9.65547 822 78.983 1342.63 468.316
496 0 88.1303 10.2916 907 78.3738 1343.29 464.212
497 0 91.1126 10.0645 917 78.169 1343.46 463.304
498 0 99.1258 9.87634 979 76.0368 1343.27 464.632
499 0 99.1214 9.43288 935 78.0439 1343.67 461.27
500 0 105.167 11.458 1205 76.8863 1342.98 455.962
501 0 107.099 11.7461 1258 76.8839 1343.38 455.32
502 0 110.189 9.87398 1088 79.5147 1343.28 455.08
503 0 116.091 12.206 1417 77.6112 1343.36 449.24
504 0 120.212 13.4513 1617 77.2294 1343.48 450.873
505 0 122.193 12.6112 1541 80.7748 1343.23 448.333
506 0 122.233 12.3453 1509 81.4877 1344.06 446.486
507 1 62.2127 12.3769 770 82.1182 1343.71 467.688
508 0 65.0954 9.70883 632 85.2373 1344.26 469.046
509 0 65.1089 10.6898 696 74.9555 1344.18 473.356
510 0 69.1967 11.6913 809 73.5847 1344.36 473.515
511 0 71.2031 10.5332 750 76.3067 1343.99 472.133
512 0 73.1021 10.1912 745 76.9007 1344.16 466.205
513 0 76.1472 10.9656 835 76.4431 1344.03 467.434
514 0 75.1285 11.4604 861 77.2416 1344.57 467.826
515 0 77.1558 12.896 995 76.3769 1344.39 466.87
516 0 77.1776 11.7003 903 81.1185 1343.69 459.997
517 0 82.0452 10.2383 840 83.6202 1343.74 463.551
518 0 86.1192 14.6193 1259 77.3074 1343.37 460.799
519 0 90.1362 14.3339 1292 80.1409 1344 456.398
520 0 92.0773 13.6516 1257 81.7255 1343.81 453.617
521 0 93.0828 14.1702 1319 80.9575 1343.75 456.341
522 0 98.2267 12.3592 1214 84.7364 1343.23 457.101
523 0 101.081 14.3845 1454 80.9904 1342.65 458.35
524 0 99.105 12.966 1285 85.337 1343.35 455.006
525 0 102.134 13.2277 1351 85.6321 1343.53 452.285
526 0 102.136 10.4371 1066 90.9475 1343.62 452.775
527 0 106.075 12.7835 1356 87.0597 1342.85 452.404
528 0 109.192 13.1694 1438 86.2747 1342.66 449.616
529 0 113.105 11.9623 1353 88.0769 1342.7 445.893
530 0 113.377 12.4188 1408 87.7372 1342.38 443.464
531 0 114.166 12.2453 1398 88.0916 1343.18 438.098
532 0 124.202 12.6568 1572 85.3556 1343.03 440.77
533 0 128.159 11.751 1506 87.5458 1342.67 436.15
534 0 131.095 12.51 1640 87.3933 1342.04 431.968
535 1 76.0939 10.7499 818 85.8521 1342.24 463.537
536 0 76.0745 10.0165 762 88.0932 1342.43 461.1
537 0 82.1564 13.5717 1115 80.8242 1343.08 461.835
538 0 85.1366 12.3801 1054 83.0038 1343.15 456.074
539 0 85.2176 12.4387 1060 82.8962 1343.23 457.715
540 0 89.107 14.0505 1252 78.8323 1343.54 459.381
541 0 93.144 12.1962 1136 78.8002 1343.25 463.401
542 0 94.153 12.5434 1181 79.1109 1343.15 460.944
543 0 97.1576 15.3256 1489 74.7186 1343.87 458.617
544 0 99.1472 12.9504 1284 78.8372 1343.72 455.404
545 0 103.092 12.6004 1299 79.3102 1343.83 456.003
546 0 102.233 12.139 1241 80.8171 1343.99 453.168
547 0 106.182 11.7251 1245 82.4225 1343.5 446.979
548 0 111.142 12.4165 1380 81.3261 1343.04 445.112
549 0 114.059 14.3873 1641 78.2803 1343.32 446.419
550 0 118.248 13.5055 1597 80.2918 1343.32 442.441
551 0 122.166 15.8228 1933 76.9405 1343.23 438.246
552 0 125.147 13.7998 1727 80.2125 1343.34 436.217
553 0 130.139 13.4856 1755 81.1111 1343.42 435.843
554 0 135.199 14.2752 1930 79.6725 1343.74 434.597
555 0 142.285 14.5201 2066 76.8509 1343.91 430.854
556 0 145.12 14.0297 2036 80.2628 1344.34 429.961
557 1 77.2675 10.8972 842 83.3848 1344.32 462.356
558 0 77.1794 11.8684 916 79.1386 1344.59 460.432
559 0 81.1799 12.9835 1054 78.4991 1344.28 467.121
560 0 84.1404 13.5963 1144 79.1066 1344.32 462.548
561 0 83.1757 10.7964 898 83.9076 1344.08 465.566
562 0 82.0809 11.6227 954 85.0797 1344.19 463.08
563 0 84.115 12.9466 1089 84.1892 1343.78 463.229
564 0 88.1365 12.2991 1084 85.4917 1343.46 463.081
565 0 90.0598 14.1795 1277 80.8583 1343.62 465.882
566 0 92.1547 12.6092 1162 82.7031 1343.15 463.094
567 0 96.2009 13.8876 1336 79.8466 1342.99 460.53
568 0 102.249 12.5575 1284 80.0849 1343 460.732
569 0 104.086 14.6226 1522 76.1222 1342.9 458.706
570 0 102.279 10.53 1077 80.7892 1342.71 461.757
571 0 107.273 11.5779 1242 79.0491 1343.46 451.598
572 0 112.381 11.3809 1279 78.6028 1342.69 457.734
573 0 113.104 10.5301 1191 81.649 1343.68 451.341
574 1 61.1244 9.89785 605 74.8959 1343.45 480.134
575 0 60.1933 8.40625 506 76.9387 1342.41 474.69
576 0 59.1771 6.82697 404 81.75 1342.02 473.193
577 0 64.085 11.2351 720 75.0792 1342.53 476.94
578 0 65.0763 9.77314 636 78.2374 1342.46 473.535
579 0 69.1506 8.37303 579 81.2729 1342.09 473.252
580 0 70.1988 7.8064 548 83.4562 1343.01 470.376
581 0 72.0935 8.00349 577 84.7227 1343.54 470.113
582 0 76.1289 8.53815 650 83.9477 1343.56 469.886
583 0 77.1633 8.99392 694 83.9928 1343.33 471.278
584 0 81.085 10.8281 878 82.1196 1342.77 473.825
585 0 84.0603 10.9445 920 82.863 1342.34 472.899
586 0 85.217 11.4296 974 84.1222 1342.34 468.853
587 0 84.1621 11.1689 940 85.9138 1342.77 467.997
588 0 87.078 11.0705 964 88.527 1342.43 463.821
589 0 86.1271 8.73128 752 94.2593 1343.03 462.418
590 0 95.1621 11.4857 1093 88.5618 1342.88 465.935
591 0 95.2215 10.7329 1022 92.1781 1343.35 461.31
592 0 97.1342 9.79058 951 94.4848 1342.66 460.065
593 0 98.1688 9.83 965 95.4342 1343.02 454.403
594 0 103.273 10.6126 1096 92.7984 1342.97 457.566
595 0 104.148 9.9666 1038 94.6397 1343.01 457.209
596 0 110.176 11.1095 1224 93.2672 1343.16 456.656
597 0 112.096 10.9281 1225 94.6841 1342.64 453.649
598 0 114.151 11.7738 1344 94.2188 1342.66 450.794
599 0 120.402 11.7606 1416 95.3983 1342.01 448.415
600 0 124.248 13.0626 1623 92.0869 1342.57 449.203
601 0 129.194 12.8257 1657 93.061 1342.04 446.71
602 1 69.0688 10.0914 697 84.4806 1341.91 478.469
603 0 70.1617 10.8464 761 84.8305 1342.17 476.3
604 0 71.0573 9.30235 661 89.9985 1343.87 471.844
605 0 77.2403 10.6162 820 86.9598 1342.56 475.277
606 0 77.2015 10.0257 774 89.2519 1343.1 471.66
607 0 81.11 10.3686 841 88.3044 1343.45 469.484
608 0 85.1554 12.5065 1065 85.1906 1342.34 469.603
609 0 86.0994 11.359 978 87.7628 1342.42 466.961
610 0 89.1817 10.7197 956 88.6151 1341.81 467.027
611 0 92.0993 11.455 1055 88.4559 1341.83 463.838
612 0 95.2294 10.8685 1035 89.9285 1342.43 460.962
613 0 97.1487 10.6332 1033 91.1965 1342.42 461.389
614 0 104.147 12.6264 1315 87.7627 1342.87 456.75
615 0 103.085 9.63281 993 94.286 1342.42 455.234
616 0 108.327 10.9483 1186 92.3078 1342.55 455.528
617 0 112.184 11.4722 1287 90.5299 1342.62 458.459
618 1 63.0758 9.41725 594 85.968 1341.96 480.172
619 0 65.1005 10.7219 698 84.1633 1343.03 479.666
620 0 68.0831 10.9131 743 83.7685 1342.11 480.121
621 0 68.0746 11.0467 752 84.137 1342.14 478.465
622 0 75.126 11.0614 831 83.0722 1342.47 476.274
623 0 76.2728 11.0131 840 83.6286 1342.49 474.088
624 0 78.0834 10.5656 825 83.9842 1341.95 474.411
625 0 80.1309 9.5344 764 86.0733 1340.94 470.572
626 0 83.2101 11.7894 981 80.2467 1341.78 471.219
627 0 87.2309 12.0256 1049 80.286 1340.68 470.305
628 0 90.2577 12.1873 1100 79.0291 1341.27 471.133
629 0 92.0634 11.0033 1013 82.7088 1341.17 464.389
630 0 94.1373 12.503 1177 80.2872 1341.27 463.468
631 0 97.1207 11.5835 1125 81.9111 1341.75 460.856
632 0 101.201 13.0927 1325 80.203 1341.59 460.585
633 0 103.159 12.0397 1242 82.0338 1341.19 458.396
634 0 104.226 10.5444 1099 84.0601 1342.34 456.348
635 0 109.164 11.1025 1212 84.6007 1341.39 451.219
636 0 114.198 11.2261 1282 83.3814 1341.72 453.609
637 0 118.214 11.9021 1407 83.0277 1340.97 449.65
638 0 121.333 11.8517 1438 82.3999 1341.52 452.565
639 0 126.119 11.7111 1477 83.6635 1341 447.146
640 0 131.228 12.5964 1653 83.291 1341.86 443.368
641 0 135.197 12.271 1659 84.613 1341.67 445.438
642 1 69.1089 11.0261 762 78.3058 1341.8 480.081
643 0 67.2568 9.21839 620 83.1177 1341.38 473.242
644 0 71.2207 9.73031 693 82.1573 1341.13 473.756
645 0 75.3078 10.3973 783 80.2465 1341.53 473.488
646 0 78.184 12.4322 972 78.5772 1341.48 470.422
647 0 78.0697 10.0039 781 81.6914 1341.91 470.569
648 0 83.1463 10.4635 870 81.7644 1341.9 467.806
649 0 85.1951 9.84798 839 82.9988 1341.78 465.125
650 0 89.1397 11.7232 1045 79.8124 1341.78 467.744
651 0 92.2514 11.447 1056 81.2311 1341.72 466.323
652 0 95.2348 11.6764 1112 81.7833 1341.56 463.9
653 0 95.277 10.6217 1012 84.4091 1341.91 462.818
654 0 100.488 11.683 1174 83.4165 1341.11 461.095
655 0 104.138 11.2735 1174 83.5451 1342.1 458.227
656 0 106.241 12.7917 1359 82.8845 1342 457.979
657 0 109.163 11.4325 1248 85.8942 1342.75 451.905
658 0 115.179 11.7383 1352 84.8506 1341.57 453.027
659 0 120.218 12.2361 1471 84.157 1341.43 454.248
660 0 121.367 10.4147 1264 87.0467 1342.03 447.273
661 0 130.209 12.6565 1648 82.7816 1342.11 450.549
662 0 135.337 13.3075 1801 83.6852 1341.87 445.029
663 1 74.2816 8.84473 657 82.3805 1341.68 471.568
664 0 78.2309 11.7217 917 79.6401 1342 472.248
665 0 81.3343 10.5245 856 82.9229 1342.46 471.164
666 0 83.3398 10.8232 902 83.2982 1342.38 470.099
667 0 86.2591 10.9901 948 83.269 1342.67 469.553
668 0 86.2215 11.0065 949 84.3825 1342.63 466.71
669 0 91.1494 10.8064 985 84.5107 1342.27 467.874
670 0 92.2881 10.9657 1012 85.7391 1342.63 464.095
671 0 99.2165 10.9558 1087 84.4149 1342.56 466.945
672 0 100.18 12.1181 1214 83.687 1342.42 464.828
673 0 102.256 12.2731 1255 82.5562 1342.47 463.422
674 0 106.282 11.2437 1195 83.6477 1343.06 461.751
675 0 112.253 12.0531 1353 82.9667 1342.87 457.936
676 0 115.361 12.1792 1405 82.5324 1343.44 454.738
677 0 121.287 12.3096 1493 82.6397 1343.55 451.152
678 0 125.173 11.6399 1457 85.7687 1342.81 448.961
679 1 73.1593 9.71851 711 83.7173 1343.2 474.816
680 0 73.1786 9.41532 689 85.1393 1343.52 470.866
681 0 76.2347 8.68371 662 85.3988 1343.3 471.737
682 0 80.0699 9.64157 772 85.0402 1343.28 466.395
683 0 84.1319 12.5161 1053 80.7825 1343.31 468.455
684 0 88.2243 10.6433 939 83.1022 1343.28 467.813
685 0 91.1825 11.976 1092 81.4515 1343.93 465.606
686 0 93.1155 11.4911 1070 82.8121 1342.91 464.847
687 0 96.3928 12.7084 1225 81.9437 1343.52 461.27
688 0 96.1507 9.62032 925 87.8854 1342.94 459.395
689 0 100.217 11.8543 1188 85.5816 1343.39 454.527
690 0 104.125 12.0912 1259 85.1906 1343.69 458.283
691 0 107.244 12.0846 1296 85.4468 1344.19 457.322
692 0 111.282 12.5896 1401 86.3105 1343.49 453.871
693 0 113.36 12.2972 1394 88.434 1343.56 452.156
694 0 116.304 11.4614 1333 89.7652 1343.64 449.029
695 0 122.197 12.4144 1517 88.7376 1343.19 452.84
696 0 124.225 11.8012 1466 91.264 1342.81 448.156
697 1 69.0957 9.10331 629 82.7011 1342.6 476.084
698 0 72.1998 10.748 776 81.7448 1343.18 474.61
699 0 73.2404 10.1583 744 84.0766 1343.38 470.433
700 0 73.0996 10.2736 751 85.5952 1343.26 467.244
701 0 80.2353 10.6562 855 84.1848 1343.35 472.136
702 0 81.1852 11.9357 969 84.2208 1343.18 470.632
703 0 83.2052 9.78304 814 88.4963 1342.68 470.082
704 0 87.199 11.8923 1037 86.0318 1343.55 468.453
705 0 90.0848 11.4004 1027 87.7838 1343.15 464.342
706 0 91.1345 10.5887 965 90.5948 1343.43 460.407
707 0 95.2145 10.114 963 90.8359 1343.08 460.951
708 0 99.1601 11.6377 1154 88.7244 1343.14 458.607
709 0 101.16 10.597 1072 91.5364 1343.14 458.077
710 0 103.26 10.9432 1130 92.354 1343.96 454.337
711 0 109.285 11.2916 1234 92.0324 1343.94 454.976
712 0 111.424 11.5415 1286 92.2589 1343.98 452.25
713 0 115.211 11.4659 1321 92.6041 1343.55 451.133
714 0 117.297 12.0549 1414 91.6075 1343.1 453.279
715 0 122.233 12.2471 1497 92.7943 1342.53 447.138
716 0 126.311 12.4455 1572 92.7945 1343.48 448.269
717 0 129.247 12.7508 1648 94.2051 1343.44 442.695
718 0 135.384 13.4876 1826 92.1101 1344.31 440.7
719 0 139.36 12.8444 1790 94.2587 1343.76 436.076
720 0 142.27 15.2387 2168 93.9077 1343.11 434.752
721 0 149.153 15.1321 2257 94.183 1343.71 432.869
722 0 151.308 14.0376 2124 97.8004 1344.25 430.625
723 0 157.371 13.8526 2180 98.2161 1343.86 428.951
724 0 162.315 14.0468 2280 99.1759 1343.54 423.327
725 0 169.15 14.496 2452 96.9111 1343.34 424.909
726 0 173.296 13.7857 2389 98.3717 1343.71 419.243
727 0 178.406 14.3156 2554 97.3289 1342.99 416.975
728 0 185.365 14.3824 2666 96.8755 1342.59 409.62
729 1 96.0903 12.2073 1173 97.0656 1344.17 454.453
730 0 99.2453 10.3582 1028 97.8123 1344.12 458.232
731 0 99.2024 13.0944 1299 95.0562 1344.37 453.564
732 0 106.17 12.7625 1355 95.7048 1343.94 448.821
733 0 107.275 9.71338 1042 101.464 1343.6 448.081
734 0 115.181 12.259 1412 96.0156 1343.48 446.96
735 0 115.205 12.3866 1427 96.6048 1343.24 445.823
736 0 123.161 13.3564 1645 94.0517 1343.34 447.821
737 0 127.207 12.7902 1627 97.9748 1342.92 439.562
738 0 131.169 12.3352 1618 98.8473 1343.43 437.349
739 0 137.298 13.183 1810 98.0851 1343.56 433.529
740 0 143.473 13.5287 1941 96.1808 1343.55 435.154
741 0 148.397 13.7401 2039 96.9662 1343.39 431.69
742 0 155.33 13.1012 2035 99.0604 1343.04 428.867
743 0 160.26 12.9414 2074 98.987 1343.13 426.417
744 1 87.231 10.5811 923 94.2264 1343.33 462.788
745 0 90.1742 12.3095 1110 91.4649 1343.16 459.694
746 0 90.121 11.9728 1079 89.8749 1342.8 463.836
747 0 94.1303 12.0471 1134 89.9365 1343.1 460.194
748 0 94.1208 11.4852 1081 93.025 1343.69 456.163
749 0 99.0818 10.4661 1037 94.621 1343.31 456.843
750 0 96.115 10.2169 982 96.5173 1342.86 450.722
751 0 106.12 12.3634 1312 91.5945 1343 452.396
752 0 108.166 11.0848 1199 93.4787 1342.64 452.24
753 0 118.256 10.5196 1244 92.7974 1343.09 453.129
754 0 114.089 12.3939 1414 91.2298 1343.04 447.576
755 0 117.141 12.9417 1516 90.9538 1343.02 444.406
756 0 124.17 14.8506 1844 87.0043 1342.78 441.733
757 0 133.321 15.2114 2028 84.8846 1343.4 435.562
758 0 132.212 13.1607 1740 90.2368 1343.22 432.557
759 0 141.271 12.1115 1711 90.0175 1343.04 436.638
760 0 142.239 13.5335 1925 90.1288 1342.53 431.055
761 1 155.283 17.8319 2769 80.0271 1342.73 422.949
762 0 154.281 15.1477 2337 85.5785 1342.44 423.514
763 0 157.328 12.9729 2041 90.0568 1342.49 425.062
764 0 159.231 12.8367 2044 91.6531 1342.09 416.846
765 0 165.362 12.5422 2074 91.8086 1342.39 417.342
766 0 170.399 12.2654 2090 94.1589 1342.08 409.349
767 0 179.433 12.963 2326 92.6234 1343.07 407.237
768 0 181.371 13.1774 2390 91.4536 1342.48 409.409
769 0 174.265 12.1482 2117 95.7822 1342.17 392.845
770 0 192.32 13.3631 2570 93.3809 1342.17 395.838
771 0 192.32 13.3683 2571 150.737 1342.17 396.114
772 1 296.649 9.71517 2882 97.0992 1342.09 372.377
773 0 292.539 10.108 2957 96.3162 1342.65 369.961
774 1 175.275 12.9168 2264 88.2155 1343.08 419.485
775 0 176.396 12.9935 2292 89.5218 1343.04 403.669
776 0 184.256 11.8368 2181 90.9876 1342.14 403.437
777 0 188.158 11.299 2126 91.9591 1341.19 403.719
778 0 198.321 11.8192 2344 90.0794 1341.74 401.35
779 0 198.321 11.8646 2353 156.036 1341.75 401.524
780 1 214.397 13.5729 2910 87.0863 1341.48 393.843
781 0 218.37 13.7656 3006 87.7192 1342.74 388.397
782 0 221.308 12.6114 2791 90.9445 1341.61 377.886
783 0 230.338 13.0547 3007 89.7782 1342.34 377.295
784 0 239.295 13.7947 3301 88.4081 1342.17 376.404
785 0 375.426 21.4343 8047 72.7706 1342.1 310.547
786 1 328.702 10.2951 3384 94.3924 1342.09 350.994
787 0 334.483 8.70596 2912 96.976 1342.02 357.695
788 0 331.668 10.9628 3636 96.0666 1341.56 338.547
789 1 291.374 13.4123 3908 90.7654 1342.46 357.688
790 0 366.543 22.0465 8081 69.127 1342.13 302.946
791 0 354.694 21.3339 7567 70.4356 1341.69 303.368
792 0 349.775 18.1545 6350 77.9258 1342.46 317.605
793 1 253.6 18.4306 4674 82.2512 1342.13 347.314
794 0 256.46 16.8135 4312 86.0295 1342.27 343.239
795 0 256.473 11.3774 2918 98.4431 1342.53 357.29
796 0 265.465 13.045 3463 97.253 1341.84 354.284
797 0 276.496 13.5409 3744 96.8803 1342.82 353.362
798 0 285.66 15.942 4554 94.166 1342.84 346.876
799 0 295.582 14.5205 4292 96.1526 1342.85 333.591
800 0 304.607 15.3083 4663 95.0718 1341.95 341.708
801 0 309.486 15.2382 4716 96.9623 1341.73 342.225
802 1 33.1995 4.78923 159 72.8239 1343.4 485.893
803 0 35.098 8.34805 293 69.1058 1342.39 487.515
804 0 35.0217 3.8262 134 74.1045 1342.53 479.433
805 0 39.0792 9.59589 375 69.9573 1342.7 485.349
806 0 42.0405 8.96754 377 76.4881 1342.08 483.106
807 0 44.0442 6.15291 271 82.8598 1342.08 480.69
808 0 44.036 9.76475 430 78.8209 1342.48 485.084
809 0 46.0558 9.48848 437 80.4828 1342.31 482.304
810 0 46.0307 10.732 494 79.247 1342.5 484.63
811 0 48.2431 7.87677 380 84.5342 1341.98 483.739
812 0 49.0452 9.09366 446 80.9283 1341.28 483.998
813 0 47.1167 10.5907 499 78.5311 1341.75 477.303
814 0 52.1129 9.84401 513 84.3509 1341.94 486.593
815 0 54.0406 9.58538 518 85.8707 1341.27 486.274
816 0 55.1387 10.4464 576 84.9253 1342.4 483.512
817 0 56.1855 10.5543 593 85.4975 1341.88 479.519
818 0 55.0948 9.45642 521 87.7083 1341.78 481.215
819 0 57.1103 9.94567 568 87.1831 1342.05 480.995
820 0 60.038 11.2762 677 84.5244 1342.12 482.233
821 0 56.0819 9.78926 549 88.8579 1341.89 482.907
822 0 57.0529 13.8468 790 76.0418 1341.59 481.463
823 0 60.0625 14.3351 861 74.4553 1341.51 481.128
824 0 58.0581 13.3487 775 77.7252 1341.45 480.821
825 0 59.0778 13.2368 782 76.1394 1342.87 480.777
826 0 59.1191 15.4265 912 72.7116 1342.73 483.166
827 0 62.1858 16.2095 1008 61.255 1342.34 484.088
828 0 62.1378 15.4174 958 62.7296 1342.47 485.277
829 0 62.0521 14.5201 901 64.3518 1342.95 485.66
830 0 64.1337 14.3294 919 63.9249 1342.7 482.159
831 0 63.079 16.2019 1022 61.9364 1342.56 484.44
832 0 62.3272 13.9265 868 65.3214 1342.54 482.694
833 0 64.073 17.5269 1123 60.3651 1342.34 482.926
834 0 65.0448 19.8171 1289 57.6261 1342.78 483.227
835 0 65.1246 16.0769 1047 61.7412 1342.85 483.67
836 0 65.1132 20.2877 1321 57.0954 1342.39 485.418
837 0 65.022 17.1942 1118 60.5608 1342.54 483.194
838 0 65.185 16.154 1053 62.6401 1341.69 482.611
839 0 64.1826 16.2973 1046 61.8671 1341.85 481.861
840 0 64.0827 14.731 944 63.643 1341.63 483.758
841 0 65.0648 14.8314 965 62.7824 1342.44 481.812
842 0 64.1337 15.1402 971 62.7806 1343.05 481.942
843 0 67.0662 19.2496 1291 58.5531 1342.26 482.693
844 0 63.1629 15.3096 967 67.2782 1344.04 482.403
845 0 62.1023 13.1074 814 74.656 1343.4 479.415
846 0 66.0494 20.6664 1365 56.63 1342.45 484.322
847 0 65.2252 14.3963 939 63.5985 1343.43 481.799
848 0 67.0497 16.361 1097 60.9973 1342.6 480.344
849 0 68.1539 19.5147 1330 57.1985 1342.98 479.976
850 0 68.1371 17.0245 1160 60.3655 1343.21 480.703
851 0 65.113 14.759 961 63.3788 1343.93 481.907
852 0 65.0315 15.5155 1009 62.5332 1343.46 481.371
853 0 67.106 15.6022 1047 61.6065 1343.96 481.612
854 0 67.097 14.71 987 62.6616 1343.91 482.202
855 0 67.0991 15.3206 1028 61.4825 1343.51 483.317
856 0 69.104 16.7863 1160 59.9638 1343.06 480.615
857 0 67.1484 15.5328 1043 61.3701 1342.3 484.023
858 0 66.1888 14.9421 989 62.7947 1342.29 480.96
859 0 67.1063 20.7581 1393 56.3446 1342.85 483.487
860 0 69.0563 19.9547 1378 56.6016 1343.13 482.183
