time division length width area intensity CMx CMy
0 0 66.0858 14.7989 978 94.7669 1348.25 456.916
1 0 67.0558 14.8235 994 103.157 1347.74 454.601
2 0 70.1045 15.5482 1090 102.617 1347.48 456.127
3 0 71.0666 15.2392 1083 103.838 1347.2 454.437
4 1 38.0148 12.6793 482 102.274 1347.18 472.961
5 0 39.0508 13.8537 541 99.1571 1347.74 472.07
6 0 36.0157 10.551 380 104.811 1347.75 474.082
7 0 37.0484 12.0113 445 102.555 1347.49 472.991
8 0 35.0111 10.7109 375 109.285 1346.78 474.203
9 0 38.0308 11.3329 431 107.07 1346.63 473.476
10 0 38.0266 11.5182 438 107.632 1346.55 474.064
11 0 42.052 12.1041 509 103.735 1346.56 472.976
12 0 40.0472 11.3117 453 107.475 1346.21 472.344
13 0 43.0084 11.6489 501 106.03 1346.36 472.661
14 0 43.0084 11.6489 501 152.916 1347.36 472.661
15 0 52.029 14.0691 732 93.5806 1346.25 470.199
16 0 49.0917 12.1202 595 101.43 1346.85 471.069
17 0 47.0612 11.6656 549 104.337 1346.57 471.503
18 0 55.0446 13.6617 752 96.4016 1346.4 468.6
19 0 53.1157 14.1766 753 97.2855 1346.15 471.54
20 0 56.1182 13.9883 785 99.1873 1345.4 467.868
21 0 59.0389 14.2957 844 97.141 1345.72 469.482
22 0 57.1025 13.397 765 102.063 1345.26 469.354
23 0 61.0887 13.1612 804 106.682 1345.41 466.979
24 0 62.0938 13.1736 818 111.297 1344.43 466.137
25 0 62.1332 13.7769 856 109.311 1344.98 463.672
26 0 66.176 14.129 935 107.431 1344.87 464.554
27 0 67.0576 13.6002 912 109.854 1344.71 464.032
28 0 68.0342 13.7725 937 110.366 1344.94 463.017
29 0 70.0947 13.867 972 110.515 1344.62 462.969
30 0 73.1838 14.976 1096 107.911 1344.54 460.314
31 0 77.2039 15.1935 1173 106.759 1344.11 459.797
32 0 77.0683 13.2999 1025 111.945 1344.29 458.603
33 0 81.158 13.8495 1124 110.602 1344.2 455.357
34 0 83.0606 13.8092 1147 109.467 1345.18 455.259
35 0 87.1886 15.1625 1322 105.582 1345.08 453.056
36 0 90.1338 14.5339 1310 106.198 1345.07 454.192
37 0 93.1681 13.9425 1299 108.35 1344.37 450.132
38 0 94.1227 13.7905 1298 109.222 1344.28 451.045
39 0 97.158 14.6154 1420 106.762 1343.95 448.913
40 1 52.0537 11.8147 615 111.841 1344.56 470.008
41 0 53.0302 11.8423 628 110.435 1344.81 469.771
42 0 56.0706 13.7684 772 106.451 1344.62 468.022
43 0 59.076 13.1526 777 106.736 1344.82 467.211
44 0 61.0982 15.0905 922 102.618 1344.42 467.568
45 0 62.1072 14.7326 915 104.352 1344.02 466.301
46 0 64.0361 13.7423 880 107.55 1344.07 464.195
47 0 68.0756 13.4997 919 107.101 1344.2 464.366
48 0 68.4049 13.3616 914 106.136 1344.03 463.146
49 0 70.2441 13.8944 976 107.233 1343.63 462.449
50 0 72.0819 14.0396 1012 107.672 1343.07 459.59
51 0 76.0612 13.7784 1048 107.196 1342.88 459.467
52 0 81.064 14.8401 1203 105.288 1343.03 457.068
53 0 81.0682 14.2349 1154 108.754 1342.98 455.447
54 0 85.067 14.4004 1225 108.171 1342.68 456.319
55 0 88.1437 14.5104 1279 108.39 1342.66 452.34
56 0 90.1105 13.8941 1252 109.441 1342.84 451.883
57 0 94.092 14.1989 1336 108.642 1342.56 452.118
58 0 99.2055 14.6564 1454 106.978 1342.73 449.724
59 0 103.187 14.9147 1539 106.736 1342.77 445.991
60 0 108.09 14.4509 1562 107.223 1342.52 444.623
61 0 113.086 14.6614 1658 107.494 1341.8 442.313
62 0 115.061 14.375 1654 108.96 1341.39 438.575
63 1 58.0718 13.4317 780 106.673 1342.43 469.232
64 0 63.1229 14.3688 907 103.309 1341.58 469.262
65 0 63.1079 12.3756 781 107.383 1342.17 469.547
66 0 65.0426 13.0684 850 106.701 1342.46 467.235
67 0 65.0426 12.807 833 141.861 1343.43 467.86
68 0 72.1688 13.4546 971 106.705 1342.2 464.438
69 0 74.0637 13.0023 963 109.096 1341.93 462.324
70 0 77.1086 13.28 1024 108.243 1342.07 461.505
71 0 78.2502 12.9073 1010 110.873 1341.89 459.232
72 0 81.0704 12.705 1030 111.856 1341.62 456.069
73 0 85.1033 14.1358 1203 106.625 1342.38 453.623
74 0 85.0484 12.487 1062 111.993 1342.32 452.037
75 0 87.1298 13.0036 1133 110.883 1342.25 447.908
76 0 91.1641 12.461 1136 111.85 1342.73 448.701
77 0 96.1511 13.3228 1281 109.17 1343.06 447.445
78 0 101.115 11.8578 1199 112.172 1342.39 447.11
79 0 102.091 13.1157 1339 110.63 1342.07 444.108
80 0 106.114 12.5148 1328 111.648 1341.8 442.861
81 1 57.0178 10.2775 586 100.188 1342.17 467.915
82 0 61.0507 11.6297 710 96.6127 1342.24 467.537
83 0 62.0712 12.9851 806 99.2618 1342.88 470.802
84 0 61.0867 9.15092 559 104.996 1343.37 469.789
85 0 65.1832 11.5827 755 98.9854 1343.09 471.054
86 0 68.1121 12.406 845 98.7846 1342.28 467.824
87 0 71.1164 13.1475 935 97.8192 1342.09 466.305
88 0 73.1277 13.7704 1007 96.862 1342.11 466.421
89 0 74.0886 12.2016 904 100.959 1341.98 464.025
90 0 79.103 11.8706 939 102.055 1341.66 463.392
91 0 79.1088 12.249 969 103.068 1341.92 461.496
92 0 84.1738 12.0821 1017 102.378 1341.95 460.976
93 0 84.1388 11.8614 998 105.522 1341.63 458.65
94 0 88.09 11.8175 1041 105.121 1341.95 458.53
95 0 92.0883 11.3478 1045 104.83 1341.91 458.684
96 0 94.0821 11.4156 1074 107.372 1341.12 456.038
97 0 96.0955 10.9474 1052 110.876 1341.79 449.63
98 0 102.067 12.1684 1242 106.41 1342.1 452.288
99 0 105.134 12.213 1284 106.863 1342.04 449.285
100 0 110.178 11.6902 1288 106.359 1341.53 449.554
101 1 59.1472 11.8011 698 98.0516 1341.99 472.255
102 0 61.1449 11.7262 717 105.915 1342.14 468.441
103 0 62.0777 11.3567 705 105.882 1342.12 468.129
104 0 63.0859 11.8569 748 95.5709 1342.14 471.455
105 0 63.0755 9.13191 576 100.062 1342.83 470.944
106 0 67.1957 9.73276 654 98.1988 1341.92 471.228
107 0 69.0949 10.4349 721 98.4619 1341.89 467.442
108 0 71.1079 10.3645 737 99.6052 1341.52 467.06
109 0 73.1033 10.7246 784 98.5395 1341.78 465.071
110 0 76.1174 12.5201 953 95.6348 1341.79 464.288
111 0 79.09 12.4036 981 96.577 1341.46 460.518
112 0 81.1187 10.5031 852 99.3744 1341.53 461.031
113 0 82.1433 10.4208 856 99.729 1341.78 460.875
114 0 86.181 11.7543 1013 96.4393 1341.94 458.147
115 0 88.1525 11.3213 998 97.8126 1341.91 456.923
116 0 91.0989 12.2834 1119 96.1046 1341.79 455.879
117 0 96.1182 11.5067 1106 97.0307 1341.69 454.105
118 0 98.1214 11.18 1097 98.5141 1341.75 451.604
119 0 101.222 12.023 1217 96.5308 1341.29 446.213
120 0 105.141 11.5369 1213 106.84 1341.57 447.482
121 0 106.09 11.2075 1189 107.49 1341.09 446.046
122 1 52.1278 8.80528 459 101.924 1341.1 473.588
123 0 58.0176 10.6175 616 95.8166 1341.52 473.739
124 0 59.0701 9.78498 578 94.91 1342.49 472.351
125 0 62.0845 11.0011 683 102.783 1342.06 466.805
126 0 62.0845 11.0656 687 134.808 1341.06 466.795
127 0 64.0978 10.406 667 104.297 1342.03 468.913
128 0 69.0619 11.5114 795 101.688 1342.6 465.81
129 0 68.0742 10.5473 718 105.072 1342.28 466.419
130 0 72.1389 12.0185 867 101.466 1342.64 464.403
131 0 74.0731 11.2996 837 103.464 1342.85 463.76
132 0 76.0973 11.4065 868 104.931 1342.59 460.085
133 0 80.1622 12.0381 965 103.709 1341.33 462.153
134 0 80.1727 11.4877 921 105.179 1341.66 457.732
135 0 80.1741 11.4626 919 143.251 1341.65 457.655
136 0 85.1193 10.7966 919 107.954 1341.4 455.748
137 0 87.2089 11.1571 973 108.593 1341.19 453.673
138 0 93.158 11.5932 1080 106.338 1341.67 455.415
139 1 48.078 11.7101 563 96.5186 1342.29 477.213
140 0 48.1569 11.4625 552 94.8623 1342.75 476.042
141 0 49.1125 10.6083 521 95.5413 1342.35 475.699
142 0 49.0544 8.80654 432 96.6782 1342.38 478.007
143 0 52.1085 10.8236 564 93.0567 1342.29 476.181
144 0 54.0409 9.91841 536 96.5765 1342.29 475.211
145 0 53.0693 10.1565 539 96.5065 1343.07 473.967
146 0 53.0693 10.0812 535 129.009 1343.05 473.864
147 0 58.2057 11.5796 674 93.2226 1342.44 473.475
148 0 59.0878 11.0514 653 95.1547 1342.8 471.738
149 0 61.1681 10.3322 632 95.8101 1342.47 472.464
150 0 65.0767 12.0627 785 92.4357 1342.84 471.11
151 0 65.0235 10.7346 698 96.884 1342.36 467.437
152 0 67.0386 11.1279 746 96.3177 1342.28 469.559
153 0 68.1224 10.9509 746 97.8673 1342.49 465.984
154 0 72.0672 11.2256 809 97.8072 1342.9 466.156
155 0 75.1036 11.4242 858 98.6445 1341.99 464.22
156 0 78.1207 13.5176 1056 94.8542 1342.41 463.258
157 0 79.1181 11.3501 898 101.61 1341.99 460.934
158 0 81.1661 11.9754 972 101.414 1341.82 461.264
159 0 83.2121 11.8132 983 103.217 1341.59 458.839
160 1 44.0439 11.148 491 99.9593 1342.28 478.299
161 0 46.0767 12.0451 555 97.6865 1342.14 478.076
162 0 47.0913 11.2547 530 100.964 1341.82 476.079
163 0 49.0756 13.8562 680 97.5147 1341.55 473.743
164 0 48.0793 13.5609 652 92.4463 1341.67 476.379
165 0 49.1875 10.5108 517 99.2631 1341.9 475.48
166 0 49.1875 10.5515 519 124.104 1341.88 475.468
167 0 54.0448 13.1003 708 93.1483 1342.58 472.9
168 0 55.1268 12.8431 708 95.1271 1342.08 472.588
169 0 56.0496 12.0786 677 96.545 1342.47 472.685
170 0 58.0588 12.9524 752 95.2447 1342.43 471.681
171 0 61.0588 14.1339 863 92.2584 1341.62 469.951
172 0 61.1222 11.4852 702 99.5043 1341.59 470.426
173 0 63.0447 12.2294 771 99.0908 1341.27 468.012
174 0 67.0586 12.1088 812 98.6466 1341.35 467.516
175 0 70.0275 11.8239 828 99.1328 1341.46 466.729
176 0 70.0892 11.357 796 101.219 1341.43 466.585
177 0 72.0362 12.3549 890 99.5315 1341.29 462.897
178 0 74.0533 11.7348 869 99.7376 1341.83 464.464
179 0 78.0348 13.5581 1058 97.1588 1340.45 463.591
180 0 80.0576 12.1538 973 100.338 1340.76 462.743
181 0 83.0392 12.2713 1019 99.8086 1341.96 458.328
182 1 43.0443 9.4786 408 99.5809 1341.08 480.934
183 0 43.0373 10.6187 457 98.2166 1341.51 479.873
184 0 45.0494 13.2521 597 94.5243 1340.89 476.973
185 0 48.0273 12.3471 593 93.9983 1341.92 477.671
186 0 49.0257 12.8504 630 93.5889 1342.12 476.373
187 0 51.0386 12.1477 620 95.4758 1342.06 475.982
188 0 51.028 12.1306 619 96.9952 1342.04 475.656
189 0 53.0384 13.971 741 93.5398 1342.3 474.223
190 0 54.0315 13.1775 712 96.5492 1341.62 472.263
191 0 57.0741 14.1395 807 94.1363 1341.88 471.784
192 0 58.03 12.1834 707 98.6775 1341.75 471.277
193 0 59.0748 13.339 788 97.0482 1341.96 470.745
194 0 60.0508 12.5394 753 100.487 1341.91 469.402
195 0 64.1662 12.8105 822 100.028 1341.75 469.628
196 0 66.0386 14.3401 947 98.2492 1341.39 467.277
197 0 67.0641 13.8822 931 100.618 1341.76 468.357
198 0 67.1323 12.9744 871 104.918 1341.69 466.189
199 0 71.0702 12.5228 890 106.966 1341.39 464.563
200 0 73.0607 12.5512 917 107.389 1341.19 464.869
201 0 77.0381 13.4479 1036 106.747 1340.76 463.679
202 0 80.1013 14.2569 1142 106.858 1340.67 460.169
203 0 83.0664 14.3861 1195 105.695 1340.78 461.065
204 0 85.1123 14.2753 1215 108.519 1341.2 458.076
205 0 88.1086 14.2211 1253 111.639 1340.54 456.662
206 0 91.1173 15.5733 1419 108.827 1340.65 455.114
207 1 45.0193 11.1063 500 105.816 1340.8 481.04
208 0 47.0196 10.8253 509 106.984 1340.76 479.232
209 0 48.015 12.8293 616 105.016 1341.07 476.781
210 0 51.013 13.3495 681 102.382 1341.03 476.527
211 0 48.0189 13.224 635 101.313 1341.13 476.342
212 0 50.0308 12.932 647 101.873 1341.26 476.221
213 0 52.0459 12.7964 666 103.128 1340.75 474.619
214 0 53.056 13.0994 695 101.422 1340.82 475.268
215 0 57.0176 11.7683 671 103.878 1340.6 472.838
216 0 59.0115 12.0655 712 102.51 1341.42 472.426
217 0 61.058 13.348 815 99.4135 1341 470.032
218 0 61.0749 12.7221 777 100.849 1341.51 469.983
219 0 63.0491 13.0533 823 102.033 1340.76 468.713
220 0 65.0297 12.502 813 101.499 1341.23 469.358
221 0 66.1466 13.2584 877 101.194 1341.64 467.092
222 0 69.1685 11.7973 816 103.069 1340.95 468.746
223 0 71.0526 13.8067 981 99.7931 1340.85 465.528
224 0 74.0769 14.0665 1042 98.882 1341.73 464.217
225 0 74.0844 12.3913 918 105.206 1341.56 461.924
226 0 76.1314 14.186 1080 101.089 1341.53 460.819
227 0 78.0761 12.7952 999 105.041 1341.24 460.744
228 0 78.0251 10.958 855 110.558 1341.21 459.881
229 0 84.1291 13.1583 1107 105.655 1341.46 459.793
230 0 87.038 14.1777 1234 105.894 1341.45 456.067
231 0 91.1046 13.479 1228 106.925 1341.35 455.24
232 0 91.068 12.7158 1158 107.847 1341.32 453.312
233 0 96.1165 13.9518 1341 105.107 1341.88 449.642
234 0 98.0646 13.4197 1316 106.585 1341.68 449.538
235 0 104.143 15.0178 1564 102.466 1341.26 447.993
236 0 105.078 13.6089 1430 106.06 1341.43 444.843
237 0 109.289 13.3591 1460 105.161 1341.31 446.073
238 0 112.097 12.0343 1349 108.491 1341.07 444.638
239 0 118.066 14.0599 1660 104.563 1341.22 441.295
240 0 119.089 12.8895 1535 107.717 1341.08 440.366
241 0 127.177 14.8062 1883 104.344 1340.7 435.42
242 0 131.115 13.7818 1807 106.02 1341.23 433.713
243 0 134.108 13.9291 1868 106.253 1341.02 431.811
244 0 140.228 14.234 1996 106.407 1341.05 428.845
245 0 144.173 14.0525 2026 108.517 1341.56 424.957
246 0 151.143 13.6295 2060 109.863 1340.92 423.335
247 1 81.0391 11.0564 896 107.86 1341.07 460.519
248 0 85.0494 12.8984 1097 106.159 1341.59 457.531
249 0 82.0833 12.5239 1028 109.709 1341.77 453.786
250 0 89.0518 13.3293 1187 106.689 1342.42 454.362
251 0 92.1582 11.7732 1085 110.439 1341.63 451.932
252 0 95.0365 12.8687 1223 108.294 1340.99 451.742
253 0 96.0959 11.3428 1090 113.385 1340.97 447.658
254 0 101.11 12.3528 1249 109.233 1341.42 444.94
255 0 104.124 11.8608 1235 109.31 1341.29 445.275
256 0 108.129 12.0226 1300 109.125 1340.83 444.235
257 1 57.079 11.4578 654 102.197 1340.6 469.365
258 0 57.045 11.0264 629 107.878 1340.62 466.129
259 0 58.0577 11.0752 643 99.605 1341.3 469.009
260 0 61.0405 12.3525 754 96.756 1341.4 468.817
261 0 63.0471 10.8966 687 98.0757 1341.47 470.373
262 0 66.0604 11.1565 737 98.9729 1341.5 467.497
263 0 68.0868 11.3385 772 99.1723 1341.6 463.966
264 0 72.052 11.2835 813 98.5978 1341.11 465.518
265 0 74.0727 12.2312 906 98.4614 1341.04 461.54
266 0 76.1324 12.2812 935 97.6332 1341.74 462.126
267 0 80.1006 12.9212 1035 96.6705 1341.3 460.38
268 0 83.0464 12.3666 1027 97.1636 1342.13 457.944
269 0 85.0403 12.253 1042 96.4942 1341.52 459.657
270 0 89.0553 12.554 1118 96.6449 1341.18 456.248
271 0 93.1293 12.5202 1166 95.7024 1341.09 454.503
272 0 94.1182 11.9212 1122 98.7442 1340.85 453.377
273 0 98.1812 13.4853 1324 95.3119 1340.27 452.572
274 0 97.1525 10.5195 1022 102.982 1340.34 447.557
275 0 102.16 10.6206 1085 106.35 1340.63 447.633
276 0 108.088 12.3788 1338 100.999 1340.5 446.19
277 1 54.0838 11.5931 627 96.0431 1340.44 470.51
278 0 57.0536 10.9546 625 96.6048 1340.66 469.814
279 0 58.0496 11.5935 673 93.9435 1340.76 471.07
280 0 59.0624 10.8868 643 95.7916 1341.17 471.39
281 0 58.0513 9.12986 530 99.2585 1341.62 469.317
282 0 60.023 9.87955 593 98.4148 1341.15 468.931
283 0 63.0489 10.3412 652 96.5813 1341.35 468.112
284 0 62.0622 9.36158 581 99.5783 1341.61 465.2
285 0 67.0357 10.4124 698 96.9527 1340.94 464.947
286 0 71.1086 11.8129 840 95.4798 1341.41 462.729
287 0 73.0705 10.5378 770 97.2416 1340.82 461.986
288 0 75.1547 12.268 922 93.6529 1341.37 462.732
289 0 75.0452 10.8868 817 97.4443 1341.35 460.433
290 0 80.0709 10.8029 865 98.1318 1341.34 457.68
291 0 86.1094 12.3331 1062 94.2222 1341.5 459.023
292 0 85.1065 11.891 1012 96.6621 1340.96 456.705
293 0 89.0731 11.7095 1043 96.7574 1341.4 455.831
294 0 90.0544 10.7268 966 99.0952 1341.26 452.802
295 0 93.1334 11.1775 1041 98.1479 1340.99 451.935
296 0 101.111 13.3121 1346 95.7979 1340.81 448.505
297 0 104.194 12.3327 1285 99.1922 1340.6 446.721
298 0 106.297 13.7069 1457 68.6651 1341.29 445.931
299 1 50.1126 8.3013 416 89.5745 1341.51 462.899
300 0 53.0734 8.45998 449 86.5702 1342.46 462.561
301 0 55.0237 9.05064 498 95.3755 1341.65 471.028
302 0 55.0237 9.12334 502 130.928 1340.66 471.082
303 0 60.1499 9.77558 588 93.5629 1340.47 466.02
304 0 65.1356 11.5758 754 90.1141 1340.73 466.614
305 0 65.0715 9.81997 639 92.8795 1340.36 467.602
306 0 67.0831 9.39133 630 92.6524 1341.27 466.706
307 0 69.1291 9.73541 673 92.5319 1340.91 464.553
308 0 73.0652 11.7703 860 89.714 1340.61 461.709
309 0 76.0962 10.7101 815 92.5509 1340.73 458.767
310 0 80.0706 11.9395 956 88.8169 1340.49 459.086
311 0 81.1186 12.0318 976 90.7254 1340.51 455.446
312 0 85.0896 13.4329 1143 87.9746 1340.1 459.161
313 0 87.0603 13.4275 1169 88.7947 1340.26 452.728
314 0 88.1519 12.7507 1124 95.4733 1339.55 452.343
315 0 92.052 12.3191 1134 96.7804 1339.63 450.715
316 0 95.2406 12.7782 1217 93.7206 1338.82 449.813
317 0 99.1392 13.5164 1340 92.5724 1339.55 449.324
318 1 51.0537 11.3998 582 89.6117 1339.82 470.545
319 0 50.039 9.4726 474 85.4452 1340.16 467.593
320 0 53.0394 11.4255 606 93.0132 1341.39 471.663
321 0 52.1058 9.80697 511 90.0528 1341.27 475.296
322 0 55.0283 10.4128 573 90.0297 1340.93 475.077
323 0 58.0693 10.763 625 89.0368 1340.65 473.912
324 0 61.1068 11.0299 674 89.1825 1340.14 472.62
325 0 59.0594 9.53278 563 92.8064 1340.47 471.314
326 0 60.0372 10.4269 626 92.6917 1340.89 470.486
327 0 64.1179 11.2605 722 90.687 1340.52 468.145
328 0 65.1032 11.0901 722 92.6482 1340.21 466.893
329 0 68.0669 10.9304 744 91.8454 1341.04 467.996
330 0 68.0669 10.901 742 146.408 1342.05 468.058
331 0 73.1672 11.3029 827 94.231 1340.75 462.884
332 0 76.0771 13.6572 1039 90.129 1340.73 462.996
333 0 79.1238 13.0681 1034 89.8868 1341.2 462.346
334 0 80.09 11.5745 927 93.3657 1341.46 460.318
335 0 83.076 12.2538 1018 93.2957 1341.65 459.149
336 0 86.1276 12.2957 1059 92.3296 1341.25 460.493
337 0 88.0501 10.8574 956 95.227 1341.53 455.823
338 1 48.0236 9.12052 438 93.1484 1342.53 476.863
339 0 49.0681 9.31358 457 93.5164 1342.92 473.584
340 0 54.0394 13.046 705 87.4667 1342.55 472.41
341 0 53.1046 11.3926 605 94.5868 1340.13 472.441
342 0 56.0576 10.5606 592 94.4713 1340.46 473.084
343 0 57.0263 9.97785 569 94.9033 1341.03 472.218
344 0 57.0483 11.6217 663 93.0437 1340.88 471.225
345 0 61.0408 12.3196 752 91.6197 1341.07 469.483
346 0 63.1216 12.4997 789 91.2129 1340.74 468.131
347 0 66.0691 11.715 774 91.5388 1340.56 469.014
348 0 68.0642 13.1641 896 91.0056 1340.8 466.242
349 0 70.0864 12.984 910 91.7484 1341.16 465.391
350 0 70.0172 11.5971 812 96.181 1341.02 462.733
351 0 71.0481 11.7948 838 97.2458 1340.4 464.39
352 0 73.0897 10.9728 802 90.7855 1341.74 466.808
353 0 77.1334 11.1365 859 91.8906 1342.3 461.928
354 0 78.1231 10.6499 832 93.0589 1342.41 462.197
355 0 82.1132 11.9226 979 91.2012 1342.82 459.708
356 0 85.1082 11.973 1019 92.1668 1341.53 460.429
357 0 88.0658 12.5701 1107 90.8076 1341.92 458.052
358 1 50.0586 9.7286 487 90.2546 1343.47 477.193
359 0 49.0728 10.2908 505 89.3347 1342.56 477.899
360 0 51.0245 11.8179 603 88.0298 1342.05 475.36
361 0 53.06 11.3833 604 90.1672 1342.66 476.094
362 0 53.021 11.2408 596 91.3909 1342.38 476.648
363 0 55.066 12.4941 688 89.3169 1342.77 475.533
364 0 58.0361 12.6128 732 89.7418 1342.32 473.795
365 0 58.1353 12.7805 743 90.1104 1342 473.653
366 0 62.0802 13.7564 854 90.007 1341.9 472.012
367 0 61.167 12.474 763 94.751 1341.51 471.877
368 0 65.1069 12.9787 845 93.9538 1341.13 469.12
369 0 68.0603 13.5762 924 92.5152 1341.55 468.588
370 0 70.258 13.2512 931 93.7551 1341.48 468.287
371 0 72.0941 13.7321 990 92.9263 1342.09 466.973
372 0 73.1039 12.9268 945 96.0021 1341.92 466.368
373 0 74.0651 12.1245 898 95.6748 1342.18 464.764
374 0 79.1402 13.4445 1064 92.6306 1341.89 463.686
375 0 80.1038 13.2953 1065 93.2376 1342.47 462.168
376 0 83.0682 13.4468 1117 91.4467 1342.43 463.046
377 0 86.0756 13.7902 1187 91.2755 1341.88 460.216
378 0 89.0966 12.7951 1140 91.4079 1342.43 459.027
379 0 92.0997 12.6059 1161 91.3859 1343.29 456.532
380 0 95.1482 13.747 1308 89.6606 1342.79 457.021
381 1 48.0484 9.76098 469 92.7633 1343.57 478.702
382 0 51.048 11.2639 575 91.0887 1342.93 477.369
383 0 54.0644 11.6528 630 89.7254 1343.47 476.03
384 0 52.0392 8.87793 462 94.4199 1343.41 479.087
385 0 53.044 10.5761 561 95.3476 1341.89 476.453
386 0 56.0392 11.6704 654 93.7737 1341.77 474.879
387 0 58.0652 11.0393 641 94.3198 1342.06 474.282
388 0 59.056 12.3104 727 92.2173 1341.73 475.751
389 0 61.0863 11.2136 685 96.5679 1340.72 473.308
390 0 65.0672 11.6956 761 94.9987 1340.83 472.52
391 0 66.0505 11.2641 744 96.203 1340.44 471.888
392 0 69.0807 11.8991 822 93.5572 1342 469.094
393 0 69.129 10.4732 724 96.308 1343.36 467.041
394 0 70.1271 10.4239 731 97.6826 1342.54 466.732
395 0 74.0973 11.9707 887 94.8534 1342.45 463.917
396 0 78.1011 12.8295 1002 93.2086 1342.58 462.473
397 0 82.1688 12.0971 994 94.6016 1342.96 462.605
398 0 87.0741 13.276 1156 92.0121 1343.26 461.051
399 1 42.0291 10.5403 443 94.2618 1343.66 481.126
400 0 44.041 11.7845 519 87.7553 1343.46 481.459
401 0 45.0369 11.1908 504 90.2083 1341.72 480.429
402 0 46.0248 11.2548 518 92.1429 1343.6 479.234
403 0 48.1103 10.4759 504 95.2956 1343.27 478.863
404 0 51.0482 11.0092 562 94.8683 1343.23 478.121
405 0 52.0927 10.846 565 95.4991 1343.39 476.871
406 0 53.0481 11.3105 600 95.2617 1343.2 474.897
407 0 54.0782 11.4834 621 95.0531 1343.35 476.293
408 0 55.0566 12.9503 713 91.8738 1343.74 473.139
409 0 55.0201 10.4325 574 96.8693 1343.3 473.578
410 0 59.043 11.9743 707 93.0382 1343.69 473.803
411 0 59.1336 12.7001 751 92.8628 1343.83 472.18
412 0 58.1171 11.9414 694 95.4712 1343.44 469.39
413 0 65.1101 12.4251 809 91.8826 1343.45 470.199
414 0 65.0573 12.3737 805 92.2261 1343.71 468.473
415 0 67.0676 11.1529 748 94.3275 1343.84 468.167
416 0 69.1383 10.573 731 95.777 1343.83 467.317
417 0 71.0808 13.5198 961 90.7711 1343.19 466.082
418 0 73.0907 13.0796 956 92.2939 1342.47 463.713
419 0 76.2107 11.4682 874 94.4806 1342.99 464.18
420 0 78.1049 12.0991 945 93.5862 1342.87 463.088
421 0 78.2543 11.7565 920 96.4576 1342.53 460.418
422 0 83.1873 12.6702 1054 94.1442 1342.53 459.611
423 0 83.1505 10.3908 864 98.625 1342.95 457.668
424 0 89.1976 14.1484 1262 91.5246 1342.19 455.295
425 0 92.1106 12.1702 1121 94.7136 1341.85 455.905
426 1 44.0315 8.60746 379 93.095 1343.35 478.449
427 0 50.1039 11.2167 562 86.0463 1343.45 476.893
428 0 49.0532 11.2123 550 90.8091 1343.05 475.465
429 0 50.0452 10.5904 530 92.3038 1342.88 475.519
430 0 53.0336 11.2193 595 91.0151 1343.14 475.439
431 0 52.0512 9.87489 514 93.0953 1343.56 474.428
432 0 54.0841 11.0569 598 91.0652 1343.14 472.993
433 0 56.0483 9.49182 532 92.4699 1343.06 475.961
434 0 58.0399 11.8367 687 89.5051 1342.93 473.518
435 0 59.0745 12.3911 732 88.1626 1343.18 473.649
436 0 61.0376 11.8779 725 89.5917 1343.32 471.226
437 0 62.1009 11.1754 694 91.5014 1342.79 470.388
438 0 65.048 10.6844 695 92.7957 1342.28 470.606
439 0 68.0681 13.0751 890 88.2584 1342.58 469.433
440 0 69.1611 12.4203 859 89.1932 1343 468.165
441 0 72.1623 11.5157 831 90.71 1342.73 467.593
442 0 74.1882 12.6031 935 88.7401 1342.35 467.926
443 0 77.1269 11.0727 854 91.5796 1342.7 466.097
444 0 79.0776 12.1906 964 90.1089 1342.58 463.542
445 0 81.0762 13.2468 1074 88.1881 1342.72 460.564
446 0 84.1433 13.3582 1124 87.4751 1342.57 461.723
447 0 86.1231 12.8885 1110 88.2027 1341.99 459.971
448 0 89.1361 11.7349 1046 88.6233 1343.02 455.185
449 1 46.015 10.627 489 84.3681 1342.64 480.047
450 0 44.0252 11.7206 516 83.1454 1342.78 477.578
451 0 48.0647 12.1711 585 82.0889 1342.84 478.8
452 0 49.0407 11.5007 564 83.227 1343.07 477.085
453 0 50.0482 13.0075 651 81.2888 1343.35 475.078
454 0 53.057 13.1933 700 80.7543 1342.75 476.103
455 0 51.0606 12.2795 627 83.1691 1343.33 474.252
456 0 55.0658 12.3489 680 83.4221 1343.01 472.874
457 0 57.0218 12.3988 707 83.8289 1343.12 473.84
458 0 61.0408 13.4828 823 82.1908 1342.84 471.224
459 0 61.106 12.3883 757 84.9049 1343.07 471.243
460 0 64.0957 13.0898 839 84.1192 1342.99 470.882
461 0 68.2243 13.8074 942 83.5807 1342.53 468.994
462 0 70.0394 14.4633 1013 83.5755 1342.57 469.845
463 0 70.1013 13.9084 975 86.7723 1342.29 467.855
464 0 72.1232 12.8669 928 89.0032 1343.08 466.018
465 0 77.094 14.7223 1135 85.726 1343.07 464.589
466 0 80.1864 15.1273 1213 85.8986 1342.47 463.159
467 0 81.1038 14.4506 1172 88.6578 1342.73 461.212
468 0 81.1038 14.4383 1171 143.306 1343.73 461.239
469 1 45.0772 11.447 516 93.7558 1343.21 479.777
470 0 46.0678 12.6336 582 92.7285 1342.82 479.983
471 0 47.02 14.0579 661 90.3464 1343.1 477.637
472 0 49.0559 12.8017 628 93.0955 1343.07 479.346
473 0 50.0252 13.0734 654 93.4664 1343.06 479.147
474 0 52.0977 12.9756 676 94.3536 1343.38 477.76
475 0 53.0692 12.8323 681 94.8796 1343.74 476.134
476 0 57.063 13.8969 793 93.1992 1343.12 476.183
477 0 57.0238 13.1349 749 95.737 1342.31 476.736
478 0 61.0398 14.6953 897 91.6143 1343.11 474.589
479 0 63.0315 15.1036 952 92.0305 1342.73 473.614
480 0 63.1317 14.5252 917 94.8648 1342.16 470.683
481 0 65.0812 13.6599 889 96.4927 1341.66 471.978
482 0 68.0697 14.1913 966 95.0352 1342.7 469.6
483 0 70.1354 13.8161 969 96.4974 1342.15 470.025
484 0 73.1007 12.6811 927 96.4283 1342.82 468.261
485 0 74.0764 14.728 1091 93.2869 1343.09 464.919
486 0 77.1351 12.5494 968 96.0217 1343.55 465.417
487 0 78.2384 12.3085 963 97.0976 1343.82 462.004
488 0 80.1487 12.8386 1029 96.6093 1343.53 460.085
489 0 87.071 12.8975 1123 95.0071 1342.92 460.507
490 0 89.0751 13.0339 1161 95.1352 1342.75 459.13
491 0 91.0599 12.8267 1168 96.893 1342.98 456.396
492 1 47.0281 10.7383 505 91.4594 1343.92 479.677
493 0 47.0143 10.9329 514 94.2782 1343.16 480.975
494 0 48.0234 12.0566 579 89.5959 1342.35 477.926
495 0 50.0402 13.3093 666 87.027 1342.35 477.375
496 0 51.0475 12.6745 647 87.0031 1343.07 477.73
497 0 53.0416 12.8767 683 86.5022 1343.37 477.211
498 0 54.0632 13.5397 732 86.0628 1343.19 474.714
499 0 58.0729 13.3625 776 86.3737 1343.07 472.401
500 0 58.0505 12.4719 724 90.3508 1343.32 471.746
501 0 59.0336 12.1964 720 93.725 1342.44 471.985
502 0 62.1376 13.0034 808 92.3094 1342.07 470.65
503 0 65.1587 13.2599 864 93.6875 1342.44 469.303
504 0 65.1297 13.3272 868 125.356 1343.44 469.374
505 0 68.0829 12.2204 832 95.3317 1342.24 468.166
506 0 72.0515 12.2968 886 95.4334 1342.26 465.998
507 0 76.0985 13.3774 1018 92.8458 1342.59 464.356
508 0 78.1064 12.4958 976 95.9375 1342.13 462.535
509 0 82.1751 14.1892 1166 92.4262 1342.9 462.276
510 0 83.379 11.4537 955 98.8817 1342.07 460.429
511 1 44.2384 11.3928 504 96.5159 1342.28 477.02
512 0 44.4395 10.4862 466 96.8369 1342.81 477.654
513 0 47.0259 11.4618 539 96.2653 1341.86 478.516
514 0 48.0353 12.1994 586 96.6997 1341.59 477.061
515 0 50.0164 13.4356 672 93.7336 1341.91 477.015
516 0 51.0668 12.3759 632 96.443 1341.49 476.248
517 0 53.0752 12.8497 682 95.302 1341.57 476.579
518 0 53.0262 12.3524 655 93.8916 1342.22 476.554
519 0 56.0264 12.2799 688 93.4201 1342.49 475.779
520 0 59.0414 14.0241 828 91.2983 1341.7 474.565
521 0 59.0264 13.0619 771 94.38 1341.44 473.023
522 0 59.0674 12.9682 766 96.3773 1341.55 472.355
523 0 63.1206 13.6881 864 94.7951 1341.51 472.568
524 0 63.0615 11.7663 742 99.9825 1341.97 471.621
525 0 67.0687 14.7908 992 94.5393 1341.54 468.255
526 0 67.0687 14.7908 992 132.419 1341.54 468.255
527 0 72.0792 13.7626 992 97.2732 1341.71 466.253
528 0 74.1286 14.0701 1043 97.3806 1342.06 465.807
529 0 76.1284 13.1751 1003 101.131 1342.61 463.729
530 0 80.1706 13.384 1073 100.307 1342.64 462.724
531 0 82.1168 13.4443 1104 100.849 1343.23 463.521
532 0 82.2278 11.1519 917 107.225 1342.36 461.9
533 1 45.0391 11.3013 509 95.9666 1343.64 480.607
534 0 43.0216 10.2739 442 92.6041 1343.22 478.452
535 0 46.0948 10.2615 473 92.8922 1342.62 475.025
536 0 45.0098 11.1976 504 96.2738 1343.06 480.347
537 0 48.0434 11.5104 553 95.2911 1342.92 478.045
538 0 49.0162 10.3843 509 95.6778 1343.09 480.497
539 0 53.0279 11.956 634 93.6435 1342.71 477.476
540 0 53.0304 10.8051 573 96.2077 1343.17 475.614
541 0 57.0244 11.2057 639 95.0986 1343 474.438
542 0 56.0187 12.1924 683 93.9663 1343 473.508
543 0 59.0474 11.1436 658 95.693 1342.88 472.669
544 0 62.0616 11.5369 716 94.898 1342.84 472.728
545 0 64.0307 11.557 740 95.4676 1342.87 472.389
546 0 66.06 11.6712 771 95.0584 1343 470.261
547 0 70.075 12.3439 865 93.1919 1342.54 468.378
548 0 72.1858 13.0497 942 91.2856 1343.17 467.017
549 0 75.102 12.8492 965 92.9938 1343.13 465.124
550 0 77.0605 12.3539 952 93.6534 1342.9 464.061
551 0 81.0521 13.5468 1098 89.4763 1343.17 460.276
552 0 82.0764 11.8304 971 94.0886 1342.57 460.044
553 0 87.0376 13.0978 1140 91.3465 1341.74 459.765
554 0 91.04 13.1371 1196 90.9732 1342.13 458.262
555 0 93.0694 12.9581 1206 91.044 1342.13 457.986
556 1 46.0504 9.98905 460 93.1022 1343.55 478.972
557 0 47.0316 11.0351 519 90.5144 1343.47 476.961
558 0 50.1274 10.8723 545 90.1119 1343.38 478.558
559 0 52.0215 12.341 642 81.6822 1343.29 475.718
560 0 53.0981 11.2622 598 81.5401 1343.18 474.35
561 0 56.0568 9.65092 541 84.3198 1343.14 470.423
562 0 58.0608 11.2985 656 81.2591 1343.09 471.166
563 0 55.0331 8.68568 478 85.9602 1342.96 468.877
564 0 59.0618 10.1589 600 83.67 1343.14 468.525
565 0 63.0448 12.0549 760 80.3829 1343.26 468.632
566 0 63.1702 10.6538 673 82.7236 1343.15 466.319
567 0 67.0841 12.134 814 80.8845 1343.16 466.001
568 0 69.0916 10.9275 755 82.7086 1342.55 465.975
569 0 72.1506 11.0048 794 82.3866 1342.54 465.132
570 0 73.1734 11.9169 872 81.9966 1342.11 463.373
571 0 75.0811 12.0004 901 82.1854 1342.21 460.169
572 0 80.0936 12.423 995 81.6935 1342.57 458.059
573 0 82.0702 11.7948 968 82.7283 1342.93 458.227
574 0 85.114 11.7255 998 83.6062 1342.93 457.26
575 1 43.0241 9.48307 408 81.5784 1342.76 478.922
576 0 45.0527 10.2325 461 80.0954 1343 478.137
577 0 45.0322 8.14972 367 83.8774 1343.16 476.242
578 0 49.0761 9.73998 478 82.2364 1343.09 475.5
579 0 51.0346 10.777 550 80.5418 1342.64 476.175
580 0 50.0404 10.6914 535 81.5776 1342.99 473.918
581 0 51.046 10.4416 533 83.2552 1342.88 472.193
582 0 54.0831 10.7427 581 82.7384 1342.22 471.757
583 0 58.0444 12.1459 705 80.3787 1342.1 469.63
584 0 59.1503 11.3271 670 82.197 1341.71 468.388
585 0 61.0774 11.0516 675 82.8237 1342.49 467.541
586 0 64.0813 10.986 704 83.0142 1342.58 467.358
587 0 67.0736 12.5087 839 88.3659 1342.12 469.577
588 0 67.0585 10.8562 728 91.2459 1342.8 473.348
589 0 70.0948 11.0993 778 91.1761 1342.82 471.716
590 0 73.0714 11.8377 865 91.504 1342.82 469.194
591 0 75.0526 11.6585 875 92.248 1342.77 466.896
592 0 79.106 12.6918 1004 90.743 1342.72 465.981
593 0 81.1558 10.7941 876 94.1096 1342.6 465.107
594 0 87.1124 12.3519 1076 91.6022 1342.04 464.038
595 0 88.1057 11.3273 998 94.3427 1342.56 461.033
596 1 46.036 10.1877 469 97.3369 1342.82 481.772
597 0 47.046 12.4559 586 91.1655 1343.32 478.357
598 0 50.0678 12.7827 640 91.8641 1342.3 478.898
599 0 51.0616 13.4152 685 89.7533 1342.57 478.105
600 0 54.0749 12.5382 678 90.8083 1342.98 476.891
601 0 53.019 13.2783 704 90.3821 1343.24 477.815
602 0 59.0598 15.0017 886 86.1388 1342.78 476.251
603 0 58.0724 13.6381 792 90.9583 1342.56 474.451
604 0 59.0617 13.0541 771 92.7458 1343.15 473.554
605 0 62.0456 12.926 802 92.4738 1342.75 473.572
606 0 65.0508 13.3895 871 91.4615 1342.83 472.141
607 0 64.1505 12.8604 825 92.8727 1343.08 471.793
608 0 67.1107 12.8892 865 93.1514 1342.47 468.651
609 0 69.0716 12.3785 855 94.4187 1342.66 468.884
610 0 72.0675 11.8639 855 93.4175 1342.79 467.509
611 0 74.0949 12.9024 956 91.3504 1342.51 466.263
612 0 77.117 12.5135 965 91.943 1342.67 464.419
613 0 80.1331 12.8037 1026 90.923 1342.81 464.572
614 0 83.0784 11.6757 970 91.7381 1343.26 461.239
615 0 85.166 12.4698 1062 91.0904 1342.86 461.157
616 0 88.1674 12.964 1143 90.1514 1342.2 460.168
617 0 88.1474 11.2198 989 96.9454 1343.02 457.241
618 1 48.035 10.8046 519 95.2659 1342.93 481.052
619 0 52.0224 12.5907 655 93.8458 1343.44 478.881
620 0 52.0967 13.8589 722 92.3906 1343.54 477.313
621 0 52.0324 11.8388 616 89.6429 1342.9 479.138
622 0 53.0472 12.4983 663 88.3213 1343.49 476.315
623 0 55.0793 11.9646 659 89.4234 1342.51 477.311
624 0 58.0674 9.95394 578 91.5606 1342.41 477.234
625 0 58.0425 12.2497 711 88.6118 1342.43 473.544
626 0 61.1125 12.0925 739 88.751 1342.21 473.973
627 0 62.1685 11.7423 730 89.2493 1342.28 471.075
628 0 62.0636 12.0683 749 90.0093 1341.52 471.312
629 0 67.0979 11.7142 786 88.9288 1342.16 470.307
630 0 68.0962 10.6908 728 90.9959 1341.89 471.494
631 0 69.081 12.1307 838 88.6014 1342.09 469.149
632 0 71.1665 11.8033 840 91.6845 1341.57 464.506
633 0 74.0715 10.6789 791 92.3211 1341.9 466.383
634 0 79.1191 12.1462 961 90.1582 1342.28 464.764
635 0 80.0576 10.8547 869 92.496 1342.17 464.414
636 0 84.1377 11.8021 993 91.1037 1342.25 461.994
637 0 87.1108 11.9503 1041 91.6744 1342.55 460.201
638 0 89.1101 12.6809 1130 91.2195 1342.83 458.346
639 0 92.1277 12.3741 1140 92.6193 1342 457.096
640 0 96.2133 12.597 1212 92.5726 1340.88 454.038
641 0 100.173 12.9077 1293 90.7131 1341.91 454.036
642 0 103.302 14.143 1461 89.8556 1341.13 450.222
643 1 51.1114 10.4673 535 91.9103 1342.2 476.529
644 0 55.1644 11.9642 660 90.5061 1341.83 474.782
645 0 58.1643 12.5507 730 94.963 1341.43 474.381
646 0 58.0377 12.1473 705 98.5957 1340.86 474.298
647 0 60.0378 12.4921 750 98.692 1340.34 474.163
648 0 64.0762 12.7192 815 97.4429 1340.23 473.012
649 0 64.0988 12.3091 789 101.309 1339.98 472.494
650 0 67.0715 13.7913 925 99.4205 1340.27 469.332
651 0 72.0521 15.0724 1086 95.8444 1340.44 469.461
652 0 73.1542 12.6855 928 102.398 1341.03 467.861
653 0 75.0914 13.4902 1013 102.096 1340.5 467.2
654 0 80.0923 15.3198 1227 97.1125 1341.1 467.017
655 0 83.1156 14.4377 1200 100.044 1341.44 464.628
656 0 84.1143 14.0285 1180 102.192 1341.59 462.928
657 0 86.1588 14.2992 1232 103.713 1341.1 460.588
658 0 90.0731 15.1544 1365 100.364 1341.29 461.893
659 0 91.1634 14.0078 1277 103.762 1341.3 458.922
660 0 94.2522 14.2702 1345 104.331 1341.3 455.751
661 1 46.1447 11.9624 552 100.672 1341.05 479.839
662 0 51.165 12.4108 635 94.8047 1341.02 477.595
663 0 50.1202 9.39741 471 90.7728 1341.9 478.34
664 0 50.0496 11.049 553 88.2224 1342.01 477.08
665 0 50.0924 11.3191 567 96.1764 1342.57 478.57
666 0 53.0433 10.614 563 96.6252 1342.63 478.73
667 0 54.0565 10.748 581 96.5697 1342.51 477.537
668 0 58.119 11.27 655 93.7832 1342.28 477.452
669 0 59.0531 11.786 696 94.2759 1342.24 475.167
670 0 62.1784 11.3062 703 94.6856 1341.87 475.016
671 0 63.0867 11.3336 715 96.3958 1341.44 472.985
672 0 67.1213 11.5463 775 94.0658 1341.46 473.886
673 0 70.0706 12.4303 871 93.5637 1341.6 470.84
674 0 70.1319 11.4356 802 96.2244 1341.3 470.203
675 0 74.0544 10.8839 806 96.5124 1341.34 470.324
676 0 76.0827 10.5543 803 97.8194 1341.35 466.91
677 0 78.0519 10.9158 852 97.8392 1341.29 466.906
678 0 83.0519 11.7517 976 96.5984 1341.3 463.167
679 0 85.1241 12.147 1034 96.5571 1341.2 462.465
680 0 88.1836 11.2039 988 98.9565 1340.8 459.462
681 1 51.1427 11.4386 585 90.1368 1341.61 479.316
682 0 52.1041 11.8609 618 89.9482 1342.24 479.086
683 0 53.1338 11.0476 587 91.1516 1341.7 478.044
684 0 55.0336 11.7201 645 90.3892 1342.2 478.214
685 0 55.0928 11.399 628 92.0366 1341.78 476.615
686 0 57.143 11.3925 651 92.6037 1341.87 474.851
687 0 60.1064 11.8457 712 91.7303 1341.85 476.989
688 0 62.0865 11.7095 727 92.8198 1341.46 474.205
689 0 64.0555 14.1908 909 87.8251 1341.57 471.217
690 0 65.0848 11.124 724 93.7983 1341.87 472.486
691 0 67.0978 11.5652 776 93.0296 1342.37 471.486
692 0 71.0827 12.5066 889 91.2002 1342.29 470.336
693 0 73.0927 11.6701 853 93.272 1342.21 469.352
694 0 72.1196 11.3007 815 95.8564 1342.06 466.838
695 0 75.0917 11.3728 854 95.7728 1341.82 466.637
696 0 79.075 10.3573 819 97.486 1342.3 464.064
697 0 80.0957 12.0855 968 93.8016 1342.81 465.354
698 0 84.0608 12.4315 1045 95.3005 1342.83 460.152
699 0 87.0508 11.074 964 98.1027 1342.85 461.854
700 0 90.0902 10.6116 956 99.3661 1342.55 459.121
701 0 96.2187 12.7522 1227 95.0962 1342.25 459.398
702 1 45.169 10.029 453 96.9846 1341.57 480.812
703 0 45.2815 9.93783 450 96.4089 1341.63 476.827
704 0 50.1893 11.0183 553 93.6817 1341.14 474.709
705 0 50.2477 9.7716 491 97.4073 1340.79 473.874
706 0 48.2353 11.1122 536 95.7369 1341.39 473.75
707 0 54.1952 9.72411 527 96.1954 1340.86 473.154
708 0 52.1194 10.8789 567 96.5432 1340.84 471.795
709 0 54.2882 10.5179 571 96.3835 1340.84 471.79
710 0 54.2202 11.1951 607 96.4745 1340.98 468.959
711 0 57.1731 11.7363 671 95.5648 1340.79 469.723
712 0 60.1632 11.6849 703 94.872 1341.04 469.761
713 0 61.2323 11.6278 712 96.9874 1341.02 466.327
714 0 65.175 11.3694 741 96.8475 1341.36 465.741
715 0 66.103 11.5729 765 98.0523 1341.06 463.976
716 0 68.1879 11.9816 817 96.8556 1341.09 464.414
717 0 71.1838 11.955 851 96.9812 1341.75 463.014
718 0 70.075 10.2033 715 102.674 1341.75 461.164
719 0 74.0893 12.377 917 98.0774 1341.61 461.069
720 0 78.1457 11.4914 898 100.151 1341.76 461.892
721 0 77.2032 10.3752 801 105.328 1341.54 456.226
722 0 83.1543 12.3626 1028 100.003 1341.3 456.333
723 0 85.0656 10.8975 927 102.425 1341.54 456.006
724 0 89.095 11.7403 1046 101.275 1341.38 454.42
725 0 93.1261 12.5314 1167 99.7421 1341.14 452.616
726 0 96.1646 11.1268 1070 102.224 1341.16 450.893
727 1 49.0403 8.84986 434 89.4447 1341.62 479.364
728 0 50.0238 8.97572 449 90.5924 1341.52 478.096
729 0 53.0493 13.1953 700 88.67 1341.93 478.541
730 0 53.0484 11.8759 630 92.2667 1341.64 477.295
731 0 55.0284 11.8303 651 91.2842 1342.29 478.727
732 0 57.031 12.011 685 91.9358 1342.41 477.537
733 0 60.1748 13.0121 783 89.8186 1342.09 474.599
734 0 60.1757 12.3139 741 92.0688 1341.76 473.426
735 0 64.2152 13.6884 879 88.7747 1341.36 473.298
736 0 64.1667 12.561 806 91.8387 1342.18 474.009
737 0 66.0994 12.2845 812 91.6367 1341.81 472.063
738 0 69.0786 13.3182 920 90.5565 1341.79 469.59
739 0 71.0641 13.7059 974 90.2146 1341.55 469.881
740 0 74.0901 14.2394 1055 90.1573 1341.8 467.747
741 0 77.0864 13.3876 1032 91.8488 1341.42 467.823
742 0 78.1175 13.2237 1033 93.4763 1341.18 465.199
743 0 79.0934 12.6053 997 95.7422 1341.3 464.263
744 0 82.1362 11.6879 960 95.451 1341.51 464.42
745 0 85.1331 11.899 1013 96.2527 1341.01 460.975
746 0 89.0955 13.0085 1159 94.5393 1340.96 459.858
747 1 44.0387 9.6506 425 96.3435 1341.26 484.984
748 0 43.0212 10.7389 462 96.0476 1341.26 482.1
749 0 46.1478 12.0699 557 96.4291 1340.53 479.504
750 0 48.1034 10.4359 502 92.0239 1340.7 480.865
751 0 48.073 12.3354 593 94.8887 1341.51 480.762
752 0 48.0635 12.6916 610 93.3164 1341.53 480.961
753 0 51.0688 11.8076 603 94.5572 1341.86 480.781
754 0 51.0982 10.4505 534 97.103 1341.93 480.015
755 0 54.179 11.4066 618 95.6683 1341.16 478.862
756 0 56.0654 10.4342 585 96.894 1341.17 478.022
757 0 56.0333 10.0476 563 96.2487 1341.43 477.837
758 0 60.1021 11.0479 664 94.2816 1341.18 474.747
759 0 62.0582 11.2314 697 93.3745 1341.41 474.263
760 0 65.1115 11.2269 731 94.0315 1340.31 472.55
761 0 67.081 12.6265 847 90.7828 1340.33 471.594
762 0 68.0743 10.4298 710 94.3437 1340.44 470.369
763 0 72.0377 11.7439 846 92.0934 1340.27 468.631
764 0 72.0534 10.8392 781 93.6889 1340.98 468.513
765 0 77.2409 12.1309 937 90.9904 1340.78 465.668
766 0 80.2306 12.3519 991 90.7487 1340.87 464.683
767 0 83.195 10.6978 890 94.3663 1340.44 463.958
768 1 46.1316 11.2938 521 85.3916 1340.82 484.726
769 0 44.1336 9.99238 441 90.0113 1340.62 480.905
770 0 45.1844 10.4682 473 88.0719 1341.05 482.486
771 0 47.0558 11.0507 520 87.1962 1341.22 481.815
772 0 49.0624 11.3733 558 85.267 1341.92 479.774
773 0 51.1419 11.6343 595 85.2655 1341.92 479.652
774 0 51.122 11.5606 591 110.992 1340.9 479.663
775 0 55.03 11.5392 635 85.8142 1341.76 478.485
776 0 58.0408 11.7159 680 86.0118 1341.51 476.218
777 0 58.0833 11.1047 645 88.2729 1342 475.259
778 0 60.0576 12.5213 752 86.1848 1341.84 475.117
779 0 60.0571 10.3235 620 91.5532 1341.46 473.444
780 0 66.0792 12.4093 820 87.9707 1341 469.36
781 0 66.0654 9.95983 658 93.1505 1340.63 469.895
782 0 68.1065 10.5717 720 93.5514 1340.63 467.076
783 0 70.1127 11.6669 818 92.2873 1340.61 466.874
784 0 72.1578 9.65938 697 95.5667 1340.86 466.657
785 0 75.1872 11.345 853 93.7995 1341.09 464.783
786 0 78.1122 11.253 879 95.3686 1341.05 465.076
787 0 82.2373 11.0777 911 95.1932 1340.92 465.908
788 1 41.1026 9.00186 370 95.4541 1340.87 485.516
789 0 45.0498 10.1887 459 93.7364 1340.63 483.37
790 0 44.0232 10.1992 449 94.9577 1341.67 482.929
791 0 48.0421 11.927 573 91.459 1341.42 480.401
792 0 48.0346 12.8241 616 86.8815 1341.85 482.294
793 0 48.1641 11.3155 545 90.3101 1342.01 480.345
794 0 51.1228 12.7927 654 87.2706 1342.04 480.2
795 0 53.0618 12.0049 637 89.0078 1341.8 480.248
796 0 52.0758 11.8289 616 90.4951 1341.63 479.109
797 0 55.121 12.2639 676 89.3018 1341.63 477.765
798 0 57.1206 14.1105 806 87.0434 1341.49 476.721
799 0 59.1054 13.7551 813 87.5043 1341.8 476.279
800 0 61.1538 12.9019 789 89.8403 1341.44 475.198
801 0 61.0415 12.0574 736 91.7011 1341.44 474.386
802 0 64.1041 12.4797 800 91.695 1341.03 473.401
803 0 65.0923 14.0262 913 88.4655 1341.87 470.525
804 0 69.0431 12.3546 853 90.7784 1341.52 471.319
805 0 71.0608 13.2281 940 89.6 1340.95 471.235
806 0 72.1206 11.3144 816 95.0441 1340.99 467.123
807 0 75.0749 13.067 981 91.2283 1341.45 467.704
808 0 76.1189 12.533 954 93.1499 1340.99 464.589
809 0 80.0858 12.8237 1027 92.5667 1340.86 464.777
810 0 82.1857 11.2672 926 96.3024 1341.07 463.805
811 0 85.0422 11.4531 974 96.3604 1341.69 462.237
812 1 43.1156 9.83402 424 100.198 1341.11 482.675
813 0 46.0538 9.98831 460 95.637 1341.76 482.376
814 0 48.1013 11.8708 571 91.1086 1341.7 480.559
815 0 49.1057 11.3429 557 92.6481 1341.68 480.661
816 0 50.093 12.916 647 89.5796 1341.33 479.195
817 0 51.0844 12.078 617 91.5559 1341.24 478.836
818 0 53.0733 12.1718 646 92.3344 1341.28 479.483
819 0 57.0909 13.2245 755 89.4795 1341.48 477.502
820 0 56.0786 11.7335 658 120.277 1341.54 475.892
821 0 59.1483 11.5134 681 92.9207 1341.75 476.179
822 0 62.1096 12.0593 749 92.8945 1341.28 473.358
823 0 64.0702 12.8921 826 91.6671 1341.14 470.72
824 0 66.0957 12.3609 817 93.8335 1341.48 471.988
825 0 70.0861 11.8426 830 94.9855 1341.4 470.094
826 0 69.0662 11.8437 818 96.3716 1341.49 469.687
827 0 74.2352 12.1102 899 96.1268 1340.77 468.532
828 0 76.2011 12.4801 951 98.3344 1341.18 464.603
829 0 78.1415 11.4792 897 102.644 1340.7 462.935
830 1 40.1129 10.1464 407 99.4054 1340.69 485.165
831 0 41.0889 11.5116 473 99.2093 1340.2 482.871
832 0 45.1745 12.0643 545 98.6055 1340.12 482.706
833 0 44.0635 11.7104 516 100.769 1340.74 483.06
834 0 48.0832 13.2479 637 96.3548 1340.94 482.223
835 0 48.0754 11.2323 540 101.567 1340.38 483.698
836 0 48.0797 10.8778 523 100.969 1340.91 483.461
837 0 51.1445 10.617 543 101.25 1340.48 482.68
838 0 53.0966 12.0912 642 98.1978 1340.91 481.051
839 0 53.087 12.4889 663 98.8009 1340.87 479.569
840 0 56.0688 12.8235 719 97.1822 1341.02 479.245
841 0 59.0205 12.4533 735 97.8762 1340.9 477.653
842 0 60.106 13.4097 806 97.6625 1340.09 475.762
843 0 65.0913 13.6117 886 97.1467 1339.69 474.418
844 0 65.134 12.6969 827 99.312 1340.04 473.701
845 0 67.1737 12.8175 861 99.1487 1340.47 473.935
846 0 68.1801 12.3056 839 101.499 1340.2 471.592
847 0 72.2696 12.3703 894 101.295 1339.86 470.717
848 0 72.1205 12.8258 925 101.897 1339.27 469.724
849 0 77.1624 11.897 918 102.561 1340.14 469.487
850 0 78.1454 12.8734 1006 102.588 1339.37 466.344
851 0 81.0778 13.3205 1080 101.963 1339.92 464.431
852 0 83.1296 12.3542 1027 103.436 1340.27 465.791
853 1 45.1118 10.7067 483 104.708 1340.39 483.317
854 0 48.0798 12.708 611 100.247 1340.35 482.267
855 0 50.0496 13.7863 690 98.8333 1340.35 480.435
856 0 50.0742 14.0991 706 95.5227 1340.62 480.001
857 0 49.1174 12.5007 614 100.985 1340.65 479.542
858 0 52.0814 13.1141 683 98.6223 1340.74 478.874
859 0 55.1371 13.3667 737 97.5292 1340.25 476.847
860 0 57.0581 13.4424 767 97.1317 1340.58 476.967
861 0 59.1066 13.6533 807 96.6233 1340.67 475.902
862 0 60.123 12.99 781 98.58 1340.34 474.307
863 0 62.0932 13.0127 808 97.7636 1340.19 474.124
864 0 65.0681 14.9075 970 94.3041 1339.97 471.92
865 0 66.0786 13.4839 891 97.7003 1340.01 471.567
866 0 68.0614 11.8275 805 101.282 1340.26 470.635
867 0 70.0884 13.1833 924 98.8994 1339.88 468.107
868 0 73.094 12.094 884 100.869 1339.83 467.88
869 0 77.1467 12.8586 992 99.2812 1339.66 465.197
870 0 79.1492 12.8997 1021 99.284 1340.22 465.599
871 0 83.0761 12.6872 1054 99.2448 1340.51 464.603
872 1 43.0108 10.8345 466 101.562 1340.13 482.968
873 0 45.0539 11.2088 505 99.5168 1341.48 478.455
874 0 47.1609 12.6588 597 96.4774 1341.26 478.161
875 0 47.0171 11.7192 551 97.412 1341.52 480.45
876 0 48.0217 13.7438 660 93.253 1341.72 479.294
877 0 51.0579 12.4369 635 96.1795 1341.4 477.205
878 0 52.2444 10.5083 549 98.0437 1341.44 476.299
879 0 54.036 12.5657 679 94.9588 1341.04 476.885
880 0 57.0376 12.7635 728 93.8214 1341.05 474.662
881 0 56.1054 11.015 618 98.8641 1340.94 474.67
882 0 61.1373 11.9403 730 96.7973 1340.45 475.21
883 0 59.1222 12.0429 712 98.691 1340.54 474.656
884 0 63.0784 12.6668 799 98.2703 1340.92 472.125
885 0 63.0784 12.6826 800 130.816 1341.91 472.089
886 0 67.13 11.0681 743 100.26 1341.31 472.665
887 0 66.0711 10.1406 670 103.667 1341.11 470.96
888 0 70.0913 11.4707 804 100.558 1341.15 470.861
889 0 72.0453 13.4082 966 96.9648 1340.98 468.583
890 0 74.0289 11.1848 828 102.418 1341.25 466.048
891 0 79.0741 12.0267 951 99.9464 1341.41 465.424
892 0 80.0942 12.3105 986 101.062 1341.17 462.274
893 0 84.0477 11.8861 999 100.488 1341.69 461.142
894 0 85.129 10.6074 903 101.199 1341.82 460.786
895 0 91.0501 12.5096 1139 98.0061 1341.04 459.488
896 0 93.1793 11.9554 1114 99.9057 1340.84 457.143
897 1 49.0192 10.8937 534 99.0187 1341.6 475.79
898 0 54.0346 12.8621 695 95.3094 1341.39 477.999
899 0 53.0438 11.5753 614 98.8648 1341.35 476.694
900 0 55.0527 11.9885 660 103.752 1341.19 475.439
901 0 55.086 12.3443 680 104.356 1341.26 474.418
902 0 59.1717 12.9285 765 101.45 1341.14 474.18
903 0 61.1388 13.134 803 101.854 1340.73 471.651
904 0 63.1793 12.5832 795 101.145 1341.35 473.722
905 0 63.0784 12.2387 772 104.105 1340.15 471.308
906 0 66.1051 12.7524 843 102.638 1340.67 471.227
907 0 69.223 14.1571 980 99.8582 1340.71 469.349
908 0 71.1708 13.011 926 103.754 1340.03 469.501
909 0 75.1416 14.3995 1082 99.1109 1340.59 467.323
910 0 74.2076 12.7884 949 102.409 1339.99 467.645
911 0 79.2163 12.9519 1026 101.269 1340.31 463.779
912 0 79.1557 12.6207 999 101.619 1340.73 465.045
913 0 81.198 13.2516 1076 97.3652 1340.58 461.195
914 0 83.1098 12.5737 1045 100.044 1340.95 460.155
915 0 88.1056 14.5621 1283 95.9673 1341.04 458.511
916 0 90.1026 13.5401 1220 98.859 1340.77 457.062
917 0 92.1929 12.181 1123 101.749 1340.68 456.428
918 0 97.2074 13.4969 1312 98.8933 1340.72 456.656
919 0 98.0904 12.3458 1211 102.923 1340.66 451.851
920 0 102.097 13.8594 1415 100.553 1340.67 451.032
921 1 55.1284 11.7 645 98.8527 1341.37 476.716
922 0 58.0426 11.9223 692 98.5506 1340.76 475.704
923 0 60.0553 11.8058 709 99.9577 1339.84 473.925
924 0 62.0582 12.3594 767 99.9205 1340.12 474.754
925 0 65.1144 12.5011 814 99.8194 1340.21 469.693
926 0 64.1153 13.4757 864 94.0926 1341.36 470.36
927 0 66.1037 11.603 767 99.0182 1340.6 469.309
928 0 69.0839 13.1145 906 97.0464 1339.42 468.79
929 0 72.0711 12.1547 876 98.8002 1339.78 469.372
930 0 73.0404 12.185 890 98.3427 1340.83 468.6
931 0 76.0525 12.9516 985 97.6193 1340.43 466.562
932 0 80.146 13.5627 1087 95.5437 1341.63 462.472
933 0 80.146 13.5752 1088 137.987 1342.64 462.611
934 0 84.3063 13.273 1119 97.6122 1341 459.735
935 0 88.0621 13.7744 1213 97.5697 1341.13 459.872
936 0 88.25 12.7592 1126 100.337 1341.34 459.425
937 0 93.1551 15.1253 1409 95.6884 1341.4 457.35
938 0 96.198 12.5055 1203 101.588 1341.63 454.243
939 0 99.1457 14.514 1439 97.9764 1341.04 453.68
940 0 100.194 12.1664 1219 102.628 1341.32 450.708
941 0 106.151 12.9061 1370 100.568 1340.91 450.456
942 0 110.205 13.4567 1483 100.003 1340.83 445.515
943 1 61.1589 11.8217 723 100.79 1340.9 469.918
944 0 68.219 13.7498 938 97.3316 1341.27 469.945
945 0 67.2505 12.4906 840 101.56 1340.76 466.996
946 0 69.0789 13.3036 919 95.4374 1341.51 467.653
947 0 72.0593 13.2252 953 96.0808 1340.98 467.073
948 0 73.0909 12.5323 916 98.3908 1341.47 465.031
949 0 77.1055 12.4764 962 97.1029 1341.47 466.262
950 0 80.0972 13.621 1091 95.242 1341.6 463.175
951 0 83.1851 12.6225 1050 94.8848 1341.76 461.385
952 0 85.1264 12.2641 1044 97.7538 1341.97 460.022
953 0 88.1072 12.7799 1126 97.1528 1341.76 458.932
954 0 91.1547 14.2066 1295 94.5467 1341.61 456.035
955 0 94.0916 13.912 1309 95.518 1341.31 456.122
956 0 97.1131 13.7469 1335 95.2899 1341.88 455.679
957 0 99.0467 14.1247 1399 96.1808 1342.13 452.578
958 0 103.138 14.1946 1464 95.8477 1341.56 448.506
959 0 109.068 16.3109 1779 90.9888 1342.11 448.782
960 0 113.093 14.7224 1665 95.5045 1341.8 446.4
961 0 117.044 13.9606 1634 97.7301 1341.8 444.547
962 1 63.0441 13.2447 835 96.8874 1341.73 470.848
963 0 63.0634 11.6074 732 96.9781 1342.49 466.022
964 0 67.0718 13.2395 888 91.8637 1342.42 468.544
965 0 69.1167 12.8044 885 93.8678 1342.19 468.512
966 0 72.0849 14.2887 1030 91.1981 1341.96 467.541
967 0 73.0601 13.9885 1022 93.59 1341.37 466.476
968 0 77.0861 13.3876 1032 94.4767 1341.5 465.27
969 0 80.1224 14.9771 1200 92.595 1341.48 462.701
970 0 81.1065 13.2049 1071 97.112 1341.87 461.362
971 0 85.0911 13.5972 1157 96.9153 1341.24 460.917
972 0 89.096 14.1421 1260 96.8381 1341 459.816
973 0 92.0583 14.0672 1295 97.8811 1341.51 458.494
974 0 92.1371 13.9358 1284 100.363 1341.41 455.639
975 0 98.0896 14.5989 1432 98.4804 1342 454.997
976 0 99.076 14.0902 1396 100.403 1341.93 452.865
977 0 104.137 15.4796 1612 97.794 1342.17 452.425
978 0 103.175 13.6952 1413 103.304 1342.42 451.078
979 0 109.164 13.9423 1522 103.083 1341.77 446.578
980 0 110.142 12.1117 1334 108.608 1342 446.372
981 1 63.0966 11.1892 706 106.503 1342.18 469.306
982 0 65.1397 12.4502 811 105.789 1341.75 467.943
983 0 65.0917 11.8756 773 101.417 1340.97 465.899
984 0 67.1306 11.8426 795 94.9736 1340.88 463.825
985 0 69.093 12.3312 852 92.9143 1341.25 464.133
986 0 72.0608 13.0862 943 90.9629 1341.27 461.305
987 0 75.0485 11.4992 863 95.2712 1341.34 462.672
988 0 77.0924 11.1036 856 96.1086 1341.9 459.755
989 0 80.2376 11.8523 951 94.8454 1341.62 457.719
990 0 82.1278 10.9585 900 97.8367 1341.71 456.017
991 0 84.1368 11.0653 931 98.2997 1341.12 455.075
992 0 89.0778 12.8652 1146 97.0166 1341.51 456.792
993 0 92.0601 12.4918 1150 101.157 1341.6 457.136
994 0 96.0913 12.9044 1240 100.614 1341.59 455.051
995 1 46.0883 11.1959 516 100.516 1342.76 477.928
996 0 49.0676 12.3095 604 98.2947 1341.95 477.606
997 0 50.0599 13.0843 655 96.5099 1342.3 476.305
998 0 50.0809 11.2019 561 100.303 1342.29 475.091
999 0 53.058 12.4957 663 97.1795 1342.17 475.486
1000 0 54.1655 10.9848 595 101.637 1341.61 476.321
1001 0 55.1049 11.7775 649 101.037 1342.07 472.337
1002 0 57.1073 11.4346 653 100.686 1341.89 474.245
1003 0 59.0921 12.5059 739 99.2287 1342.3 471.497
1004 0 61.0798 12.7047 776 99.7977 1341.9 471.354
1005 0 64.141 13.8913 891 98.0146 1341.58 468.953
1006 0 68.09 13.35 909 98.4081 1341.8 470.3
1007 0 68.1084 13.1996 899 98.4672 1341.76 469.057
1008 0 69.0445 13.8751 958 98.7735 1340.92 466.669
1009 0 72.1681 12.651 913 100.905 1340.11 467.46
1010 0 75.1007 13.7948 1036 98.638 1340.78 465.671
1011 0 78.099 12.9195 1009 100.983 1340.38 464.99
1012 0 80.0883 13.8347 1108 99.9197 1340.13 463.841
1013 0 83.052 13.4374 1116 101.362 1340.52 461.762
1014 0 86.112 14.7715 1272 98.125 1340.37 460.506
1015 0 90.1259 13.9583 1258 99.7727 1340.1 457.945
1016 1 48.0474 12.009 577 100.898 1339.81 477.811
1017 0 49.1129 12.1149 595 98.8134 1340.27 479.239
1018 0 52.0955 12.8418 669 94.6996 1340.48 477.302
1019 0 49.0472 11.1525 547 95.6143 1341.85 475.717
1020 0 54.0697 12.2065 660 93.1227 1340.73 475.494
1021 0 55.0543 13.0598 719 90.847 1341.85 473.732
1022 0 56.0272 13.1365 736 91.2351 1341.48 474.293
1023 0 57.0704 14.1404 807 88.9095 1342.36 473.745
1024 0 60.162 12.965 780 91.0436 1341.68 471.496
1025 0 61.1648 13.5862 831 89.4489 1341.39 472.001
1026 0 61.0416 12.6635 773 92.3622 1341.26 469.354
1027 0 64.043 12.679 812 92.6576 1340.95 469.39
1028 0 65.1074 13.5929 885 93.0102 1341.05 469.425
1029 0 67.1065 13.0241 874 94.8261 1340.77 466.906
1030 0 70.1544 12.6435 887 95.1849 1341.03 467.112
1031 0 73.2661 12.9118 946 94.7146 1341.15 464.125
1032 0 75.088 12.0658 906 95.957 1341.33 463.661
1033 0 77.0531 13.4453 1036 93.6612 1340.95 461.286
1034 0 81.1367 13.0027 1055 94.2446 1340.31 461.21
1035 0 84.1698 12.7718 1075 95.4484 1340.37 459.361
1036 0 86.1536 12.5706 1083 94.9234 1340.93 459.294
1037 1 48.158 12.106 583 94.8268 1340.64 477.93
1038 0 46.242 11.4398 529 94.4083 1340.67 473.845
1039 0 52.0795 11.5784 603 94.3267 1341.9 477.028
1040 0 50.0327 13.3313 667 93.4468 1341.05 474.793
1041 0 51.0897 11.1764 571 97.1716 1341.4 475.438
1042 0 54.1231 12.4531 674 95.1662 1341.09 473.38
1043 0 56.0949 12.9424 726 94.1336 1340.62 473.628
1044 0 56.2093 12.1866 685 96.362 1341 472.311
1045 0 57.1274 12.4809 713 96.6452 1341 471.595
1046 0 62.1241 12.8935 801 94.3446 1340.97 471.111
1047 0 64.1905 12.8056 822 95.7445 1340.93 469.689
1048 0 66.1511 13.2122 874 96.373 1340.28 467.874
1049 0 69.1538 12.4216 859 97.2922 1340.41 467.104
1050 0 70.167 12.0142 843 98.6453 1340.7 469.442
1051 0 74.1053 11.9425 885 96.8881 1341.45 468.224
1052 0 75.1692 12.412 933 98.2787 1341.07 465.643
1053 0 79.0832 12.1391 960 98.4833 1341.29 461.573
1054 1 40.0228 11.1936 448 89.183 1341.88 482
1055 0 43.017 11.6931 503 86.497 1340.89 481.537
1056 0 44.0195 12.1083 533 88.7486 1341.71 481.728
1057 0 46.0561 12.1157 558 87.9552 1341.57 481.428
1058 0 46.0468 12.4656 574 88.2195 1341.79 478.861
1059 0 49.1675 12.4472 612 87.969 1341.72 478.966
1060 0 51.089 12.762 652 87.9264 1341.28 478.675
1061 0 52.0332 13.549 705 86.7319 1341.35 477.979
1062 0 55.0341 13.4099 738 86.8293 1342.28 476.749
1063 0 55.0396 14.0444 773 86.912 1342.19 475.503
1064 0 58.0726 13.4659 782 88.1215 1342.46 472.89
1065 0 59.2184 12.0571 714 90.7437 1341.99 474.448
1066 0 62.1012 13.1882 819 88.6703 1342.06 471.355
1067 0 62.1366 12.2472 761 91.0907 1342.4 471.06
1068 0 67.138 13.5244 908 88.2963 1341.57 471.504
1069 0 66.0925 12.9213 854 86.2799 1341.2 468.665
1070 0 69.1598 11.7554 813 88.0861 1341.13 470.961
1071 0 69.1008 9.42103 651 94.3502 1341.31 466.508
1072 0 73.1542 10.9085 798 91.6717 1341.7 467.139
1073 0 75.0326 11.7815 884 91.9943 1341.83 464.761
1074 0 76.1485 10.8866 829 95.9554 1341.28 464.58
1075 1 41.0558 9.91333 407 95.113 1341.07 484.577
1076 0 42.0329 12.4188 522 92.3755 1341.25 482.481
1077 0 43.0608 11.0773 477 95.6373 1341.07 482.403
1078 0 46.0397 12.2503 564 94.0213 1341.23 481.121
1079 0 49.0336 13.5825 666 91.6321 1341.3 479.641
1080 0 49.0624 12.5147 614 94.8371 1342.26 479.974
1081 0 50.0445 13.3282 667 94.2174 1341.69 478.992
1082 0 50.0507 12.4873 625 98.0816 1341.3 478.917
1083 0 54.0902 13.6809 740 94.3973 1340.77 476.372
1084 0 54.0887 12.6274 683 97.5827 1341.57 476.262
1085 0 56.1268 13.1666 739 96.8647 1340.69 475.046
1086 0 59.0448 12.7869 755 96.8225 1341.1 473.444
1087 0 59.0675 11.5123 680 100.05 1341.17 475.421
1088 0 64.0765 13.0001 833 95.8607 1340.83 473.866
1089 0 65.0751 13.3384 868 96.1325 1341.24 472.766
1090 0 67.1298 13.3175 894 96.7852 1340.87 471.352
1091 0 69.0613 13.5387 935 97.7872 1341.09 468.514
1092 0 70.0438 13.1489 921 99.3301 1340.98 468.102
1093 0 74.0343 13.5343 1002 97.8124 1340.54 465.477
1094 0 76.0455 13.2421 1007 99.1897 1340.69 463.55
1095 1 40.1245 11.888 477 99.9581 1339.91 482.581
1096 0 41.0532 12.3742 508 99.4488 1339.37 483.689
1097 0 42.0459 11.535 485 104.971 1339.3 481.35
1098 0 44.0416 11.1258 490 106.367 1339.86 479.106
1099 0 44.1945 11.472 507 105.694 1340.81 478.635
1100 0 48.0877 11.9157 573 104.096 1340.33 479.379
1101 0 47.1288 12.3703 583 104.688 1340.62 477.36
1102 0 48.1625 11.9387 575 104.781 1340.97 477.2
1103 0 50.2307 12.8607 646 102.299 1341.13 475.621
1104 0 53.1576 13.3941 712 100.048 1341.38 475.879
1105 0 51.1568 11.1227 569 105.822 1341.52 476.035
1106 0 57.2982 13.1767 755 99.1815 1341.53 474.93
1107 0 57.2399 12.6136 722 101.968 1341.01 473.036
1108 0 58.1926 11.9946 698 104.117 1341.13 471.95
1109 0 60.2146 11.9904 722 104.611 1340.66 472.528
1110 0 63.1078 13.8018 871 100.119 1340.72 470.298
1111 0 63.1387 12.9556 818 102.507 1341.12 470.322
1112 0 67.1233 13.289 892 100.849 1340.8 470.007
1113 0 70.2153 12.8177 900 103.321 1340.26 466.997
1114 0 72.1159 12.8404 926 102.91 1340.63 466.214
1115 0 73.1419 13.3576 977 103.125 1340.34 464.585
1116 0 77.1196 13.291 1025 101.799 1340.25 464.388
1117 0 76.102 12.089 920 102.407 1341.5 465.479
1118 0 80.0424 13.1805 1055 101.186 1341.5 463.115
1119 0 81.0946 11.0242 894 105.833 1341.46 461.67
1120 0 83.049 12.2097 1014 104.743 1341.79 458.01
1121 0 87.0942 12.5496 1093 102.111 1340.93 458.092
1122 0 87.0942 12.5611 1094 135.531 1339.95 458.116
1123 1 51.1392 9.60125 491 89.169 1341.56 476.935
1124 0 50.1132 9.5384 478 92.3431 1341.76 477.623
1125 0 49.1509 8.50443 418 92.1292 1341.37 471.39
1126 0 53.157 9.81996 522 89.7739 1341.07 470.115
1127 0 56.1393 11.8277 664 85.7741 1341.22 471.33
1128 0 58.1594 11.2621 655 87.1725 1341.13 471.714
1129 0 59.1182 12.3989 733 86.6276 1341.12 469.138
1130 0 60.1516 11.072 666 88.9895 1341.3 469.557
1131 0 61.1 11.5385 705 89.2695 1341.37 467.783
1132 0 64.1132 11.4953 737 89.4817 1341.45 466.828
1133 0 64.0928 10.9373 701 91.01 1341.85 465.538
1134 0 65.1302 9.85718 642 93.5639 1341.28 463.218
1135 0 70.0785 10.8735 762 91.5328 1341.26 462.415
1136 0 75.1258 12.1396 912 88.8794 1341.11 461.237
1137 0 74.1425 10.6417 789 93.5615 1341.06 458.498
1138 0 78.2003 11.4066 892 92.6054 1340.94 458.117
1139 0 79.1246 10.1359 802 99.7693 1340.93 455.317
1140 0 83.2196 10.9469 911 96.9012 1341.5 457.329
1141 0 84.1151 10.5451 887 99.2661 1340.95 452.621
1142 0 90.1291 10.7845 972 104.755 1340.91 457.498
1143 0 93.1623 11.6141 1082 106.243 1341.12 454.337
1144 0 97.1087 12.3367 1198 105.425 1340.5 451.322
1145 0 97.1087 12.3058 1195 134.981 1339.51 451.399
1146 1 51.1248 12.6358 646 94.2616 1341.15 473.628
1147 0 52.1355 11.2591 587 103.668 1339.67 475.532
1148 0 54.1626 12.4809 676 101.496 1339.07 474.543
1149 0 54.0389 11.3437 613 105.551 1338.57 473.887
1150 0 58.0742 12.5012 726 101.286 1338.68 473.957
1151 0 59.032 13.4842 796 99.4121 1338.41 472.602
1152 0 61.124 12.1883 745 102.532 1339.1 469.736
1153 0 61.1025 11.718 716 103.862 1338.99 470.779
1154 0 64.0919 13.4026 859 99.56 1338.96 470.079
1155 0 68.132 13.4298 915 99.2776 1339.74 467.716
1156 0 69.1325 12.1795 842 101.688 1339.48 468.481
1157 0 69.151 12.5233 866 101.066 1340.27 465.936
1158 0 74.2076 14.4999 1076 96.3244 1339.99 465.52
1159 0 77.1508 12.6117 973 101.548 1340.04 463.869
1160 0 76.2088 12.1377 925 103.936 1339.82 462.554
1161 0 82.2287 13.8638 1140 100.175 1340.21 461.674
1162 0 82.2412 13.2902 1093 102.978 1340 459.687
1163 0 83.1807 10.8198 900 105.241 1340.04 459.349
1164 0 89.0846 11.7753 1049 101.056 1341 458.699
1165 0 91.0708 12.4738 1136 100.88 1340.87 456.364
1166 1 47.0259 9.52666 448 93.6317 1341.42 477.567
1167 0 50.0623 11.266 564 97.5709 1340.67 476.307
1168 0 49.0534 10.8249 531 94.2524 1341.23 476.682
1169 0 50.063 9.88754 495 97.5556 1339.95 477.731
1170 0 52.1059 12.5322 653 93.1179 1341.06 475.594
1171 0 54.1296 10.6042 574 96.23 1340.57 474.334
1172 0 57.0507 11.183 638 94.8464 1340.88 473.337
1173 0 59.1911 11.4206 676 94.7012 1340.95 472.528
1174 0 61.1293 10.4369 638 96.4483 1340.9 471.378
1175 0 60.0946 10.3836 624 96.2708 1341.11 470.054
1176 0 66.0926 11.6654 771 94.4112 1340.66 467.603
1177 0 66.1178 12.6139 834 92.2962 1340.91 468.013
1178 0 67.2052 10.3117 693 97.153 1340.8 466.302
1179 0 69.0885 10.4069 719 96.7538 1340.87 466.961
1180 0 74.1118 11.1993 830 94.9145 1341.48 464.378
1181 0 76.1003 11.7477 894 94.9922 1341.05 460.985
1182 0 77.1376 11.2526 868 95.0046 1340.99 461.265
1183 0 79.0968 11.5934 917 95.9978 1340.65 458.696
1184 0 83.0903 12.8896 1071 93.5163 1340.97 455.99
1185 0 87.1462 12.9782 1131 92.1653 1341.25 458.378
1186 0 90.1765 11.4664 1034 96.0551 1341 452.836
1187 0 91.0986 10.4173 949 98.4004 1340.66 450.956
1188 0 98.2001 13.0652 1283 93.5705 1340.08 450.899
1189 0 100.081 11.4607 1147 97.6068 1339.77 450.015
1190 1 56.0706 12.1097 679 89.6156 1339.72 473.133
1191 0 57.2045 11.59 663 92.4148 1339.83 470.374
1192 0 57.3252 11.8621 680 92.6029 1339.6 469.672
1193 0 61.1212 12.7779 781 94.3956 1340.81 472.042
1194 0 61.204 12.1724 745 96.6993 1340.59 470.34
1195 0 65.1848 13.408 874 94.0778 1340.34 469.555
1196 0 66.1936 12.1009 801 97.7903 1340.66 466.695
1197 0 68.1052 12.7597 869 96.962 1340.44 467.125
1198 0 71.2626 12.5872 897 97.4214 1341.19 465.156
1199 0 72.2176 12.7947 924 97.7348 1341.02 464.447
1200 0 75.2477 13.6217 1025 96.762 1341.3 463.42
1201 0 76.2573 12.8512 980 99.4429 1340.69 463.832
1202 0 77.2214 13.2217 1021 101.105 1340.5 460.423
1203 0 80.2646 13.7545 1104 100.541 1340.19 458.449
1204 0 85.1912 14.0155 1194 100.125 1340.02 458.034
1205 0 87.2153 13.3577 1165 101.785 1339.48 453.266
1206 0 87.2344 12.048 1051 104.703 1340.14 452.758
1207 0 87.2344 12.0021 1047 152.891 1341.12 452.645
1208 0 94.0768 12.2453 1152 99.9106 1340.13 453.179
1209 0 98.0627 13.6851 1342 96.304 1339.82 450.74
1210 0 100.065 12.0521 1206 96.7902 1339.84 448.093
1211 1 53.2151 10.1287 539 90.1558 1340.11 468.746
1212 0 56.064 12.3787 694 97.7493 1340.19 473.076
1213 0 59.0635 13.7649 813 94.1611 1341.19 473.309
1214 0 59.0308 13.3828 790 96.8051 1340.73 471.282
1215 0 62.1696 12.5946 783 97.539 1341.04 468.306
1216 0 63.0949 12.3623 780 98.3256 1341.5 467.091
1217 0 65.1247 11.931 777 98.9897 1341.48 468.32
1218 0 69.0574 12.8589 888 97.9595 1341.51 465.312
1219 0 69.0878 12.5493 867 99.7659 1341.16 466.592
1220 0 73.1475 13.3019 973 97.8109 1342 464.044
1221 0 75.0458 12.6723 951 99.7592 1341.81 463.284
1222 0 76.1044 12.5354 954 102.298 1341.3 461.165
1223 0 81.0634 14.1741 1149 97.3925 1341.35 458.01
1224 0 83.0938 13.1899 1096 99.8011 1341.24 458.767
1225 0 83.048 12.0292 999 103.719 1341.02 457.61
1226 0 89.0794 13.5609 1208 99.231 1341.03 456.862
1227 0 93.0467 14.6808 1366 97.325 1341.6 455.027
1228 0 93.0642 12.615 1174 103.68 1341.18 453.76
1229 0 95.0969 12.114 1152 108.204 1340.15 451.874
1230 0 98.1384 12.3193 1209 105.661 1340.49 451.872
1231 1 52.0602 9.37377 488 100.631 1340.85 468.404
1232 0 52.0847 9.73414 507 100.947 1340.52 461.842
1233 0 61.0679 13.3622 816 97.9963 1341.39 471.702
1234 0 59.1268 9.97855 590 98.8525 1341.42 470.214
1235 0 62.1086 11.8341 735 95.1401 1341.67 470.125
1236 0 62.2076 10.5936 659 99 1340.79 469.044
1237 0 62.1791 9.82645 611 101.583 1340.32 467.954
1238 0 68.1295 12.4469 848 95.8762 1340.46 468.316
1239 0 67.0842 11.7464 788 99.0203 1340.75 466.652
1240 0 70.0836 10.887 763 101.822 1339.81 463.81
1241 0 73.0915 11.0136 805 101.704 1339.75 465.604
1242 0 76.0921 11.0261 839 102.841 1339.48 465.663
1243 0 77.051 11.3691 876 105.28 1340.37 459.821
1244 0 81.1265 11.8334 960 102.694 1340.56 460.622
1245 0 82.1231 10.3868 853 106.327 1340.61 459.202
1246 0 87.195 11.7094 1021 104.072 1340.69 457.502
1247 0 90.1242 11.7394 1058 103.848 1340.39 456.543
1248 1 48.0171 11.2044 538 98.9368 1340.99 476.147
1249 0 47.0634 9.62531 453 92.3951 1341.45 473.419
1250 0 45.0951 8.3601 377 92.1751 1339.52 470.016
1251 0 50.0199 11.6554 583 88.3842 1339.88 470.072
1252 0 52.0526 10.5086 547 99.6344 1340.51 473.514
1253 0 53.091 9.98287 530 99.4038 1340.79 473.925
1254 0 54.0452 9.88063 534 99.7191 1341.17 471.758
1255 0 57.0954 11.8573 677 94.9084 1341.86 472.356
1256 0 58.0599 11.0403 641 97.0437 1341.58 472
1257 0 59.116 11.1645 660 98.1333 1341.15 469.508
1258 0 60.0486 9.24251 555 102.038 1341.02 470.27
1259 0 62.1135 10.2393 636 99.8664 1340.97 470.068
1260 0 66.1174 11.0561 731 97.9672 1341.11 468.86
1261 0 67.1226 10.1754 683 99.7701 1341.75 468.698
1262 0 71.0874 12.0837 859 95.3283 1341.26 466.303
1263 0 72.0307 11.8422 853 95.9144 1341.27 466.143
1264 0 74.0719 11.2458 833 97.9808 1341.17 463.747
1265 0 76.0502 11.0979 844 99.1292 1341.86 461.586
1266 0 80.0543 11.2424 900 96.59 1341.1 463.89
1267 0 80.0543 11.2549 901 140.252 1340.11 463.744
1268 0 87.0967 11.6767 1017 94.1219 1341.4 460.524
1269 0 89.0972 11.2461 1002 94.4611 1341.49 458.823
1270 0 92.0651 11.8286 1089 92.8237 1340.51 456.251
1271 1 49.0472 11.1525 547 93.1353 1341.47 475.83
1272 0 53.0854 11.4344 607 86.5634 1340.55 474.921
1273 0 53.0658 11.4198 606 96.1452 1341.15 473.733
1274 0 53.0658 11.4198 606 135.368 1342.14 473.574
1275 0 56.0501 11.6325 652 96.8926 1341.23 473.52
1276 0 59.0634 13.0199 769 94.0689 1341.13 471.507
1277 0 59.0495 11.9222 704 97.2585 1341.52 471.061
1278 0 60.0856 11.5835 696 98.4856 1341.01 470.016
1279 0 63.1027 13.2166 834 95.4317 1340.94 469.131
1280 0 63.1042 12.0277 759 99.0619 1341.28 469.974
1281 0 65.0658 12.3721 805 99.5602 1340.95 467.645
1282 0 67.129 12.3643 830 98.8422 1341.26 468.083
1283 0 71.1086 13.5849 966 95.9037 1341.67 466.173
1284 0 72.1156 13.4368 969 97.7554 1341.64 464.323
1285 0 74.1204 12.5472 930 100.651 1341.34 463.842
1286 0 77.136 13.7549 1061 98.7182 1341.16 463.113
1287 0 80.1071 13.7191 1099 98.6169 1341.19 461.484
1288 0 81.0792 13.7643 1116 99.7697 1340.86 459.541
1289 0 84.0707 13.0367 1096 100.801 1341.2 459.324
1290 0 85.1103 13.1946 1123 100.883 1341 457.833
1291 0 89.1875 13.3763 1193 101.329 1340.71 455.439
1292 0 93.1189 12.8331 1195 101.781 1340.63 453.651
1293 1 51.0358 11.5605 590 97.978 1341.74 474.749
1294 0 51.0358 11.5801 591 148.019 1341.73 474.87
1295 0 56.0253 12.5657 704 96.5952 1341.5 472.841
1296 0 58.025 11.7536 682 97.7361 1341.75 472.37
1297 0 61.0522 13.513 825 93.2618 1341.38 472.896
1298 0 58.131 10.4419 607 93.4876 1340.63 474.577
1299 0 59.0423 10.9582 647 93.6584 1341.17 474.318
1300 0 60.0881 10.7509 646 94.4613 1340.98 473.365
1301 0 62.1097 11.528 716 93.4358 1341.17 473.314
1302 0 65.0747 10.7108 697 95.6987 1341.02 469.938
1303 0 66.0525 10.961 724 95.0097 1341.09 469.338
1304 0 68.1336 10.7583 733 96.0955 1340.8 468.553
1305 0 68.1654 10.2251 697 98.1535 1340.48 468.359
1306 0 74.0776 11.7714 872 94.9323 1341.06 466.202
1307 0 76.1455 11.7932 898 97.0356 1340.51 464.508
1308 0 78.202 12.1097 947 96.9768 1340.82 463.63
1309 0 80.0542 11.1549 893 99.2016 1341.61 463.181
1310 0 82.059 11.8208 970 99.9392 1340.87 459.844
1311 0 84.0849 10.9175 918 102.196 1340.94 461.205
1312 0 89.1824 11.3027 1008 101.397 1341.01 457.743
1313 0 93.0917 11.4188 1063 100.936 1340.37 457.308
1314 0 98.2141 13.0226 1279 98.2142 1340.36 455.151
1315 0 101.105 12.67 1281 100.066 1339.93 452.557
1316 1 54.0937 12.3489 668 96.8563 1340.9 473.448
1317 0 53.0583 12.2884 652 85.1028 1340.89 472.331
1318 0 56.0386 11.4207 640 88.1344 1340.73 472.667
1319 0 56.2372 10.8291 609 89.2053 1340.89 472.655
1320 0 59.1729 11.2383 665 88.779 1339.89 469.782
1321 0 62.0871 13.4972 838 85.3353 1340.18 470.222
1322 0 62.1564 11.4067 709 89.5204 1340.32 466.913
1323 0 63.1508 11.1479 704 90.1804 1340.03 467.493
1324 0 66.1677 12.4079 821 88.1145 1340.37 465.65
1325 0 69.1853 12.069 835 88.376 1340.07 463.194
1326 0 71.1438 11.793 839 88.7747 1340.03 463.136
1327 0 75.2273 11.432 860 88.5384 1340.28 464.342
1328 0 77.1489 12.0805 932 87.1609 1340.44 463.004
1329 0 79.1852 12.1487 962 87.4896 1340.29 458.722
1330 0 81.2348 11.4606 931 88.3255 1340.47 459.858
1331 0 83.166 12.2646 1020 87.4461 1340.14 458.637
1332 0 87.1636 12.2069 1064 87.3938 1340.09 457.451
1333 0 89.1848 11.2463 1003 89.8425 1339.7 456.299
1334 0 91.1373 10.3909 947 90.9155 1339.78 456.034
1335 0 94.09 10.7131 1008 92.2917 1339.46 454.639
1336 1 52.0422 11.1256 579 90.1071 1338.96 475.565
1337 0 55.0445 12.6625 697 88.3773 1339.34 473.3
1338 0 58.1357 11.5592 672 91.3393 1339.67 474.464
1339 0 61.1048 11.8976 727 89.5227 1340.07 471.854
1340 0 63.2224 12.0211 760 88.5316 1340.83 470.308
1341 0 65.1157 12.0401 784 88.7576 1340.46 470.902
1342 0 65.1377 11.468 747 91.8983 1340.37 467.643
1343 0 68.1973 12.1852 831 90.077 1340.71 467.489
1344 0 67.1848 12.3242 828 129.221 1341.71 467.419
1345 0 72.1714 12.7613 921 89.9859 1340.59 465.02
1346 0 75.082 12.6129 947 90.0317 1340.74 465.525
1347 0 77.2375 12.9212 998 90.5331 1340.16 462.868
1348 0 80.1323 12.9286 1036 90.8417 1340.69 463.236
1349 0 83.1217 13.9193 1157 89.0709 1340.44 458.02
1350 0 88.1974 13.0389 1150 89.8061 1340.98 459.402
1351 0 90.1431 14.0443 1266 88.1398 1340.71 458.927
1352 0 88.1336 12.118 1068 93.8698 1340.61 455.538
1353 0 92.2622 11.3156 1044 94.9866 1341.07 457.712
1354 0 92.2622 11.3047 1043 135.05 1342.07 457.691
1355 1 49.1633 10.8414 533 90.9925 1340.57 475.715
1356 0 53.2428 11.0062 586 89.3328 1340.81 475.532
1357 0 53.1037 10.922 580 90.7138 1340.88 473.353
1358 0 55.0976 11.1076 612 91.0948 1341.24 473.853
1359 0 55.0987 11.1436 614 130.865 1342.22 473.829
1360 0 58.1744 11.2592 655 90.8351 1340.63 474.463
1361 0 60.0953 12.0142 722 88.5402 1339.9 474.824
1362 0 62.2201 11.6843 727 90.3728 1340.18 470.96
1363 0 63.1544 11.7965 745 91.5624 1339.94 469.051
1364 0 65.1658 11.5705 754 91.5239 1339.84 468.623
1365 0 68.1816 12.584 858 89.6911 1340.09 467.964
1366 0 68.1816 12.5987 859 132.109 1340.1 467.981
1367 0 72.1953 12.0922 873 90.1558 1340.55 467.096
1368 0 76.121 11.8364 901 91.1343 1340.18 464.125
1369 0 77.1046 11.439 882 92.4887 1340.4 463.518
1370 0 78.1397 12.836 1003 90.8614 1339.8 460.219
1371 0 83.1579 12.9032 1073 91.0065 1340.41 460.189
1372 0 86.1056 12.2989 1059 91.2597 1340.27 458.643
1373 0 88.1273 12.0961 1066 91.5488 1340.36 460.851
1374 0 90.1421 13.39 1207 91.7879 1339.65 453.809
1375 0 94.1426 12.736 1199 92.4637 1339.7 453.288
1376 0 96.0805 12.1565 1168 92.9503 1340.26 454.755
1377 1 50.0479 10.2502 513 85.4094 1340.72 476.811
1378 0 52.0719 9.75574 508 87.2579 1340.92 475.449
1379 0 55.0668 11.4043 628 87.2659 1340.94 475.785
1380 0 57.1788 12.9594 741 83.3954 1341.36 474.394
1381 0 56.0578 12.5942 706 86.0071 1341.26 474.027
1382 0 59.1503 11.0397 653 88.2879 1341.21 472.856
1383 0 61.1056 11.9629 731 87.4856 1340.11 474.498
1384 0 61.1803 9.0552 554 92.5415 1340.39 471.283
1385 0 64.1732 10.9391 702 89.755 1340.48 471.637
1386 0 67.157 11.4508 769 88.883 1340.96 469.866
1387 0 69.1246 11.5444 798 88.5175 1340.71 467.059
1388 0 73.1827 12.7353 932 86.1234 1341.03 468.279
1389 0 72.1935 11.2891 815 90.0601 1340.7 466.259
1390 0 75.104 11.3043 849 89.3757 1341.76 466.57
1391 0 78.1702 12.6391 988 88.9464 1340.14 463.064
1392 0 82.1605 12.0861 993 89.1601 1340.15 464.461
1393 0 83.172 11.891 989 90.5278 1339.93 461.358
1394 0 84.1724 10.5973 892 93.4361 1339.81 458.913
1395 0 90.2706 12.6398 1141 89.6223 1339.29 459.662
1396 1 46.1294 9.38664 433 91.134 1339.77 482.7
1397 0 49.0874 11.1434 547 88.3126 1339.72 480.252
1398 0 50.086 11.2407 563 85.8916 1340.15 478.98
1399 0 52.0299 11.6279 605 85.9736 1338.94 476.334
1400 0 50.1156 11.2939 566 86.5565 1339.6 473.323
1401 0 52.1407 11.1621 582 85.311 1339.77 474.62
1402 0 55.3204 10.5928 586 88.7031 1340.09 478.515
1403 0 56.1396 10.4383 586 88.9761 1339.98 475.734
1404 0 58.089 11.293 656 88.2942 1339.8 474.768
1405 0 59.0333 11.1632 659 90.6722 1339.17 471.596
1406 0 62.0833 12.306 764 87.0812 1339.03 472.19
1407 0 65.1324 10.7473 700 88.7529 1339.02 470.299
1408 0 67.0839 11.6719 783 87.4432 1338.97 471.446
1409 0 68.1883 12.1428 828 87.0954 1338.89 469.196
1410 0 71.1773 11.4643 816 88.3762 1338.93 467.25
1411 0 70.1088 10.7547 754 90.3528 1339.17 465.776
1412 0 77.2325 11.7697 909 87.5424 1338.89 467.101
1413 0 78.2295 11.9265 933 88.4759 1338.79 464.73
1414 0 81.1674 13.0594 1060 86.7255 1338.7 464.235
1415 0 82.2512 10.322 849 91.437 1338.87 462.829
1416 0 86.3288 11.5605 998 90.6092 1338.66 457.697
1417 0 88.1868 12.8818 1136 90.2227 1338.59 455.257
1418 0 90.3058 11.9704 1081 93.0657 1337.66 453.797
1419 0 94.2669 12.5601 1184 94.2888 1338.04 454.402
1420 0 96.1652 13.404 1289 92.1831 1338.27 451.991
1421 0 101.298 13.0111 1318 91.9143 1338.27 451.278
1422 0 102.24 12.9597 1325 93.8008 1338.01 447.436
1423 0 106.185 14.4559 1535 91.0384 1338.18 445.403
1424 0 108.284 12.2087 1322 94.506 1338.57 445.679
1425 0 110.276 11.6707 1287 97.979 1339.14 441.132
1426 0 111.277 11.9611 1331 97.4538 1340.05 441.915
1427 0 120.267 12.755 1534 95.1825 1339.71 439.272
1428 0 123.179 12.6077 1553 96.2704 1339.33 435.104
1429 1 64.3062 12.3472 794 90.4383 1339.69 465.987
1430 0 66.3025 11.5531 766 91.3995 1339.47 466.394
1431 0 66.1285 12.264 811 92.0838 1339.62 465.073
1432 0 70.2052 11.737 824 91.9272 1339.48 467.676
1433 0 71.093 12.2375 870 92.7586 1339.53 463.918
1434 0 73.161 11.4132 835 93.9329 1339.35 463.793
1435 0 76.2672 13.728 1047 90.6791 1339.9 460.293
1436 0 79.2463 13.0479 1034 91.854 1339.55 458.397
1437 0 81.3124 12.7164 1034 92.3114 1339.2 456.692
1438 0 84.3235 12.1318 1023 93.2913 1339.12 456.825
1439 0 89.1981 12.9375 1154 91.5849 1339.31 452.228
1440 0 90.1502 12.2795 1107 91.3053 1338.98 454.313
1441 0 93.2671 13.6382 1272 90.4292 1338.95 448.887
1442 0 95.2691 12.8268 1222 92.1432 1339.22 446.521
1443 0 99.4443 11.7553 1169 93.302 1339.06 444.145
1444 0 105.091 13.7025 1440 88.8854 1339.3 445.012
1445 0 106.264 10.935 1162 93.3442 1339.3 447.215
1446 1 59.2495 11.6457 690 87.3 1339.15 469.943
1447 0 61.2655 12.3234 755 87.4106 1339.72 468.062
1448 0 62.106 11.7702 731 89.0424 1340.08 466.711
1449 0 65.145 13.7539 896 83.9196 1340.15 469.174
1450 0 67.0759 13.7904 925 84.1881 1340.69 467.8
1451 0 68.094 12.3799 843 89.242 1340.21 466.596
1452 0 68.094 12.4534 848 138.259 1340.19 466.562
1453 0 73.1773 13.2008 966 88.2754 1340.48 465.31
1454 0 76.0766 12.4874 950 90.821 1340.25 463.801
1455 0 78.0717 12.9112 1008 89.7907 1340.61 464.495
1456 0 81.1388 12.2629 995 91.8804 1340.45 461.293
1457 0 82.0922 11.5967 952 92.9968 1340.48 460.766
1458 0 87.1893 12.9718 1131 90.1857 1340.44 458.017
1459 0 89.1831 13.4106 1196 89.8821 1340.52 455.916
1460 0 92.2065 14.1639 1306 88.7649 1340.14 453.67
1461 0 96.233 13.8518 1333 88.3878 1340.09 454.389
1462 1 48.1413 11.7778 567 90.515 1339.56 474.986
1463 0 50.0761 12.501 626 91.0639 1339.91 472.433
1464 0 53.1828 12.9741 690 92.6319 1339.55 471.904
1465 0 55.1324 13.4222 740 95.4568 1340.29 472.309
1466 0 55.1414 12.6584 698 98.4771 1340.26 469.901
1467 0 59.1988 14.2908 846 93.6962 1339.72 471.431
1468 0 58.1469 12.8812 749 98.9666 1339.35 470.525
1469 0 63.2192 14.5525 920 77.2141 1340.05 470.83
1470 0 63.2192 14.4734 915 144.643 1340.07 470.729
1471 0 65.1049 13.9774 910 95.9978 1340.94 468.964
1472 0 68.1621 13.8053 941 97.0202 1340.06 465.501
1473 0 71.1284 14.2559 1014 98.9576 1339.64 459.704
1474 0 72.2602 14.8214 1071 95.9262 1340.2 465.629
1475 0 71.2732 12.88 918 102.783 1340.34 458.533
1476 0 78.3092 13.9192 1090 99.2156 1340.74 459.921
1477 0 79.1571 13.909 1101 97.6004 1340.61 463.17
1478 0 81.0785 14.7511 1196 94.9783 1340.32 462.798
1479 0 84.1663 14.1387 1190 96.5571 1340.3 459.666
1480 0 87.1566 13.8486 1207 96.9983 1340.05 459.214
1481 0 89.2874 13.1822 1177 98.689 1339.48 458.791
1482 0 90.1677 14.1181 1273 98.5962 1339.48 452.785
1483 0 94.1743 13.5069 1272 99.3152 1339.37 453.585
1484 0 97.1572 13.6994 1331 98.1645 1339.3 452.655
1485 0 100.289 14.7772 1482 96.2497 1339.6 451.003
1486 0 101.374 14.2147 1441 98.143 1339.73 447.655
1487 0 105.1 13.1113 1378 100.06 1339.38 449.48
1488 0 111.258 13.8058 1536 98.931 1339.17 447.032
1489 1 55.1049 9.85394 543 100.383 1340.28 468.93
1490 0 60.1866 13.0262 784 92.5383 1340.2 464.783
1491 0 63.0681 12.9542 817 98.5826 1339.81 463.836
1492 0 61.1619 11.1017 679 100.784 1339.37 461.186
1493 0 66.1761 12.3156 815 99.0748 1340.09 458.377
1494 0 69.3558 11.9529 829 100.437 1340.07 458.627
1495 0 73.1927 13.321 975 98.2831 1339.49 458.218
1496 0 74.1596 12.8641 954 100.669 1339.56 462.05
1497 0 77.2641 12.9685 1002 101.179 1339.74 458.252
1498 0 79.2645 13.8776 1100 98.0582 1339.78 458.353
1499 0 83.1707 12.0716 1004 101.146 1339.9 458.19
1500 0 84.2177 13.1208 1105 100.54 1339.61 454.508
1501 0 84.2452 11.1816 942 105.757 1339.04 453.163
1502 0 89.3404 12.1893 1089 102.667 1339.42 453.139
1503 0 92.3794 13.0116 1202 95.9376 1339.45 451.155
1504 0 96.2342 13.4464 1294 96.2728 1339.65 450.965
1505 0 95.1926 11.9337 1136 100.646 1339.74 451.981
1506 0 97.1854 13.8704 1348 98.1862 1339.13 448.314
1507 0 97.1764 13.7791 1339 102.105 1339.71 448.083
1508 0 99.256 14.0848 1398 102.532 1339.58 448.316
1509 0 102.199 14.0902 1440 107.801 1339.16 446.476
1510 1 55.1214 11.0121 607 107.239 1339.75 469.371
1511 0 57.1281 10.3627 592 104.593 1339.76 467.194
1512 0 59.1018 11.5225 681 100.618 1339.62 466.626
1513 0 59.1247 11.0275 652 102.724 1339.37 465.808
1514 0 64.0753 12.0795 774 101.342 1339.42 465.974
1515 0 66.1533 11.2617 745 100.574 1339.38 466.333
1516 0 67.1469 13.0907 879 95.6553 1339.3 466.71
1517 0 67.1745 11.1798 751 102.212 1339.14 463.498
1518 0 69.0738 11.9727 827 101.435 1339.4 462.68
1519 0 72.1084 12.19 879 102.414 1339.1 461.114
1520 0 76.1329 12.4388 947 101.251 1339.26 461.698
1521 0 75.2268 11.02 829 106.498 1339.16 460.3
1522 0 78.2208 12.3624 967 105.597 1339.15 458.121
1523 0 80.2718 12.2085 980 106.137 1339.13 459.382
1524 0 83.1721 12.0834 1005 109.256 1339.12 456.839
1525 0 85.1522 12.5657 1070 109.193 1339.72 456.473
1526 0 88.1555 12.9204 1139 110.608 1339.57 456.695
1527 1 48.088 8.75478 421 106.302 1339.76 477.815
1528 0 51.0362 11.051 564 104.842 1338.34 477.564
1529 0 52.0736 9.96667 519 105.692 1338.05 477.154
1530 0 50.0589 8.47002 424 100.248 1338.6 478.84
1531 0 52.0435 9.54971 497 99.4326 1338.58 479.002
1532 0 53.0712 10.5142 558 99.2742 1338.33 478.068
1533 0 54.0157 8.36794 452 102.086 1338.55 479.927
1534 0 56.0168 10.2291 573 99.6213 1339.06 476.307
1535 0 56.0168 10.3005 577 120.955 1340.07 476.206
1536 0 60.0539 10.0909 606 101.043 1337.9 473.965
1537 0 60.0547 10.0242 602 100.661 1338.11 474.676
1538 0 64.049 9.3366 598 100.945 1338.65 474.007
1539 0 67.0431 8.62132 578 102.033 1338.42 472.815
1540 0 69.1147 11.0975 767 98.6793 1338.41 470.841
1541 0 69.1006 9.30528 643 101.212 1337.88 470.589
1542 0 72.0812 9.68353 698 98.6576 1338.08 471.496
1543 0 73.0814 8.3058 607 101.865 1338.26 469.837
1544 0 78.2492 9.86591 772 100.978 1337.23 465.492
1545 1 43.0802 10.3064 444 96.482 1337.4 482.153
1546 0 44.3342 12.0223 533 93.7186 1337.84 481.767
1547 0 46.1188 11.5571 533 93.0638 1338.1 480.298
1548 0 44.0787 9.68721 427 93.7705 1338.97 483.843
1549 0 44.0799 8.93832 394 115.523 1338.03 484.977
1550 0 49.2421 10.8038 532 92.5 1338.04 479.976
1551 0 48.1437 9.76244 470 94.3745 1338.11 478.138
1552 0 49.1483 8.97284 441 94.941 1338.32 479.828
1553 0 52.1225 11.3387 591 91.4788 1338.06 477.173
1554 0 52.113 7.27265 379 97.8602 1338.14 478.467
1555 0 57.5039 10.2776 591 92.7834 1338.05 475.712
1556 0 59.0822 10.9339 646 91.6022 1337.65 474.212
1557 0 60.1511 10.4404 628 93.242 1338.09 473.075
1558 0 61.1506 9.89361 605 95.081 1337.79 472.063
1559 0 66.081 10.9411 723 92.6625 1338.02 472.113
1560 0 67.084 11.4036 765 93.0026 1337.81 470.86
1561 0 68.2289 10.9191 745 95.4376 1337.7 468.16
1562 0 70.1895 10.9561 769 96.6437 1337.64 467.173
1563 0 72.1352 10.8408 782 100.269 1337.36 465.222
1564 0 76.1394 10.7303 817 99.8091 1337.33 465.129
1565 0 79.1381 12.535 992 96.5333 1337.41 464.416
1566 0 81.2044 13.7431 1116 95.9866 1337.08 460.48
1567 0 83.2946 10.9011 908 101.759 1337.75 458.278
1568 1 42.1065 10.1172 426 97.5188 1338.32 479.16
1569 0 45.1561 8.81386 398 98.9799 1337.65 480.46
1570 0 47.1674 8.73484 412 100.1 1337.65 478.374
1571 0 45.1196 8.8875 401 97.2394 1338.02 480.743
1572 0 52.1347 10.6071 553 92.698 1337.94 480.105
1573 0 51.2229 9.40985 482 97.3859 1337.57 479.442
1574 0 54.0541 12.025 650 90.9954 1338.16 475.666
1575 0 56.0432 12.7402 714 89.402 1338.29 476.298
1576 0 57.0539 11.5329 658 92.4179 1338.48 473.95
1577 0 59.0399 11.9411 705 92.2652 1338.2 474.062
1578 0 65.131 13.4959 879 88.1468 1338.43 472.813
1579 0 66.0745 14.408 952 87.7395 1337.48 470.717
1580 0 67.0302 13.2478 888 90.7601 1337.9 470.529
1581 0 69.0999 12.576 869 92.9218 1337.53 468.678
1582 0 73.0811 13.2182 966 91.325 1338.29 467.806
1583 0 72.1093 11.8986 858 96.0035 1337.53 466.894
1584 0 76.0652 12.5419 954 94.347 1337.3 466.392
1585 0 76.0652 12.5419 954 121.687 1336.3 466.54
1586 0 79.1495 12.6217 999 96.4424 1337.55 461.897
1587 0 83.1696 13.9955 1164 94.372 1337.36 461.72
1588 0 85.0513 11.8282 1006 99.2256 1337.06 459.92
1589 0 88.0651 13.3538 1176 96.8265 1337.53 457.382
1590 0 89.1376 12.3966 1105 100.45 1336.97 455.721
1591 0 95.2543 12.8603 1225 99.2792 1336.7 454.442
1592 0 99.1095 14.7312 1460 95.8171 1337.54 453.42
1593 1 48.0951 11.0614 532 103.679 1337.05 475.944
1594 0 52.117 11.9155 621 101.787 1337.19 476.522
1595 0 53.2603 12.3544 658 101.483 1337.46 474.474
1596 0 57.1652 12.84 734 98.4986 1336.79 476.042
1597 0 60.1449 13.534 814 95.8292 1337.25 476.138
1598 0 59.0737 12.6452 747 100.079 1337.63 473.359
1599 0 63.1541 13.5066 853 97.3529 1337.41 472.462
1600 0 66.1257 13.3987 886 96.5948 1337.98 472.514
1601 0 67.1491 12.6733 851 99.4348 1337.75 471.005
1602 0 68.0328 11.9501 813 101.256 1337.65 470.437
1603 0 73.1644 13.9549 1021 96.1136 1337.28 470.247
1604 0 75.2474 12.7845 962 99.2048 1337.71 468.337
1605 0 76.058 12.8192 975 100.651 1337.72 465.174
1606 0 79.0605 12.6106 997 102.132 1337.5 464.144
1607 0 82.2031 13.9411 1146 98.623 1337.94 462.125
1608 0 84.1887 13.054 1099 101.55 1337.92 459.833
1609 0 88.1988 13.8324 1220 100.253 1337.54 457.486
1610 0 91.2083 12.9374 1180 102.26 1337.52 457.843
1611 0 95.2768 14.2637 1359 100.492 1337.09 453.097
1612 0 96.201 13.8668 1334 102.214 1336.56 454.214
1613 0 99.34 13.036 1295 104.698 1337.16 451.858
1614 0 102.532 13.7226 1407 103.672 1337.13 448.406
1615 0 106.268 13.3624 1420 104.456 1336.49 449.696
1616 0 106.268 13.3342 1417 154.174 1335.49 449.654
1617 1 61.1197 12.631 772 103.338 1337.4 474.146
1618 0 60.0786 12.3005 739 106.658 1336.66 472.3
1619 0 61.2553 12.4561 763 103.657 1337.06 473.035
1620 0 65.103 13.0562 850 103.916 1336.99 470.704
1621 0 68.1198 14.3424 977 100.262 1336.6 468.747
1622 0 70.0847 13.1841 924 103.029 1336.17 469.093
1623 0 72.0903 13.5386 976 101.52 1336.47 468.966
1624 0 74.1806 13.9524 1035 100.634 1336.28 467.188
1625 0 76.0864 14.3127 1089 101.752 1335.96 464.89
1626 0 80.2014 14.8002 1187 100.11 1336.45 464.85
1627 0 80.2014 14.8377 1190 148.75 1336.44 464.856
1628 0 83.0655 14.6631 1218 101.072 1336.34 462.376
1629 0 85.1244 13.7211 1168 103.793 1336.49 459.071
1630 0 89.1086 13.7697 1227 103.284 1336.02 459.674
1631 0 91.1587 13.833 1261 104.835 1336.1 457.519
1632 0 94.084 13.7643 1295 104.47 1335.74 457.111
1633 0 98.1287 14.9396 1466 101.703 1336.23 456.761
1634 1 54.1628 10.7269 581 108.232 1336.21 477.339
1635 0 58.0519 11.5931 673 106.113 1336.64 475.941
1636 0 59.2107 13.3422 790 96.319 1337.73 473.287
1637 0 57.066 9.9709 569 100.735 1338.57 475.926
1638 0 60.1749 10.9847 661 100.253 1338.25 476.334
1639 0 62.1368 11.1528 693 98.6941 1337.5 474.326
1640 0 65.0526 10.9604 713 99.554 1338.07 472.419
1641 0 67.151 13.5367 909 94.9945 1338.3 470.888
1642 0 68.1729 12.0429 821 98.1133 1338.61 469.827
1643 0 69.0971 10.8253 748 101.781 1338.62 466.878
1644 0 73.1187 13.1977 965 96.9161 1337.91 467.207
1645 0 75.1284 13.4836 1013 97.154 1337.43 467.024
1646 0 77.1254 12.3435 952 102.53 1337.9 468.282
1647 0 80.1399 13.751 1102 102.607 1337.91 462.692
1648 0 81.0736 14.0243 1137 100.068 1337.98 460.778
1649 0 83.1492 12.8564 1069 105.041 1338.02 459.887
1650 0 85.198 13.3219 1135 104.548 1337.95 459.024
1651 0 90.2298 13.0777 1180 104.686 1336.91 458.133
1652 0 92.12 13.363 1231 104.506 1337.42 455.588
1653 0 94.1142 13.2499 1247 105.715 1337.3 452.159
1654 0 100.177 14.1649 1419 102.414 1337.46 451.09
1655 0 103.159 14.405 1486 101.943 1337.73 450.906
1656 0 107.162 13.111 1405 104.79 1337.85 450.041
1657 1 60.0349 11.8098 709 105.901 1337.91 472.807
1658 0 62.1658 11.9841 745 106.945 1337.01 471.945
1659 0 64.0579 14.1122 904 104.23 1337.28 471.997
1660 0 65.1005 13.5176 880 103.976 1337.42 468.795
1661 0 66.1172 12.6291 835 107.417 1337.63 469.849
1662 0 70.0634 13.759 964 104.608 1337.89 467.722
1663 0 72.1415 13.2933 959 106.41 1337.67 468.342
1664 0 74.1221 13.7881 1022 107.892 1337.28 464.578
1665 0 78.0535 14.4388 1127 106.032 1337.3 463.422
1666 0 80.1414 15.0484 1206 105.064 1336.95 462.117
1667 0 81.1678 14.6487 1189 107.227 1337.27 460.029
1668 0 84.1606 14.7456 1241 106.826 1337.14 459.481
1669 0 87.1527 14.4459 1259 108.494 1336.92 457.618
1670 0 89.3108 15.2949 1366 106.608 1337.44 457.537
1671 0 93.1234 14.905 1388 107.319 1337.07 455.642
1672 0 93.1867 14.0471 1309 109.972 1336.54 454.143
1673 0 99.2311 13.9069 1380 110.214 1336.82 452.822
1674 0 101.37 15.4483 1566 107.317 1337.55 450.31
1675 0 101.221 14.0287 1420 112.569 1337.77 449.498
1676 0 106.255 15.5945 1657 108.619 1337.59 446.868
1677 0 112.229 16.199 1818 105.87 1337.28 445.4
1678 0 115.173 15.7155 1810 107.29 1337.43 444.448
1679 1 62.0742 11.4862 713 112.822 1337.47 470.693
1680 0 62.3412 11.2766 703 116.245 1337.56 468.155
1681 0 65.1802 12.8873 840 111.983 1338.24 470.44
1682 0 68.3117 12.5015 854 113.956 1337.9 469.372
1683 0 72.1904 14.5449 1050 109.544 1337.73 466.982
1684 0 74.1431 13.5549 1005 113.125 1337.3 466.873
1685 0 76.2231 13.2243 1008 114.753 1337.23 465.291
1686 0 78.1576 12.7563 997 117.553 1336.81 462.493
1687 0 82.1448 13.4519 1105 114.573 1337.14 462.835
1688 0 84.3288 12.2734 1035 119.232 1337.12 460.292
1689 0 89.2264 12.7204 1135 115.805 1336.75 461.296
1690 0 90.2495 12.7535 1151 118.164 1336.44 456.222
1691 0 92.3188 12.5976 1163 118.267 1336.24 456.199
1692 0 96.1431 13.9168 1338 110.894 1337.57 455.751
1693 0 101.147 13.1096 1326 112.517 1336.85 453.552
1694 1 54.0393 11.3251 612 108.168 1337.39 477.271
1695 0 56.0384 10.8497 608 110.493 1338.01 476.002
1696 0 60.0561 12.3551 742 107.81 1338.54 474.861
1697 0 60.0536 12.5055 751 105.522 1337.11 473.188
1698 0 62.0432 12.717 789 102.875 1337.03 472.568
1699 0 64.0291 12.8848 825 103.652 1337.17 472.098
1700 0 65.1061 13.0863 852 102.615 1336.37 469.619
1701 0 68.1284 13.2544 903 100.181 1336.9 467.9
1702 0 69.082 11.6818 807 104.387 1336.66 465.937
1703 0 73.0894 13.0936 957 101.065 1336.2 465.752
1704 0 76.0779 12.0666 918 100.505 1336.12 465.403
1705 0 78.045 13.2231 1032 98.9758 1336.25 463.227
1706 0 79.1114 12.4634 986 101.563 1335.99 463.883
1707 0 83.09 12.8054 1064 100.632 1336.52 462.924
1708 0 85.0616 12.297 1046 102.438 1336.42 460.443
1709 0 88.0969 13.0652 1151 101.977 1336.27 459.278
1710 0 92.2027 14.62 1348 99.273 1336.18 459.034
1711 0 94.101 13.2836 1250 104.461 1335.75 458.345
1712 0 97.0801 14.2872 1387 101.474 1336.44 455.011
1713 0 97.0801 14.2563 1384 132.854 1337.42 455.128
1714 0 101.128 12.3111 1245 107.541 1335.84 456.18
1715 0 105.101 12.4356 1307 108.919 1335.82 453.485
1716 1 57.0437 11.2545 642 112.852 1335.98 475.763
1717 0 58.0682 11.8309 687 116.636 1335.59 472.726
1718 0 60.0441 12.6241 758 115.666 1335.2 472.562
1719 0 62.0203 12.4637 773 115.563 1335.85 472.206
1720 0 65.0428 12.9146 840 115.004 1335.06 471.554
1721 0 65.085 11.7999 768 118.215 1336.08 469.427
1722 0 70.0562 13.118 919 113.211 1336.15 469.842
1723 0 72.0834 13.2485 955 113.253 1336.26 468.094
1724 0 75.1502 12.8276 964 112.811 1336.23 468.159
1725 0 77.0592 14.0671 1084 110.735 1336.01 466.913
1726 0 77.141 12.5485 968 116.908 1335.75 464.489
1727 0 83.0876 13.4436 1117 111.244 1335.95 465.861
1728 0 85.1192 12.9465 1102 113.171 1336.09 463.143
1729 0 89.0919 14.2437 1269 109.374 1336.22 461.506
1730 0 90.1094 14.3603 1294 111.265 1336.81 460.768
1731 0 91.1734 13.3701 1219 114.945 1336.58 460.249
1732 0 95.1941 14.4652 1377 112.879 1336.02 459.222
1733 0 99.2016 13.8304 1372 114.912 1336.61 455.98
1734 0 99.1902 13.8421 1373 172.926 1337.59 456.071
1735 0 105.182 14.299 1504 114.311 1336.38 452.852
1736 0 108.229 14.4232 1561 114.667 1335.95 451.227
1737 0 112.195 13.9935 1570 114.938 1336.48 451.275
1738 0 114.17 14.9689 1709 113.824 1336.43 445.912
1739 0 117.188 14.7797 1732 113.629 1336.39 444.994
1740 0 123.266 15.4462 1904 110.539 1336.32 445.137
1741 0 126.258 15.2228 1922 111.972 1336.57 443.554
1742 0 129.17 14.1209 1824 113.343 1336.79 442.126
1743 0 129.17 14.1287 1825 162.961 1336.77 442.159
1744 0 139.166 15.406 2144 109.665 1336.92 435.017
1745 0 143.195 14.365 2057 112.281 1336.36 432.642
1746 0 148.219 14.3301 2124 110.707 1336.1 432.583
1747 0 152.378 13.6305 2077 116.428 1335.96 428.748
1748 1 83.1428 11.1375 926 116.421 1335.03 463.221
1749 0 84.2621 11.3693 958 117.835 1335.7 460.924
1750 0 90.1544 14.1757 1278 109.589 1335.72 457.991
1751 0 92.1357 12.9049 1189 114.049 1335.75 458.22
1752 0 92.2542 13.4736 1243 114.689 1335.93 454.08
1753 0 97.1935 13.396 1302 114.144 1336.37 453.249
1754 0 101.44 13.4957 1369 114.104 1336.46 450.695
1755 0 104.246 13.0364 1359 115.736 1336.36 443.498
1756 0 107.358 13.8788 1490 114.253 1336.83 441.576
1757 0 112.325 13.6656 1535 109.801 1337.03 438.715
1758 0 113.244 11.6827 1323 106.675 1336.92 434.742
1759 0 120.24 12.5416 1508 106.497 1336.49 431.964
1760 0 119.214 12.1043 1443 109.192 1336.61 436.637
1761 0 126.243 13.4107 1693 104.222 1337.21 437.468
1762 0 130.333 12.3453 1609 106.286 1336.84 437.804
1763 0 133.299 12.7833 1704 105.546 1336.73 432.899
1764 0 133.299 12.8058 1707 143.15 1335.74 432.85
1765 1 75.2083 11.6742 878 95.6708 1337.02 468.128
1766 0 77.1559 12.7664 985 95.5736 1336.57 464.482
1767 0 80.2343 12.6629 1016 96.4094 1336.81 463.867
1768 0 83.2394 11.2807 939 99.3078 1337.11 464.86
1769 0 84.2587 13.0788 1102 95.8421 1337.16 460.426
1770 0 87.2059 12.029 1049 98.4214 1336.75 460.239
1771 0 89.1688 12.639 1127 97.8225 1337 458.846
1772 0 92.2935 12.2761 1133 100.047 1337.08 456.051
1773 0 96.3088 13.8097 1330 100.326 1336.69 455.611
1774 0 97.1981 11.7698 1144 104.777 1337.47 453.508
1775 0 101.258 12.8287 1299 102.623 1337.32 449.355
1776 0 106.26 13.7681 1463 98.7553 1336.95 450.626
1777 0 108.235 12.4267 1345 102.631 1337.46 447.813
1778 0 111.154 12.0823 1343 103.124 1337.24 444.715
1779 0 111.145 12.0203 1336 144.882 1336.24 444.727
1780 1 62.0489 11.5876 719 93.7121 1337.87 472.627
1781 0 65.1238 13.3438 869 92.374 1336.93 465.892
1782 0 66.0911 11.817 781 90.7324 1338.18 470.151
1783 0 70.0738 12.3869 868 89.5691 1338.32 468.882
1784 0 72.1646 11.6539 841 91.2081 1337.88 468.434
1785 0 74.048 12.5189 927 90.1262 1337.73 466.599
1786 0 77.1225 11.4364 882 91.3946 1338.54 467.643
1787 0 80.0617 13.2523 1061 89.2611 1337.45 463.906
1788 0 81.1411 12.4475 1010 92.0455 1337.83 462.974
1789 0 84.1785 12.6873 1068 92.4644 1337.62 461.316
1790 0 86.212 11.5645 997 95.3811 1337.44 457.633
1791 0 90.127 13.5697 1223 92.5241 1338 457.798
1792 0 92.185 12.4749 1150 98.6644 1337.35 455.974
1793 0 93.2117 11.6509 1086 101.152 1337.29 454.511
1794 0 96.1578 11.8035 1135 101.436 1337.22 453.697
1795 0 100.313 12.0921 1213 101.805 1337.58 451.601
1796 0 103.29 12.6149 1303 101.124 1337.6 448.544
1797 0 106.19 13.3722 1420 100.287 1337.59 446.491
1798 0 108.385 11.8743 1287 104.291 1337.28 444.232
1799 0 114.337 13.3116 1522 100.553 1337.94 442.691
1800 0 115.332 12.7285 1468 103.152 1337.5 439.625
1801 1 62.1304 11.0896 689 96.476 1338.18 471.823
1802 0 63.0455 11.5472 728 96.5014 1337.69 469.797
1803 0 65.1302 11.2083 730 98.5178 1338.08 466.196
1804 0 69.1759 11.9261 825 96.9794 1338.16 465.629
1805 0 71.2238 11.148 794 97.9912 1338.53 465.349
1806 0 71.0583 11.7931 838 98.2709 1338.47 467.413
1807 0 74.0594 11.4908 851 98.5734 1337.97 468.056
1808 0 77.1329 11.5256 889 98.793 1338.24 465.452
1809 0 82.1712 12.9486 1064 95.7989 1337.98 462.13
1810 0 85.2731 11.8326 1009 98.2488 1338.69 460.831
1811 0 87.1865 13.2933 1159 96.7222 1338.37 458.242
1812 0 92.1926 13.884 1280 94.9773 1337.72 458.535
1813 0 94.2442 12.3085 1160 98.6069 1337.23 458.748
1814 0 97.3204 12.988 1264 97.3616 1337.91 456.805
1815 0 101.29 13.6341 1381 97.6575 1337.46 451.251
1816 0 103.333 12.7162 1314 100.085 1337.39 447.781
1817 0 106.33 11.455 1218 102.679 1337.59 446.694
1818 0 110.725 13.5471 1500 99.82 1337.83 441.639
1819 1 62.5536 12.773 799 97.8198 1337.48 468.091
1820 0 63.1894 12.961 819 95.221 1337.12 470.534
1821 0 65.1982 13.3439 870 93.5345 1337.76 469.398
1822 0 67.0699 13.389 898 91.4599 1338.4 465.722
1823 0 69.3244 13.0978 908 92.2335 1338.21 464.927
1824 0 71.2509 12.1823 868 94.0841 1338.31 465.656
1825 0 75.1864 13.952 1049 90.5948 1338.46 463.364
1826 0 77.2677 12.5926 973 95.2775 1338.34 465.054
1827 0 77.0963 12.452 960 99.2344 1338.13 464.434
1828 0 83.1208 13.4262 1116 99.9704 1337.98 463.673
1829 0 83.3606 13.0637 1089 102.994 1337.77 460.04
1830 0 88.1639 13.7358 1211 100.973 1337.79 459.277
1831 0 91.1038 13.8304 1260 100.706 1337.6 459.595
1832 0 95.1543 13.9037 1323 100.41 1337.47 458.09
1833 0 96.1805 13.8802 1335 102.636 1337.56 454.665
1834 0 99.1248 15.0719 1494 101.096 1337.61 454.133
1835 0 100.089 13.558 1357 105.354 1337.03 451.486
1836 0 105.125 13.8978 1461 104.441 1337.35 450.096
1837 0 109.341 13.3345 1458 105.911 1337.32 449.491
1838 0 113.421 14.6093 1657 103.457 1337.5 447.246
1839 0 113.437 14.6513 1662 153.91 1337.5 447.28
1840 0 113.404 14.7526 1673 153.05 1337.47 447.245
1841 1 64.0688 12.3617 792 105.274 1338.1 471.439
1842 0 67.0634 12.4211 833 107.544 1337.95 470.523
1843 0 69.1818 13.1248 908 108.547 1337.7 458.253
1844 0 73.2008 13.2649 971 108.442 1337.66 457.169
1845 0 75.4478 14.8182 1118 104.934 1338.04 456.165
1846 0 76.2384 14.1005 1075 107.523 1338.34 457.075
1847 0 80.2326 14.5327 1166 107.04 1338.11 455.166
1848 0 81.4769 14.6299 1192 107.708 1338.04 454.26
1849 0 84.3388 14.8686 1254 107.557 1337.85 454.314
1850 0 85.2126 13.8125 1177 110.938 1337.68 455.075
1851 0 88.2896 12.8328 1133 114.571 1337.63 452.662
1852 0 91.201 14.2104 1296 111.057 1338.14 452.887
1853 0 93.3415 14.763 1378 111.417 1337.29 450.945
1854 0 95.0986 13.9434 1326 114.239 1336.95 451.931
1855 0 99.2528 14.4278 1432 113.799 1337.31 447.237
1856 0 103.322 14.8468 1534 112.483 1337.25 448.64
1857 0 105.161 14.92 1569 113.938 1337.1 447.032
1858 0 108.198 13.5493 1466 118.023 1337.67 445.794
1859 0 113.211 16.0496 1817 112.44 1337.6 442.34
1860 0 116.122 14.6311 1699 115.659 1336.89 441.526
1861 0 121.238 14.8716 1803 114.922 1337.48 440.212
1862 0 125.292 15.0449 1885 114.839 1337.28 437.39
1863 0 130.121 14.6709 1909 116.009 1337.18 436.792
1864 0 133.174 14.5073 1932 117.21 1336.6 437.135
1865 0 138.178 14.8577 2053 116.423 1337.21 428.642
1866 0 145.161 16.4921 2394 110.756 1336.96 428.371
1867 0 147.178 15.539 2287 111.919 1336.74 424.678
1868 1 81.1622 12.1732 988 115.745 1337.04 461.974
1869 0 86.0806 13.2318 1139 114.854 1337.42 459.193
1870 0 88.134 13.4568 1186 114.793 1337.08 457.6
1871 0 92.1426 14.9768 1380 110.88 1337.62 453.078
1872 0 94.0954 13.2313 1245 114.589 1336.96 451.955
1873 0 97.1091 13.2119 1283 114.575 1337.38 450.454
1874 0 100.086 13.6483 1366 114.452 1336.47 449.195
1875 0 101.078 13.6628 1381 116.271 1336.87 447.92
1876 0 106.155 14.1585 1503 113.896 1336.87 448.064
1877 0 108.139 14.204 1536 115.764 1336.98 443.57
1878 0 112.146 15.8364 1776 111.07 1337.23 444.127
1879 0 116.146 14.3698 1669 114.713 1336.87 440.398
1880 0 118.134 14.6951 1736 114.939 1336.68 437.334
1881 0 120.122 14.1356 1698 116.424 1337.05 436.593
1882 0 127.192 13.743 1748 116.012 1336.96 434.919
1883 0 129.193 14.4976 1873 114.211 1337 433.825
1884 0 135.156 15.5228 2098 112.276 1337.78 428.833
1885 0 139.162 14.3573 1998 114.938 1337.34 426.696
1886 0 143.241 15.8614 2272 111.07 1337.77 425.832
1887 0 148.315 14.0108 2078 115.378 1337.87 424.093
1888 0 155.216 13.987 2171 114.79 1337.45 418.435
1889 0 158.223 14.3595 2272 114.171 1337.48 413.433
1890 1 83.1829 9.76162 812 108.661 1337.15 448.918
1891 0 89.1944 12.1196 1081 107.845 1337.52 452.166
1892 0 93.2539 10.9164 1018 106.114 1336.48 453.418
1893 0 95.1391 12.4029 1180 104.679 1336.7 448.586
1894 0 99.1326 12.1655 1206 104.536 1336.18 447.841
1895 0 104.104 11.9977 1249 104.408 1336.24 447.492
1896 0 105.186 10.8189 1138 106.56 1336.48 443.63
1897 0 109.1 10.8525 1184 105.684 1335.94 444.177
1898 0 113.094 11.1765 1264 105.271 1336.57 442.259
1899 0 120.363 11.6564 1403 103.873 1336.95 441.06
1900 0 122.285 11.7921 1442 104.6 1336.78 436.648
1901 0 129.19 11.0535 1428 105.296 1336.82 435.718
1902 0 130.345 11.7381 1530 104.744 1336.65 431.702
1903 1 74.2026 10.094 749 105.637 1336.24 454.272
1904 0 79.2345 13.4537 1066 98.5234 1336.36 454.651
1905 0 80.1058 11.4723 919 104.545 1335.38 456.561
1906 0 81.1114 11.4287 927 104.78 1336.01 455.626
1907 0 85.1702 11.6825 995 104.997 1336.38 451.481
1908 0 86.1396 11.7135 1009 105.024 1336.5 448.763
1909 0 88.2653 10.899 962 106.706 1335.96 447.086
1910 0 90.1582 11.3467 1023 107.095 1335.82 444.558
1911 0 94.1775 12.1048 1140 105.843 1336.41 445.764
1912 0 99.2144 12.8207 1272 104.422 1336.12 443.849
1913 0 104.111 11.1419 1160 108.331 1335.69 441.997
1914 0 104.16 11.7512 1224 107.334 1336.21 442.09
1915 0 105.12 12.0909 1271 108.029 1336.31 436.046
1916 0 109.084 11.0832 1209 108.648 1336.43 438.582
1917 0 113.091 12.4678 1410 106.157 1336.48 435.461
1918 0 121.148 12.1586 1473 106.739 1336.17 431.908
1919 0 123.145 11.2063 1380 109.83 1336.18 430.231
1920 0 130.142 12.4403 1619 106.776 1336.37 430.443
1921 0 122.124 10.6858 1305 108.524 1336.26 422.012
1922 0 132.231 11.0413 1460 116.523 1335.95 431.967
1923 0 133.113 11.6593 1552 115.303 1336.62 424.605
1924 0 142.164 11.1984 1592 115.577 1335.77 424.124
1925 0 143.218 13.085 1874 110.729 1336.34 423.026
1926 0 141.177 10.9649 1548 113.41 1336.4 416.393
1927 0 148.23 11.9612 1773 111.134 1337.16 410.834
1928 0 154.378 11.0702 1709 112.659 1336.86 412.31
1929 0 157.233 11.7914 1854 110.539 1336.92 411.882
1930 0 165.263 12.0414 1990 111.438 1337.23 403.768
1931 0 171.306 12.9418 2217 109.815 1337.24 402.399
1932 0 174.443 11.7173 2044 114.574 1336.68 400.769
1933 1 141.234 11.2367 1587 112.396 1336.81 418.433
1934 0 145.252 12.5575 1824 113.037 1337.46 409.977
1935 0 145.244 11.9179 1731 116.731 1336.81 405.105
1936 0 153.295 12.4074 1902 113.576 1336.18 405.019
1937 0 160.242 12.9242 2071 113.118 1336.27 399.056
1938 0 167.277 12.1535 2033 114.578 1336.58 402.03
1939 0 163.243 10.3588 1691 120.969 1336.54 399.981
1940 0 173.286 12.7131 2203 113.145 1336.6 399.529
1941 0 179.424 13.1309 2356 112.388 1336.48 394.018
1942 0 183.348 11.3064 2073 116.021 1336.87 391.624
1943 1 194.419 12.1027 2353 114.235 1336.9 385.125
1944 0 202.21 12.4326 2514 111.911 1337.23 390.832
1945 0 208.256 12.1005 2520 112.743 1337.43 387.825
1946 1 52.0302 8.76414 456 91.9496 1338.93 474.868
1947 0 55.076 11.5114 634 89.6025 1339.27 471.486
1948 0 57.1152 10.5401 602 91.7126 1339.15 471.407
1949 0 57.1472 9.72926 556 96.0917 1338.95 470.707
1950 0 62.068 9.45737 587 95.3492 1338.35 469.908
1951 0 62.0843 10.7273 666 93.5285 1338.72 467.599
1952 0 64.0999 11.1701 716 93.9372 1338.45 467.841
1953 0 64.1809 10.9378 702 96.5556 1338.52 468.319
1954 0 66.1594 10.8677 719 97.5438 1337.64 466.076
1955 0 66.1276 12.0827 799 96.7434 1338.34 466.203
1956 0 69.2201 9.88152 684 100.161 1338.08 467.408
1957 0 70.3897 10.5981 746 101.225 1338.46 464.784
1958 0 71.1647 9.49909 676 102.099 1338.73 465.985
1959 0 74.1421 9.88642 733 102.724 1338.38 463.647
1960 0 73.1606 9.4313 690 105.658 1337.69 461.143
1961 0 75.1787 10.0028 752 103.457 1338.04 461.565
1962 0 81.145 11.5965 941 99.1296 1338.65 461.18
1963 0 82.1028 10.426 856 102.048 1338.51 459.471
1964 0 84.1501 10.4694 881 102.841 1338.31 456.627
1965 0 84.2904 10.2147 861 103.279 1338.6 456.631
1966 0 88.1509 11.1627 984 101.402 1338 453.606
1967 0 91.0982 9.72576 886 102.678 1338.68 453.358
1968 0 96.11 10.8938 1047 99.2598 1338.77 453.096
1969 0 100.178 12.1483 1217 96.8291 1338.68 450.958
1970 0 105.224 12.7158 1338 95.6002 1338.47 448.513
1971 1 59.0466 11.4655 677 96.5657 1339.48 468.728
1972 0 63.066 12.3363 778 95.171 1339.26 463.288
1973 0 63.08 13.0469 823 93.1847 1339.1 466.005
1974 0 65.1048 11.8885 774 97.522 1338.9 458.202
1975 0 63.2155 11.6902 739 99.7808 1338.62 456.041
1976 0 63.2155 11.6743 738 155.318 1337.63 455.999
1977 0 67.1483 12.048 809 99.0408 1338.69 458.278
1978 0 67.1399 10.6792 717 103.863 1338.35 457.017
1979 0 70.2094 12.1636 854 101.48 1337.5 453.665
1980 0 71.1414 11.948 850 101.739 1337.96 453.968
1981 0 74.1049 12.7252 943 100.298 1337.81 453.727
1982 0 76.203 12.1255 924 102.098 1338.62 453.703
1983 0 78.1787 12.0493 942 102.071 1338.4 453.24
1984 0 80.1457 13.3881 1073 99.8882 1338.22 449.998
1985 0 82.1026 14.2139 1167 98.1534 1338.59 448.858
1986 0 87.1459 13.0356 1136 100.816 1338.42 451.768
1987 0 86.1026 11.9276 1027 102.115 1338.31 452.834
1988 0 93.0983 13.7489 1280 96.8391 1337.87 452.885
1989 0 95.1774 12.5975 1199 99.0717 1338.44 449.842
1990 0 97.1912 11.8015 1147 101.956 1338.14 446.35
1991 0 102.125 12.6609 1293 99.2173 1338.63 445.373
1992 0 106.084 12.2073 1295 101.061 1336.15 446.708
1993 0 110.135 12.8115 1411 99.1715 1336.36 443.333
1994 1 62.217 12.5689 782 97.9885 1336.81 467.252
1995 0 63.3493 12.4705 790 91.2203 1337.73 462.865
1996 0 62.3268 10.8942 679 141.717 1338.48 460.529
1997 0 65.1938 11.0747 722 91.0831 1337.31 461.012
1998 0 66.2126 9.93769 658 93.3997 1337.49 460.056
1999 0 68.139 10.5813 721 92.1345 1337.34 458.967
2000 0 72.2359 10.2581 741 91.9244 1336.85 456.691
2001 0 78.1496 10.4031 813 89.9656 1337.21 457.696
2002 0 79.162 11.7986 934 88.5471 1337.13 457.241
2003 0 79.1817 11.0505 875 90.6411 1337.17 453.534
2004 0 84.1379 10.6373 895 91.0972 1337.07 452.773
2005 0 87.1636 11.4612 999 90.4064 1337.67 452.318
2006 0 89.1468 10.9258 974 92.7803 1337.63 451.268
2007 0 92.2098 10.487 967 93.1799 1337.16 451.758
2008 0 97.1313 11.6337 1130 91.3885 1337.55 450.36
2009 0 98.1114 10.641 1044 94.5862 1338.21 446.639
2010 0 101.14 12.4481 1259 91.4249 1337.84 446.515
2011 0 106.248 12.1602 1292 92.4474 1337.86 444.096
2012 0 108.312 11.2453 1218 94.4598 1337.83 443.657
2013 1 54.0554 9.21277 498 90.6426 1338.14 466.434
2014 0 56.2329 10.3676 583 88.4374 1337.7 461.521
2015 0 57.1049 10.2093 583 88.3808 1338.11 471.636
2016 0 60.1403 9.97667 600 88.6083 1337.65 470.902
2017 0 60.0758 11.6686 701 87.1769 1338.2 467.282
2018 0 65.1777 11.2615 734 85.6826 1338.42 470.797
2019 0 66.2835 11.1793 741 85.9636 1338.15 468.509
2020 0 67.3134 9.99801 673 89.4532 1337.74 466.669
2021 0 72.1792 12.2612 885 86.0282 1337.68 465.054
2022 0 73.2841 10.0977 740 89.7608 1337.27 467.168
2023 0 75.1302 11.7529 883 89.6285 1337.61 462.854
2024 0 77.1523 10.5117 811 92.3305 1337.91 463.153
2025 0 82.5306 12.5287 1034 88.8917 1337.76 461.039
2026 0 83.4933 11.965 999 90.025 1337.49 456.461
2027 0 87.2919 12.4639 1088 90.3805 1337.84 456.649
2028 0 89.2484 12.5492 1120 93.8821 1338.28 455.996
2029 0 92.3272 14.0154 1294 92.592 1337.82 451.484
2030 0 95.2058 12.8564 1224 94.9845 1337.76 451.161
2031 0 97.1464 12.826 1246 95.8732 1337.26 447.875
2032 0 101.702 12.4973 1271 96.3084 1337.16 447.669
2033 0 105.349 12.6627 1334 96.054 1338.01 446.774
2034 0 110.525 14.5578 1609 93.0988 1336.86 442.426
2035 1 61.3692 10.7872 662 91.0166 1336.62 469.781
2036 0 63.1425 12.1788 769 88.0702 1337.48 469.767
2037 0 65.2836 12.2236 798 88.3108 1337.02 470.053
2038 0 65.1106 13.5922 885 88.3435 1337.63 467.59
2039 0 70.3841 12.4318 875 90.7131 1337.38 466.607
2040 0 69.2166 11.8902 823 93.7825 1337.28 464.097
2041 0 73.3959 12.3576 907 92.0055 1337.3 462.698
2042 0 75.3172 12.6266 951 92.9306 1337.88 460.511
2043 0 77.3219 12.6872 981 93.4312 1337.03 460.925
2044 0 81.5612 12.9719 1058 93.5236 1336.61 458.893
2045 0 82.42 13.1158 1081 94.5088 1336.99 455.291
2046 0 84.4732 13.1284 1109 94.6916 1337.24 455.944
2047 0 88.3113 13.2939 1174 94.7658 1336.96 455.296
2048 0 92.4612 12.5242 1158 96.4853 1336.8 453.844
2049 0 93.6353 13.1681 1233 97.9594 1336.44 450.558
2050 0 96.5842 11.9274 1152 98.7509 1337.04 452.229
2051 0 99.4932 13.6492 1358 96.8814 1337.09 447.96
2052 0 101.306 12.6053 1277 99.0329 1337.14 445.2
2053 0 105.282 12.5472 1321 98.545 1337.45 447.687
2054 0 109.316 13.1363 1436 98.9039 1337.39 443.442
2055 1 60.2972 10.5146 634 97.1877 1337.04 467.713
2056 0 62.3075 12.1815 759 95.1686 1336.51 466.509
2057 0 63.033 12.2475 772 95.478 1336.82 470.519
2058 0 66.0727 12.91 853 93.5358 1337.76 469.198
2059 0 67.1707 11.8355 795 97.8076 1337.67 467.894
2060 0 69.2072 12.1086 838 97.531 1336.79 467.451
2061 0 72.1582 11.5718 835 99.8216 1337.35 463.97
2062 0 75.2749 11.8233 890 98.5831 1337.79 462.958
2063 0 75.2229 12.9349 973 96.7554 1337.6 463.57
2064 0 78.3775 12.8353 1006 96.4294 1337.94 462.224
2065 0 80.3239 12.6239 1014 98.1509 1337.81 459.065
2066 0 83.2982 11.1167 926 100.513 1337.77 459.447
2067 0 87.2436 12.5511 1095 98.1151 1338.23 457.735
2068 0 88.2916 12.3568 1091 99.5628 1337.55 453.355
2069 0 94.2891 12.345 1164 98.1503 1337.23 453.79
2070 0 96.3093 12.5014 1204 99.1644 1337.43 449.924
2071 0 97.292 11.6865 1137 100.689 1337.25 449.289
2072 0 101.204 13.4283 1359 97.2605 1337.97 448.203
2073 0 104.295 11.8893 1240 99.8306 1337.52 446.529
2074 0 108.253 12.3322 1335 99.0052 1337.04 445.54
2075 0 111.314 12.2985 1369 100.763 1337.11 444.142
2076 0 116.295 12.1158 1409 101.3 1336.58 436.897
2077 0 121.404 13.0639 1586 98.6387 1336.02 432.463
2078 0 124.287 11.0551 1374 102.072 1335.52 433.053
2079 1 68.158 11.3706 775 89.9768 1337.63 466.804
2080 0 70.0896 10.5579 740 90.9541 1336.7 465.2
2081 0 70.0948 10.8139 758 91.3694 1336.94 464.127
2082 0 77.1822 12.5806 971 87.7745 1337.77 459.875
2083 0 77.0488 11.1618 860 91.0872 1337.93 458.82
2084 0 79.0909 10.3046 815 91.492 1337.65 461.627
2085 0 83.1765 11.5537 961 90.2497 1337.51 459.417
2086 0 87.2008 11.9036 1038 89.6224 1337.73 454.45
2087 0 89.1734 11.9318 1064 89.5836 1338.06 454.48
2088 0 92.1846 11.5312 1063 90.1863 1337.87 452.125
2089 0 96.3389 11.7709 1134 91.463 1337.04 448.698
2090 0 100.2 11.5669 1159 90.7437 1337.24 451.593
2091 1 52.1137 10.5155 548 85.4252 1338.23 473.312
2092 0 53.1013 9.94326 528 81.911 1337.81 471.424
2093 0 50.2172 10.0364 504 83.9028 1337.59 467.554
2094 0 53.1746 9.77911 520 89.2096 1337.04 467.444
2095 0 56.2474 9.68934 545 86.0404 1336.95 466.644
2096 0 55.1334 10.3023 568 90.7641 1336.87 464.998
2097 0 57.1814 10.2831 588 90.9796 1337.24 466.279
2098 0 60.1967 10.3162 621 91.5572 1336.56 464.528
2099 0 57.169 8.48362 485 97.8124 1336.51 460.136
2100 0 63.165 9.10314 575 95.8017 1335.98 460.73
2101 0 62.162 10.1509 631 123.667 1334.97 461.545
2102 0 69.1826 10.653 737 92.9254 1336.63 463.779
2103 0 70.1352 10.0235 703 95.559 1336.34 463.206
2104 0 73.1173 10.9687 802 94.9489 1336.33 461.009
2105 0 74.1464 10.9243 810 95.8111 1336.48 458.827
2106 0 79.1885 13.2342 1048 92.2844 1336.24 459.23
2107 0 81.155 10.9544 889 97.6794 1336.01 460.954
2108 0 84.2112 12.6111 1062 95.5377 1336.32 459.056
2109 0 86.0933 12.6955 1093 96.6468 1336.99 458.887
2110 0 89.1247 12.2525 1092 99.0998 1336.41 457.091
2111 0 90.1622 12.045 1086 99.9797 1337.4 457.14
2112 0 95.2933 12.918 1231 97.9342 1337.41 454.29
2113 1 54.1864 10.4823 568 93.2289 1337.38 475.977
2114 0 56.1467 12.5386 704 90.9574 1338.24 472.889
2115 0 56.0344 9.8511 552 96.4764 1337.99 475.783
2116 0 56.0344 9.72617 545 137.486 1337.02 475.842
2117 0 58.0588 11.1094 645 96.1907 1337.96 471.448
2118 0 62.0874 12.0314 747 94.3213 1337.96 470.431
2119 0 63.0294 10.154 640 98.8016 1337 472.133
2120 0 67.0546 11.8411 794 96.204 1337.58 469.71
2121 0 70.1341 12.305 863 97.3569 1337.58 467.695
2122 0 72.0787 13.0413 940 96.8979 1337.43 467.253
2123 0 73.2551 12.0947 886 101.862 1337.52 464.369
2124 0 78.2802 12.9918 1017 99.2724 1337.69 459.73
2125 0 79.2997 12.2699 973 101.451 1337.26 460.529
2126 0 82.3071 13.0001 1070 100.612 1337.41 460.536
2127 0 84.3686 12.3506 1042 102.672 1337.32 459.662
2128 0 87.4168 12.4118 1085 103.537 1337.22 456.367
2129 1 47.0199 11.9949 564 99.0621 1336.99 476.473
2130 0 49.1495 11.2921 555 106.159 1337.4 474.407
2131 0 53.1624 12.7722 679 95.2283 1337.49 474.551
2132 0 53.1453 12.193 648 97.5617 1336.95 474.177
2133 0 53.1636 12.1324 645 142.233 1335.95 474.132
2134 0 57.115 12.5536 717 97.4226 1337.37 472.516
2135 0 56.2119 11.848 666 101.087 1337.48 469.336
2136 0 58.1392 12.6077 733 99.4093 1337.53 470.532
2137 0 61.0857 13.3419 815 98.6736 1337.62 470.313
2138 0 61.1888 13.4502 823 99.531 1337.28 468.823
2139 0 64.1741 12.8712 826 101.087 1337.37 468.245
2140 0 65.1239 13.2824 865 101.911 1337.2 467.094
2141 0 67.1425 11.7958 792 105.893 1337.19 466.669
2142 0 69.2106 12.5559 869 105.044 1337.2 465.899
2143 0 72.1861 12.9526 935 105.489 1337.24 464.049
2144 0 74.1306 13.085 970 105.741 1337.08 463.954
2145 0 75.125 13.178 990 107.407 1337.02 460.989
2146 0 77.0943 12.141 936 110.611 1336.68 459.256
2147 0 79.1976 12.3236 976 110.612 1336.7 458.593
2148 0 83.2108 12.9911 1081 109.469 1337.24 456.189
2149 0 87.4191 12.2056 1067 111.212 1336.97 457.043
2150 0 88.1539 13.7827 1215 110.453 1336.4 453.201
2151 0 88.1539 13.726 1210 143.2 1335.4 453.099
2152 0 89.153 13.3815 1193 143.332 1334.43 453.261
2153 0 96.1224 12.8586 1236 112.222 1336.88 451.789
2154 0 99.266 13.0155 1292 112.754 1336.76 448.963
2155 0 102.322 13.0959 1340 113.016 1336.62 447.042
2156 0 106.199 13.1074 1392 111.479 1337.49 448.545
2157 0 106.205 12.2028 1296 116.069 1337.39 441.529
2158 0 115.184 13.6477 1572 110.795 1337.37 444.765
2159 0 117.206 14.1716 1661 110.396 1337.01 441.054
2160 0 121.224 13.5451 1642 111.832 1337.48 438.381
2161 0 125.222 14.1669 1774 110.309 1336.85 440.093
2162 1 74.0999 12.1997 904 110.013 1335.38 463.619
2163 0 77.097 12.2443 944 114.023 1335.09 460.219
2164 0 79.0403 14.2332 1125 108.84 1334.99 459.94
2165 0 80.2545 13.1581 1056 111.643 1336.01 461.451
2166 0 83.2196 13.2661 1104 109.186 1336.23 462.869
2167 0 86.2431 12.2908 1060 112.267 1336.3 459.533
2168 0 89.1628 13.9072 1240 109.057 1336.77 455.764
2169 0 91.1285 13.0036 1185 111.353 1336.62 454.66
2170 0 97.0898 14.6256 1420 105.675 1337.15 453.558
2171 0 98.0841 12.9685 1272 108.762 1337.58 452.033
2172 0 101.121 11.778 1191 104.198 1336.81 455.616
2173 0 103.1 13.5597 1398 103.035 1336.92 452.825
2174 1 60.0555 11.1064 667 101.121 1336.61 473.766
2175 0 61.0551 10.2203 624 107.572 1335.11 468.894
2176 0 61.0551 10.122 618 156.434 1335.12 468.854
2177 0 63.0651 11.4009 719 97.3866 1336.47 470.765
2178 0 63.0565 10.9584 691 97.4385 1336.41 468.563
2179 0 66.0795 10.1847 673 96.0609 1336.39 469.251
2180 0 69.0245 10.6339 734 95.9578 1336.75 466.628
2181 0 69.059 10.8458 749 95.4072 1336.25 465.76
2182 0 73.1266 11.0493 808 94.7611 1335.66 465.043
2183 0 74.1125 11.9683 887 93.9944 1335.56 462.24
2184 0 76.1059 10.7745 820 95.7537 1336.02 461.35
2185 0 79.0953 11.227 888 95.107 1336.26 459.561
2186 0 82.0407 13.0911 1074 91.8259 1335.65 461.736
2187 0 84.1245 11.2333 945 96.5524 1335.63 457.944
2188 0 87.0501 13.1419 1144 93.7439 1335.6 457.168
2189 0 89.0727 11.8106 1052 95.9087 1335.64 454.267
2190 0 89.1105 9.6846 863 100.893 1335.76 455.634
2191 0 94.2 12.707 1197 95.6625 1335.68 451.445
2192 0 97.1055 12.2547 1190 96.684 1335.55 452.46
2193 0 100.062 13.1718 1318 95.0167 1335.75 450.919
2194 0 103.179 11.1651 1152 96.6128 1337.04 449.667
2195 0 108.169 11.3711 1230 95.9171 1336.51 446.913
2196 0 106.133 9.11121 967 100.979 1336.63 440.355
2197 0 115.116 12.2051 1405 94.5139 1336.67 443.12
2198 1 68.0751 10.9732 747 95.4565 1337.52 466.574
2199 0 68.1139 11.0403 752 97.8178 1336.92 463.765
2200 0 73.1577 12.0835 884 96.414 1335.77 462.936
2201 0 74.14 13.3801 992 95.6734 1335.39 461.487
2202 0 77.3305 11.8841 919 97.5626 1336.03 455.499
2203 0 79.2136 11.2354 890 99.0573 1335.58 456.908
2204 0 82.2689 11.2558 926 98.7581 1336.53 453.596
2205 0 87.1628 12.9757 1131 94.0274 1337.59 455.492
2206 0 88.1222 12.0061 1058 97.1768 1337.28 454.299
2207 0 91.2816 11.481 1048 98.4113 1336.94 451.34
2208 0 93.1934 13.0052 1212 95.8639 1337.28 451.212
2209 0 96.1927 12.766 1228 96.706 1336.67 449.008
2210 0 96.1501 13.1877 1268 96.9038 1336.82 448.326
2211 0 100.212 11.8748 1190 99.3815 1337.2 446.296
2212 0 105.15 13.866 1458 95.1962 1337.71 443.808
2213 0 105.136 13.8582 1457 129.929 1337.69 443.874
2214 1 58.0768 10.9338 635 94.0331 1338.18 470.554
2215 0 59.148 9.82282 581 97.475 1337.2 468.138
2216 0 62.2048 12.3945 771 92.7315 1337.34 467.582
2217 0 65.1438 12.5108 815 92.665 1338 466.899
2218 0 66.086 11.4548 757 94.8653 1338.63 468.071
2219 0 69.0971 11.2306 776 95.5503 1337.89 466.133
2220 0 68.109 11.878 809 95.5328 1338.21 465.732
2221 0 69.0832 11.9711 827 89.8779 1336.91 466.073
2222 0 74.0692 12.9609 960 85.6406 1337.36 461.909
2223 0 77.1804 11.6221 897 89.1092 1337.11 459.116
2224 0 78.0838 12.9861 1014 86.7643 1336.9 459.358
2225 0 80.0581 11.7914 944 89.1854 1337.83 459.438
2226 0 81.0864 11.7036 949 90.5753 1337.6 456.022
2227 0 87.1116 13.0063 1133 86.7167 1337.48 456.073
2228 0 89.0661 13.3721 1191 86.4996 1336.64 456.38
2229 0 90.128 13.3033 1199 86.3453 1336.02 452.66
2230 0 93.1903 12.4262 1158 87.7228 1336.33 452.282
2231 0 95.2541 12.01 1144 88.6862 1336.76 450.257
2232 0 99.0984 10.9487 1085 90.4645 1336.52 453.023
2233 0 100.158 11.8512 1187 90.6681 1336.67 447.41
2234 0 101.135 10.8073 1093 92.3532 1337.05 446.829
2235 1 59.0731 9.80142 579 91.7202 1337.87 470.881
2236 0 59.0557 11.5992 685 91.5212 1337.89 467.699
2237 0 60.0341 10.5773 635 97.3748 1336.9 466.704
2238 0 60.2122 10.5792 637 95.4898 1335.49 459.484
2239 0 61.1374 10.3864 635 88.3591 1336.63 459.524
2240 0 65.0697 11.1419 725 88.2414 1336.53 455.985
2241 0 65.0703 9.42058 613 93.0212 1336.3 453.653
2242 0 69.1344 10.2843 711 91.3685 1336.27 454.969
2243 0 72.0861 9.98806 720 92.7694 1335.88 450.717
2244 0 75.1903 11.5307 867 89.8478 1336.3 451.563
2245 0 76.1065 10.6955 814 92.0712 1336.1 451.784
2246 0 78.0825 10.3736 810 93.4494 1336.22 446.146
2247 0 80.1312 11.5436 925 92.0054 1336.21 447.906
2248 0 84.1435 11.3378 954 92.4832 1335.98 445.201
2249 0 85.1965 12.0428 1026 91.1569 1336.11 443.972
2250 0 89.1299 10.6362 948 93.6667 1335.92 443.799
2251 0 90.1534 10.471 944 94.7818 1335.84 441.256
2252 0 95.217 11.9621 1139 91.8692 1335.96 440.385
2253 0 99.2001 11.7137 1162 91.3511 1336.03 441.266
2254 0 101.182 12.3935 1254 90.8182 1335.97 442.393
2255 0 104.228 12.7221 1326 90.9796 1336.15 436.433
2256 0 108.243 10.4487 1131 94.0239 1336.46 440.524
2257 0 114.258 12.393 1416 89.0537 1335.38 445.338
2258 0 115.222 11.2478 1296 91.598 1335.86 447.963
2259 1 64.0699 11.4406 733 85.1119 1336.72 471.644
2260 0 67.1844 11.8778 798 85.2619 1335.7 470.994
2261 0 69.187 12.4445 861 83.2265 1335.51 470.584
2262 0 69.0901 11.912 823 85.2843 1335.45 470.588
2263 0 69.0867 11.927 824 123.646 1335.46 470.584
2264 0 73.0874 10.809 790 89.5886 1334.66 471.642
2265 0 76.1117 12.2057 929 88.0097 1334.05 470.664
2266 0 80.2593 12.5717 1009 86.995 1333.75 469.907
2267 0 83.1372 13.4116 1115 86.4197 1333.83 469.643
2268 0 85.1641 12.5757 1071 88.295 1333.28 469.018
2269 0 88.1489 11.7869 1039 91.0626 1333.19 466.708
2270 0 90.2016 10.8535 979 92.6915 1332.57 467.875
2271 0 93.1504 13.1078 1221 90.3686 1332.7 465.263
2272 0 97.1724 12.5241 1217 91.7781 1332.42 467.054
2273 0 97.1724 12.5035 1215 135.283 1331.42 467.038
2274 0 101.185 12.403 1255 93.8637 1332.62 458.096
2275 0 104.263 11.3463 1183 97.0871 1332.38 456.807
2276 0 108.177 12.156 1315 96.2791 1332.49 454.402
2277 0 110.201 12.3502 1361 97.4614 1332.11 451.037
2278 0 114.219 12.7036 1451 95.7409 1331.54 454.919
2279 0 117.126 12.2091 1430 96.3853 1331 449.569
2280 0 123.246 12.6981 1565 94.7527 1331.18 452.375
2281 1 70.1613 12.514 878 88.2346 1330.79 478.325
2282 0 68.1482 11.3576 774 92.7222 1331.36 475.762
2283 0 72.1112 10.359 747 88.9197 1330.58 474.941
2284 0 74.266 9.72181 722 90.9224 1329.9 472.95
2285 0 77.2387 10.3187 797 91.9235 1330.16 469.685
2286 0 80.1479 10.8425 869 90.8124 1330.71 470.403
2287 0 82.2365 9.1322 751 94.3502 1330.19 468.455
2288 0 86.179 10.2925 887 94.0733 1329.11 468.361
2289 0 87.3798 10.1854 890 94.4899 1329.58 465.996
2290 0 91.2212 10.6773 974 95.2813 1330.29 468.702
2291 0 91.2212 10.765 982 139.463 1331.28 468.847
2292 0 98.1527 12.2055 1198 94.7404 1330.09 467.912
2293 0 98.1527 12.3175 1209 144.462 1330.09 468.179
2294 0 105.152 13.0763 1375 93.7316 1330.54 466.57
2295 0 107.161 12.5978 1350 95.4726 1330.38 464.564
2296 0 112.108 10.5969 1188 97.814 1330.72 464.691
2297 0 115.142 11.3772 1310 98.5099 1330.71 457.24
2298 0 120.251 12.0914 1454 98.5681 1330.43 454.09
2299 1 67.0952 11.1036 745 94.2228 1331.36 482.105
2300 0 69.2409 12.9981 900 91.0044 1331.5 479.333
2301 0 69.1164 11.9219 824 93.4515 1331.67 478.749
2302 0 72.1411 12.032 868 92.6014 1331.96 475.006
2303 0 76.1497 10.9258 832 94.6659 1331.39 475.978
2304 0 75.2626 11.626 875 94.7646 1331.35 472.53
2305 0 82.1698 12.5715 1033 91.7919 1331.89 473.148
2306 0 86.1616 12.2444 1055 92.4303 1331.34 473.002
2307 0 86.2337 12.3733 1067 93.6504 1331.1 469.954
2308 0 90.1855 12.4521 1123 92.7872 1331 467.858
2309 0 94.1253 13.652 1285 90.3837 1330.95 470.591
2310 0 95.1815 12.2713 1168 94.6969 1330.83 467.525
2311 0 97.1131 12.5627 1220 95.2566 1330.77 463.209
2312 0 102.213 12.5229 1280 95.793 1330.63 462.9
2313 0 102.126 11.809 1206 97.7007 1330.61 460.443
2314 0 108.258 12.7104 1376 95.0015 1330.96 461.719
2315 1 61.1273 12.2858 751 95.8469 1331.75 482.234
2316 0 61.1404 12.8884 788 96.0939 1331.45 481.56
2317 0 63.11 13.0724 825 95.6509 1330.81 483.113
2318 0 63.0661 12.3204 777 92.7619 1331.27 480.414
2319 0 68.0648 11.6507 793 92.8474 1331.44 480.079
2320 0 70.1077 12.9087 905 90.7193 1331.41 478.499
2321 0 72.1157 11.4677 827 92.8839 1331.22 475.816
2322 0 73.1246 11.4189 835 93.3078 1331.39 473.713
2323 0 76.1017 11.051 841 93.9845 1331.74 473.258
2324 0 79.1553 12.8482 1017 90.6273 1332.11 471.907
2325 0 80.1854 12.945 1038 91.0992 1331.3 471.286
2326 0 83.2173 11.8845 989 93.3701 1331.45 471.08
2327 0 85.1748 12.4802 1063 92.524 1331.21 468.388
2328 0 87.273 13.1656 1149 91.4421 1331.35 465.089
2329 0 91.1928 13.1918 1203 90.8304 1331.39 465.787
2330 0 93.1975 13.5948 1267 90.4365 1331.29 463.677
2331 0 96.2213 13.4378 1293 90.1717 1332.18 463.514
2332 0 98.2468 13.2015 1297 89.7194 1331.65 463.412
2333 0 102.23 14.0369 1435 88.0983 1331.88 459.296
2334 0 103.14 13.7482 1418 89.5296 1331.72 458.384
2335 0 107.124 12.8356 1375 92.3498 1329.91 457.695
2336 0 108.24 12.8141 1387 94.0512 1330.44 453.793
2337 0 110.163 11.5466 1272 95.3899 1330.97 453.762
2338 1 62.1594 11.004 684 94.7836 1331.27 477.934
2339 0 64.2886 11.6662 750 95.252 1332.04 475.76
2340 0 62.1139 11.2052 696 92.5589 1332.65 472.908
2341 0 67.0996 11.8183 793 91.4376 1332.39 474.612
2342 0 68.1206 11.3622 774 90.7377 1333 472.28
2343 0 72.1012 10.305 743 92.7093 1332.94 470.561
2344 0 72.1261 11.2719 813 91.5092 1333.25 470.261
2345 0 76.1302 12.5706 957 90.117 1333.08 467.353
2346 0 75.1564 11.9085 895 93.0983 1332.9 463.289
2347 0 79.0915 11.9861 948 92.7985 1333.04 465.39
2348 0 81.0814 12.2223 991 94.107 1332.61 462.102
2349 0 84.1461 11.8484 997 95.345 1332.46 460.053
2350 0 87.1412 12.6002 1098 93.9071 1333.38 460.556
2351 0 91.1291 12.7182 1159 94.0026 1333.69 457.93
2352 0 93.1501 13.0757 1218 94.0698 1333.37 458.098
2353 0 96.1182 13.7747 1324 92.7719 1333.17 454.168
2354 0 97.2542 12.637 1229 94.8649 1334 455.388
2355 0 103.108 14.1987 1464 90.8586 1333.84 452.494
2356 1 57.0646 11.5483 659 93.3111 1335.21 476.193
2357 0 59.0653 10.463 618 96.7136 1334.67 473.105
2358 0 61.1359 11.2863 690 83.9116 1334.98 474.087
2359 0 61.0621 10.9397 668 84.9416 1334.79 468.338
2360 0 62.0391 10.5256 653 91.0567 1333.89 469.623
2361 0 66.1087 11.3752 752 88.6303 1333.74 468.495
2362 0 68.1929 12.1714 830 86.3904 1334.68 466.396
2363 0 71.1326 11.0498 786 88.612 1334.99 463.793
2364 0 73.126 13.4562 984 84.6555 1335.33 464.885
2365 0 73.1308 12.0879 884 88.6267 1335.01 464.424
2366 0 73.1308 11.9649 875 128.623 1334.03 464.443
2367 0 79.1079 12.8811 1019 88.1099 1335.23 460.523
2368 0 80.1435 12.1283 972 88.8621 1335.02 459.952
2369 0 84.1042 11.9614 1006 88.4294 1335.02 463.225
2370 0 85.0949 12.821 1091 88.4675 1335.04 458.362
2371 0 89.205 12.7459 1137 87.9763 1335.51 459.132
2372 0 90.1413 12.0478 1086 90.3094 1335.44 459.364
2373 0 92.1688 12.4446 1147 90.3862 1335.38 456.477
2374 0 95.1753 11.2529 1071 89.4435 1334.98 450.117
2375 0 98.0938 13.1303 1288 86.3665 1335.3 450.879
2376 0 101.172 12.9581 1311 87.5317 1335.28 447.439
2377 0 105.148 10.9655 1153 91.0009 1335.04 448.461
2378 0 106.228 12.2378 1300 90.2785 1335.84 444.671
2379 0 110.19 12.1245 1336 90.3293 1336.03 445.636
2380 0 112.109 13.1569 1475 88.4264 1335.97 444.934
2381 0 118.115 14.0626 1661 87.3793 1335.32 442.998
2382 0 119.184 13.0973 1561 90.583 1335.52 441.211
2383 0 125.278 13.522 1694 89.9935 1335.55 437.099
2384 1 67.0888 12.312 826 85.6404 1336.57 467.499
2385 0 71.134 11.2464 800 86.8412 1336.32 470.814
2386 0 70.0832 11.7004 820 90.5244 1335.96 467.315
2387 0 75.0967 12.8501 965 87.2984 1336.4 468.582
2388 0 75.1329 13.4162 1008 86.7946 1336.14 466.459
2389 0 76.1264 12.4398 947 89.7202 1335.81 464.646
2390 0 80.2577 13.3071 1068 87.7612 1335.96 463.879
2391 0 84.1589 13.1299 1105 88.5701 1336.14 461.887
2392 0 84.2918 12.1008 1020 91.7804 1335.87 461.217
2393 0 86.2068 12.3772 1067 93.0759 1335.01 459.65
2394 0 86.2068 12.3656 1066 135.553 1334.02 459.681
2395 0 91.1473 12.2549 1117 93.2901 1335.09 458.237
2396 0 92.1831 12.2799 1132 94.2756 1334.6 456.817
2397 0 94.2185 11.8873 1120 97.1286 1335.19 454.922
2398 0 98.2304 13.8043 1356 95.2537 1335 454.049
2399 0 102.185 12.8591 1314 94.5814 1334.81 452.112
2400 0 104.248 13.372 1394 95.0545 1334.92 450.708
2401 0 104.217 10.814 1127 100.625 1335.28 450.184
2402 0 108.188 12.7001 1374 95.4221 1335.72 447.592
2403 0 113.309 14.3413 1625 91.5157 1335.42 445.801
2404 0 116.162 12.9302 1502 94.4174 1334.61 447.391
2405 0 119.129 11.9535 1424 101.624 1335.27 442.289
2406 0 122.212 11.0137 1346 104.282 1335.13 441.357
2407 0 128.196 11.8335 1517 102.953 1335.39 440.755
2408 1 70.3586 12.6779 892 93.8756 1335.82 467.234
2409 0 72.4641 11.5781 839 98.2038 1334.64 465.946
2410 0 76.0822 13.4854 1026 90.2934 1336.18 464.228
2411 0 76.1012 11.5767 881 93.0988 1335.32 460.46
2412 0 79.1253 11.2606 891 93.2301 1335.61 460.395
2413 0 80.1451 11.7911 945 92.019 1335.7 462.878
2414 0 85.1582 12.5766 1071 91.6601 1335.2 458.889
2415 0 84.1168 11.377 957 95.4765 1335.22 454.955
2416 0 88.0814 11.5007 1013 95.2656 1335.42 456.5
2417 0 93.1394 14.3978 1341 89.6488 1334.95 455.314
2418 0 93.0943 11.3004 1052 95.5523 1335.39 454.058
2419 0 96.1616 11.9798 1152 95.2127 1335.98 451.556
2420 0 101.159 12.337 1248 93.8734 1335.93 451.054
2421 0 102.127 11.4171 1166 96.9949 1335.84 448.81
2422 0 106.11 12.9488 1374 93.6441 1335.86 445.472
2423 0 107.111 12.0996 1296 96.0046 1335.64 446.519
2424 0 112.27 13.5031 1516 92.9367 1335.48 439.586
2425 0 113.169 12.5918 1425 96.299 1335.36 440.272
2426 0 118.193 12.6488 1495 97.0301 1335.56 438.266
2427 0 120.328 8.83415 1063 106.004 1335.2 434.213
2428 0 128.231 12.2903 1576 105.541 1335.1 428.683
2429 0 135.273 12.6928 1717 106.596 1334.82 431.592
2430 1 75.3321 11.9205 898 91.951 1334.68 464.802
2431 0 75.2168 10.5695 795 95.4 1335.01 459.362
2432 0 76.3352 10.7552 821 98.3252 1334.22 452.632
2433 0 78.2582 10.2737 804 100.124 1334.47 451.136
2434 0 84.2244 11.7306 988 96.2611 1334.19 454.847
2435 0 85.2214 12.051 1027 95.8228 1333.78 454.398
2436 0 89.1167 10.5592 941 98.6419 1334.52 452.794
2437 0 92.0718 12.2079 1124 97.3977 1335.08 451.122
2438 0 97.1081 13.0988 1272 94.6132 1334.77 453.259
2439 0 97.3137 11.1495 1085 100.208 1334.76 450.859
2440 0 99.1774 11.1618 1107 101.571 1334.32 448.28
2441 0 104.168 11.0399 1150 101.886 1334.76 445.819
2442 0 105.237 11.7734 1239 101.155 1334.37 445.886
2443 0 107.206 11.8557 1271 101.573 1334.62 442.854
2444 0 110.297 10.78 1189 104.456 1334.31 443.368
2445 0 116.261 12.0505 1401 102.015 1334.11 439.153
2446 0 118.254 10.9679 1297 104.896 1334.31 435.208
2447 0 125.314 11.2837 1414 103.28 1334.13 435.64
2448 1 68.1121 11.9068 811 92.217 1334.39 466.788
2449 0 68.078 11.5015 783 94.2158 1334.54 467.055
2450 0 69.1695 11.6236 804 93.449 1335.83 465.236
2451 0 74.1552 11.7321 870 91.8103 1335.88 467.164
2452 0 73.2712 10.8501 795 96.0151 1335.33 463.883
2453 0 77.0608 12.6913 978 91.7526 1335.7 459.974
2454 0 78.1735 12.3827 968 92.5279 1335.67 459.512
2455 0 82.2138 12.4432 1023 91.4321 1336.44 460.538
2456 0 85.2348 12.9642 1105 91.648 1335.73 457.986
2457 0 87.1548 11.864 1034 94.146 1335.7 457.102
2458 0 89.1442 11.6104 1035 95.3758 1336.4 454.433
2459 0 89.2725 11.4593 1023 96.9912 1335.3 453.385
2460 0 94.2207 13.8929 1309 92.1031 1334.95 452.314
2461 0 99.247 14.1163 1401 91.2077 1335.53 452.534
2462 0 99.1568 12.5559 1245 96.1486 1335.33 447.553
2463 0 99.1568 12.6265 1252 134.089 1334.35 447.522
2464 0 102.157 12.0208 1228 98.3225 1335.77 447.884
2465 0 105.154 11.7542 1236 98.4466 1336.01 443.581
2466 0 108.197 12.3941 1341 97.4161 1335.87 443.217
2467 0 112.226 12.8758 1445 95.2353 1336.2 444.743
2468 0 116.155 12.0185 1396 97.144 1335.7 439.483
2469 0 117.183 12.4506 1459 97.5826 1336.39 435.228
2470 0 123.233 13.1864 1625 95.9089 1336.43 438.454
2471 1 71.2641 12.7975 912 88.0307 1336.57 464.814
2472 0 72.1958 11.3857 822 90.129 1336.32 463.984
2473 0 76.3002 12.2149 932 88.2135 1336.55 461.707
2474 0 79.1681 12.9471 1025 87.5922 1336.18 458.903
2475 0 81.1133 11.9832 972 89.2644 1335.34 459.189
2476 0 84.0656 13.2991 1118 86.3998 1335.92 457.377
2477 0 86.2311 12.1998 1052 87.7842 1336.13 454.096
2478 0 91.1691 12.4604 1136 86.9613 1335.8 453.479
2479 0 94.1369 13.1298 1236 85.6343 1336.19 452.739
2480 0 95.1444 11.7295 1116 87.7213 1336.27 451.879
2481 0 99.1977 11.7241 1163 87.7773 1335.98 448.359
2482 0 102.162 11.4035 1165 88.4961 1335.76 444.622
2483 0 106.359 13.2005 1404 85.3704 1336.06 448.322
2484 0 109.191 13.4077 1464 85.8846 1335.68 443.886
2485 0 111.287 12.2386 1362 87.7893 1335.57 442.488
2486 0 116.257 13.9949 1627 84.4186 1335.98 442.435
2487 0 118.193 12.0396 1423 89.0225 1335.97 441.526
2488 0 123.17 10.7088 1319 92.4511 1336.33 438.002
2489 1 71.1205 11.5578 822 85.618 1336.62 464.348
2490 0 74.1956 11.9953 890 93.8607 1336.1 460.554
2491 0 77.1857 13.5776 1048 90.5134 1336.71 461.73
2492 0 78.1126 13.6854 1069 91.3648 1337.1 460.557
2493 0 80.2178 13.1642 1056 93.5407 1336.59 457.093
2494 0 84.2384 12.524 1055 94.9735 1336.08 457.947
2495 0 85.235 12.4831 1064 96.5113 1336 454.491
2496 0 88.2224 12.8425 1133 96.7785 1334.53 456.837
2497 0 90.2963 13.3117 1202 96.4884 1334.8 454.161
2498 0 92.3161 12.6197 1165 97.6944 1335.22 456.383
2499 0 93.2959 13.5161 1261 97.3164 1335.04 454.5
2500 0 97.2756 13.2921 1293 97.4795 1335.53 452.145
2501 0 99.2148 13.4053 1330 97.7669 1335.72 449.649
2502 0 102.24 14.3192 1464 96.1359 1334.8 449.888
2503 0 104.486 12.2888 1284 99.4782 1335.05 446.475
2504 0 109.217 12.8368 1402 96.8873 1335.35 446.608
2505 0 111.332 12.5121 1393 99.7301 1335.33 442.378
2506 0 113.322 12.7072 1440 98.7771 1335.34 442.075
2507 0 117.249 12.2048 1431 96.0461 1335.21 439.322
2508 0 122.158 13.458 1644 94.4641 1335.19 437.272
2509 1 69.1215 11.3424 784 95.7819 1334.96 465.772
2510 0 67.1743 12.341 829 94.1327 1335.17 456.606
2511 0 68.1119 11.8482 807 95.3618 1336.82 455.494
2512 0 74.2547 12.1204 900 97.7111 1336.01 461.751
2513 0 78.1379 12.7723 998 96.9469 1335.83 459.134
2514 0 81.2116 12.0057 975 97.9333 1336.21 460.3
2515 0 83.2897 13.5791 1131 96.6755 1335.74 456.517
2516 0 86.391 12.756 1102 98.7123 1335.35 452.676
2517 0 88.3219 12.2393 1081 100.067 1334.9 452.353
2518 0 93.5279 14.0814 1317 95.937 1335.38 450.847
2519 0 93.2816 12.4998 1166 97.1707 1335.36 450.057
2520 0 97.1705 12.3906 1204 89.8281 1335.89 450.787
2521 0 100.155 13.3593 1338 88.5434 1336.02 449.972
2522 0 101.134 12.5181 1266 91.7946 1336.3 448.043
2523 0 105.129 13.4692 1416 90.9753 1336.12 446.867
2524 0 107.134 12.8437 1376 92.9193 1336.73 446.233
2525 0 107.134 12.769 1368 134.596 1337.72 446.297
2526 0 114.24 13.3929 1530 94.2621 1336.13 441.291
2527 0 117.237 12.9908 1523 95.2948 1336.37 438.085
2528 0 120.291 12.9186 1554 95.7053 1336.19 436.689
2529 0 124.26 12.1037 1504 97.9402 1336.71 434.999
2530 0 128.251 12.1169 1554 98.482 1336.1 431.965
2531 0 133.207 12.9348 1723 97.7899 1336.11 428.778
2532 0 138.267 13.9368 1927 95.356 1336.53 427.902
2533 0 144.172 14.0596 2027 95.1219 1336.26 424.615
2534 1 79.1067 10.252 811 90.3847 1337.09 457.057
2535 0 78.178 8.9923 703 93.3414 1336.68 451.161
2536 0 81.166 10.4847 851 91.1199 1336.4 450.25
2537 0 83.2423 11.2203 934 90.4133 1336.87 451.567
2538 0 89.1888 12.7258 1135 88.0229 1336.53 450.715
2539 0 90.2623 9.69397 875 95.0686 1336.33 444.707
2540 0 95.2114 12.2884 1170 91.0137 1336.6 443.684
2541 0 95.239 10.8044 1029 95.0758 1336.32 441.658
2542 0 99.2327 11.8409 1175 92.2119 1336.55 444.283
2543 0 102.329 11.6976 1197 92.8864 1336.31 440.907
2544 0 109.27 11.2016 1224 93.8374 1336.5 437.721
2545 0 112.173 10.6978 1200 95.23 1336.56 435.885
2546 0 116.197 11.4978 1336 93.6587 1337.49 436.862
2547 0 121.096 11.6437 1410 95.4035 1337.15 438.973
2548 1 73.1274 10.7484 786 92.7926 1338.16 462.687
2549 0 71.1707 10.4678 745 95.2617 1337.53 460.695
2550 0 77.2101 11.4622 885 93.0972 1337.57 458.456
2551 0 79.061 12.8129 1013 90.1589 1337.99 457.679
2552 0 83.1159 12.7653 1061 90.9265 1337.81 456.935
2553 0 84.115 12.5661 1057 92.2838 1337.78 454.715
2554 0 86.127 12.946 1115 92.478 1337.78 454.555
2555 0 92.1658 12.3256 1136 92.9331 1338.29 455.628
2556 0 92.0965 12.7041 1170 93.7393 1336.76 454.467
2557 0 94.1021 12.7627 1201 95.1674 1337 451.685
2558 0 100.122 14.3525 1437 92.8107 1337.41 450.763
2559 0 101.047 13.9936 1414 94.4873 1336.94 451.166
2560 0 104.155 12.203 1271 98.3194 1337.49 450.535
2561 0 105.203 12.2239 1286 100.515 1337.83 445.753
2562 0 109.198 11.7951 1288 100.852 1336.75 447.125
2563 0 115.244 14.0745 1622 97.7065 1336.53 444.673
2564 0 116.109 11.5839 1345 102.465 1336.5 444.262
2565 0 122.235 13.654 1669 98.0905 1336.86 440.971
2566 0 127.25 12.6051 1604 100.979 1336.47 439.358
2567 1 70.2351 12.8141 900 99.49 1336.88 464.849
2568 0 72.1652 12.6515 913 102.065 1336.32 462.011
2569 0 74.1426 12.8806 955 101.446 1336.48 461.436
2570 0 77.164 14.1387 1091 97.7379 1335.84 462.255
2571 0 78.1152 14.6706 1146 98.0079 1335.89 460.469
2572 0 79.1629 13.567 1074 102.065 1335.95 458.165
2573 0 84.2542 13.4949 1137 101.216 1336.15 457.955
2574 0 87.3114 14.6831 1282 99.4126 1336.58 454.578
2575 0 88.3536 13.4913 1192 102.549 1336.49 452.095
2576 0 93.484 14.9651 1399 98.4796 1336.22 451.639
2577 0 92.1952 13.71 1264 103.711 1336.15 446.864
2578 0 96.5359 13.3215 1286 104.164 1336.33 448.306
2579 0 101.301 14.3533 1454 101.353 1336.04 447.539
2580 0 102.397 13.9751 1431 103.637 1336.47 444.551
2581 0 105.225 14.2932 1504 103.084 1336.11 441.961
2582 0 111.166 14.8877 1655 99.3184 1335.98 445.207
2583 0 113.189 14.1357 1600 101.451 1336.11 440.129
2584 0 117.337 14.2837 1676 101.162 1336.37 437.806
2585 1 60.193 12.028 724 103.844 1336.04 465.369
2586 0 64.1551 12.5321 804 104.327 1335.42 459.45
2587 0 65.2942 13.1405 858 105.216 1335.29 463.957
2588 0 69.1364 12.4103 858 106.615 1335.54 463.995
2589 0 69.1668 13.9229 963 104.389 1335.69 462.476
2590 0 71.0786 13.6609 971 105.807 1335.58 462.739
2591 0 73.1326 13.1815 964 107.89 1335.45 460.826
2592 0 77.1543 13.648 1053 105.142 1335.36 459.261
2593 0 78.0762 13.3715 1044 106.524 1335.56 456.538
2594 0 79.1114 14.4354 1142 104.44 1335.86 458.257
2595 0 82.2346 14.106 1160 104.788 1336.13 457.768
2596 0 85.2018 13.9316 1187 105.739 1335.97 455.252
2597 0 87.2063 14.1159 1231 106.395 1336.03 450.336
2598 0 87.1371 14.5403 1267 106.365 1335.95 449.643
2599 0 91.2429 14.708 1342 105.138 1335.97 447.296
2600 0 93.1625 13.9434 1299 107.865 1336.37 445.138
2601 0 95.1398 14.8413 1412 105.847 1336.32 442.917
2602 0 97.2121 14.7101 1430 107.413 1335.36 440.652
2603 0 98.1658 13.2633 1302 112.998 1335.69 436.995
2604 0 102.228 13.3036 1360 112.329 1335.44 438.702
2605 0 106.187 14.4274 1532 109.497 1335.7 436.451
2606 0 109.177 13.043 1424 111.899 1335.61 438.569
2607 0 111.234 12.4692 1387 114.406 1335.6 436.82
2608 0 122.117 12.5289 1530 113.039 1335.76 434.151
2609 0 121.173 12.1232 1469 116.69 1336.17 429.3
2610 0 125.207 12.7548 1597 114.758 1335.69 427.098
2611 0 132.283 13.6147 1801 111.66 1335.82 425.215
2612 1 75.0859 11.7998 886 110.802 1336.09 452.735
2613 0 77.1778 11.7391 906 111.391 1335.9 451.812
2614 0 82.1907 12.5683 1033 108.877 1335.95 452.218
2615 0 83.1333 11.8364 984 111.883 1336.01 449.35
2616 0 86.2168 12.341 1064 111.693 1335.66 447.489
2617 0 89.2933 13.4053 1197 109.242 1335.26 446.786
2618 0 94.1662 13.3806 1260 108.246 1335.9 445.257
2619 0 97.2446 14.1396 1375 104.701 1335.85 449.283
2620 0 99.0824 13.726 1360 107.768 1335.38 442.016
2621 0 104.273 14.0976 1470 105.048 1335.76 445.03
2622 0 103.269 13.276 1371 107.403 1335.5 440.065
2623 0 103.268 13.2956 1373 150.039 1335.49 439.983
2624 0 111.234 13.7009 1524 106.247 1335.2 433.825
2625 0 114.214 12.1613 1389 108.569 1335.18 434.918
2626 0 118.263 13.0049 1538 106.077 1335.36 432.642
2627 1 64.204 10.747 690 106.472 1335.18 457.861
2628 0 66.1027 10.2114 675 95.8874 1336.19 462.801
2629 0 68.0577 7.72874 526 99.1616 1335.99 461.266
2630 0 70.0699 9.51907 667 96.3883 1335.55 460.574
2631 0 71.1141 8.91525 634 99.0221 1335.24 457.345
2632 0 75.1978 12.2344 920 93.9044 1335.58 453.686
2633 0 79.1806 12.1494 962 93.5728 1335.33 455.343
2634 0 82.2625 10.8433 892 96.6233 1335.15 451.054
2635 0 85.2486 10.8975 929 96.3488 1334.91 452.708
2636 0 87.1939 11.6293 1014 97.4813 1334.94 447.464
2637 0 89.1058 10.2462 913 99.4096 1334.62 449.173
2638 0 93.2656 11.1295 1038 99.5106 1334.38 443.427
2639 0 94.2061 10.5619 995 102.217 1333.65 442.051
2640 0 98.1263 12.5043 1227 98.4336 1334.07 440.844
2641 0 101.207 10.355 1048 103.075 1334.46 439.231
2642 0 107.201 10.7555 1153 101.301 1334.26 435.846
2643 0 114.326 11.7821 1347 98.9948 1333.87 431.707
2644 1 65.0658 10.1436 660 93.45 1333.95 461.955
2645 0 65.0648 10.1898 663 139.027 1333.94 461.934
2646 0 66.2283 11.2641 746 98.6904 1333.08 460.844
2647 0 70.1427 10.0082 702 102.321 1333.35 459.843
2648 0 68.1669 9.16867 625 104.464 1333.32 458.459
2649 0 75.1397 10.8997 819 99.602 1333.48 457.873
2650 0 77.1447 10.3183 796 100.798 1333.52 458.152
2651 0 81.2042 11.8344 961 97.077 1334.14 459.05
2652 0 83.1417 11.5947 964 98.7023 1333.33 458.782
2653 0 88.1039 12.6215 1112 96.9388 1333.45 455.922
2654 0 90.1503 11.3366 1022 99.8591 1333.58 454.671
2655 0 91.1095 11.6234 1059 99.9811 1333.8 455.174
2656 0 94.1357 11.6746 1099 101.456 1333.36 449.082
2657 0 95.159 11.3494 1080 102.64 1333.04 449.702
2658 0 101.139 12.9822 1313 99.3222 1333.65 449.713
2659 0 105.084 13.0277 1369 98.9693 1334 448.203
2660 0 107.133 12.4798 1337 99.6761 1333.66 449.155
2661 0 112.109 12.3095 1380 97.7 1334.11 446.804
2662 0 116.228 13.0691 1519 96.6241 1334.86 445.134
2663 0 120.141 13.6173 1636 98.143 1334.3 444.13
2664 0 124.156 13.3139 1653 98.9171 1333.96 440.907
2665 1 66.1086 9.9987 661 98.469 1334.98 468.455
2666 0 71.184 10.817 770 95.6506 1334.39 468.979
2667 0 73.1706 11.2477 823 95.4265 1334.46 466.162
2668 0 75.1392 11.6184 873 94.0252 1334.75 465.509
2669 0 78.237 11.708 916 93.941 1334.68 461.181
2670 0 80.2287 10.9686 880 95.4455 1334.94 458.602
2671 0 80.2287 10.9437 878 131.508 1335.95 458.481
2672 0 87.1522 12.1856 1062 92.8211 1335.04 455.357
2673 0 87.1306 10.467 912 96.3662 1334.27 455.587
2674 0 91.2236 12.0583 1100 93.2 1335.49 453.746
2675 0 96.1181 13.0256 1252 91.6182 1334.64 451.112
2676 0 99.1564 12.7576 1265 92.3336 1334.8 451.027
2677 0 101.083 10.8524 1097 95.4294 1334.55 452.508
2678 0 105.101 11.9599 1257 94.7009 1334.73 447.675
2679 0 111.319 13.4928 1502 91.7943 1335.19 448.905
2680 0 113.145 12.2409 1385 94.9184 1334.48 446.769
2681 0 115.237 12.4526 1435 95.8328 1334.41 444.032
2682 0 117.379 12.055 1415 97.6021 1334.4 441.108
2683 0 121.176 11.4545 1388 97.763 1333.46 442.158
2684 0 127.14 11.4048 1450 97.8655 1334 440.745
2685 0 132.295 11.9355 1579 95.1476 1334.14 432.073
2686 0 137.271 12.4862 1714 94.6844 1333.97 429.668
2687 1 76.1702 9.84637 750 94.128 1334.34 464.944
2688 0 80.1788 12.2102 979 91.5414 1334.47 459.526
2689 0 81.1634 12.9985 1055 90.7033 1334.54 458.251
2690 0 84.1089 13.4469 1131 89.3749 1335.41 457.895
2691 0 84.0637 11.8838 999 94.1041 1335.33 458.146
2692 0 87.0474 12.8895 1122 91.6087 1335.88 457.182
2693 0 91.1536 12.7697 1164 92.0069 1335.05 451.907
2694 0 95.1376 13.5803 1292 90.5093 1335.24 451.241
2695 0 97.1911 12.5835 1223 94.0376 1334.65 450.264
2696 0 101.169 12.7114 1286 94.2636 1334.28 450.194
2697 0 101.13 11.332 1146 97.6815 1334.55 446.195
2698 0 106.182 14.4374 1533 91.7763 1334.72 445.57
2699 0 107.12 12.5187 1341 96.1678 1334.79 446.227
2700 0 111.105 12.2317 1359 96.5195 1335.08 444.163
2701 0 113.247 12.3888 1403 97.2181 1334.7 439.931
2702 0 119.234 12.7228 1517 96.3164 1335.11 439.528
2703 0 121.222 13.1576 1595 96.9122 1334.4 438.629
2704 0 125.33 12.5589 1574 98.4771 1334.95 433.637
2705 0 130.303 13.8754 1808 94.6399 1334.99 431.694
2706 0 134.196 14.2702 1915 96.9039 1334.91 432.199
2707 0 139.244 12.4314 1731 99.0162 1334.9 431.276
2708 0 142.307 11.9179 1696 99.5236 1335.12 425.166
2709 0 147.168 12.591 1853 98.0275 1334.6 426.672
2710 0 155.226 12.8522 1995 98.0942 1334.6 423.732
2711 0 159.141 14.5594 2317 95.0397 1335.2 417.713
2712 1 91.3092 12.2551 1119 98.0438 1335.4 453.702
2713 0 96.2443 13.8502 1333 96.0608 1334.09 455.018
2714 0 99.2066 14.4144 1430 96.1986 1333.92 453.952
2715 0 99.2264 11.7207 1163 104.475 1334.31 446.643
2716 0 105.269 13.7267 1445 100.786 1334.58 445.54
2717 0 107.268 13.7507 1475 100.865 1335.54 443.588
2718 0 112.221 12.6625 1421 102.554 1335.22 446.324
2719 0 113.1 14.2882 1616 100.934 1335.18 446.42
2720 0 117.123 14.0451 1645 101.629 1335.37 443.263
2721 0 121.199 14.0183 1699 101.883 1335.07 442.228
2722 0 126.138 12.8827 1625 102.89 1334.88 444.122
2723 0 128.128 13.2758 1701 103.572 1334.86 440.054
2724 0 132.104 12.7249 1681 95.4813 1335 441.027
2725 1 77.1245 10.6192 819 96.0208 1335.11 469.09
2726 0 79.0359 12.6272 998 93.8537 1335.56 462.43
2727 0 80.1059 12.7331 1020 95.5892 1335.64 460.539
2728 0 86.0934 13.2995 1145 93.3598 1335.33 460.571
2729 0 87.1027 13.3865 1166 94.6681 1335.09 458.598
2730 0 90.1295 14.4015 1298 93.208 1336.32 457.215
2731 0 90.1295 14.4792 1305 138.657 1337.3 457.252
2732 0 97.0735 13.7216 1332 95.6974 1335.36 452.392
2733 0 98.1237 14.176 1391 96.1984 1335.5 449.73
2734 0 101.083 14.5326 1469 98.3329 1335.7 449.161
2735 0 106.215 15.6946 1667 95.7786 1335.41 449.106
2736 0 109.097 14.8034 1615 97.3102 1335.34 447.124
2737 0 111.118 14.6061 1623 99.0037 1335.02 443.145
2738 0 114.118 13.7489 1569 101.607 1335.08 444.087
2739 0 118.2 13.731 1623 102.418 1335.69 443.894
2740 0 121.107 15.3914 1864 102.003 1335.28 437.315
2741 0 126.357 13.8655 1752 104.893 1334.56 439.947
2742 0 130.258 13.811 1799 105.623 1334.91 433.215
2743 1 72.1198 11.9662 863 101.002 1335.65 467.627
2744 0 72.2142 12.0475 870 95.0161 1335.8 468.583
2745 0 75.0931 13.5965 1021 94.2351 1335.34 463.279
2746 0 74.068 12.9206 957 95.2968 1336.81 463.935
2747 0 78.0581 12.5547 980 95.5622 1336.62 464.545
2748 0 82.0679 12.4044 1018 95.6552 1336.46 461.918
2749 0 82.1184 12.7621 1048 96.4179 1336.06 459.86
2750 0 85.2125 12.4864 1064 96.9662 1336.44 460.383
2751 0 89.0945 13.5362 1206 95.3176 1336.01 457.903
2752 0 90.1884 12.7511 1150 97.9096 1336.43 455.921
2753 0 95.1572 14.3972 1370 94.6401 1335.93 454.621
2754 0 99.2251 15.9335 1581 91.2429 1336.28 453.252
2755 0 102.157 13.3715 1366 97.2182 1336.53 450.876
2756 0 104.136 13.7896 1436 97.1797 1335.87 450.151
2757 0 109.208 14.303 1562 96.1677 1336.38 448.451
2758 0 108.104 11.9145 1288 102.198 1336.39 446.816
2759 0 114.107 12.6723 1446 101.088 1336.38 445.92
2760 0 117.097 13.6383 1597 99.7395 1335.99 443.868
2761 0 121.125 14.4975 1756 98.6862 1336.05 438.27
2762 0 125.159 13.4868 1688 101.495 1336.28 438.892
2763 0 129.211 13.2497 1712 102.419 1335.55 436.144
2764 0 136.348 14.1182 1925 100.134 1335.2 434.331
2765 0 138.123 14.1034 1948 100.847 1335.81 431.913
2766 1 56.037 13.7231 769 97.2003 1336.62 468.856
2767 0 58.0531 12.3163 715 98.821 1336.3 471.818
2768 0 58.0531 12.2646 712 145.699 1335.28 471.772
2769 0 60.0828 12.2331 735 102.891 1336.25 465.844
2770 0 62.0448 13.1518 816 99.7721 1336.17 466.904
2771 0 64.0466 13.1467 842 100.713 1336.72 464.951
2772 0 66.0244 12.8892 851 101.967 1336.4 462.174
2773 0 69.1143 12.2117 844 103.024 1336.17 462.225
2774 0 70.0522 13.3329 934 101.168 1336.07 458.309
2775 0 70.084 11.9143 835 104.587 1336.32 460.408
2776 0 73.0377 12.7195 929 102.6 1336.18 458.405
2777 0 74.0784 13.9177 1031 100.066 1335.42 459.861
2778 0 74.0946 12.565 931 100.105 1335.87 457.132
2779 0 78.0904 14.3424 1120 96.5741 1335.45 456.478
2780 0 79.1124 13.8411 1095 99.0831 1335.53 454.182
2781 0 83.1634 12.9504 1077 100.977 1335.45 455.174
2782 0 84.116 13.101 1102 100.328 1335.64 454.976
2783 0 89.2015 12.5671 1121 100.933 1335.32 450.774
2784 0 91.1736 13.8527 1263 99.0602 1334.84 447.809
2785 0 96.2036 13.0556 1256 98.8925 1335.2 448.47
2786 0 97.1057 11.956 1161 101.941 1334.78 445.937
2787 0 103.193 13.8478 1429 96.5689 1335.37 445.344
2788 1 60.0364 11.8262 710 102.083 1335.13 462.392
2789 0 63.0362 13.1194 827 99.6372 1334.51 460.807
2790 0 64.1096 12.7438 817 100.316 1334.46 460.524
2791 0 67.0648 14.6575 983 96.586 1333.58 458.478
2792 0 67.0648 13.897 932 141.115 1332.63 457.802
2793 0 72.183 13.5766 980 98.3153 1334.57 458.815
2794 0 74.2734 14.1639 1052 96.5086 1335.25 459.319
2795 0 74.2094 12.4647 925 102.161 1335.21 458.681
2796 0 75.1876 12.0499 906 105.208 1335.06 454.663
2797 0 78.1091 14.6206 1142 100.053 1334.93 453.979
2798 0 79.0967 13.1232 1038 103.618 1334.92 452.947
2799 0 83.142 13.2063 1098 102.89 1335.34 453.315
2800 0 85.147 13.3064 1133 102.852 1335.15 451.735
2801 0 90.2284 14.0976 1272 100.528 1335.25 449.698
2802 0 91.1281 15.0557 1372 99.207 1335.52 448.198
2803 0 95.148 13.5999 1294 102.209 1335.56 444.757
2804 0 98.1707 12.7533 1252 102.935 1335.46 447.031
2805 0 102.189 13.7589 1406 101.951 1335.05 439.696
2806 0 105.167 13.9683 1469 100.672 1334.75 438.284
2807 1 63.0908 12.7911 807 96.9789 1334.32 461.042
2808 0 65.0996 13.4409 875 95.6183 1335.49 463.655
2809 0 67.2202 14.5343 977 91.4012 1334.85 464.035
2810 0 68.1269 12.462 849 95.6254 1334.73 464.318
2811 0 70.1942 13.192 926 95.4849 1334.19 462.381
2812 0 72.1565 13.3737 965 94.5803 1334.57 463.091
2813 0 75.2163 13.973 1051 93.5366 1334.75 460.771
2814 0 77.2131 13.8707 1071 93.6648 1334.45 459.687
2815 0 80.0708 13.9127 1114 92.9812 1335.52 460.439
2816 0 80.0599 13.5024 1081 95.1018 1335.91 456.113
2817 0 83.1372 13.3394 1109 95.8702 1335.35 454.182
2818 0 83.1105 12.73 1058 96.8346 1335.39 449.526
2819 0 86.1304 14.0833 1213 94.6851 1334.84 447.327
2820 0 85.1542 13.4814 1148 98.7474 1334.91 447.307
2821 0 92.1336 15 1382 94.6838 1334.47 449.586
2822 0 93.1924 14.0033 1305 98.0874 1334.84 445.526
2823 0 96.0924 14.4861 1392 97.5568 1334.86 444.695
2824 0 101.134 14.11 1427 97.7561 1334.4 445.81
2825 0 104.106 14.1491 1473 98.5397 1334.46 443.553
2826 0 105.177 13.6342 1434 100.823 1334.36 439.861
2827 0 110.116 14.0125 1543 99.7278 1334.52 436.679
2828 0 115.158 14.6842 1691 97.8811 1334.7 435.78
2829 0 119.237 13.5696 1618 99.4277 1334.37 433.98
2830 1 65.1223 11.9007 775 95.5523 1335.14 462.135
2831 0 66.1453 12.4725 825 94.5297 1334.94 456.587
2832 0 69.1896 11.3456 785 100.066 1335.03 458.524
2833 0 70.2232 11.9476 839 99.8176 1335.12 456.387
2834 0 73.2339 11.8388 867 98.857 1335.1 455.287
2835 0 74.0519 13.2745 983 96.1506 1335.1 453.683
2836 0 74.0503 13.3018 985 143.182 1335.11 453.768
2837 0 81.1504 11.9285 968 98.1994 1335.2 450.367
2838 0 84.062 14.7629 1241 91.6906 1334.52 450.234
2839 0 87.1613 11.5533 1007 98.4767 1334.81 448.006
2840 0 89.2763 12.7357 1137 96.1328 1334.58 444.859
2841 0 91.2259 12.2005 1113 95.1186 1334.21 445.872
2842 0 96.2583 11.9262 1148 95.3214 1334.16 446.984
2843 0 98.2021 12.403 1218 94.7274 1334.15 445.565
2844 0 106.187 12.7511 1354 97.2053 1334.39 447.652
2845 0 106.368 11.8081 1256 99.6529 1333.27 442.58
2846 0 111.202 12.1131 1347 98.703 1333.55 443.828
2847 0 115.181 12.9275 1489 95.8878 1333.98 440.699
2848 0 120.315 13.6807 1646 93.7278 1333.99 440.166
2849 0 125.449 14.3724 1803 90.8663 1333.4 435.492
2850 0 131.211 13.1239 1722 91.9837 1333.7 434.515
2851 1 75.1778 10.269 772 82.5207 1333.55 465.877
2852 0 80.1186 10.9338 876 82.4292 1333.57 459.787
2853 0 86.1821 12.1139 1044 80.2155 1333 458.048
2854 0 88.3906 13.2706 1173 79.1714 1332.88 453.249
2855 0 91.2358 12.0895 1103 81.7054 1332.46 453.976
2856 0 92.2417 12.7708 1178 81.7445 1333.02 450.55
2857 0 96.3296 12.1562 1171 83.3578 1333.22 452.799
2858 0 100.334 13.1561 1320 82.7417 1332.81 450.466
2859 0 102.36 11.3717 1164 87.415 1333.23 447.964
2860 0 105.172 11.9804 1260 86.3532 1333.1 447.652
2861 0 108.218 12.4378 1346 86.922 1333.1 447.787
2862 0 109.32 11.7819 1288 92.2166 1333.17 442.75
2863 0 113.274 12.7214 1441 90.6044 1333.92 443.588
2864 0 117.213 13.437 1575 89.9943 1333.25 443.795
2865 0 122.291 12.6828 1551 91.646 1332.99 439.817
2866 0 126.339 12.8385 1622 91.7824 1332.87 439.502
2867 0 130.305 13.6756 1782 91.4024 1332.91 433.608
2868 0 133.13 13.8511 1844 91.8449 1333.12 432.855
2869 0 139.372 13.1949 1839 93.0778 1333.04 427.29
2870 1 78.3816 10.4234 817 89.0367 1332.32 462.106
2871 0 81.3215 12.2846 999 87.9259 1333.44 457.77
2872 0 84.2183 12.8476 1082 85.3974 1333.48 462.05
2873 0 88.2215 13.2621 1170 85.0359 1333.72 461.15
2874 0 88.2215 13.2734 1171 137.675 1333.74 461.111
2875 0 92.1972 13.3518 1231 87.7384 1334.05 454.771
2876 0 94.3161 12.0234 1134 92.3933 1334.27 450.088
2877 0 99.43 13.1148 1304 91.2546 1334.32 446.758
2878 0 103.326 13.3074 1375 90.9171 1333.7 447.168
2879 0 106.346 12.4217 1321 94.0802 1333.33 445.855
2880 0 109.666 12.6019 1382 96.4421 1333.81 442.54
2881 0 110.379 13.1184 1448 96.9979 1333.46 440.559
2882 0 115.562 13.6031 1572 96.3651 1333.46 438.758
2883 0 120.76 13.0092 1571 96.6423 1334.14 439.284
2884 0 120.406 12.0426 1450 100.526 1333.55 437.41
2885 0 124.305 14.3116 1779 97.3963 1333.55 433.959
2886 0 125.204 12.5795 1575 100.839 1333.38 433.987
2887 0 130.236 13.0302 1697 101.417 1333.19 427.283
2888 0 134.247 13.4454 1805 101.093 1332.65 425.856
2889 0 140.22 13.3576 1873 100.556 1333.37 423.813
2890 0 142.184 13.8905 1975 99.4592 1333.48 420.204
2891 0 147.228 13.0478 1921 101.686 1333.07 418.392
2892 0 152.343 14.1457 2155 100.404 1332.63 414.856
2893 0 156.346 13.5916 2125 102.142 1332.92 414.268
2894 0 164.363 14.6991 2416 99.6565 1332.39 410.175
2895 0 164.363 14.76 2426 152.393 1332.39 410.039
2896 1 97.2186 11.9627 1163 102.592 1333.06 440.438
2897 0 102.164 14.3005 1461 96.4175 1333.35 440.322
2898 0 101.346 13.5773 1376 98.843 1333 439.824
2899 0 106.297 12.5685 1336 100.485 1333.06 438.091
2900 0 107.185 12.6324 1354 101.575 1333.43 434.663
2901 0 111.325 12.3153 1371 101.967 1333.43 435.263
2902 0 117.356 13.0713 1534 99.101 1333 432.781
2903 0 122.345 11.8844 1454 101.457 1333.45 430.136
2904 0 124.33 12.499 1554 101.071 1333.61 425.471
2905 0 130.401 13.3357 1739 98.6032 1333.45 427.872
2906 0 133.203 12.9877 1730 99.6462 1333.5 423.864
2907 0 138.466 13.5774 1880 98.1543 1333.61 419.081
2908 0 142.394 13.1676 1875 99.4192 1333.39 416.865
2909 0 151.282 12.9559 1960 98.3148 1333.5 420.201
2910 0 151.463 12.3925 1877 101.55 1333.25 409.999
2911 0 156.555 14.0207 2195 98.6223 1333.31 413.697
2912 1 85.1615 9.86361 840 100.114 1332.74 442.198
2913 0 92.2111 10.7471 991 96.1463 1333.51 447.27
2914 0 90.2171 12.2704 1107 96.1897 1332.86 440.123
2915 0 95.43 10.4894 1001 99.1988 1333.25 439.916
2916 0 102.276 11.5276 1179 95.5293 1333.99 442.722
2917 0 105.2 10.9315 1150 97.8209 1333.62 437.456
2918 0 105.267 12.853 1353 95.2772 1333.91 436.163
2919 0 110.269 14.7186 1623 91.1738 1333.8 436.438
2920 0 113.398 13.1042 1486 94.2436 1333.25 434.328
2921 0 117.253 12.3323 1446 97.166 1334.45 431.743
2922 0 121.166 10.9272 1324 99.7621 1334.4 429.583
2923 0 125.177 11.0644 1385 94.556 1335.04 435.46
2924 0 129.175 10.6909 1381 92.4374 1334.55 433.093
2925 0 132.176 10.2439 1354 93.3442 1334.26 431.451
2926 0 140.107 11.9123 1669 90.4578 1333.96 426.205
2927 0 142.205 10.3934 1478 92.7828 1334.09 426.635
2928 0 151.272 12.2627 1855 90.2555 1333.9 422.961
2929 1 87.2904 8.9586 782 92.5205 1333.54 447.744
2930 0 90.1434 10.6275 958 89.0167 1333.53 445.019
2931 0 94.5681 11.8856 1124 87.3754 1333.34 447.867
2932 0 96.4478 12.7634 1231 87.2331 1333.2 445.21
2933 0 99.2038 10.9976 1091 89.8332 1333.22 445.764
2934 0 101.468 11.1858 1135 90.5313 1333.61 443.179
2935 0 108.441 13.1038 1421 87.1358 1333.4 440.882
2936 0 108.441 13.0946 1420 130.225 1332.38 440.782
2937 0 114.321 12.1675 1391 91.6858 1333.07 439.564
2938 0 119.315 12.949 1545 90.3773 1332.65 438.736
2939 0 121.398 12.1996 1481 92.1337 1333.1 436.558
2940 0 122.334 11.1253 1361 94.4328 1333.47 434.389
2941 0 127.466 12.113 1544 93.0758 1333.36 433.528
2942 0 131.38 11.6912 1536 93.8958 1333.41 427.923
2943 0 136.48 12.8151 1749 91.4505 1333.16 428.938
2944 0 141.307 13.0354 1842 90.7226 1333.66 426.767
2945 0 146.43 13.2077 1934 89.864 1333.79 421.479
2946 1 86.1157 10.8923 938 82.5618 1333.86 458.625
2947 0 89.1812 11.4374 1020 83.1412 1333.73 454.01
2948 0 92.1566 12.0122 1107 82.8401 1333.72 454.645
2949 0 92.3123 9.99867 923 86.5601 1332.89 451.06
2950 0 96.1521 11.8146 1136 82.5942 1332.36 453.725
2951 0 100.3 12.0239 1206 84.2645 1332.71 447.167
2952 0 102.26 10.3461 1058 87.3677 1332.39 446.948
2953 0 105.221 10.9959 1157 86.9827 1332.4 446.215
2954 0 110.12 11.7871 1298 86.2103 1332.58 445.638
2955 0 112.08 10.546 1182 89.0964 1332.43 443.317
2956 0 115.198 9.9307 1144 90.6215 1332.46 440.887
2957 0 120.195 11.681 1404 88.1147 1332.21 440.36
2958 0 123.178 14.41 1775 84.8276 1333.13 438.298
2959 0 125.145 12.4096 1553 89.1996 1333.18 438.6
2960 0 127.139 12.5454 1595 88.8031 1333.54 439.142
2961 0 129.165 12.3486 1595 90.8784 1333.15 435.849
2962 0 137.226 12.7673 1752 89.79 1333.62 433.405
2963 0 140.274 12.8819 1807 75.4139 1333.49 426.825
2964 0 140.274 12.9817 1821 142.271 1333.48 426.848
2965 0 146.357 13.7814 2017 90.7536 1332.93 427.658
2966 0 150.164 12.6461 1899 94.634 1332.56 422.135
2967 0 153.323 11.3421 1739 97.5198 1333.1 418.971
2968 0 158.309 12.1977 1931 96.8488 1332.69 416.814
2969 0 166.372 12.448 2071 95.8088 1332.74 419.219
2970 0 168.185 12.736 2142 97.3698 1332.92 412.621
2971 0 175.29 12.8416 2251 96.2856 1332.62 418.088
2972 0 183.234 14.2823 2617 93.9045 1332.44 413.164
2973 0 185.219 11.3757 2107 100.938 1331.96 402.065
2974 0 190.268 11.9621 2276 100.036 1332.01 403.99
2975 0 196.364 12.981 2549 98.5944 1331.41 402.216
2976 0 202.217 10.736 2171 102.532 1331.92 405.996
2977 0 206.26 11.9849 2472 102.59 1332.04 395.854
2978 1 157.137 12.4413 1955 101.707 1331.77 422.431
2979 0 164.256 13.3877 2199 101.669 1331.75 416.5
2980 0 168.211 13.6495 2296 101.737 1331.86 413.808
2981 0 174.219 14.0743 2452 100.602 1332.11 410.208
2982 0 178.306 14.6658 2615 98.5296 1333.26 409.707
2983 0 183.331 14.7711 2708 99.7212 1333.46 404.93
2984 0 182.198 11.1856 2038 110.077 1332.38 397.513
2985 0 189.278 13.4775 2551 104.217 1332.95 393.783
2986 0 190.205 12.7652 2428 102.183 1332.95 387.009
2987 1 273.569 12.2382 3348 107.287 1332.47 366.206
2988 0 274.455 10.8834 2987 110.855 1332.26 371.732
2989 0 276.417 9.36266 2588 111.703 1332.54 388.102
2990 0 271.439 12.5 3393 110.699 1332.18 367.106
2991 1 234.575 12.6356 2964 110.188 1332.87 374.929
2992 0 245.49 13.7888 3385 107.119 1332.65 377.033
2993 0 252.382 14.2958 3608 106.968 1332.31 364.803
2994 1 73.1718 8.8832 650 92.9785 1333.58 460.406
2995 0 77.1127 10.569 815 96.0466 1332.2 461.407
2996 0 79.0735 11.5968 917 88.289 1332.07 462.286
2997 0 80.1275 10.3211 827 90.8452 1332.76 461.999
2998 0 81.05 12.1283 983 88.6968 1332.47 460.162
2999 0 86.1077 12.705 1094 87.3218 1332.55 456.853
3000 0 89.1417 12.6204 1125 87.2702 1332.12 457.716
3001 0 92.2098 12.4716 1150 87.2487 1332.61 455.779
3002 0 95.0925 12.6614 1204 87.745 1332.16 453.911
3003 0 96.1407 11.868 1141 89.7625 1332.48 451.571
3004 0 101.067 8.47951 857 94.6511 1332.34 459.036
3005 0 100.101 12.5873 1260 89.504 1332.63 452.471
3006 0 104.113 11.1994 1166 92.2899 1332.59 448.927
3007 0 109.288 12.5815 1375 90.9149 1332.43 444.746
3008 0 110.161 12.4091 1367 96.21 1331.24 445.609
3009 0 115.448 13.6858 1580 95.6038 1331.55 441.273
3010 0 116.125 12.788 1485 97.4101 1331.59 443.056
3011 0 119.158 12.9156 1539 96.0741 1331.94 438.366
3012 0 121.239 10.6732 1294 99.922 1332.27 432.906
3013 0 121.145 11.9857 1452 97.6674 1332.84 425.364
3014 0 124.276 12.3999 1541 96.353 1332.68 427.98
3015 1 68.0858 6.7268 458 101.231 1331.99 449.234
3016 0 72.0883 6.88045 496 93.6593 1333.67 449.252
3017 0 79.2714 10.1298 803 82.8443 1332.88 450.656
3018 0 79.0508 9.65202 763 84.4771 1333.1 453.421
3019 0 74.0527 9.6958 718 86.8008 1332.94 448.45
3020 1 85.056 10.8282 921 82.9381 1332.97 450.937
3021 0 88.1442 10.2786 906 84.1115 1332.6 450.791
3022 0 90.0854 11.3115 1019 83.1825 1332.87 448.658
3023 0 92.1173 8.96683 826 87.6211 1332.53 446.062
3024 0 95.2445 11.7907 1123 82.9341 1332.85 447.813
3025 0 99.1366 10.9647 1087 84.4499 1332.86 443.629
3026 0 101.104 9.95999 1007 86.43 1332.73 445.833
3027 0 102.247 11.8341 1210 85.9876 1332.7 435.961
3028 0 100.117 10.4978 1051 90.7812 1333.23 429.864
3029 0 102.148 11.0722 1131 92.4554 1332.78 432.834
3030 0 107.096 11.2516 1205 91.2838 1332.63 431.315
3031 0 108.187 9.93651 1075 94.04 1332.58 428.1
3032 0 113.176 10.17 1151 93.7029 1332.83 429.772
3033 0 122.166 10.9278 1335 91.6262 1332.93 425.592
3034 0 122.121 10.4405 1275 92.7169 1332.85 425.529
3035 1 73.1092 11.0246 806 91.4938 1332.34 465.258
3036 0 75.191 12.4616 937 89.8847 1331.97 462.274
3037 0 79.2246 12.9505 1026 87.9318 1332.74 462.058
3038 0 77.0979 11.7124 903 90.99 1332.48 459.208
3039 0 83.1143 14.2334 1183 85.4877 1333.05 461.062
3040 0 84.0679 14.179 1192 86.7013 1333.06 458.383
3041 0 87.0923 13.3766 1165 88.2069 1332.97 456.011
3042 0 89.1212 13.476 1201 88.7644 1333.01 456.346
3043 0 91.0718 13.5058 1230 88.4878 1333.58 454.853
3044 0 93.209 11.3294 1056 93.1562 1333.3 451.88
3045 0 97.1499 13.2784 1290 88.3907 1333.37 449.687
3046 0 99.1518 13.7063 1359 83.8624 1333.2 450.344
3047 0 98.1539 12.1034 1188 91.3603 1333.9 450.908
3048 0 102.219 13.8918 1420 90.6183 1333.78 450.437
3049 0 101.167 13.5419 1370 85.8474 1333.76 448.869
3050 0 101.12 14.1516 1431 91.03 1334.34 447.966
3051 0 101.154 12.9901 1314 95.3234 1333.75 448.565
3052 0 103.16 13.0962 1351 95.4641 1333.5 446.116
3053 0 105.095 16.0903 1691 89.0621 1334.14 444.589
3054 0 103.116 13.674 1410 95.0206 1333.9 445.851
3055 0 111.064 16.9182 1879 86.148 1333.99 447.414
3056 0 111.128 14.1009 1567 92.1851 1333.46 442.176
3057 0 115.103 13.4401 1547 91.7932 1334.18 440.511
3058 0 119.19 13.5917 1620 90.7389 1333.7 438.449
3059 0 123.263 13.8728 1710 89.5322 1333.36 434.175
3060 0 127.181 14.9079 1896 87.2843 1333.21 429.415
3061 0 128.193 13.2925 1704 90.8609 1333.57 426.047
3062 0 132.18 13.2773 1755 90.5738 1333.05 419.774
3063 0 137.258 13.1869 1810 89.6017 1333.04 424.724
3064 1 73.0986 7.97552 583 96.2453 1332.84 448.847
3065 0 80.2498 11.2524 903 88.268 1333.66 451.729
3066 0 86.0685 11.7581 1012 84.2945 1334.11 456.332
3067 0 89.1273 12.8692 1147 83.7672 1333.98 457.575
3068 0 88.1218 11.5749 1020 87.898 1333.91 455.589
3069 0 89.2161 11.8028 1053 88.3352 1334.68 454.059
3070 0 90.192 11.6751 1053 90.0427 1334.63 453.875
3071 0 90.108 10.6095 956 94.6831 1334.46 450.2
3072 0 95.191 12.3016 1171 91.9377 1334.46 451.835
3073 0 96.155 11.5855 1114 94.8034 1334.52 449.475
3074 0 98.134 11.8409 1162 97.259 1333.82 445.099
3075 0 102.258 11.9502 1222 97.0336 1333.74 448.287
3076 0 105.291 12.3468 1300 98.96 1333.59 443.497
3077 0 108.142 12.835 1388 98.4683 1333.33 443.79
3078 0 112.168 12.4991 1402 100.338 1333.29 442.039
3079 1 66.1308 10.0558 665 95.0105 1333.82 466.371
3080 0 69.1915 11.3887 788 92.4594 1333.3 463.166
3081 0 71.3594 11.9115 850 91.7612 1332.8 458.729
3082 0 71.2795 10.1712 725 96.429 1333.36 459.352
3083 0 73.2959 10.8055 792 96.2462 1332.87 460.61
3084 0 76.1203 10.6673 812 96.5172 1333.61 461.664
3085 0 76.2269 11.8593 904 95.708 1333.2 459.881
3086 0 80.1797 11.786 945 95.036 1333.95 461.069
3087 0 77.1419 11.1483 860 143.91 1335.01 459.119
3088 0 83.1392 10.1396 843 98.7189 1332.87 458.891
3089 0 89.2336 12.3272 1100 95.3127 1333.04 455.502
3090 0 90.3194 14.7145 1329 91.5606 1333.53 451.906
3091 0 93.1333 12.9062 1202 95.3286 1332.63 450.927
3092 0 93.159 11.5072 1072 100.651 1332.86 449.615
3093 0 95.1924 11.9442 1137 100.321 1333.09 447.432
3094 0 100.266 11.6191 1165 100.516 1332.97 447.718
3095 0 99.2527 11.103 1102 102.779 1333.08 445.85
3096 0 105.37 12.4514 1312 99.0861 1333.79 444.827
3097 0 108.084 12.592 1361 98.8868 1334.62 442.269
3098 0 111.132 12.1117 1346 99.5884 1334.22 441.851
3099 0 113.204 11.4042 1291 100.804 1333.93 440.081
3100 0 117.26 12.5618 1473 99.6348 1334.23 437.607
3101 0 121.153 12.5131 1516 99.9551 1333.99 436.627
3102 0 127.178 13.2335 1683 98.921 1333.52 436.578
3103 1 74.1782 10.4208 773 99.1915 1333.17 456.82
3104 0 76.2163 11.9266 909 96.8526 1333.6 455.934
3105 0 79.0904 11.0254 872 101.58 1334.79 458.242
3106 0 82.1659 11.635 956 100.54 1334.81 454.885
3107 0 85.2086 11.5481 984 100.959 1334.64 455.089
3108 0 86.1563 11.5372 994 100.966 1334.63 454.824
3109 0 91.2016 12.3353 1125 98.7609 1334.26 453.311
3110 0 95.2357 12.9783 1236 97.6618 1334.6 450.784
3111 0 96.1982 12.9212 1243 97.819 1334.25 449.952
3112 0 100.192 12.2165 1224 99.2418 1334.6 447.013
3113 0 100.216 11.8544 1188 100.486 1334.37 443.152
3114 0 106.164 13.1495 1396 97.0766 1335.07 441.418
3115 0 106.164 13.1495 1396 137.6 1335.07 441.418
3116 0 111.174 13.0427 1450 97.4952 1333.81 439.648
3117 0 116.332 13.2982 1547 97.2405 1333.78 437.025
3118 0 116.332 13.2294 1539 134.642 1334.79 436.945
3119 0 124.349 13.4138 1668 96.8297 1333.67 432.794
3120 0 128.272 14.1652 1817 94.3132 1333.76 435.675
3121 0 135.273 13.5947 1839 93.7319 1333.9 431.08
3122 0 137.216 13.4897 1851 94.0783 1333.79 427.095
3123 0 143.293 12.8688 1844 93.8498 1334.07 422.339
3124 0 147.389 13.0471 1923 93.7468 1334.36 421.15
3125 1 85.2721 7.95102 678 96.0413 1334.93 447.506
3126 0 89.185 11.022 983 88.8901 1334.8 447.658
3127 0 90.2262 10.9724 990 89.5586 1334.94 446.536
3128 0 94.2989 10.5728 997 90.4564 1334.6 448.133
3129 0 99.1759 11.2426 1115 89.7856 1334.26 444.723
3130 0 102.399 9.99034 1023 91.7996 1334 446.248
3131 0 104.162 10.7813 1123 90.0196 1334.34 443.965
3132 0 109.358 12.9209 1413 87.518 1334.15 442.601
3133 0 114.218 11.4781 1311 91.5164 1334.01 439.905
3134 0 115.335 11.0461 1274 93.022 1334.2 441
3135 0 118.301 10.431 1234 94.7982 1334.98 436.554
3136 0 121.406 11.3339 1376 94.0247 1334.52 435.714
3137 0 127.333 12.8089 1631 91.2557 1334.18 434.528
3138 0 127.41 12.0634 1537 93.175 1334.6 434.544
3139 0 131.208 11.0969 1456 95.7809 1334.28 432.056
3140 0 138.389 12.5155 1732 93.7523 1334.47 430.021
3141 0 143.306 12.4279 1781 93.6232 1334.65 429.316
3142 0 146.221 11.5784 1693 95.8175 1334.64 428.36
3143 0 151.375 11.171 1691 96.7706 1334.18 427.236
3144 0 155.171 10.917 1694 95.7532 1335.11 426.673
3145 0 162.42 12.3014 1998 94.0991 1335.31 420.033
3146 1 93.0326 13.1567 1224 86.786 1334.82 456.295
3147 0 94.1146 10.2216 962 97.5759 1335.57 453.916
3148 0 100.145 13.0911 1311 95.0313 1333.6 452.351
3149 0 99.1726 12.1707 1207 99.42 1333.02 446.404
3150 0 103.129 12.208 1259 99.3161 1333.22 448.571
3151 0 108.127 14.0113 1515 95.7492 1332.86 448.067
3152 0 107.095 11.5038 1232 101.832 1333.25 447.098
3153 0 111.192 11.7364 1305 96.3778 1332.82 445.79
3154 0 112.055 10.12 1134 99.8924 1333.19 445.732
3155 0 118.247 12.4993 1478 96.9675 1333.31 441.625
3156 0 122.174 12.9733 1585 96.7773 1333.45 441.944
3157 0 124.104 12.4412 1544 97.3769 1333.4 442.071
3158 0 130.238 13.6597 1779 95.2934 1333.46 438.994
3159 0 133.093 13.6897 1822 95.5346 1333.92 440.65
3160 0 137.222 14.5385 1995 94.7499 1333.3 437.089
3161 0 139.212 13.7201 1910 97.3822 1333.3 432.026
3162 0 141.214 12.9662 1831 100.106 1333.39 432.469
3163 0 146.315 12.5483 1836 100.447 1333.92 431.955
3164 0 150.275 12.4904 1877 101.32 1333.61 431.849
3165 0 156.277 13.508 2111 99.9095 1334.46 424.297
3166 0 161.314 13.5512 2186 100.014 1334.08 421.312
3167 0 164.327 12.3108 2023 102.105 1333.68 422.701
3168 0 170.307 13.7868 2348 98.2675 1333.82 421.819
3169 0 177.429 13.0757 2320 99.3052 1334.13 416.221
3170 1 96.374 12.1921 1175 100.337 1334.3 453.066
3171 0 100.184 13.6249 1365 96.9553 1333.46 445.232
3172 0 100.423 12.3976 1245 100.452 1333.85 439.681
3173 0 103.242 12.3787 1278 102.242 1333.61 437.556
3174 0 107.268 13.7879 1479 99.8269 1334.16 438.245
3175 0 109.178 14.1695 1547 99.8474 1334.3 437.745
3176 0 114.303 15.1615 1733 97.3301 1334.92 435.295
3177 0 118.281 13.0114 1539 99.9675 1334.21 438.064
3178 0 120.181 13.0387 1567 99.7581 1333.19 434.34
3179 0 123.196 12.3461 1521 100.929 1333.13 440.232
3180 0 126.135 12.7403 1607 100.446 1333.4 434.643
3181 0 130.124 14.1942 1847 97.4662 1332.46 431.706
3182 0 134.195 13.0407 1750 99.7994 1332.83 427.722
3183 0 139.143 12.7279 1771 99.5387 1332.95 425.629
3184 1 81.1475 10.7212 870 99.7805 1333.55 453.074
3185 0 84.1048 12.853 1081 97.3793 1333.67 451.271
3186 0 86.2256 12.3165 1062 98.1789 1333.65 448.025
3187 0 89.2056 13.6426 1217 96.5062 1333.13 448.933
3188 0 90.245 13.8512 1250 97.0752 1333.03 446.429
3189 0 93.2279 12.0672 1125 100.516 1333.54 443.675
3190 0 97.1918 13.211 1284 97.6659 1333.43 443.298
3191 0 99.2492 12.0606 1197 100.525 1333.25 443.424
3192 0 103.078 13.7565 1418 95.9796 1332.26 450.217
3193 0 105.144 13.2295 1391 98.5349 1332.09 447.127
3194 0 109.087 12.3296 1345 100.15 1332.21 447.759
3195 0 110.108 11.525 1269 102.564 1332.82 444.024
3196 0 114.105 12.2519 1398 100.737 1332.53 441.69
3197 0 119.302 12.967 1547 99.3704 1332.77 441.33
3198 0 121.106 11.9977 1453 102.643 1333.09 436.14
3199 0 126.318 13.9727 1765 98.6408 1333.77 429.576
3200 0 129.25 13.1606 1701 99.0394 1333.77 427.059
3201 1 69.2205 9.65032 668 95.1841 1333.5 459.542
3202 0 74.244 10.5867 786 91.2239 1332.74 457.779
3203 0 77.2669 11.2597 870 90.6942 1332.66 458.205
3204 0 79.213 10.415 825 92.023 1332.99 459.193
3205 0 81.2038 11.2556 914 90.9694 1333.04 458.079
3206 0 82.1344 9.95929 818 94.1834 1333.15 456.609
3207 0 85.1987 10.5049 895 94.1654 1332.56 453.516
3208 0 87.2125 11.8905 1037 91.729 1333.61 452.585
3209 0 88.1577 11.9785 1056 93.4375 1333.32 449.155
3210 0 89.2257 11.5438 1030 94.3981 1333.65 450.162
3211 0 97.119 12.2736 1192 98.245 1334.22 456.07
3212 0 99.1481 12.1132 1201 98.2232 1334.34 454.381
3213 0 101.136 12.0036 1214 99.6128 1333.9 451.296
3214 0 105.198 12.6999 1336 97.7216 1334.09 451.534
3215 0 106.166 10.3423 1098 103.776 1333.61 450.464
3216 0 112.217 13.5452 1520 96.7138 1333.52 449.869
3217 0 112.213 12.9664 1455 99.2028 1333.77 447.241
3218 0 116.251 13.9525 1622 98.3594 1333.63 441.194
3219 0 119.309 12.9663 1547 99.8132 1333.97 442.076
3220 0 123.253 13.452 1658 98.8022 1334.47 440.641
3221 0 129.305 13.6653 1767 98.4403 1333.81 438.662
3222 0 131.169 13.2577 1739 100.423 1333.97 433.714
3223 0 132.301 12.2222 1617 99.8553 1333.14 426.278
3224 0 140.312 14.2254 1996 93.3843 1333.8 414.857
3225 1 75.2199 12.0979 910 93.3264 1333.81 448.475
3226 0 77.1466 12.055 930 91.4366 1333.92 449.749
3227 0 80.1764 13.2084 1059 89.4542 1334.62 448.695
3228 0 81.5086 12.2809 1001 90.5375 1333.55 454.153
3229 0 81.5086 12.1705 992 140.433 1332.59 454.149
3230 0 87.3028 12.3478 1078 92.4174 1333.95 448.767
3231 0 85.2633 11.3061 964 96.2811 1333.54 446.739
3232 0 88.1262 11.0977 978 95.8661 1333.55 447.053
3233 0 91.2633 12.8968 1177 91.4613 1333.57 444.292
3234 0 91.1848 11.219 1023 96.652 1333.47 440.299
3235 0 97.1346 13.7541 1336 91.024 1333.4 444.189
3236 0 100.202 13.4229 1345 91.455 1333.52 445.703
3237 0 105.21 13.4493 1415 91.3993 1333.91 445.662
3238 0 108.256 12.5905 1363 92.7726 1333.67 445.462
3239 0 110.411 12.372 1366 93.8375 1333.79 443.512
3240 0 115.339 12.745 1470 93.7912 1333.58 443.411
3241 1 69.2496 12.621 874 90.2105 1333.65 466.705
3242 0 72.1568 15.0367 1085 86.0958 1333.52 464.295
3243 0 71.1558 12.9013 918 90.0294 1333.99 462.728
3244 0 75.1156 13.7255 1031 90.9079 1333.53 462.964
3245 0 75.1156 13.6589 1026 139.743 1334.52 462.875
3246 0 79.4069 13.752 1092 90.2115 1333.75 461.335
3247 0 81.1863 13.9186 1130 90.915 1333.5 458.952
3248 0 82.1083 12.179 1000 90.609 1333.76 456.425
3249 0 87.2114 13.4959 1177 89.2719 1333.62 455.888
3250 0 89.188 13.4659 1201 89.9642 1333.71 459.867
3251 0 91.1222 12.2912 1120 92.175 1334.39 458.216
3252 0 91.1222 12.2692 1118 146.49 1335.39 458.084
3253 0 96.0894 13.1961 1268 91.9842 1334.71 455.695
3254 0 100.118 14.1732 1419 90.8717 1334.84 454.051
3255 0 101.183 13.441 1360 93.3478 1334.71 449.757
3256 0 105.149 13.8184 1453 92.4129 1334.7 450.984
3257 0 109.195 13.8285 1510 92.7834 1334.3 446.615
3258 0 111.154 14.1786 1576 93.1929 1334.65 446.49
3259 0 116.166 12.3702 1437 95.8212 1334.99 444.318
3260 1 64.0806 10.8145 693 94.6465 1335.03 469.371
3261 0 68.1081 14.2127 968 93.3182 1335 470.02
3262 0 71.1906 15.0863 1074 91.0745 1333.95 466.6
3263 0 69.1578 11.9582 827 96.3894 1334.95 464.759
3264 0 73.0879 13.6958 1001 93.6933 1334.74 465.098
3265 0 77.2022 14.6498 1131 92.5765 1335.03 464.409
3266 0 78.2065 13.004 1017 97.117 1334.49 462.193
3267 0 80.1472 12.477 1000 98.677 1334.72 462.279
3268 0 84.1941 13.3739 1126 98.2167 1334.45 459.55
3269 0 89.0977 13.5469 1207 96.4316 1335 459.834
3270 0 91.0611 13.6172 1240 97.6782 1334.64 457.244
3271 0 94.1836 13.7497 1295 98.2726 1334.9 456.593
3272 0 95.1113 13.0479 1241 101.639 1335.08 454.931
3273 0 98.1401 12.8795 1264 103.446 1335.03 453.324
3274 0 100.182 13.4056 1343 108.001 1335.04 450.08
3275 0 103.222 14.1443 1460 101.176 1334.61 448.326
3276 0 107.115 13.5275 1449 107.255 1334.97 448.177
3277 0 109.12 13.1049 1430 109.392 1335.07 445.352
3278 0 114.225 14.3926 1644 107.216 1335.08 443.759
3279 0 119.132 13.8334 1648 108.475 1335.44 442.868
3280 0 125.51 14.2539 1789 106.417 1334.76 440.515
3281 0 125.528 14.2199 1785 149.776 1333.76 440.644
3282 0 133.538 14.9545 1997 109.264 1334.7 430.267
3283 0 139.422 13.4412 1874 111.289 1335.03 433.691
3284 1 74.2258 12.3811 919 105.293 1334.84 462.052
3285 0 78.4268 13.0823 1026 106.699 1335 457.998
3286 0 79.3557 14.7815 1173 106.833 1334.89 458.388
3287 0 83.264 14.7122 1225 109.631 1334.54 456.909
3288 0 84.3282 13.151 1109 114.057 1334.74 454.237
3289 0 87.08 13.3211 1160 109.064 1334.93 454.697
3290 0 92.2178 13.685 1262 106.83 1335.08 456.025
3291 0 92.2653 12.4966 1153 108.043 1334.91 446.798
3292 0 95.1264 12.7515 1213 107.004 1335.07 449.731
3293 0 100.179 12.6473 1267 106.213 1334.62 449.954
3294 0 103.292 13.3021 1374 104.745 1334.95 447.22
3295 0 106.25 12.3482 1312 107.188 1334.65 446.106
3296 0 108.161 13.3505 1444 105.575 1335.04 443.074
3297 0 113.2 12.5177 1417 104.366 1335.24 445.089
3298 0 117.196 13.422 1573 104.835 1335.21 442.515
3299 0 121.172 13.0641 1583 106.701 1335.44 441.927
3300 0 125.248 13.5172 1693 108.523 1335.34 439.904
3301 0 126.16 12.7219 1605 110.086 1335.92 439.36
3302 0 131.243 13.8522 1818 108.048 1335.31 436.218
3303 0 137.219 13.5477 1859 109.071 1335.64 430.341
3304 0 141.34 12.5442 1773 110.032 1336.07 427.843
3305 0 145.264 13.2586 1926 110.882 1335.93 426.269
3306 0 151.216 14.8265 2242 110.849 1335.06 424.703
3307 0 156.544 13.5617 2123 111.327 1335.28 421.398
3308 1 68.2291 13.3961 914 99.5317 1335.84 467.168
3309 0 68.2674 14.4579 987 101.259 1335.78 464.174
3310 0 68.3167 12.0761 825 112.041 1335.98 462.292
3311 0 71.2467 12.3795 882 111.827 1335.24 463.23
3312 0 73.2001 13.0464 955 110.166 1335.24 461.443
3313 0 75.2216 12.3768 931 112.362 1335.22 459.77
3314 0 79.2186 14.075 1115 108.289 1335.33 458.985
3315 0 83.1458 13.7469 1143 108.742 1334.62 457.446
3316 0 85.1402 12.8729 1096 109.903 1335.71 457.581
3317 0 89.2451 13.3677 1193 108.815 1335.6 456.037
3318 0 91.0669 12.8367 1169 110.494 1335.63 454.815
3319 0 94.0766 13.3508 1256 103.96 1335.27 455.224
3320 0 97.1128 13.6542 1326 101.393 1335.08 454.781
3321 0 101.088 12.4743 1261 102.529 1335.51 451.358
3322 0 105.171 12.6936 1335 102.038 1335.28 450.909
3323 0 109.213 12.6541 1382 101.047 1334.87 448.472
3324 1 60.0447 12.524 752 94.9176 1336.26 474.188
3325 0 62.0799 12.1134 752 93.0652 1336.39 473.907
3326 0 64.2419 13.8695 891 91.5993 1336.38 468.663
3327 0 64.0777 12.2664 786 96.1845 1336.34 469.95
3328 0 67.096 12.0574 809 96.2485 1336.79 471.711
3329 0 69.1413 13.2772 918 95.1797 1336.43 469.463
3330 0 70.1592 11.8445 831 99.0337 1335.98 468.189
3331 0 72.1149 13.1596 949 96.0748 1335.91 468.293
3332 0 75.1328 10.8874 818 99.8936 1335.88 468.396
3333 0 75.1758 11.0807 833 101.573 1335.78 465.825
3334 0 79.1779 11.5184 912 100.331 1335.53 463
3335 0 82.1204 12.4451 1022 96.5714 1336.37 464.171
3336 0 86.1842 11.8699 1023 97.0997 1336.27 463.573
3337 0 87.1403 11.7512 1024 98.1924 1335.83 461.257
3338 1 101.36 15.4105 1562 86.5006 1335.32 451.347
3339 0 101.183 15.4176 1560 88.1981 1335.48 450.006
3340 0 103.146 16.5591 1708 86.353 1335.41 449.278
3341 0 102.196 16.7716 1714 89.238 1335.23 449.335
3342 0 106.095 14.7132 1561 95.0544 1335.34 448.803
3343 0 105.208 12.404 1305 102.133 1335.68 448.725
3344 0 109.136 12.8189 1399 101.165 1335.51 449.811
3345 0 110.211 11.5053 1268 105.42 1335.32 448.287
3346 0 114.155 12.1327 1385 104.588 1335.37 445.061
3347 0 119.282 12.0555 1438 105.305 1335.03 443.666
3348 0 123.275 13.1333 1619 103.638 1334.78 442.741
3349 1 71.1684 11.0864 789 103.828 1335.92 466.255
3350 0 73.3845 12.0189 882 104.272 1335.74 465.375
3351 0 73.2027 13.4011 981 105.699 1336.16 461.514
3352 0 76.1785 11.7487 895 106.638 1335.48 462.692
3353 0 81.2128 13.323 1082 106.302 1335.01 461.618
3354 0 83.2645 13.5712 1130 105.91 1334.84 460.22
3355 0 83.2602 13.668 1138 107.206 1334.93 457.993
3356 0 87.214 13.5414 1181 106.957 1334.94 458.091
3357 0 88.23 14.0882 1243 106.145 1335.46 456.683
3358 0 92.273 13.6876 1263 106.626 1334.92 457.755
3359 0 94.2427 12.7331 1200 110.956 1333.66 451.848
3360 0 96.3629 13.7916 1329 108.008 1334.19 450.826
3361 0 102.229 13.8415 1415 108.17 1333.91 447.078
3362 0 105.218 14.8644 1564 105.48 1334.55 447.299
3363 0 108.172 14.6064 1580 106.963 1334.37 444.132
3364 0 112.253 14.0398 1576 108.542 1334.24 443.762
3365 0 114.226 13.342 1524 110.535 1334.29 442.135
3366 0 118.209 13.7976 1631 110.969 1334.18 439.459
3367 0 122.267 14.6156 1787 109.247 1333.63 439.513
3368 0 127.136 14.9132 1896 107.285 1334 437.528
3369 0 132.192 15.1598 2004 106.235 1333.5 438.939
3370 0 134.161 14.7807 1983 108.533 1333.74 431.824
3371 0 139.167 15.4491 2150 107.54 1333.75 431.913
3372 0 142.201 13.938 1982 112.079 1334 427.464
3373 0 146.24 14.8797 2176 109.84 1333.69 420.175
3374 0 152.331 14.5013 2209 110.29 1333.66 422.902
3375 0 156.319 13.9907 2187 111.666 1333.74 419.875
3376 0 162.278 14.7216 2389 110.442 1333.38 417.172
3377 0 166.328 13.7018 2279 113.359 1333.11 414.546
3378 0 174.265 15.6543 2728 105.938 1333.86 411.474
3379 0 179.323 14.8503 2663 107.858 1333.72 410.012
3380 0 184.31 15.5173 2860 106.148 1333.55 408.786
3381 1 104.213 12.3881 1291 108.83 1333.65 444.785
3382 0 107.199 13.209 1416 115.044 1333.83 442.923
3383 0 107.324 13.1937 1416 114.93 1333.84 443.863
3384 0 112.412 12.5075 1406 116.988 1333.56 439.548
3385 0 119.251 13.7861 1644 112.427 1334.2 441.165
3386 0 120.263 13.6368 1640 113.693 1334.7 440.004
3387 0 124.334 14.2438 1771 113.205 1334.34 434.45
3388 0 128.309 14.3794 1845 92.8168 1333.94 434.404
3389 0 135.315 14.1374 1913 113.625 1333.6 430.605
3390 0 138.341 14.7244 2037 111.529 1333.76 429.871
3391 0 142.255 13.9327 1982 112.59 1333.54 424.942
3392 0 145.231 13.4613 1955 112.354 1334.24 423.561
3393 0 145.231 13.5095 1962 151.275 1335.25 423.368
3394 0 156.229 14.4083 2251 108.147 1334.45 413.677
3395 0 162.143 13.2661 2151 110.733 1334.68 412.324
3396 0 168.202 14.8215 2493 109.45 1334.98 411.321
3397 0 175.299 14.3241 2511 111.409 1334.68 412.467
3398 1 100.122 11.3662 1138 112.778 1334.37 451.029
3399 0 103.134 13.6619 1409 114.488 1334.02 447.748
3400 0 104.108 12.6888 1321 117.804 1334.24 446.635
3401 0 109.105 13.5375 1477 115.58 1333.67 447.816
3402 0 114.116 15.274 1743 111.61 1333.79 444.254
3403 0 114.12 13.6873 1562 117.252 1334.09 441.636
3404 0 119.075 14.1676 1687 116.05 1333.89 441.403
3405 0 125.078 14.1192 1766 117.674 1333.44 438.461
3406 0 126.076 14.1899 1789 118.729 1333.55 435.187
3407 0 131.123 13.5369 1775 118.266 1334.5 432.155
3408 0 135.135 14.5855 1971 117.331 1334.66 429.573
3409 0 140.178 15.252 2138 115.704 1334.67 428.035
3410 0 143.127 12.5064 1790 121.717 1335.14 427.08
3411 0 152.273 15.5576 2369 113.081 1334.65 424.224
3412 0 152.269 15.6302 2380 147.557 1333.65 424.234
3413 1 91.0618 10.4654 953 110.739 1334.98 443.92
3414 0 90.2381 9.96253 899 101.505 1335.08 447.303
3415 0 98.0961 11.295 1108 99.1128 1334.57 445.019
3416 0 98.1182 11.3027 1109 127.959 1333.56 445.126
3417 0 103.15 12.128 1251 98.7434 1334.2 442.416
3418 0 103.15 12.0311 1241 127.717 1335.19 442.307
3419 0 109.226 10.73 1172 102.206 1334.75 439.892
3420 0 113.195 10.3273 1169 101.823 1334.67 439.618
3421 0 116.099 11.094 1288 101.623 1334.92 436.144
3422 0 119.195 10.4535 1246 103.413 1334.96 434.124
3423 0 120.158 10.636 1278 104.206 1333.81 432.782
3424 0 124.077 9.88093 1226 106.147 1333.54 430.511
3425 0 129.182 11.0232 1424 103.442 1333.7 431.143
3426 0 131.229 10.3636 1360 105.464 1333.98 426.95
3427 0 136.17 10.8981 1484 103.337 1334.25 427.422
3428 0 141.167 11.5183 1626 102.437 1334.1 422.092
3429 0 146.146 11.119 1625 102.792 1334.24 420.554
3430 0 151.109 10.5619 1596 103.486 1334.68 421.203
3431 0 156.278 10.8973 1703 104.176 1334.67 418.156
3432 0 163.377 11.8376 1934 104.502 1334.87 410.761
3433 0 168.414 11.9824 2018 104.141 1334.3 410.425
3434 0 173.131 11.9909 2076 106.375 1334.58 404.256
3435 0 182.188 11.6089 2115 105.186 1334.82 405.782
3436 0 189.18 11.904 2252 103.737 1335.09 401.3
3437 0 194.211 13.3926 2601 100.365 1335.11 402.792
3438 0 201.279 13.0664 2630 102.486 1334.35 395.446
3439 0 205.221 11.724 2406 105.865 1334.49 390.09
3440 0 213.336 12.2576 2615 103.902 1334.19 393.436
3441 0 220.31 12.0784 2661 105.787 1333.42 386.303
3442 1 52.0708 9.41026 490 89.4408 1334.17 471.833
3443 0 55.0973 10.9261 602 88.8904 1334.25 472.307
3444 0 57.0644 10.8649 620 89.2581 1334.22 471.308
3445 0 57.0346 10.4147 594 90.4091 1334.49 471.426
3446 0 59.1247 9.40386 556 91.1511 1335.62 467.725
3447 0 59.2053 9.34038 553 93.8734 1335.28 470.333
3448 0 63.1485 10.7999 682 90.783 1335.07 471.773
3449 0 62.1788 11.1453 693 91.2612 1335.12 470.708
3450 0 68.1544 11.2539 767 91.3677 1334.59 466.626
3451 0 73.1533 9.02216 660 92.7727 1334.75 470.515
3452 0 71.0901 11.0001 782 92.6292 1335.48 464.043
3453 0 72.1982 10.1942 736 94.0992 1335.41 464.183
3454 0 76.2042 12.9127 984 88.5224 1334.74 460.71
3455 0 76.1401 11.2162 854 92.5749 1334.8 457.978
3456 0 77.264 10.5871 818 94.8998 1334.41 457.15
3457 0 83.2204 12.1725 1013 91.7266 1334.52 457.982
3458 0 83.2204 12.2686 1021 119.493 1335.52 457.975
3459 0 86.1258 10.4266 898 97.5423 1333.67 456.354
3460 0 90.1112 11.6856 1053 94.9725 1333.87 456.317
3461 0 94.1666 12.3929 1167 93.5244 1333.62 453.294
3462 0 93.1996 11.6631 1087 96.5032 1333.46 456.064
3463 0 96.2429 11.0658 1065 97.4676 1333.25 455.893
3464 0 100.18 12.0483 1207 96.8782 1333.43 451.398
3465 0 105.325 11.6116 1223 98.8651 1333.12 442.696
3466 0 105.155 10.8982 1146 103.15 1332.96 426.278
3467 0 112.172 11.0545 1240 102.353 1331.98 420.698
3468 0 114.148 12.1422 1386 101.014 1331.68 420.753
3469 0 118.309 12.3236 1458 101.862 1331.45 415.837
3470 1 67.0503 11.0514 741 99.834 1331.55 444.306
3471 0 71.2151 11.8233 842 104.729 1332.65 439.574
3472 0 70.1576 10.8043 758 100.672 1332.18 432.545
3473 0 74.0804 11.1231 824 100.053 1332.24 433.034
3474 0 74.2222 11.3713 844 101.297 1332.43 430.196
3475 0 75.2865 10.2542 772 102.535 1332.29 432.561
3476 0 78.1581 11.8094 923 100.921 1333.04 431.667
3477 0 79.424 12.3514 981 100.96 1332.32 428.304
3478 0 82.1929 10.305 847 103.863 1332.59 432.276
3479 0 82.0722 11.3193 929 103.703 1332.59 431.395
3480 0 84.1609 12.3929 1043 98.8217 1333.11 446.193
3481 0 90.1694 13.3083 1200 96.0883 1333.47 447.626
3482 0 89.1823 12.8501 1146 98.6571 1333.14 448.709
3483 0 93.1818 11.9444 1113 102.785 1333.26 445.56
3484 0 94.1529 12.331 1161 104.208 1333.13 444.854
3485 0 94.1204 12.1759 1146 104.708 1332.8 445.558
3486 0 95.1516 12.3067 1171 104.803 1332.58 444.237
3487 0 96.1544 11.6999 1125 106.317 1332.12 445.021
3488 1 199.271 12.4855 2488 105.049 1332.99 398.59
3489 0 206.355 12.4155 2562 104.665 1332.7 396.673
3490 0 208.394 12.6779 2642 108.179 1332.24 394.011
3491 1 115.173 12.0167 1384 105.74 1332.73 440.159
3492 0 118.101 13.3107 1572 103.707 1332.49 440.034
3493 0 120.118 12.496 1501 105.521 1333.14 438.836
3494 0 126.106 12.6164 1591 104.642 1332.75 436.926
3495 0 130.112 13.7958 1795 102.245 1333.07 433.555
3496 0 131.083 12.328 1616 105.588 1333.56 433.597
3497 0 139.293 12.3984 1727 105.068 1333.18 432.494
3498 0 142.228 12.7331 1811 103.961 1332.77 433.126
3499 0 147.212 13.3889 1971 103.106 1332.81 427.891
3500 1 81.0669 11.324 918 101.894 1333.02 457.349
3501 0 85.1295 13.2856 1131 97.4235 1332.91 457.142
3502 0 87.2358 12.5522 1095 98.9571 1333.52 455.258
3503 0 87.128 11.8446 1032 102.654 1333.21 451.695
3504 0 91.1522 12.9125 1177 101.348 1333.22 451.768
3505 0 95.1736 12.9027 1228 101.954 1333.24 454.3
3506 0 95.1909 11.9024 1133 106.222 1333.14 448.599
3507 0 98.409 12.1432 1195 105.728 1333.95 446.336
3508 0 105.287 14.0093 1475 101.374 1334.31 442.144
3509 0 106.354 13.5114 1437 103.053 1334.33 443.989
3510 0 108.41 14.3068 1551 102.315 1333.46 438.186
3511 0 111.4 14.4704 1612 102.11 1333.61 437.061
3512 0 115.36 14.3031 1650 102.497 1333.86 434.224
3513 0 116.532 13.61 1586 105.015 1332.76 430.854
3514 0 117.483 12.3848 1455 107.348 1333.31 428.417
3515 0 123.633 14.2033 1756 102.838 1333.69 428.42
3516 0 126.465 12.3829 1566 110.252 1334.08 422.967
3517 0 130.222 14.0068 1824 105.907 1333.92 423.514
3518 0 135.365 12.566 1701 110.573 1334.03 416.607
3519 1 63.3308 8.84245 560 99.7036 1332.63 464.743
3520 0 59.1216 9.64114 570 95.2088 1334.45 457.377
3521 0 68.2532 11.7943 805 96.4956 1335.35 465.205
3522 0 65.1895 10.9527 714 94.5616 1335.93 463.999
3523 0 68.2471 10.7404 733 94.116 1335.74 468.11
3524 0 72.203 10.9968 794 95.5353 1335.27 463.404
3525 0 71.2074 10.5045 748 98.2848 1335.42 459.631
3526 0 75.1004 9.7869 735 93.7306 1335.06 463.863
3527 0 76.13 10.18 775 94.4336 1335.07 462.403
3528 0 78.2145 9.32052 729 96.5199 1335.23 459.922
3529 0 81.0927 9.92691 805 95.0087 1334.3 460.066
3530 0 83.1009 10.77 895 94.1341 1335.32 458.756
3531 0 86.0741 10.7466 925 94.8141 1334.99 458.337
3532 0 87.1234 10.8696 947 96.2513 1334.21 455.694
3533 0 88.0906 8.65019 762 99.5131 1335.11 456.287
3534 0 92.1494 10.2768 947 98.3569 1334.88 453.382
3535 0 93.1492 8.58837 800 101.41 1334.78 452.882
3536 0 96.1969 10.9671 1055 97.7128 1334.7 451.901
3537 0 100.15 10.9835 1100 99.1473 1334.93 447.493
3538 0 103.184 11.1936 1155 100.016 1335.36 448.714
3539 0 107.228 12.3569 1325 104.538 1334.97 445.651
3540 0 110.263 12.5065 1379 104.988 1334.25 444.181
3541 1 67.1315 9.14623 614 95.7362 1334.11 470.689
3542 0 67.2233 9.52051 640 100.191 1334.7 465.009
3543 0 68.1739 10.5466 719 98.9277 1335.48 464.082
3544 0 71.0508 9.88025 702 92.6011 1334.83 465.801
3545 0 72.2703 9.76888 706 93.721 1334.92 464.357
3546 0 72.0696 10.143 731 94.2654 1335.13 461.321
3547 0 74.0896 10.6763 791 94.1833 1334.63 462.019
3548 0 78.1977 12.6474 989 90.0768 1335.08 461.193
3549 0 81.3052 12.041 979 100.874 1334.88 459.252
3550 0 81.1911 10.8879 884 101.269 1334.68 454.525
3551 0 82.1606 11.368 934 97.7013 1334.92 455.408
3552 0 86.1093 12.4261 1070 95.5336 1335.09 454.485
3553 0 88.1421 11.4361 1008 95.8571 1334.73 448.479
3554 0 90.1421 11.615 1047 98.2369 1335.51 449.478
3555 0 92.0984 12.0958 1114 99.4327 1335.8 448.272
3556 0 94.2893 11.6238 1096 102.408 1335.68 445.62
3557 0 97.3114 11.8999 1158 102.382 1335.25 445.43
3558 0 100.331 11.6215 1166 103.214 1335.42 441.346
3559 0 104.326 13.2661 1384 99.7045 1335.5 442.774
3560 0 107.24 13.1947 1415 100.166 1334.95 438.014
3561 0 108.335 11.6121 1258 103.857 1335.09 436.828
3562 0 110.328 11.2574 1242 105.474 1335.16 435.777
3563 0 114.262 11.3161 1293 106.452 1335.03 431.398
3564 0 116.289 11.8154 1374 105.52 1335.38 434.545
3565 0 115.288 11.0593 1275 107.438 1335.27 433.591
3566 0 117.234 8.95647 1050 107.669 1335.2 438.95
3567 0 127.255 12.5025 1591 104.225 1335.1 430.15
3568 0 130.292 10.6837 1392 109.364 1334.48 425.468
3569 1 143.311 11.339 1625 106.133 1335.14 428.176
3570 0 143.285 10.8386 1553 109.33 1335.12 423.18
3571 0 143.258 13.8072 1978 104.974 1335.71 421.259
3572 0 141.378 11.5506 1633 111.541 1335.07 420.185
3573 0 152.402 13.1035 1997 106.734 1335.19 420.097
3574 0 152.333 12.663 1929 109.745 1334.96 415.143
3575 0 159.451 12.2044 1946 110.75 1334.66 408.527
3576 0 165.298 13.0734 2161 109.372 1335.3 407.75
3577 0 172.239 13.6961 2359 108.883 1335.08 407.024
3578 0 175.386 11.9964 2104 115.63 1334.39 401.694
3579 0 180.433 13.257 2392 113.972 1334.67 400.564
3580 0 185.371 12.974 2405 113.368 1334.95 399.612
3581 0 190.44 13.222 2518 114.102 1334.13 390.944
3582 0 198.345 13.7286 2723 112.11 1334.82 388.966
3583 0 205.366 13.342 2740 113.92 1334.14 386.61
3584 0 212.324 13.8844 2948 111.192 1334.91 387.219
3585 0 219.472 14.0565 3085 110.715 1334.23 379.309
3586 1 48.2036 6.6385 320 89.5875 1334.89 463.522
3587 0 49.2097 10.0793 496 84.9194 1335.22 462.51
3588 0 54.2448 9.34653 507 88 1334.08 471.298
3589 0 54.1673 9.95066 539 86.8349 1335.5 470.965
3590 0 54.1673 10.0614 545 109.611 1336.53 471.134
3591 0 54.1555 10.2298 554 108.65 1337.54 471.26
3592 0 61.1405 12.0215 735 84.9224 1335.47 468.476
3593 0 61.1013 10.0489 614 89.184 1335.83 467.277
3594 0 63.1309 9.70999 613 90.0897 1335.63 467.17
3595 0 65.1355 9.85637 642 89.9688 1335.6 464.561
3596 0 67.1538 10.2153 686 90.5991 1335.01 465.7
3597 0 64.0795 7.80281 500 97.264 1335.45 460.454
3598 0 65.1186 8.69184 566 95.7668 1335.49 462.698
3599 0 68.1288 10.6123 723 93.5076 1336.28 463.826
3600 0 74.2007 9.16434 680 94.9221 1335.69 461.424
3601 0 76.2342 11.4253 871 91.8037 1336.26 459.153
3602 0 75.0764 10.4826 787 94.8119 1336.39 458.001
3603 0 80.1172 12.2196 979 90.8754 1335.95 459.609
3604 0 80.1458 10.7928 865 93.7884 1336.27 457.944
3605 0 82.2823 10.5977 872 94.7328 1336.59 450.953
3606 0 85.329 11.7779 1005 93.3114 1336.59 450.849
3607 0 88.1211 9.65717 851 97.1927 1335.82 454.241
3608 0 86.0714 9.98009 859 99.1397 1335.88 446.492
3609 0 91.0888 11.4504 1043 96.7335 1336.25 448.388
3610 0 93.1564 11.1747 1041 99.7743 1335.13 447.118
3611 0 94.1258 11.3784 1071 99.3698 1335.12 446.683
3612 0 96.0727 9.5969 922 103.641 1335.22 445.259
3613 0 105.17 14.2245 1496 87.8549 1334.93 436.654
3614 0 113.156 17.6217 1994 81.1319 1335.23 439.73
3615 0 110.172 13.3064 1466 93.8636 1335.37 439.176
3616 0 114.188 13.6266 1556 93.6067 1335.08 440.708
3617 0 116.153 13.6888 1590 96.1069 1334.99 438.931
3618 0 118.286 12.2246 1446 99.9336 1335.02 437.85
3619 0 122.121 13.9779 1707 99.0346 1335.3 427.925
3620 1 74.3063 10.847 806 92.6911 1336.8 459.29
3621 0 76.2696 11.7609 897 93.8573 1336.43 458.692
3622 0 77.2436 12.3635 955 94.488 1335.96 456.309
3623 0 79.2301 11.637 922 98.5662 1336.63 456.283
3624 0 82.1392 12.1379 997 97.1856 1337.05 455.728
3625 0 82.1344 12.6622 1040 97.4442 1336.29 452.857
3626 0 87.2001 13.7959 1203 95.0233 1336.27 452.519
3627 0 90.1462 14.3323 1292 94.0085 1336.05 454.247
3628 0 93.2137 13.8928 1295 95.2448 1336.27 453.008
3629 0 94.2935 14.2322 1342 95.38 1336.15 445.591
3630 0 95.1663 13.9335 1326 96.6086 1335.88 444.134
3631 0 98.0942 12.7938 1255 98.5458 1336.18 444.598
3632 0 101.275 13.4881 1366 96.0095 1335.9 445.072
3633 0 105.069 12.9725 1363 96.6838 1336.01 441.186
3634 0 107.167 13.801 1479 94.6403 1335.09 439.529
3635 0 107.284 13.124 1408 96.9567 1335.01 435.207
3636 0 111.299 13.7647 1532 94.9896 1335.4 432.281
3637 0 110.295 14.1167 1557 136.022 1336.39 432.618
3638 1 66.087 11.4697 758 86.9472 1334.95 457.635
3639 0 66.1383 9.44989 625 90.7952 1335.09 455.467
3640 0 74.2149 11.6553 865 90.0728 1335.88 461.54
3641 0 79.1398 11.4734 908 89.2599 1336.29 459.521
3642 0 79.1589 11.2558 891 89.6061 1336.78 462.214
3643 0 84.1618 12.0245 1012 88.587 1336.37 456.884
3644 0 85.1587 11.5314 982 90.0662 1336.1 457.777
3645 0 87.1112 10.3201 899 94.9889 1335.71 452.731
3646 0 88.2482 11.5696 1021 93.43 1336.05 454.074
3647 0 91.1895 12.7537 1163 91.8203 1335.94 451.212
3648 0 95.1833 12.954 1233 91.7437 1336.07 451.796
3649 0 92.1148 11.985 1104 95.2708 1335.59 444.355
3650 0 99.1996 12.7218 1262 93.1846 1335.64 448.998
3651 0 103.135 12.0812 1246 94.1958 1336.24 442.596
3652 0 101.061 11.4485 1157 97.1711 1335.54 440.339
3653 0 106.174 12.7809 1357 94.5623 1334.86 441.626
3654 0 108.111 12.2282 1322 95.5136 1335.47 438.151
3655 0 112.147 12.5906 1412 95.2302 1335.07 436.768
3656 0 114.153 13.0001 1484 94.4609 1335.64 435.355
3657 0 116.186 12.084 1404 96.8098 1335.58 428.332
3658 0 117.142 11.2769 1321 98.0144 1335.2 427.715
3659 0 121.145 10.3347 1252 98.9864 1335 425.689
3660 0 127.3 11.304 1439 96.7165 1334.89 425.957
3661 1 66.2107 10.6176 703 94.5462 1335.77 455.397
3662 0 70.2642 8.61036 605 96.3521 1335.59 457.382
3663 0 72.1362 10.5079 758 92.6253 1335.18 456.21
3664 0 72.1722 8.23032 594 97.5471 1335.26 453.694
3665 0 77.1048 10.6219 819 92.851 1335.72 451.676
3666 0 85.214 10.9841 936 90.5278 1335.13 451.794
3667 0 87.161 10.2798 896 91.4408 1335.75 453.086
3668 0 84.1227 10.6511 896 92.7511 1334.73 445.999
3669 0 88.101 11.1236 980 91.5694 1334.76 446.474
3670 0 92.2568 10.861 1002 92.1936 1335.34 446.081
3671 0 94.1211 10.1146 952 94.0284 1335.35 448.413
3672 0 95.2792 11.7759 1122 92.7763 1335.38 443.011
3673 0 98.1218 10.8029 1060 94.9406 1334.76 440.274
3674 0 98.124 10.7313 1053 138.403 1334.74 440.288
3675 0 103.184 13.1609 1358 91.6267 1334.94 439.092
3676 0 105.108 12.197 1282 94.826 1334.29 433.144
3677 0 111.173 13.0607 1452 93.3602 1333.62 431.901
3678 0 110.156 13.2721 1462 137.553 1332.62 431.93
3679 0 118.142 13.7293 1622 93.5401 1333.76 429.256
3680 0 120.218 11.4874 1381 99.4439 1333.83 425.867
3681 0 125.16 11.5213 1442 99.5305 1333.62 425.838
3682 0 126.124 11.013 1389 101.659 1333.53 425.462
3683 0 125.145 9.6688 1210 105.485 1333.12 425.945
3684 0 136.184 12.2775 1672 100.236 1332.97 421.083
3685 0 139.237 11.5127 1603 103.007 1332.75 417.115
3686 1 81.1728 9.44897 767 98.2399 1332.67 449.364
3687 0 89.2374 11.7776 1051 97.2664 1333.51 457.238
3688 0 94.2572 13.1131 1236 98.6165 1333.56 456.787
3689 0 95.2748 12.0179 1145 102.214 1332.7 456.044
3690 0 96.2096 11.9635 1151 102.933 1333.43 454.673
3691 0 100.503 13.5319 1360 100.404 1333.59 449.626
3692 0 100.332 11.422 1146 101.168 1333.6 448.342
3693 0 103.188 11.5905 1196 94.612 1333.75 449.343
3694 0 107.164 13.0547 1399 92.9242 1334.22 450.514
3695 0 110.123 12.5133 1378 97.188 1334.07 446.242
3696 0 113.284 12.9056 1462 97.1176 1333.82 445.421
3697 0 116.328 10.5391 1226 102.086 1333.9 441.589
3698 0 120.282 12.4375 1496 98.5441 1333.69 443.055
3699 0 124.167 10.9852 1364 102.554 1333.51 437.109
3700 0 126.231 12.4296 1569 100.496 1333.41 435.476
3701 0 129.23 11.9941 1550 101.319 1333.15 436.474
3702 0 133.281 10.9468 1459 103.746 1332.75 431.807
3703 0 139.344 12.4942 1741 100.742 1332.72 430.527
3704 0 141.282 10.7445 1518 104.764 1333.06 427.787
3705 0 150.424 12.1855 1833 100.309 1333.22 428.199
3706 1 88.1085 10.2033 899 95.337 1333.71 459.742
3707 0 91.0943 10.3409 942 96.1656 1333.85 457.133
3708 0 94.0973 11.7006 1101 94.0745 1333.92 456.946
3709 0 99.3612 14.0196 1393 92.5571 1332.88 449.971
3710 0 102.321 12.7833 1308 94.552 1332.45 450.781
3711 0 103.247 11.8938 1228 95.952 1332.78 449.783
3712 0 105.216 11.7092 1232 97.4359 1333.07 446.208
3713 0 108.266 11.9983 1299 96.5697 1332.44 447.516
3714 0 112.153 13.4994 1514 92.6394 1332.56 447.258
3715 0 116.268 11.9638 1391 95.8059 1332.4 443.972
3716 0 118.148 11.4686 1355 96.628 1332.28 434.641
3717 0 123.203 12.7107 1566 94.2944 1332.25 438.82
3718 0 125.214 13.0736 1637 94.9078 1332.13 437.099
3719 0 127.191 12.1942 1551 97.5732 1333.33 430.988
3720 0 131.163 12.2138 1602 96.3402 1333.1 434.803
3721 0 135.184 13.4187 1814 96.7525 1333.2 428.192
3722 0 141.217 11.847 1673 100.497 1333.3 428.774
3723 0 146.283 12.674 1854 94.3668 1332.51 430.329
3724 0 150.321 10.6173 1596 98.6491 1332.91 419.749
3725 0 156.24 12.244 1913 96.6414 1332.45 422.026
3726 1 88.0598 11.6852 1029 91.8076 1332.8 453.863
3727 0 91.2219 11.5104 1050 92.2981 1333.2 453.171
3728 0 95.2637 12.5966 1200 88.7108 1333.39 450.922
3729 0 97.1156 12.099 1175 89.7779 1333.3 445.804
3730 0 102.076 13.2646 1354 87.8324 1333.2 448.055
3731 0 103.144 12.119 1250 90.908 1332.32 439.124
3732 0 107.138 14.4393 1547 86.362 1333.04 440.42
3733 0 109.157 13.4485 1468 88.5266 1333.06 443.034
3734 0 111.09 12.8454 1427 90.2551 1333.59 441.324
3735 0 114.221 12.0556 1377 92.1678 1333.54 439.139
3736 0 118.184 12.142 1435 91.9415 1333.58 433.02
3737 0 123.188 13.24 1631 90.2367 1332.78 434.058
3738 0 125.174 12.926 1618 91.6397 1332.9 432.088
3739 0 129.304 14.7095 1902 88.7566 1332.82 433.719
3740 0 133.292 12.9565 1727 91.6034 1332.96 429.215
3741 0 137.239 13.8444 1900 89.839 1332.94 430.751
3742 0 138.239 11.5163 1592 101.292 1332.81 423.185
3743 0 145.187 12.8593 1867 96.9122 1332.93 424.55
3744 0 144.189 12.4767 1799 99.353 1332.91 417.952
3745 0 151.331 13.1962 1997 94.6765 1333.06 417.869
3746 0 157.151 13.1721 2070 95.3019 1333.8 414.433
3747 0 160.217 13.0947 2098 96.2688 1333.83 412.865
3748 0 164.273 13.5628 2228 95.3272 1333.02 415.261
3749 0 170.155 14.5162 2470 94.1154 1333.65 408.941
3750 0 174.314 12.8217 2235 97.3069 1334.3 406.466
3751 0 177.212 12.9562 2296 99.7544 1333.94 397.222
3752 0 182.401 11.8639 2164 99.8702 1333.74 399.389
3753 0 186.417 12.2467 2283 99.318 1334.09 397.201
3754 0 194.319 13.0919 2544 97.9053 1333.69 398.177
3755 0 201.273 12.1924 2454 98.8863 1334.36 392.8
3756 0 205.268 11.9892 2461 100.741 1334.34 385.968
3757 0 212.311 12.9386 2747 98.8009 1334.38 377.912
3758 0 220.473 13.5028 2977 97.7437 1334.11 378.711
3759 0 227.431 12.8347 2919 98.6029 1334.62 373.442
3760 0 235.469 14.0868 3317 95.4368 1334.5 377.029
3761 0 244.262 12.4825 3049 99.2152 1334.28 368.824
3762 0 253.255 14.2346 3605 95.4194 1335.02 366.862
3763 0 258.439 10.9233 2823 101.729 1334.55 359.052
3764 1 64.0148 9.3416 598 81.7977 1336.81 460.721
3765 0 66.2223 9.92113 657 86.0807 1334.42 461.644
3766 0 69.1791 11.4341 791 84.78 1334.77 461.846
3767 0 72.26 12.4965 903 84.0775 1334.36 461.024
3768 0 73.1733 12.0946 885 84.8407 1334.62 460.122
3769 0 75.1551 11.0704 832 86.4772 1334.72 461.363
3770 0 79.2383 10.7271 850 86.3965 1334.75 460.056
3771 0 80.1782 12.4847 1001 84.1678 1334.92 457.875
3772 0 82.2068 11.7509 966 85.2609 1335.06 456.102
3773 0 85.1155 12.0072 1022 84.8327 1335.33 455.829
3774 0 86.235 11.5498 996 86.0141 1335.11 454.091
3775 0 90.3334 14.1697 1280 80.9477 1335.58 450.727
3776 0 91.1688 12.4604 1136 84.1673 1335.32 453.718
3777 0 92.1697 10.2094 941 87.2614 1335.21 451.44
3778 0 96.1423 12.4191 1194 83.9364 1334.81 449.883
3779 0 97.1958 12.9224 1256 83.7245 1335.08 447.772
3780 0 98.2562 11.1952 1100 89.5182 1334.8 444.975
3781 0 103.255 11.4959 1187 86.8484 1335.02 444.537
3782 0 107.237 13.5121 1449 83.5632 1334.86 444.87
3783 0 109.207 13.2409 1446 84.6113 1334.98 440.553
3784 0 113.357 13.4089 1520 86.9217 1334.95 441.033
3785 0 114.195 13.3018 1519 85.6715 1335 441.24
3786 0 117.143 14.0769 1649 85.9927 1335.43 438.907
3787 0 121.244 12.7511 1546 88.2568 1335.69 441.45
3788 0 123.158 12.7966 1576 89.7792 1336.25 437.713
3789 0 127.2 14.5676 1853 88.3643 1335.61 435.742
3790 0 127.222 13.0402 1659 86.003 1335.46 432.562
3791 0 132.273 13.079 1730 86.9012 1335.56 437.15
3792 0 136.233 13.3008 1812 87.9663 1335.91 432.597
3793 1 146.185 16.7938 2455 82.8041 1334.61 418.844
3794 0 158.445 18.7573 2972 78.318 1334.53 394.615
3795 0 157.381 22.1119 3480 74.9262 1334.31 386.986
3796 0 156.193 16.9918 2654 85.506 1335.37 388.55
3797 1 89.136 12.0714 1076 91.4405 1335.81 437.605
3798 0 90.0635 12.3579 1113 90.4789 1335.54 446.239
3799 0 91.1094 11.7002 1066 91.1848 1335.63 446.161
3800 0 97.1221 13.2823 1290 87.4062 1335.88 451.66
3801 0 99.1507 14.2813 1416 86.3912 1335.76 451.64
3802 0 101.186 13.9347 1410 88.1128 1335.54 447.852
3803 0 104.116 13.7059 1427 89.2172 1335.37 447.648
3804 0 107.148 14.5967 1564 88.1854 1335.63 445.462
3805 0 109.152 13.8248 1509 90.6077 1335.87 443.781
3806 0 111.144 13.4331 1493 93.2934 1335.33 438.932
3807 0 115.134 13.0283 1500 93.9913 1335.88 441.391
3808 0 117.155 12.3597 1448 97.5677 1335.2 436.156
3809 0 126.333 12.2137 1543 97.3746 1335.07 438.089
3810 0 123.215 13.0747 1611 98.0602 1335.12 434.603
3811 0 126.128 12.9947 1639 100.355 1335.29 431.735
3812 0 132.192 13.1702 1741 99.3377 1334.89 429.87
3813 0 135.153 12.5192 1692 101.399 1335 427.54
3814 0 141.118 12.2096 1723 102.741 1335.48 422.511
3815 0 141.225 12.4907 1764 102.637 1335.84 422.056
3816 0 146.165 12.7254 1860 101.998 1336.26 423.119
3817 0 149.13 12.8077 1910 101.71 1335.35 420.339
3818 0 158.199 13.4894 2134 100.83 1335.41 415.751
3819 0 162.241 11.9082 1932 105.752 1334.96 408.47
3820 0 163.237 12.4114 2026 104.52 1335.13 410.035
3821 0 167.218 13.0428 2181 104.055 1335.29 405.525
3822 0 171.225 14.1393 2421 101.91 1335.56 405.023
3823 0 178.224 13.5167 2409 104.392 1334.69 396.443
3824 0 182.334 13.4204 2447 104.186 1334.38 398.268
3825 0 187.429 14.2614 2673 103.215 1334.48 394.816
3826 0 196.469 17.8145 3500 95.1423 1334.31 379.997
3827 0 202.338 17.4955 3540 95.7573 1334.35 379.521
3828 0 237.101 22.2816 5283 80.0108 1334.37 354.304
3829 0 237.713 23.4484 5574 80.5863 1334.49 358.099
3830 0 245.708 19.1528 4706 89.681 1334.44 362.374
3831 0 241.545 20.1453 4866 89.0228 1334.9 352.892
3832 0 244.523 19.4747 4762 91.71 1334.19 350.808
3833 1 34.0771 6.04512 206 79.9223 1335.37 469.34
3834 0 38.1014 7.19134 274 78.7482 1334.6 464.978
3835 0 39.2178 7.62409 299 78.9231 1334.97 470.816
3836 0 32.1264 5.13596 165 84.2364 1335.12 465.782
3837 0 46.0789 8.42033 388 83.1933 1336.41 471.407
3838 0 46.0841 8.1156 374 84.0508 1336.36 471.888
3839 0 47.0968 9.46986 446 81.7175 1335.58 475.91
3840 0 46.08 5.88108 271 86.7417 1335.85 475.576
3841 0 47.1139 8.57496 404 82.8515 1335 475.356
3842 0 48.3812 9.19779 445 83.5416 1335.09 471.966
3843 0 47.189 8.81562 416 85.3197 1334.45 472.562
3844 0 50.1957 6.63403 333 86.6366 1334.59 475.538
3845 0 51.2188 8.00487 410 86.0073 1335.19 469.863
3846 0 51.1272 10.1316 518 83.6853 1334.55 466.886
3847 0 53.0813 9.09925 483 83.8882 1334.67 466.857
3848 0 55.1589 8.90156 491 83.0489 1334.53 468.228
3849 0 55.0511 7.13882 393 85.0127 1332.64 466.489
3850 0 54.0425 4.79252 259 89.4904 1332.56 465.29
3851 0 61.0739 5.43604 332 87.6868 1332.29 475.136
3852 0 64.2492 4.85609 312 88.6891 1333.76 476.984
3853 1 23.0137 9.51606 219 77.0137 1334.96 491.603
