time division length width area intensity CMx CMy
0 0 281.466 13.3444 3756 119.917 134.7 360.283
1 1 114.131 11.9162 1360 113.682 135.951 439.974
2 0 120.144 12.1853 1464 109.244 135.908 441.665
3 0 122.122 11.0463 1349 112.098 135.781 437.942
4 0 126.1 12.6249 1592 109.231 135.216 434.042
5 0 131.332 11.825 1553 110.605 135.276 428.263
6 0 134.059 10.7863 1446 113.319 135.859 424.956
7 0 141.241 12.8857 1820 110.949 136.353 427.293
8 0 145.216 12.1819 1769 110.825 136.678 425.645
9 0 148.282 12.7056 1884 112.971 135.598 424.854
10 0 153.307 13.3784 2051 110.729 135.744 421.531
11 0 158.279 12.5538 1987 111.583 135.778 418.249
12 0 162.268 12.276 1992 113.374 137.008 416.317
13 0 169.294 13.4854 2283 110.515 136.873 414.824
14 0 171.293 12.6509 2167 112.527 136.456 410.03
15 1 89.1184 9.49299 846 103.381 137.58 454.32
16 0 94.1817 11.6477 1097 99.3473 137.247 453.169
17 0 97.12 11.6351 1130 100.182 137.241 449.504
18 0 99.2529 11.8284 1174 100.486 137.175 449.469
19 0 101.183 11.4051 1154 100.809 137.132 448.959
20 0 104.18 11.8257 1232 100.843 137.287 447.584
21 0 108.204 11.1733 1209 101.821 137.457 445.432
22 0 110.203 10.6259 1171 102.082 137.19 445.15
23 0 114.231 11.039 1261 101.982 136.868 443.178
24 0 117.148 12.0275 1409 100.086 137.492 441.38
25 1 68.0824 11.3245 771 98.1647 137.53 464.964
26 0 70.1212 11.5086 807 96.6382 136.694 461.862
27 0 72.2646 10.8352 783 98.0511 137.78 462.683
28 0 75.2146 11.3409 853 98.1336 137.941 462.118
29 0 77.1528 11.8207 912 98.6261 138.129 459.789
30 0 80.0671 12.4271 995 94.2613 137.886 456.719
31 0 85.1267 12.2993 1047 96.0019 137.464 458.653
32 0 87.2419 12.6545 1104 97.0435 137.829 455.367
33 0 90.0878 12.0993 1090 111.112 137.953 453.703
34 0 92.152 12.6747 1168 110.572 137.461 453.194
35 0 95.2534 12.1885 1161 111.842 137.454 450.019
36 0 97.3595 11.9557 1164 112.93 137.183 449.407
37 0 101.328 11.0039 1115 114.817 137.291 447.554
38 1 57.1695 11.4572 655 106.479 138.289 469.554
39 0 58.0719 10.8486 630 106.429 138.084 469.329
40 0 60.1274 11.9746 720 102.351 137.932 468.796
41 0 60.2682 12.1955 735 103.376 137.429 464.079
42 0 60.0782 11.535 693 106.261 136.62 466.492
43 0 63.121 10.7571 679 102.788 137.619 467.035
44 0 66.0675 11.4428 756 100.464 137.823 466.935
45 0 65.1127 10.6124 691 98.5268 137.693 460.326
46 0 67.0579 11.3931 764 97.7853 138.099 460.534
47 0 71.0616 12.7214 904 97.3816 137.499 461.82
48 0 73.1427 12.4825 913 97.8478 138.007 462.465
49 0 74.1054 12.4822 925 99.9665 137.457 457.781
50 0 82.0994 11.8637 974 110.606 137.651 457.938
51 0 82.0656 12.7946 1050 107.934 137.837 457.624
52 0 84.066 13.4299 1129 107.603 137.996 455.669
53 0 84.2219 13.0489 1099 109.667 137.582 453.86
54 0 85.1649 12.693 1081 109.655 136.52 454.208
55 0 92.1407 14.9554 1378 101.567 136.801 448.251
56 0 92.192 12.257 1130 110.421 136.636 452.673
57 0 92.2177 12.0909 1115 111.691 137.313 448.277
58 0 96.3219 12.6659 1220 110.633 137.472 444.513
59 0 100.436 13.3319 1339 107.7 137.157 442.603
60 0 99.2312 11.448 1136 112.623 136.907 440.865
61 0 104.446 11.7668 1229 112.017 136.839 438.744
62 0 105.207 11.6532 1226 112.403 137.21 440.335
63 0 109.245 11.2774 1232 110.91 137.557 444.725
64 0 114.342 11.9991 1372 109.437 137.426 439.318
65 0 114.277 11.4721 1311 111.312 137.486 437.595
66 0 120.452 13.275 1599 107.735 137.367 433.662
67 0 122.423 12.1301 1485 111.413 137.499 430.427
68 0 127.294 12.3336 1570 110.846 137.255 428.962
69 0 131.352 11.7547 1544 111.547 137.182 427.08
70 0 134.229 12.6202 1694 109.053 136.672 428.175
71 0 140.219 12.3949 1738 107.59 136.872 426.757
72 0 145.249 13.2876 1930 106.072 136.642 416.485
73 0 151.382 12.2934 1861 108.052 136.357 416.145
74 0 154.151 11.839 1825 108.559 137.076 420.901
75 0 156.173 13.1329 2051 110.92 137.042 420.308
76 0 154.168 10.0993 1557 111.662 136.469 425.111
77 1 89.0818 12.1574 1083 96.8467 137.19 452.242
78 0 91.1043 11.0533 1007 98.3406 137.76 452.565
79 0 96.1287 11.4534 1101 97.8374 138.047 449.008
80 0 98.0833 11.3679 1115 99.6143 138.404 447.084
81 0 100.046 11.8945 1190 99.6555 138.536 445.607
82 0 105.076 11.4584 1204 99.843 137.808 446.362
83 0 105.224 10.1878 1072 102.405 137.451 443.388
84 0 110.177 11.3272 1248 102.355 137.972 441.797
85 0 115.134 11.6994 1347 103.977 137.213 437.933
86 0 116.18 11.7232 1362 104.151 137.48 439.872
87 0 121.243 10.5738 1282 105.636 137.13 431.214
88 0 127.367 11.1646 1422 104.555 137.395 428.136
89 0 130.16 11.6011 1510 104.73 137.315 433.393
90 0 136.151 11.5753 1576 104.725 137.865 430.519
91 0 139.229 11.8079 1644 104.456 137.507 427.442
92 1 79.1933 10.7837 854 94.9473 138.021 458.755
93 0 83.1604 12.0731 1004 92.1066 137.131 455.335
94 0 84.046 10.9702 922 94.4414 138.242 454.967
95 0 86.1128 11.0669 953 94.7576 137.366 455.454
96 0 90.1538 10.3712 935 106.936 136.797 454.279
97 1 170.257 13.2036 2248 106.238 136.721 402.098
98 0 174.218 13.4199 2338 106.873 136.464 390.505
99 1 101.166 12.0198 1216 95.7796 136.604 428.516
100 0 104.118 11.535 1201 95.2398 136.672 431.733
101 0 107.186 13.0147 1395 92.5785 135.88 441.452
102 0 109.148 12.8816 1406 94.0676 136.44 445.28
103 0 110.145 11.5665 1274 96.7449 136.622 442.602
104 1 122.206 10.0895 1233 97.0722 136.285 445.852
105 0 121.079 10.8524 1314 98.8874 137.081 438.33
106 0 123.147 13.8777 1709 92.8005 136.98 438.349
107 0 123.15 12.3021 1515 93.4594 137.578 434.841
108 0 127.151 12.1823 1549 97.9154 137.396 433.383
109 0 132.246 11.1611 1476 99.8543 136.868 433.755
110 0 135.156 11.1723 1510 98.7417 136.507 432.899
111 0 140.188 11.2919 1583 97.2805 136.629 429.598
112 1 79.1281 9.98381 790 88.5633 136.889 460.972
113 0 82.0963 10.9506 899 87.0556 136.842 455.729
114 0 83.1081 9.8426 818 89.8729 137.049 461.56
115 0 84.2119 9.1911 774 89.6395 136.258 440.307
116 0 88.2764 10.773 951 86.6887 136.091 449.989
117 0 90.2376 10.9932 992 88.0857 136.542 444.817
118 0 93.3511 9.23395 862 91.0371 136.194 444.074
119 0 97.2854 11.2658 1096 88.9042 136.333 439.961
120 0 96.2131 7.96149 766 94.8695 136.492 441.913
121 0 101.179 10.9904 1112 91.0234 136.611 445.151
122 0 103.152 8.53112 880 95.1352 136.415 453.317
123 0 107.104 10.317 1105 93.3765 136.16 450.215
124 0 111.179 10.8743 1209 93.416 135.654 444.495
125 0 117.311 13.4429 1577 86.9696 136.015 439.722
126 0 307.58 12.2505 3768 108.919 134.802 348.475
127 0 317.415 12.5136 3972 109.103 134.703 339.893
128 1 126.442 13.0653 1652 104.136 135.292 427.611
129 0 131.407 12.6096 1657 103.069 135.296 428.197
130 0 135.378 12.8086 1734 103.367 135.998 424.054
131 0 141.449 12.987 1837 101.199 135.667 423.464
132 0 146.46 12.1466 1779 99.1681 135.771 422.011
133 1 83.4299 11.7344 979 95.3085 135.266 450.927
134 0 83.3098 13.2157 1101 93.4532 135.512 448.551
135 0 87.3088 12.5302 1094 94.5484 135.886 450.402
136 0 87.1086 13.3167 1160 94.4103 136.644 449.253
137 0 91.0882 13.5912 1238 93.4338 136.649 445.905
138 0 95.2365 12.0227 1145 96.4524 136.878 446.576
139 0 97.2489 13.6557 1328 94.4774 136.409 441.642
140 0 100.248 13.7858 1382 93.9588 136.41 442.478
141 0 102.495 13.2689 1360 95.9338 135.657 438.04
142 0 104.287 13.7888 1438 95.5021 135.656 436.384
143 0 107.211 13.0304 1397 97.2763 135.147 436.646
144 0 111.088 13.6288 1514 95.6281 135.802 437.026
145 0 113.359 13.3293 1511 97.1794 135.576 433.431
146 0 116.266 13.1423 1528 98.2893 135.677 432.159
147 0 121.182 13.9048 1685 97.0617 135.628 430
148 0 128.407 14.2049 1824 94.5899 135.754 429.824
149 0 133.414 15.8304 2112 91.2618 136.035 422.394
150 0 135.19 12.7081 1718 99.1135 136.593 422.91
151 0 138.163 12.1306 1676 102.913 135.348 423.6
152 0 142.305 12.5645 1788 103.361 136.583 421.578
153 1 80.1836 12.5462 1006 100.069 136.696 451.722
154 0 81.2232 12.4595 1012 100.778 136.429 448.848
155 0 86.156 13.3247 1148 97.8641 137.225 449.588
156 0 87.1463 12.3815 1079 101.443 136.589 448.146
157 0 88.183 12.7235 1122 103.842 136.574 444.835
158 0 89.1999 12.2758 1095 104.487 135.671 438.138
159 0 92.0844 13.77 1268 100.647 135.971 437.738
160 0 95.2019 14.5795 1388 98.9553 134.992 438.374
161 0 99.1699 12.887 1278 103.124 135.495 436.963
162 0 102.104 13.927 1422 101.111 135.928 435.736
163 0 102.187 12.9958 1328 104.547 134.92 434.534
164 0 105.329 12.5227 1319 102.784 134.585 438.561
165 0 109.219 11.6921 1277 105.067 134.923 435.659
166 0 109.214 12.9562 1415 103.399 134.355 434.413
167 0 115.138 13.1842 1518 102.92 134.799 431.249
168 0 115.169 13.2588 1527 105.099 134.54 425.191
169 0 125.247 16.9584 2124 94.4308 134.51 422.186
170 0 127.303 14.3672 1829 101.215 134.378 422.912
171 0 134.207 14.8279 1990 99.9503 134.881 426.509
172 0 132.252 14.0943 1864 103.463 134.56 415.734
173 0 134.228 13.641 1831 105.737 134.309 412.824
174 0 139.362 13.8273 1927 105.243 134.184 411.752
175 0 147.452 14.3504 2116 102.863 134.459 412.499
176 0 151.283 12.7906 1935 109.42 134.286 409.858
177 0 156.281 14.4804 2263 102.362 134.539 405.655
178 0 159.298 13.0071 2072 108.443 134.851 403.139
179 1 85.067 12.7194 1082 100.27 136.106 439.564
180 0 92.1121 11.8008 1087 100.16 135.787 439.86
181 0 92.0932 13.8447 1275 97.2541 135.524 437.018
182 0 98.1055 14.25 1398 95.3627 135.389 442.971
183 0 100.111 12.1465 1216 98.616 135.655 445.493
184 0 106.233 14.3176 1521 93.1815 134.288 438.354
185 0 109.122 13.2512 1446 95.9391 135.503 439.979
186 0 112.087 13.1416 1473 95.7549 135.48 438.212
187 0 116.091 13.5411 1572 94.7761 136.531 437.374
188 0 118.298 13.4407 1590 95.5535 135.481 432.582
189 0 123.088 14.5425 1790 93.2369 134.372 432.769
190 0 127.141 13.6148 1731 94.8307 134.303 429.794
191 0 130.193 14.0484 1829 93.9147 134.221 427.729
192 0 135.204 13.2023 1785 95.4818 134.765 424.002
193 1 68.0535 11.6232 791 94.7775 134.71 445.498
194 0 74.0689 12.4884 925 91.3059 134.683 449.787
195 0 75.0439 9.3945 705 97.5376 134.763 444.833
196 0 79.1489 11.6489 922 91.333 134.136 448.095
197 0 80.1578 9.90547 794 97.1839 133.963 441.911
198 0 85.0827 11.2831 960 94.7354 133.724 441.775
199 0 90.1218 12.2279 1102 92.2577 134.223 443.928
200 0 90.149 11.4255 1030 95.4961 134.8 440.475
201 0 93.1346 11.1774 1041 96.0855 134.407 441.685
202 0 93.0679 9.87451 919 102.61 135.203 436.324
203 0 99.1815 11.9478 1185 96.9722 135.481 438.664
204 0 103.146 11.7988 1217 96.6582 134.939 448.201
205 0 105.171 13.112 1379 94.3445 134.624 447.859
206 0 108.228 12.3073 1332 96.6517 134.596 445.633
207 0 114.158 12.2988 1404 95.5755 134.539 441.821
208 0 119.201 13.3304 1589 101.155 134.049 437.071
209 0 123.231 12.6754 1562 102.988 135.002 433.426
210 0 128.182 14.3858 1844 99.3579 134.875 431.977
211 0 130.253 12.3989 1615 103.95 135.35 432.574
212 0 132.334 12.2191 1617 104.385 135.638 427.973
213 0 139.325 13.6803 1906 101.115 135.503 425.726
214 0 142.455 12.2073 1739 104.848 136.364 422.886
215 0 148.308 14.0182 2079 101.591 135.598 420.432
216 1 89.0922 10.6294 947 100.135 135.946 449.736
217 0 91.3764 10.4294 953 99.1973 135.502 452.411
218 0 94.3628 10.6928 1009 98.6521 136.571 451.398
219 0 98.3344 11.8372 1164 97.14 136.468 446.34
220 0 100.326 10.3562 1039 100.176 136.188 444.315
221 0 106.151 11.7851 1251 97.769 136.469 443.023
222 0 106.24 12.1047 1286 98.1687 136.209 441.156
223 0 109.212 11.7935 1288 99.8781 135.489 439.217
224 0 113.259 12.2551 1388 98.6542 135.392 439.947
225 0 118.142 12.7219 1503 98.6361 135.149 438.509
226 0 121.3 13.1162 1591 97.9045 135.661 436.686
227 0 124.213 12.245 1521 99.8192 134.843 433.485
228 0 126.174 12.4749 1574 100.51 135.179 434.185
229 0 129.337 11.8915 1538 101.691 135.735 431.296
230 0 132.19 12.2324 1617 102.415 135.96 429.421
231 0 137.194 12.4131 1703 102.431 135.892 425.886
232 0 142.219 12.755 1814 102.562 135.612 424.509
233 0 149.361 13.0155 1944 101.481 135.636 425.072
234 0 152.345 11.9531 1821 107.766 135.448 423.22
235 0 157.402 13.1193 2065 108.064 134.786 414.647
236 0 156.326 12.3012 1923 106.285 136.21 410.112
237 0 165.122 14.032 2317 102.87 135.552 415.433
238 0 170.337 13.9136 2370 104.462 135.36 409.805
239 1 95.162 9.84636 937 102.868 135.509 443.736
240 0 102.144 12.7076 1298 96.3012 135.626 446.733
241 0 105.16 11.4778 1207 99.4093 135.261 445.133
242 0 109.148 12.7075 1387 98.5991 136.028 441.681
243 0 113.127 12.3931 1402 99.5949 135.674 442.581
244 0 114.128 11.2242 1281 103.658 135.906 438.084
245 0 117.098 12.733 1491 104.309 136.038 439.57
246 0 121.199 12.4753 1512 103.431 135.747 438.338
247 0 124.219 12.4377 1545 102.761 135.717 438.57
248 0 127.174 12.6677 1611 103.277 135.263 433.899
249 0 133.175 12.3597 1646 103.341 135.694 434.508
250 0 138.26 11.9919 1658 106.699 135.53 426.955
251 1 79.2517 10.4477 828 101.598 135.014 457.013
252 0 80.0436 10.8941 872 97.4415 134.821 457.03
253 0 81.0791 11.1989 908 94.6608 135.955 458.849
254 0 82.0782 10.6727 876 97.0114 136.047 455.932
255 0 85.1133 10.5036 894 94.9586 135.774 456.917
256 0 88.1038 10.272 905 95.9227 134.591 454.152
257 0 91.0938 10.9448 997 94.7202 134.982 455.694
258 0 94.1445 11.5461 1087 93.7792 134.634 451.994
259 0 98.1062 12.7719 1253 91.5068 133.569 451.44
260 0 100.176 12.0388 1206 93.7504 134.543 449.607
261 0 101.109 11.8585 1199 94.8023 135.399 449.665
262 0 103.182 11.281 1164 94.8643 135.337 449.194
263 1 199.264 13.6954 2729 99.7222 134.551 395.165
264 1 110.324 10.1429 1119 95.6461 134.627 448.499
265 0 116.097 11.6368 1351 94.8993 135.542 441.035
266 0 116.22 12.3558 1436 94.9408 134.226 441.146
267 0 121.118 10.7829 1306 97.5789 135.364 441.572
268 0 125.177 12.9177 1617 94.2257 135.784 437.637
269 0 126.191 12.7743 1612 96.1278 135.466 432.024
270 0 127.165 8.55581 1088 102.059 135.741 436.303
271 0 136.184 11.8736 1617 97.4533 135.874 429.226
272 0 142.304 11.1733 1590 97.1597 134.803 432.377
273 0 151.328 13.8375 2094 92.5291 134.929 421.22
274 0 147.352 12.1206 1786 94.1646 135.974 418.452
275 0 153.238 13.8542 2123 91.2642 135.428 426.903
276 0 152.334 11.698 1782 96.6605 136.421 425.253
277 1 87.1297 11.064 964 92.3402 136.102 455.688
278 0 91.1459 9.42445 859 94.1944 136.024 454.522
279 0 94.1638 9.33479 879 95.2867 136.561 451.273
280 0 96.125 11.6515 1120 92.558 136.517 447.196
281 0 101.254 9.52065 964 93.4015 135.952 450.167
282 0 105.125 10.5399 1108 89.4612 135.227 449.252
283 0 102.134 8.54757 873 92.4456 135.507 447.331
284 0 110.108 9.37261 1032 90.1395 135.114 447.638
285 0 114.089 9.15075 1044 90.7261 135.599 446.173
286 1 166.172 10.8803 1808 95.5326 135.836 412.742
287 1 68.1067 12.363 842 83.728 136.151 463.094
288 0 70.1296 11.7782 826 82.8329 136.377 462.42
289 0 70.0514 11.1918 784 84.5753 136.32 463.119
290 0 74.1276 12.1952 904 83.4392 136.212 461.461
291 0 73.1398 11.936 873 85.4788 135.585 460.918
292 0 77.0639 11.1206 857 86.1027 135.268 460.88
293 0 79.1084 11.3515 898 85.6425 135.06 458.812
294 0 84.1029 12.5204 1053 83.6961 135.179 458.097
295 0 83.0412 11.5726 961 86.9865 135.56 455.763
296 0 87.1343 8.9517 780 91.4128 135.167 459.903
297 0 85.1681 11.1544 950 90.3958 135.582 453.393
298 0 89.2109 10.7274 957 91.5664 135.701 452.49
299 0 92.088 12.184 1122 89.8538 135.393 452.808
300 0 94.1059 11.2214 1056 92.5341 135.657 450.116
301 0 99.1273 11.6214 1152 91.6745 135.935 451.328
302 0 103.092 12.2609 1264 91.515 135.395 449.984
303 0 104.167 12.2975 1281 92.6151 135.393 446.667
304 0 105.086 12.6373 1328 92.7252 135.413 444.357
305 0 109.118 12.1336 1324 94.5967 135.634 444.517
306 0 112.188 11.6323 1305 97.5747 135.626 440.288
307 0 117.177 13.1681 1543 95.2353 135.293 438.355
308 0 120.128 12.4201 1492 98.3887 135.686 436.631
309 0 120.238 11.918 1433 103.698 135.804 434.533
310 0 128.233 13.2103 1694 100.469 135.419 432.23
311 0 130.22 10.7126 1395 105.247 135.624 432.715
312 0 134.18 13.0497 1751 102.812 135.794 428.136
313 0 139.364 12.3704 1724 104.777 136.093 426.286
314 0 144.225 13.368 1928 104.469 136.106 424.71
315 0 147.212 12.9269 1903 106.258 135.331 415.205
316 0 153.214 12.4793 1912 108.102 136.41 418.214
317 0 155.3 12.9234 2007 107.321 136.304 417.474
318 1 87.1232 11.6846 1018 99.5275 136.874 451.984
319 0 89.1349 11.9706 1067 100.323 136.824 448.344
320 0 93.1809 13.007 1212 97.5619 136.767 444.462
321 0 95.1019 12.1659 1157 99.4728 135.699 447.732
322 0 99.1193 12.8835 1277 98.2028 137.123 448.525
323 0 101.114 13.0051 1315 98.9726 136.843 444.881
324 0 101.199 10.9191 1105 104.094 136.588 439.394
325 0 109.095 12.7046 1386 98.7157 137.36 444.968
326 0 109.104 10.9803 1198 101.761 137.137 445.604
327 0 114.147 13.43 1533 105.316 136.926 441.005
328 0 116.082 10.8457 1259 104.688 137.175 436.846
329 0 120.08 11.9337 1433 102.283 136.891 438.128
330 0 124.123 12.971 1610 102.127 137.062 434.919
331 0 128.151 11.4162 1463 104.033 136.614 435.334
332 0 136.244 13.1088 1786 101.193 137.005 430.912
333 0 140.259 13.6106 1909 100.155 137.005 431.251
334 1 78.0708 10.657 832 100.395 137.532 458.706
335 0 85.1928 12.278 1046 96.5574 137.462 458.169
336 0 85.1726 11.4356 974 99.6345 137.082 456.911
337 0 88.2011 12.018 1060 94.3085 137.306 454.548
338 0 90.1404 11.6374 1049 94.7617 137.021 455.785
339 0 92.1265 11.7013 1078 95.7839 136.238 451.745
340 0 95.1331 10.8795 1035 95.9633 136.067 452.648
341 0 99.2667 13.0457 1295 92.844 136.523 447.162
342 0 101.183 12.6404 1279 94.1071 136.917 449.041
343 0 105.176 12.6455 1330 94.2511 136.468 447.632
344 0 108.24 12.9897 1406 94.2788 136.412 443.149
345 0 109.117 11.4373 1248 97.2748 135.949 444.332
346 0 114.278 13.4496 1537 94.637 136.18 439.55
347 0 113.172 10.6122 1201 99.4946 136.167 442.361
348 0 117.268 11.5462 1354 98.4453 136.159 441.708
349 0 125.226 12.705 1591 91.4695 136.092 436.918
350 0 130.165 12.8453 1672 90.3971 135.846 435.325
351 0 131.286 11.532 1514 93.3144 135.736 433.52
352 0 137.29 12.0912 1660 92.088 135.589 434.54
353 1 81.2247 11.9176 968 91.407 135.675 459.775
354 0 84.2536 11.8689 1000 92.038 135.947 457.637
355 0 87.1758 12.687 1106 88.2098 136.267 456.363
356 0 89.2557 11.2598 1005 91.4348 136.431 453.347
357 0 91.1108 12.3366 1124 90.3025 136.04 453.527
358 0 93.1791 12.5457 1169 88.4799 136.393 454.618
359 0 95.1654 12.1998 1161 90.3506 135.982 452.364
360 0 102.175 13.1931 1348 88.1521 135.572 446.331
361 0 110.198 15.1545 1670 82.6425 135.521 442.494
362 0 109.287 13.7071 1498 83.6943 135.728 436.654
363 0 107.128 10.4828 1123 90.8121 136.226 444.933
364 0 113.134 11.1903 1266 89.6769 135.933 442.115
365 0 113.13 10.9255 1236 91.6383 136.273 437.858
366 0 118.268 10.7299 1269 92.2514 136.138 433.314
367 0 123.196 12.2487 1509 89.0842 135.698 433.652
368 0 126.132 12.0508 1520 90.4296 136.142 431.461
369 0 129.344 13.4447 1739 88.0012 135.871 430.691
370 0 132.234 12.856 1700 89.4353 135.79 427.038
371 0 138.262 12.932 1788 91.0721 136.072 428.32
372 0 142.288 11.9125 1695 94.9062 135.955 429.848
373 0 149.24 13.093 1954 101.221 135.793 423.559
374 0 153.28 12.9306 1982 101.108 136.47 424.023
375 0 160.221 13.3503 2139 96.1 136.142 416.77
376 0 165.227 12.0077 1984 99.0741 136.698 416.41
377 1 95.1757 10.7485 1023 91.3744 136.543 453.677
378 0 101.344 12.8177 1299 86.7683 135.962 450.373
379 0 102.089 11.5389 1178 89.2835 136.047 449.851
380 0 107.228 12.0211 1289 87.9659 136.342 448.838
381 0 111.206 11.9328 1327 88.2193 136.482 445.226
382 0 114.185 13.9686 1595 85.9549 136.604 444.075
383 0 116.217 11.2892 1312 91.0953 136.981 441.308
384 0 115.166 10.0116 1153 94.6652 136.656 443.127
385 0 120.192 11.3236 1361 92.2513 137.103 442.785
386 0 119.279 12.3575 1474 90.6201 135.544 440.502
387 0 128.156 11.0646 1418 91.115 135.904 438.643
388 0 132.13 11.4206 1509 90.7628 135.804 435.239
389 0 134.278 10.657 1431 92.1342 135.616 431.478
390 0 140.13 11.8818 1665 91.758 135.652 430.532
391 1 81.1085 9.5551 775 87.4568 136.345 463.298
392 0 83.1359 11.379 946 86.3288 136.181 460.817
393 0 87.1185 11.2376 979 87.8723 136.118 458.319
394 0 89.1514 12.3946 1105 86.4471 135.854 455.447
395 0 89.173 10.6871 953 89.6695 135.771 455.501
396 0 94.0989 11.5517 1087 95.873 135.669 451.716
397 0 98.0712 13.3474 1309 91.2964 135.706 451.767
398 0 99.2624 11.8172 1173 92.0341 135.025 449.315
399 0 102.212 11.7598 1202 92.6173 135.143 448.651
400 0 105.196 12.0632 1269 92.3546 135.196 445.574
401 0 106.144 10.8626 1153 95.1804 135.781 443.98
402 0 112.316 12.7053 1427 92.1072 135.949 444.574
403 0 113.131 12.5961 1425 93.5649 135.152 442.933
404 0 114.125 11.8729 1355 95.5993 135.283 441.707
405 0 119.207 11.5346 1375 96.4676 136.151 439.166
406 0 123.248 13.9151 1715 92.0251 134.743 437.685
407 0 129.361 12.4458 1610 94.9913 136.089 434.175
408 0 130.162 13.1452 1711 94.2455 135.618 435.778
409 0 134.275 13.5691 1822 93.7909 135.436 433.272
410 0 139.196 13.0319 1814 94.9598 135.648 428.698
411 0 140.145 12.7867 1792 96.5519 135.743 427.081
412 0 145.168 11.9724 1738 97.6997 135.694 425.016
413 0 151.3 12.8222 1940 94.9119 135.964 425.454
414 0 155.311 13.7659 2138 93.7638 135.844 421.239
415 0 162.295 13.7034 2224 93.6623 135.211 417.078
416 0 165.329 14.2565 2357 93.129 135.095 416.775
417 1 93.1793 10.3349 963 88.3645 135.112 458.897
418 0 95.1668 10.718 1020 90.2725 135.625 456.291
419 0 96.1572 11.7724 1132 91.4125 135.584 450.036
420 0 103.256 12.7547 1317 88.9757 135.809 450.939
421 0 105.144 11.3368 1192 92.7852 135.821 449.669
422 0 108.124 11.5238 1246 92.4181 135.372 449.287
423 0 110.132 10.8053 1190 95.5 135.809 446.666
424 0 115.135 13.3235 1534 92.5359 135.683 443.566
425 0 118.342 11.4245 1352 96.3772 135.142 442.777
426 0 121.139 13.1502 1593 93.8431 135.803 441.631
427 0 123.133 12.5474 1545 96.2414 135.902 439.937
428 0 125.217 11.6917 1464 98.2814 135.912 437.144
429 0 130.158 13.522 1760 95.8506 135.674 434.791
430 0 133.203 13.2354 1763 97.2172 135.315 432.943
431 0 137.251 12.5172 1718 99.3661 135.431 432.859
432 0 140.268 13.467 1889 98.2271 135.988 433.302
433 0 146.394 13.6959 2005 99.182 135.251 427.189
434 0 151.192 13.2216 1999 100.985 135.788 423.168
435 1 292.496 12.831 3753 102.459 135.49 361.137
436 0 302.465 14.4116 4359 101.252 135.436 360.088
437 1 166.215 13.6691 2272 104.101 136.185 415.235
438 0 172.347 13.5018 2327 104.619 135.062 413.802
439 0 176.331 14.399 2539 103.448 135.674 412.781
440 0 181.455 14.053 2550 105.26 135.142 408.31
441 0 184.261 13.3018 2451 105.822 135.16 410.785
442 0 190.244 14.7127 2799 103.975 135.388 404.041
443 0 195.438 14.8897 2910 103.517 135.141 404.846
444 0 201.377 13.7801 2775 106.891 135.935 398.161
445 0 209.25 14.4564 3025 104.518 134.406 396.281
446 0 213.427 14.1126 3012 106.392 135.484 392.427
447 0 216.401 14.3483 3105 106.393 135.905 392.68
448 0 224.255 14.9071 3343 104.809 134.639 387.155
449 0 233.276 14.665 3421 105.37 134.02 382.056
450 0 237.312 13.5476 3215 108.532 134.371 376.027
451 1 57.0426 11.8508 676 93.0533 134.481 467.917
452 0 59.242 11.8666 703 95.9829 135.302 466.154
453 0 62.1169 11.9774 744 93.9624 135.046 468.472
454 0 63.1148 12.8654 812 93.6108 135.135 468.422
455 0 62.1148 9.49855 590 93.578 135.214 474.278
456 0 64.1004 10.8424 695 95.0432 135.171 468.122
457 0 64.1844 10.6724 685 98.1956 136.285 468.131
458 0 66.1562 11.5787 766 97.2637 136.275 465.077
459 0 70.0529 11.2486 788 97.4924 135.821 465.123
460 0 72.1051 10.5818 763 99.1966 136.097 464.979
461 0 73.192 11.7226 858 98.7751 135.938 463.413
462 0 75.1579 12.2276 919 97.2339 136.207 465.437
463 0 77.2203 11.5643 893 99.9026 135.633 462.69
464 0 80.2868 11.7952 947 99.661 135.202 461.381
465 0 80.1842 10.9872 881 101.125 134.885 463.301
466 0 86.1036 11.4281 984 100.039 135.861 460.311
467 0 88.2217 11.3464 1001 99.954 134.873 453.273
468 0 95.1961 12.8892 1227 95.608 135.395 451.989
469 0 92.1231 10.4208 960 104.406 135.23 453.197
470 0 96.1527 9.0793 873 104.545 135.801 458.694
471 0 96.2066 9.71867 935 103.092 135.2 455.322
472 0 99.2974 9.78878 972 101.87 135.005 455.516
473 1 141.413 9.15754 1295 108.331 134.904 439.986
474 0 141.221 8.58939 1213 96.4345 135.589 434.723
475 0 138.284 9.34309 1292 95.3963 135.43 439.395
476 0 138.238 10.1492 1403 95.7541 135.582 437.986
477 0 137.274 10.0456 1379 98.0711 135.603 434.83
478 1 80.1051 20.6479 1654 73.1669 135.833 459.166
479 0 77.0974 13.8137 1065 86.7277 136.424 463.425
480 0 75.0983 13.6621 1026 89.8226 135.878 464.897
481 0 73.0628 11.2643 823 95.706 135.877 464.581
482 0 73.0934 9.4263 689 97.9753 135.623 468.554
483 0 78.0894 11.474 896 95.4531 135.691 466.58
484 0 80.0981 12.0103 962 95.6975 135.627 462.313
485 0 83.0178 12.0938 1004 96.5717 135.917 461.111
486 0 83.2934 11.5375 961 98.0739 135.972 462.805
487 0 87.0594 11.0959 966 100.133 135.657 459.646
488 0 90.0741 12.5341 1129 97.3959 134.886 459.83
489 0 94.0779 13.6164 1281 98.057 134.795 455.88
490 0 96.0966 13.9235 1338 97.58 134.405 453.019
491 0 100.176 13.7957 1382 100.232 134.397 451.57
492 0 103.119 15.2058 1568 104.725 135.797 450.449
493 0 105.237 14.7097 1548 108.096 135.758 450.775
494 0 105.084 13.8461 1455 107.987 135.711 449.691
495 0 109.108 15.0585 1643 109.702 135.55 446.099
496 0 113.154 15.0238 1700 109.175 135.788 444.895
497 0 115.101 14.1615 1630 111.394 135.399 442.593
498 0 118.22 14.5407 1719 111.169 135.225 439.761
499 0 124.139 14.3388 1780 110.521 134.551 438.093
500 0 128.214 13.8441 1775 111.881 134.926 438.685
501 0 134.164 15.3021 2053 107.026 135.242 434.062
502 0 135.081 13.9028 1878 111.409 135.2 433.886
503 0 134.122 13.443 1803 108.114 135.842 434.357
504 0 138.125 11.9022 1644 110.007 135.528 435.984
505 1 82.0783 12.3784 1016 99.7333 135.274 463.149
506 0 85.1341 11.9106 1014 101 134.855 460.347
507 0 88.1624 11.4675 1011 101.732 134.247 461.916
508 0 89.0843 12.8979 1149 99.8842 135.066 460.844
509 0 95.0902 12.262 1166 100.559 134.935 458.852
510 0 96.0913 12.2488 1177 100.674 135.048 459.11
511 0 100.132 12.5435 1256 100.694 135.246 454.906
512 0 104.179 11.9794 1248 101.689 135.344 455.55
513 0 108.13 14.1311 1528 98.3986 135.247 451.999
514 0 111.175 12.6647 1408 106.089 134.947 448.397
515 0 114.294 13.7978 1577 100.812 135.086 446.289
516 0 118.341 13.1569 1557 102.105 134.054 445.645
517 1 73.0692 13.7267 1003 96.1326 134.567 469.022
518 0 74.1203 13.1813 977 97.4278 135.219 468.515
519 0 77.0611 13.6515 1052 97.0779 135.17 466.181
520 0 79.0942 13.6293 1078 96.9416 135.385 464.912
521 0 81.0671 13.0509 1058 98.9641 134.855 463.957
522 0 83.15 12.8924 1072 99.4487 135.027 463.529
523 0 87.1776 12.6523 1103 99.7434 134.876 461.909
524 0 89.0655 14.0908 1255 97.6861 134.676 459.916
525 0 90.144 13.1678 1187 100.08 135.217 457.42
526 0 95.0647 13.0753 1243 99.9461 135.148 458.462
527 0 97.132 13.878 1348 107.918 134.6 455.238
528 0 99.203 13.1952 1309 110.293 133.838 455.354
529 0 103.144 13.0497 1346 110.048 134.81 454.866
530 0 108.169 12.9889 1405 110.16 135.099 452.398
531 0 110.11 13.2504 1459 109.683 135.088 449.923
532 0 113.173 13.7842 1560 107.801 135.853 447.206
533 0 116.116 14.0119 1627 108.866 134.886 444.612
534 0 118.146 13.6018 1607 109.301 134.731 443.882
535 0 120.238 12.8329 1543 110.592 134.482 443.824
536 0 122.071 13.4757 1645 109.703 134.883 440.187
537 0 127.222 13.7162 1745 108.479 134.799 439.374
538 1 82.0639 8.24967 677 107.923 135.51 471.343
539 0 81.1217 12.8202 1040 100.792 133.946 463.086
540 0 80.0927 11.7739 943 106.441 134.81 462.032
541 0 81.0695 11.4223 926 112.262 136.162 461.656
542 0 82.0186 11.9729 982 108.927 135.094 462.53
543 0 83.1111 11.5508 960 108.019 135.164 464.441
544 0 87.1183 12.4314 1083 106.98 135.51 460.905
545 0 92.0872 13.6501 1257 104.551 135.439 459.915
546 0 94.1506 13.1492 1238 106.435 135.68 460.735
547 0 94.0996 11.4666 1079 111.196 135.639 456.634
548 0 98.1011 12.3852 1215 109.878 135.612 457.606
549 0 100.076 12.1908 1220 110.113 136.044 452.748
550 0 104.137 12.4067 1292 108.811 135.955 454.391
551 0 109.106 12.4925 1363 107.875 135.654 452.186
552 0 111.076 12.4779 1386 108.765 135.919 449.616
553 0 111.099 11.5753 1286 112.305 134.998 450.724
554 0 117.119 12.8758 1508 108.599 135.933 447.179
555 0 120.189 12.7466 1532 104.546 135.453 447.518
556 0 122.156 13.2617 1620 108.577 135.682 444.215
557 0 122.165 13.5882 1660 112.294 136.51 440.8
558 0 124.109 12.5777 1561 105.425 136.414 446.407
559 0 125.11 12.8447 1607 108.832 136.112 443.758
560 0 129.162 14.4857 1871 106.638 135.881 441.366
561 0 131.262 13.614 1787 109.277 135.804 441.342
562 0 131.233 13.9142 1826 111.567 134.944 438.784
563 0 129.153 13.5576 1751 115.064 134.859 438.726
564 0 134.126 14.8069 1986 110.2 134.603 441.147
565 0 135.082 13.2512 1790 113.343 135.222 440.575
566 0 141.214 13.3273 1882 109.813 134.165 438.62
567 0 144.167 11.0913 1599 113.384 134.485 434.016
568 0 152.275 12.5825 1916 110.693 134.867 430.968
569 0 156.379 13.819 2161 107.092 134.15 428.103
570 1 85.1089 12.9834 1105 109.599 134.625 464.271
571 0 88.0414 14.4477 1272 105.777 134.714 461.041
572 0 90.0564 13.5249 1218 111.491 133.991 459.225
573 0 92.1495 13.7168 1264 110.204 134.468 460.23
574 0 90.1422 12.0698 1088 109.203 134.075 460.665
575 0 93.0894 11.8381 1102 111.09 133.879 458.647
576 0 95.1708 12.5669 1196 108.381 133.88 458.76
577 0 96.2568 11.4589 1103 112.473 134.132 458.48
578 0 99.2974 12.0446 1196 113.106 134.528 457.155
579 0 104.143 13.9424 1452 109.966 133.848 453.333
580 0 107.149 13.3739 1433 113.403 133.963 452.128
581 0 110.186 14.0671 1550 116.069 134.328 448.223
582 0 111.076 12.676 1408 116.584 133.901 451.831
583 0 112.095 11.8381 1327 122.281 133.924 451.005
584 0 119.2 13.104 1562 119.834 133.882 450.314
585 1 68.0457 13.1676 896 120.766 134.901 469.473
586 0 70.0477 13.191 924 123.166 134.37 469.842
587 0 70.0502 13.0335 913 121.126 134.964 469.575
588 0 72.0865 12.7902 922 122.781 133.834 468.44
589 0 74.0613 13.1918 977 126.375 135 467.011
590 0 78.0777 13.7427 1073 125.167 135.334 465.146
591 0 80.2229 13.3503 1071 127.245 135.373 465.353
592 0 81.1416 13.2731 1077 129.868 135.219 462.826
593 0 84.146 13.9163 1171 130.556 134.706 461.61
594 0 84.1089 12.7097 1069 136.058 134.841 462.653
595 0 86.0881 13.1261 1130 137.088 134.366 461.28
596 0 89.1344 13.7769 1228 135.44 134.546 461.507
597 0 93.1196 14.3794 1339 135.865 134.792 459.645
598 0 96.1254 14.7099 1414 134.714 134.854 457.318
599 0 98.1756 13.2823 1304 140.472 134.474 454.493
600 0 101.124 14.3092 1447 137.986 134.348 451.844
601 0 102.133 13.6195 1391 142.231 133.882 449.527
602 0 104.14 14.3845 1498 139.401 133.407 445.712
603 0 107.112 13.5653 1453 140.546 134.339 445.565
604 0 109.177 13.098 1430 142.421 134.758 447.366
605 0 116.214 13.5699 1577 140.729 133.512 439.909
606 0 121.19 14.8197 1796 137.399 134.089 433.117
607 1 71.0408 11.8946 845 135.928 134.944 457.712
608 0 70.0624 10.9617 768 145.424 134.775 458.78
609 0 77.0569 14.34 1105 136.608 135.072 464.296
610 0 79.0607 13.5592 1072 142.35 134.328 463.452
611 0 81.139 14.1486 1148 140.017 134.177 462.118
612 0 84.0806 13.3681 1124 140.835 134.617 463.469
613 0 87.134 14.1047 1229 139.897 134.522 460.435
614 0 90.1179 13.5711 1223 141.819 134.439 458.833
615 0 90.0319 12.851 1157 145.44 134.489 458.105
616 0 96.1205 13.6079 1308 143.473 134.101 455.984
617 0 97.0735 14.0615 1365 141.347 134.493 454.44
618 0 101.183 14.3304 1450 139.746 134.021 451.748
619 0 104.135 13.7994 1437 142.66 134.164 451.074
620 0 105.203 13.7544 1447 143.463 133.529 450.796
621 0 109.144 14.3023 1561 141.165 133.416 446.609
622 0 113.281 14.0536 1592 141.3 133.687 446.19
623 0 115.473 14.2804 1649 142.158 133.542 442.571
624 0 119.087 14.3341 1707 136.09 133.766 443.049
625 0 123.132 14.4073 1774 136.981 132.882 437.37
626 0 128.137 14.0397 1799 137.098 133.714 439.575
627 0 132.212 14.3935 1903 136.679 132.794 434.092
628 0 133.204 14.2413 1897 132.053 133.538 438.409
629 0 132.171 13.0134 1720 139.289 133.227 438.577
630 0 128.091 9.61813 1232 143.425 132.914 443.767
631 1 86.1432 12.3747 1066 130.716 133.477 456.301
632 0 90.2251 13.5328 1221 131.539 133.26 457.912
633 0 93.1284 11.919 1110 136.99 133.247 457.236
634 0 95.1808 12.9858 1236 134.093 134.029 455.926
635 0 95.1087 12.2912 1169 135.613 132.969 457.036
636 0 101.164 13.4534 1361 133.722 133.148 448.44
637 0 103.214 12.6146 1302 136.259 131.96 446.93
638 0 106.206 13.1725 1399 133.666 132.714 447.272
639 0 107.053 13.0963 1402 131.939 132.053 451.086
640 0 114.223 13.8238 1579 131.533 132.705 444.623
641 0 118.108 13.1744 1556 132.006 132.484 444.307
642 0 121.31 12.8102 1554 133.993 132.905 441.868
643 0 124.345 12.8433 1597 132.533 132.719 440.343
644 0 130.403 13.5273 1764 130.553 132.29 435.24
645 0 133.26 13.7775 1836 129.668 132.881 433.428
646 0 136.315 13.5128 1842 131.128 132.377 430.763
647 0 142.293 12.7132 1809 130.087 132.851 435.546
648 0 148.4 12.8234 1903 130.508 133.127 424.879
649 0 152.311 13.9058 2118 127.991 132.363 421.215
650 0 157.377 13.3692 2104 130.43 133.204 420.48
651 0 162.35 13.0028 2111 130.717 133.144 421.084
652 0 167.361 12.9839 2173 129.646 133.441 419.37
653 0 171.327 13.5297 2318 129.713 133.163 413.901
654 0 176.403 14.1665 2499 128.772 132.733 408.294
655 0 182.535 14.4794 2643 126.925 132.68 405.803
656 0 186.335 15.1662 2826 126.441 132.678 403.092
657 0 191.444 14.0093 2682 130.743 132.718 399.466
658 0 197.507 13.802 2726 130.038 132.081 399.95
659 0 202.457 14.0771 2850 130.823 132.359 394.518
660 0 210.492 14.3853 3028 130.78 133.156 391.585
661 0 218.625 13.4431 2939 132.371 133.061 387.218
662 0 224.268 12.9265 2899 134.319 132.922 386.417
663 0 234.294 13.4617 3154 133.861 132.931 380.884
664 1 51.0376 11.1878 571 121.468 134.208 470.909
665 0 53.0447 11.1038 589 121.99 134.543 472.202
666 0 54.185 10.944 593 119.427 134.513 471.563
667 0 55.1073 11.3234 624 120.345 133.944 460.933
668 0 59.2174 11.7364 695 116.846 134.247 465.794
669 0 58.1065 12.1157 704 118.114 134.135 470.807
670 0 59.0648 11.6652 689 122.238 134.495 467.26
671 0 62.0935 11.4022 708 121.661 134.459 467.292
672 0 65.0306 11.4715 746 121.996 133.58 465.81
673 0 65.0363 11.5166 749 123.913 134.131 464.25
674 0 66.1727 11.1677 739 125.254 133.827 463.809
675 0 71.2123 12.891 918 119.484 133.539 463.71
676 0 73.0569 12.7435 931 119.977 134.304 462.522
677 0 74.0832 11.6491 863 124.046 134.195 460.553
678 0 79.0926 12.1124 958 121.739 133.725 456.727
679 0 81.1899 11.2206 911 125.531 134.469 454.796
680 0 78.0839 10.9626 856 128.085 134.77 453.814
681 0 86.1695 11.8255 1019 122.664 134.791 450.194
682 0 90.2142 12.1489 1096 121.677 134.562 448.605
683 0 91.3921 11.8391 1082 121.722 133.864 451.87
684 0 95.4368 12.207 1165 121.723 133.914 444.99
685 0 96.2163 11.5053 1107 122.609 134.282 444.948
686 0 101.272 11.2469 1139 121.872 133.561 441.848
687 0 107.229 12.2075 1309 120.036 134.205 436.173
688 1 58.0971 10.2243 594 120.18 133.754 458.178
689 0 61.1819 11.9807 733 115.924 134.217 458.428
690 0 68.1298 11.8597 808 113.16 134.613 463.543
691 0 65.0825 11.5853 754 116.793 135.147 459.428
692 0 68.1098 11.6283 792 116.405 134.712 459.17
693 0 70.1346 11.3496 796 118.916 134.431 446.977
694 0 74.1886 12.5356 930 115.245 134.144 435.915
695 0 78.1332 13.4258 1049 115.129 133.298 424.032
696 0 79.1977 13.9903 1108 113.63 133.697 428.153
697 0 81.2401 13.2078 1073 116.565 133.624 426.926
698 0 82.1049 12.5449 1030 120.517 134.57 424.72
699 0 84.1824 12.9006 1086 120.722 134.554 424.545
700 0 88.2412 13.8144 1219 119.079 134.71 426.063
701 0 90.2314 13.0996 1182 121.511 134.405 425.21
702 0 92.1817 14.5799 1344 115.885 133.895 426.961
703 0 96.449 13.2713 1280 120.159 133.568 432.925
704 0 99.2524 15.1029 1499 115.173 134.465 435.899
705 0 100.14 14.23 1425 119.7 134.425 436.053
706 0 103.288 13.8254 1428 120.179 134.417 441.526
707 0 106.319 13.9768 1486 119.989 134.57 440.07
708 0 106.194 14.4264 1532 120.931 133.956 435.582
709 0 111.27 14.1906 1579 121.149 134.586 435.008
710 0 113.35 13.9392 1580 123.259 134.188 435.258
711 0 115.17 13.3889 1542 124.971 134.733 436.497
712 0 119.28 14.2941 1705 122.11 134.246 431.306
713 0 125.471 15.5096 1946 116.682 134.92 431.859
714 0 128.161 14.3881 1844 120.794 134.354 426.098
715 0 132.407 14.4177 1909 120.51 134.224 427.17
716 0 137.346 13.6298 1872 122.698 134.234 426.368
717 0 145.273 14.7584 2144 121.015 134.632 420.226
718 1 84.0863 11.4525 963 121.945 135.025 449.858
719 0 84.1262 11.5303 970 120.789 135.095 452.129
720 0 90.1529 14.2868 1288 110.032 134.913 452.685
721 0 90.1682 12.388 1117 111.879 135.489 452.325
722 0 92.0709 13.2941 1224 110.908 135.311 448.511
723 0 93.2683 11.944 1114 113 135.409 448.952
724 0 94.116 11.5921 1091 115.58 135.026 446.885
725 0 98.0908 12.2845 1205 113.488 135.313 445.969
726 0 103.12 12.7036 1310 111.202 135.014 444.65
727 0 105.097 11.5703 1216 112.546 134.314 445.374
728 0 108.167 11.926 1290 112.014 133.733 442.517
729 0 112.145 12.2609 1375 111.883 135.027 441.278
730 0 116.13 12.6152 1465 111.951 135.176 434.834
731 0 121.164 12.9906 1574 109.839 134.604 432.06
732 0 121.176 13.0802 1585 110.226 134.65 430.017
733 0 130.359 14.2683 1860 106.216 134.784 430.172
734 0 133.266 14.2122 1894 106.185 134.806 428.543
735 0 139.326 14.4697 2016 104.499 134.487 428.945
736 0 142.189 13.25 1884 109.121 134.823 420.569
737 0 149.324 13.1727 1967 109.201 134.436 417.679
738 0 156.22 12.2135 1908 110.21 134.35 415.563
739 1 90.2649 11.7654 1062 107.803 134.571 443.851
740 0 95.1314 12.7508 1213 103.386 134.731 446.547
741 0 98.2789 11.213 1102 105.464 134.77 443.956
742 0 101.188 11.8394 1198 102.792 134.316 447.661
743 0 104.233 13.3547 1392 101.535 134.624 440.825
744 0 106.334 13.0344 1386 102.462 133.731 439.584
745 0 103.156 10.8283 1117 109.235 133.85 438.371
746 0 112.448 12.9927 1461 102.943 133.456 437.866
747 0 113.21 13.0907 1482 102.951 133.883 437.324
748 0 117.17 11.2998 1324 107.939 134.541 432.989
749 0 121.323 13.1302 1593 103.309 133.956 431.329
750 0 128.372 13.1025 1682 102.121 133.681 429.96
751 0 133.529 12.3794 1653 103.465 134.388 430.889
752 0 136.363 12.8334 1750 103.643 134.27 427.825
753 1 195.607 10.9198 2136 110.842 134.044 400.713
754 1 140.415 12.3704 1737 106.032 134.234 424.542
755 0 148.556 12.4532 1850 106.611 133.81 419.383
756 0 153.487 12.6525 1942 106.178 133.682 416.035
757 0 158.302 13.4111 2123 105.99 133.726 410.351
758 0 164.358 14.0851 2315 105.867 133.968 409.781
759 0 172.626 14.1288 2439 105.743 133.52 408.748
760 0 176.476 13.9565 2463 106.437 133.653 404.538
761 0 184.489 15.0362 2774 107.599 133.724 399.659
762 0 190.643 14.7448 2811 108.901 133.847 395.9
763 0 196.484 14.5101 2851 109.162 133.499 392.132
764 0 202.578 14.0884 2854 110.388 133.328 393.585
765 0 209.634 15.1645 3179 107.82 133.333 392.241
766 0 217.677 14.6272 3184 109.734 132.094 385.035
767 0 221.479 14.3084 3169 111.324 133.269 382.531
768 0 230.655 13.3923 3089 113.193 133.356 376.909
769 0 240.889 13.9193 3353 110.715 133.173 376.43
770 1 60.6393 10.8675 659 96.5235 133.443 468.716
771 0 57.1951 9.5113 544 99.8033 132.851 464.296
772 0 58.2218 9.39511 547 95.4442 132.94 472.843
773 0 62.1961 10.6759 664 94.1205 133.011 467.045
774 0 64.196 11.0599 710 94.4718 132.735 466.144
775 0 64.3011 10.0309 645 96.2713 133.384 470.096
776 0 67.1789 10.6432 715 97 133.186 468.018
777 0 69.3101 10.8787 754 96.4019 132.621 466.777
778 0 70.1457 10.1646 713 99.2665 133.046 463.288
779 0 75.4206 11.6944 882 95.4864 133.407 464.571
780 0 75.2534 12.3981 933 96.8414 132.405 461.511
781 0 79.3762 12.9888 1031 95.6566 133.433 460.521
782 0 77.4776 10.3127 799 101.443 133.035 462.524
783 0 81.1723 12.455 1011 98.8437 133.16 457.837
784 0 87.1808 12.973 1131 96.8329 133.292 457.233
785 0 89.22 12.755 1138 96.9833 133.331 454.913
786 0 92.4858 12.4884 1155 98.0857 132.994 454.051
787 0 95.2126 13.139 1251 97.8553 133.098 451.309
788 0 98.3569 13.3798 1316 97.9233 133.004 450.271
789 0 99.3099 13.6341 1354 97.9121 134.069 443.617
790 0 104.277 15.5452 1621 96.7082 132.403 393.289
791 0 105.451 15.2298 1606 95.9988 133.418 384.723
792 0 108.496 16.0559 1742 96.0499 133.808 386.781
793 0 107.263 14.5996 1566 101.494 133.368 406.204
794 0 111.31 15.7937 1758 97.967 132.628 416.656
795 0 116.671 15.7966 1843 97.3158 133.603 419.273
796 0 118.562 15.9494 1891 98.0656 132.901 419.356
797 0 121.607 15.3034 1861 101.012 133.326 416.901
798 0 122.545 15.8472 1942 100.838 133.853 414.301
799 0 124.429 14.0482 1748 106.521 133.824 414.335
800 0 130.581 19.7502 2579 93.4366 133.618 413.919
801 0 130.39 17.6087 2296 99.7922 132.991 417.115
802 0 134.36 14.9821 2013 106.095 133.676 411.366
803 0 136.442 14.6363 1997 108.523 133.027 409.957
804 0 144.492 16.6238 2402 102.698 133.643 410.736
805 0 146.469 15.7644 2309 105.884 133.508 415.5
806 0 150.27 16.5902 2493 104.815 132.745 413.19
807 0 156.652 16.8079 2633 104.075 133.45 413.128
808 0 157.524 15.8897 2503 107.529 133.053 409.211
809 0 166.494 18.4271 3068 101.569 132.889 403.824
810 0 168.311 16.4814 2774 106.994 133.006 404.041
811 0 174.501 17.2435 3009 105.332 132.909 403.401
812 0 180.303 17.1545 3093 105.426 131.96 397.676
813 0 185.444 15.1582 2811 110.258 132.511 393.177
814 0 186.33 15.1935 2831 111.452 132.583 389.794
815 0 192.396 15.0211 2890 112.742 132.92 385.64
816 1 128.323 9.93583 1275 110.827 133.151 432.004
817 0 124.405 11.342 1411 111.425 133.38 423.523
818 0 131.403 11.5522 1518 109.478 132.768 421.916
819 0 134.433 12.9061 1735 109.137 133.201 419.295
820 0 138.252 12.2963 1700 110.624 132.989 418.548
821 0 144.281 12.1499 1753 108.709 132.397 420.341
822 0 151.498 12.4887 1892 109.411 133.121 415.013
823 0 154.303 12.968 2001 107.837 132.442 410.86
824 0 154.247 13.0181 2008 108.721 132.366 407.876
825 0 159.288 13.033 2076 108.52 132.054 405.971
826 0 166.441 11.776 1960 111.219 133.076 399.686
827 0 171.321 11.9833 2053 110.33 132.861 399.271
828 0 176.376 12.445 2195 109.533 132.905 390.52
829 0 179.331 12.0224 2156 110.071 132.758 389.965
830 1 190.385 11.7236 2232 110.138 132.653 388.362
831 0 195.326 11.7957 2304 111.039 132.201 380.051
832 0 202.271 14.179 2868 105.27 132.38 382.838
833 0 205.3 12.0117 2466 109.553 132.146 376.97
834 0 216.29 12.9825 2808 107.982 132.098 373.182
835 1 245.353 5.22512 1282 112.456 132.032 393.206
836 0 245.303 8.463 2076 113.835 132.695 366.046
837 1 59.0735 8.6841 513 89.5146 132.842 459.727
838 0 59.0453 6.74058 398 81.0804 132.889 470.151
839 0 57.1209 6.28492 359 81.4875 132.234 472.56
840 0 62.0398 6.54418 406 81.5296 132.229 469.741
841 0 63.0988 6.03815 381 83.1969 133.262 468.556
842 0 305.21 3.64339 1112 112.883 132.684 376.614
843 1 244.331 10.4162 2545 102.589 132.75 374.197
844 0 251.336 11.2001 2815 103.831 133.502 361.842
845 0 261.157 12.3834 3234 101.194 132.659 364.055
846 0 269.275 11.7687 3169 102.217 132.667 364.606
847 1 76.07 8.95229 681 86.0646 134.711 463.236
848 0 79.2242 8.25506 654 87.5673 134.231 462.034
849 0 85.1646 9.46403 806 86.2407 134.903 456.895
850 1 32.0125 8.59039 275 79.3891 134.025 485.72
851 0 34.0238 9.17005 312 77.891 134.183 486.465
852 0 34.0494 8.04713 274 79.6642 135.084 485.898
853 0 33.0092 7.48276 247 82.1498 135.283 486.024
854 0 36.0217 10.577 381 76.8268 134.738 485
855 0 35.0425 8.47542 297 78.8956 135.364 487.475
856 0 33.0999 9.63749 319 78.9843 135.276 485.514
857 0 38.1193 10.3098 393 79.2824 135.183 482.338
858 0 36.151 10.1519 367 78.9782 135.534 483.586
859 0 34.0567 7.28197 248 78.9315 135.774 486.093
860 0 39.0249 10.4805 409 76.9169 135.367 484.142
861 0 39.1011 9.51381 372 76.7608 135.97 483.871
862 0 38.0483 7.96357 303 80.1815 135.317 484.875
863 0 38.0285 8.17808 311 71.7203 135.309 479.961
864 0 35.0066 8.34127 292 70.5616 135 480.445
865 0 33.0132 4.51334 149 73.6242 134.846 481.611
866 0 33.0216 3.422 113 73.6106 134.92 478.46
867 0 33.0053 4.12055 136 72.3529 135.11 476.75
868 1 135.169 12.0294 1626 101.838 133.27 415.961
869 0 138.156 12.4497 1720 101.677 133.858 414.306
870 0 143.265 12.4036 1777 101.921 133.767 412.488
871 0 145.207 12.9746 1884 101.613 133.191 409.107
872 0 153.352 11.9137 1827 103.636 132.82 407.477
873 0 155.243 11.4852 1783 105.549 133.376 405.755
874 0 160.164 13.0054 2083 102.282 132.957 405.353
875 0 164.181 12.5289 2057 105.045 132.725 399.93
876 0 169.366 12.8951 2184 104.951 133.45 392.532
877 0 173.318 12.8723 2231 105.603 132.89 393.371
878 0 178.288 13.9213 2482 102.761 132.789 389.695
879 0 178.31 13.6055 2426 105.815 133.166 385.101
880 0 188.298 12.5652 2366 108.112 133.066 382.993
881 0 195.433 12.526 2448 108.891 133.249 379.847
882 0 198.373 12.7739 2534 108.691 132.453 376.639
883 0 209.477 14.5983 3058 103.628 133.474 382.207
884 1 43.107 7.05223 304 73.0954 134.888 470.852
885 0 44.0435 5.78973 255 74.5529 134.651 469.431
886 0 47.2128 7.54033 356 74.3989 134.222 472.747
887 0 44.1778 7.42454 328 76.0701 135.082 468.848
888 0 45.1194 4.47701 202 77.6733 134.886 472.52
889 0 44.0684 8.14643 359 74.4513 135.12 472.914
890 0 52.2086 7.9872 417 80.1031 134.988 476.885
891 0 49.2907 7.58764 374 77.1257 134.794 474.479
892 0 45.1007 7.05088 318 75.1352 133.836 467.396
893 0 47.0468 6.16407 290 76.869 134.652 473.283
894 0 49.1332 6.71643 330 76.3848 135.145 475.067
895 0 53.2086 6.99135 372 77.0376 134.839 471.196
896 0 55.1634 5.90972 326 77.0583 134.537 474.356
897 0 57.2395 5.5556 318 80.8208 134.5 480.503
898 0 56.1089 6.11311 343 79.9475 133.822 478.143
899 0 57.1022 4.37812 250 83.54 134.656 484.284
900 0 59.207 7.43155 440 80.0182 134.47 476.025
901 0 60.0405 5.01328 301 84.8239 134.831 480.319
902 0 60.1357 9.26238 557 80.0485 135.172 475.144
903 0 59.1719 7.97676 472 88.5678 135.197 474.784
904 0 62.0898 8.39107 521 87.9578 135.726 473.522
905 0 60.1814 8.19191 493 82.0852 134.288 472.943
906 0 58.1756 5.34588 311 87.3762 134.897 482.547
907 0 64.2556 10.038 645 79.3659 134.262 473.784
908 0 64.194 6.52709 419 85.4105 134.883 479.294
909 0 65.1226 7.87744 513 84.0039 135.15 476.729
910 0 59.1569 9.50015 562 82.7616 134.335 473.582
911 1 40.0621 9.63504 386 87.2539 135.122 484.026
912 0 40.0887 10.3271 414 86.6039 135.263 483.246
913 0 41.0963 10.5362 433 85.5797 133.677 480.734
914 0 40.0765 9.95595 399 88.2256 135.393 481.163
