time division length width area intensity CMx CMy
0 0 132.181 14.238 1882 147.802 1193.92 415.388
1 0 138.402 13.9521 1931 148.931 1193.54 414.81
2 0 143.223 14.8859 2132 145.463 1193.05 411.104
3 0 149.289 14.2676 2130 146.81 1192.02 408.357
4 0 153.376 14.3634 2203 147.266 1192.41 404.833
5 0 158.222 14.3091 2264 147.107 1192.18 402.887
6 1 85.1488 11.4036 971 133.888 1193.25 441.108
7 0 88.112 11.4967 1013 132.258 1194.52 441.972
8 0 89.2216 10.7709 961 136.693 1193.86 436.416
9 0 93.1391 10.6078 988 134.15 1192.96 438.606
10 0 97.1575 11.1263 1081 134.382 1191.74 433.853
11 0 99.255 10.5486 1047 134.519 1193.47 433.433
12 0 102.196 10.0102 1023 135.179 1195.04 429.974
13 0 109.193 10.138 1107 134.984 1193.66 427.443
14 0 112.268 10.8847 1222 132.876 1195.3 425.099
15 0 116.165 11.4406 1329 129.913 1194.38 426.268
16 0 121.24 11.7206 1421 130.615 1194.06 421.519
17 0 125.225 10.3813 1300 136.077 1192.99 416.155
18 1 70.1651 7.06904 496 116.738 1194.61 449.042
19 0 72.1615 6.98433 504 117.397 1194.91 448.524
20 0 77.2433 7.30161 564 115.441 1195.08 447.261
21 0 78.1397 9.02231 705 112.652 1195.51 445.909
22 0 81.3761 6.63586 540 114.254 1194.51 444.917
23 0 81.2065 8.69389 706 111.763 1194.57 439.676
24 0 86.1255 8.61533 742 110.119 1195.52 441.666
25 0 88.1296 7.89746 696 110.341 1195.38 438.858
26 0 89.2685 7.06856 631 112.311 1194.97 438.011
27 0 93.2858 9.16538 855 107.923 1195.23 436.085
28 0 94.1855 6.96498 656 111.543 1195.57 436.419
29 0 103.074 2.07619 214 116.561 1195.62 444.818
30 0 103.181 1.96742 203 118.828 1196.47 436.547
31 0 105.217 7.70789 811 109.322 1195.95 428.51
32 0 102.165 2.22189 227 119.771 1195.11 423.035
33 0 110.377 6.98516 771 109.591 1196.15 424.17
34 0 115.365 4.92352 568 112.252 1195.12 422.894
35 0 112.228 2.78006 312 114.33 1195.23 428.5
36 0 112.208 4.40255 494 118.919 1194.9 435.014
37 0 118.727 7.61409 904 119.469 1193.9 415.554
38 1 38.0733 6.27736 239 102.925 1195.31 465.418
39 0 35.0057 6.77033 237 101.831 1195.41 461.46
40 0 37.0178 3.89002 144 104.035 1194.82 461.049
41 0 36.0213 6.13525 221 98.5023 1196.44 465.005
42 0 35.0032 1.71413 60 105.417 1195.9 466.283
43 0 37.0096 3.83684 142 103.183 1195.98 461.38
44 0 44.028 7.33624 323 96.1115 1196.34 462.195
45 0 42.025 4.68768 197 100.452 1195.49 459.046
46 0 41.0534 4.94478 203 98.7635 1195.42 458.502
47 0 43.0143 5.90501 254 93.0394 1194.59 460.846
48 0 42.0141 5.61717 236 93.3093 1195.12 462.699
49 0 46.0762 5.36068 247 93.7247 1195.21 458.47
50 0 49.0476 6.4835 318 92.2547 1194.5 458.387
51 0 51.0831 8.41765 430 89.9419 1194.7 455.563
52 0 58.0458 5.35784 311 96.1672 1194.49 458.322
53 0 60.0864 5.12595 308 95.7727 1194.69 457.334
54 0 62.1549 9.78202 608 88.3174 1193.99 453.248
55 0 62.1187 10.9146 678 87.3894 1194.8 454.693
56 0 62.1704 9.10401 566 91.2756 1194.26 454.005
57 0 65.2589 9.1635 598 91.2007 1194.85 453.585
58 0 67.1938 9.70327 652 91.112 1194.92 449.621
59 0 67.1314 8.71425 585 93.2718 1194.36 450.684
60 0 73.2161 10.5988 776 90.0735 1193.95 450.29
61 0 73.1019 11.6002 848 90.4741 1193.39 449.788
62 0 74.1062 10.4445 774 93.2403 1193.82 446.364
63 0 78.2822 11.0498 865 92.6832 1193.7 444.603
64 0 79.2213 9.56814 758 96.004 1193.65 443.986
65 0 83.1439 13.194 1097 89.4995 1193.45 438.77
66 0 83.2083 10.5638 879 96.2764 1193.58 438.428
67 0 89.1773 13.49 1203 90.1421 1193.03 436.754
68 0 87.4025 10.4345 912 92.2774 1194.6 441.291
69 0 88.246 11.1053 980 94.2837 1194.36 440.228
70 0 91.1897 9.82567 896 95.4219 1194.07 437.895
71 0 95.2356 11.2983 1076 93.0623 1194.4 432.895
72 0 98.2526 10.2898 1011 95.6845 1193.68 434.962
73 0 100.188 11.3885 1141 95.9763 1193.8 431.38
74 0 103.212 12.5276 1293 95.2428 1194.36 431.09
75 0 104.304 11.572 1207 98.6918 1194.31 430.886
76 0 108.201 12.3196 1333 97.9557 1194.44 426.322
77 1 58.0879 9.95044 578 99.237 1196.29 456.317
78 0 59.0576 9.80399 579 104.727 1195.41 454.955
79 0 63.2648 11.6653 738 100.825 1194.46 444.902
80 0 64.2095 11.6961 751 96.0426 1194.24 445.682
81 0 64.1967 10.094 648 102.386 1194.97 451.313
82 0 67.164 11.3156 760 98.0316 1195.22 450.734
83 0 68.099 11.3658 774 97.5762 1195.61 450.429
84 0 68.1555 10.6815 728 99.2898 1195.37 448.277
85 0 72.1827 11.8727 857 96.7491 1195.38 445.894
86 0 74.0695 11.4892 851 97.51 1195.13 444.935
87 0 75.1845 11.7311 882 97.0669 1195.09 444.571
88 0 75.2278 11.7776 886 97.8623 1195.33 443.884
89 0 81.1686 12.8621 1044 93.8487 1194.61 442.636
90 0 82.1495 13.0494 1072 93.8601 1194.87 440.924
91 0 86.1877 11.7766 1015 95.668 1194.83 440.121
92 0 87.1959 12.2598 1069 94.1908 1195.62 436.444
93 0 89.1308 12.2517 1092 94.5275 1195.1 435.19
94 0 90.1067 11.1978 1009 97.6739 1195.15 436.076
95 0 95.1523 11.676 1111 95.8677 1194.81 436.27
96 0 96.1217 11.6311 1118 96.746 1194.13 432.958
97 0 98.1365 9.96571 978 104.121 1194.43 431.608
98 1 55.1416 11.407 629 94.5024 1193.93 454.48
99 0 55.2228 10.4124 575 89.8574 1194.8 451.812
100 0 55.2228 10.4124 575 136.774 1194.8 451.697
101 0 60.1882 11.1317 670 87.2164 1194.79 448.36
102 0 59.0975 10.9649 648 89.5972 1194.3 445.878
103 0 60.1779 11.6488 701 89.515 1193.95 444.623
104 0 63.2997 11.7536 744 88.5376 1193.72 444.849
105 0 63.0898 11.7135 739 90.5034 1193.35 443.486
106 0 65.1197 11.6094 756 90.6561 1193.29 442.963
107 0 67.0957 12.6238 847 85.8678 1194.05 437.264
108 0 68.0941 12.0862 823 88.0571 1193.7 435.089
109 0 69.0653 11.8728 820 89.4524 1193.05 434.817
110 0 72.0439 12.4924 900 87.9844 1193.58 438.697
111 0 73.113 11.3113 827 91.8525 1193.91 441.352
112 0 74.0768 11.8526 878 92.3098 1193.49 439.647
113 0 77.1614 12.2989 949 91.0969 1193.32 438.19
114 0 80.1113 12.4951 1001 91.4865 1193.65 436.63
115 0 83.1042 12.1895 1013 92.6969 1193.29 437.135
116 0 84.0927 12.4981 1051 93.0714 1193.06 435.968
117 0 86.1364 13.3161 1147 93.3095 1193.34 436.289
118 1 47.0256 12.0573 567 96.351 1193.02 456.728
119 0 47.1606 11.7683 555 98.3928 1193.25 458.231
120 0 47.0818 12.5101 589 97.0679 1193.95 459.025
121 0 50.1365 11.9274 598 99.204 1194.62 458.997
122 0 52.1228 13.6792 713 95.0575 1194.54 457.163
123 0 52.1114 12.2238 637 98.9749 1193.78 459.089
124 0 54.1144 13.4715 729 95.7188 1193.4 457.793
125 0 56.1206 13.2928 746 97.4571 1193 455.987
126 0 58.1943 14.1079 821 94.8514 1193.59 457.141
127 0 58.1396 12.7796 743 98.0323 1192.61 446.759
128 0 60.0499 13.2057 793 97.889 1192.9 449.18
129 0 61.0669 13.2642 810 98.8222 1192.59 446.632
130 0 66.0605 14.1688 936 94.5513 1193.06 444.903
131 0 67.0344 16.2603 1090 89.5945 1192.61 439.819
132 0 70.0978 14.8079 1038 91.3478 1193.77 433.94
133 0 75.2051 17.3658 1306 84.9318 1192.7 431.207
134 0 76.1098 16.9361 1289 86.7176 1192.71 432.753
135 0 78.0658 15.2307 1189 90.3726 1193.37 431.281
136 0 80.1567 16.5426 1326 88.1297 1193.36 428.93
137 0 81.1527 17.5595 1425 86.4133 1192.68 426.143
138 0 81.2214 16.9167 1374 88.6296 1193.5 427.983
139 0 80.1949 14.2902 1146 96.562 1193.21 428.61
140 0 82.116 13.895 1141 99.0035 1193.57 429.877
141 1 44.1545 10.1235 447 104.779 1193.69 450.031
142 0 46.0881 11.0658 510 103.057 1193.43 449.867
143 0 48.0361 11.762 565 99.6867 1193.89 448.765
144 0 48.0471 12.4461 598 100.916 1193.92 448.147
145 0 49.0611 12.5965 618 97.4547 1193.88 449.673
146 0 51.1055 12.2296 625 98.1824 1193.67 450.829
147 0 53.0673 13.8692 736 96.375 1193.39 450.643
148 0 54.0679 13.4646 728 97.8668 1193.6 449.272
149 0 56.0683 13.216 741 99.1903 1193.82 447.34
150 0 57.1168 13.3411 762 99.4567 1193.97 445.844
151 0 60.0959 12.6964 763 100.606 1192.74 445.151
152 0 58.0522 12.661 735 100.441 1193.07 435.65
153 0 64.0366 17.0059 1089 88.1965 1194.05 427.413
154 0 66.0681 14.1521 935 96.3027 1193.46 429.864
155 0 65.0596 12.4347 809 103.601 1192.98 432.169
156 0 67.1143 11.324 760 105.268 1192.96 431.964
157 0 70.0734 14.4135 1010 98.5802 1193.79 429.735
158 0 70.1425 12.2037 856 103.189 1192.97 426.866
159 0 72.1161 13.0207 939 101.397 1192.14 428.514
160 0 76.0769 13.3023 1012 101.761 1192.43 424.708
161 0 77.057 12.1858 939 104.931 1192.63 423.889
162 0 79.1295 12.7765 1011 103.682 1192.63 423.339
163 0 82.0693 12.3676 1015 104.819 1192.16 421.094
164 0 87.1337 12.3488 1076 103.99 1192.23 420.777
165 1 46.0908 10.1539 468 102.455 1192.15 442.015
166 0 49.1215 11.0339 542 98.2362 1192.37 448.773
167 0 48.0651 11.6925 562 95.2135 1192.62 453.39
168 0 50.0852 11.0412 553 96.5913 1192.4 457.461
169 0 50.0586 10.208 511 97.7221 1192.78 458.098
170 0 54.1116 11.4763 621 94.4332 1192.74 455.789
171 0 56.0883 11.4462 642 94.6246 1193.08 452.916
172 0 56.1256 11.6168 652 93.9862 1192.96 452.704
173 0 58.1496 11.9863 697 92.7661 1192.67 450.293
174 0 60.202 10.8136 651 92.957 1192.39 453.674
175 0 61.235 10.5658 647 93.1623 1191.75 452.433
176 0 67.1998 11.5477 776 90.4265 1191.59 451.852
177 0 70.2253 11.7906 828 92.1727 1192.42 445.83
178 0 73.2981 12.0876 886 94.9549 1192.7 442.247
179 0 76.3014 12.1361 926 95.6091 1192.73 440.052
180 0 77.1941 12.8119 989 94.725 1192.5 441.78
181 0 80.196 12.2076 979 95.5873 1192.32 440.393
182 0 86.3111 13.7294 1185 90.8498 1191.87 438.062
183 0 86.2036 10.9276 942 92.7558 1192.65 439.559
184 0 87.0908 11.2067 976 93.1854 1192.78 432.697
185 0 92.197 10.8789 1003 93.7318 1192.55 428.381
186 0 97.1683 11.5779 1125 91.3351 1193.01 431.67
187 0 99.5111 11.2751 1122 92.9314 1193.28 429.725
188 1 47.1345 9.44106 445 88.836 1192.28 454.64
189 0 52.2187 10.7816 563 90.0959 1192.73 459.167
190 0 54.1998 11.5499 626 89.2971 1192.53 459.013
191 0 51.2407 9.75787 500 90.686 1193.09 460.236
192 0 51.1466 9.22837 472 90.8369 1193.62 462.015
193 0 53.1795 10.6996 569 90.529 1193.53 459.288
194 0 54.1578 10.137 549 92.2987 1193.56 459.488
195 0 57.4254 11.232 645 90.8062 1192.9 457.451
196 0 58.1304 11.5602 672 91.811 1192.78 456.28
197 0 60.1581 11.8854 715 92.3105 1192.63 451.744
198 0 62.1552 10.0233 623 95.8523 1193.06 451.941
199 0 64.1244 10.5108 674 97.3991 1192.64 448.478
200 0 64.3231 10.9914 707 97.7171 1192.73 450.736
201 0 67.1494 9.12889 613 100.326 1193.2 453.21
202 0 68.1314 11.6099 791 99.2592 1192.72 444.857
203 0 71.2288 10.6418 758 99.5541 1192.82 449.024
204 0 73.166 11.1254 814 99.973 1192.9 445.828
205 0 77.2129 12.1094 935 98.3433 1192.71 443.997
206 0 79.1606 11.5461 914 100.295 1191.94 443.776
207 0 83.1744 11.8546 986 100.279 1192.95 441.558
208 0 80.184 11.7605 943 100.46 1192.98 442.667
209 0 87.1353 11.9584 1042 99.404 1192.1 432.605
210 1 50.0757 10.9634 549 92.9599 1193.27 440.395
211 0 52.0528 10.4893 546 94.6264 1193.3 437.401
212 0 55.0658 11.8222 651 92.5622 1194.05 442.728
213 0 55.1052 10.3801 572 96.708 1191.85 440.484
214 0 59.1032 12.1313 717 94.0112 1194.19 443.826
215 0 59.1742 10.9845 650 98.1369 1193.4 447.888
216 0 61.2373 11.4473 701 97.495 1193.1 447.857
217 0 64.2094 12.3035 790 95.8354 1192.45 447.216
218 0 68.112 14.4028 981 89.9368 1192.41 444.805
219 0 73.2436 14.7863 1083 87.2465 1193.03 441.843
220 0 73.1738 13.8438 1013 91.5094 1192.94 442.251
221 0 73.1777 15.0319 1100 91.2073 1192.95 440.8
222 0 74.2721 14.2988 1062 93.2731 1193.51 440.518
223 0 78.1706 15.4406 1207 91.0605 1192.53 440.532
224 0 77.1481 13.0399 1006 98.8748 1192.09 439.072
225 0 79.2146 13.1794 1044 97.7021 1193.48 443.194
226 0 82.2866 13.2221 1088 98.8125 1193.1 442.991
227 0 84.1668 13.1406 1106 98.2938 1192.94 444.739
228 0 87.3577 13.0841 1143 99.1689 1192.71 440.512
229 0 90.2606 12.7963 1155 100.351 1192.55 437.152
230 0 94.2805 12.8128 1208 100 1192.63 433.682
231 1 47.046 9.62887 453 102.201 1193.35 452.967
232 0 50.0996 10.7386 538 97.1822 1193.17 448.786
233 0 51.0723 12.5313 640 93.6297 1193.38 450.231
234 0 51.0611 11.5744 591 99.6904 1193.95 450.848
235 0 55.0818 12.781 704 96.7159 1193.99 450.666
236 0 57.1882 12.7124 727 96.1871 1192.91 448.351
237 0 60.2552 13.1939 795 93.4314 1193.38 449.692
238 0 60.1234 12.7737 768 95.4531 1193.11 448.026
239 0 61.1067 14.041 858 92.9114 1192.78 445.437
240 0 63.0869 13.9807 882 93.0215 1192.1 444.719
241 0 64.1199 11.6812 749 97.1188 1192.36 443.652
242 0 67.1978 13.0362 876 94.9966 1192.67 440.783
243 0 68.1451 12.6935 865 95.1376 1192.49 443.386
244 0 71.1066 13.2758 944 94.1282 1192.91 440.381
245 0 73.1535 12.5079 915 95.9716 1193.11 440.274
246 0 83.0908 20.7243 1722 76.6051 1192.7 429.491
247 0 83.1078 15.149 1259 89.4424 1192.59 432.528
248 0 80.1453 13.6876 1097 97.113 1192.26 435.062
249 0 84.1411 13.822 1163 96.9708 1192.99 439.438
250 0 85.1572 13.7393 1170 97.8598 1192.45 439.33
251 0 89.1868 13.7016 1222 98.0303 1193.16 438.808
252 0 90.2154 11.8383 1068 103.25 1192.94 431.552
253 1 47.0925 10.6811 503 100.048 1193.51 451.765
254 0 49.1383 12.2104 600 94.1033 1193.92 450.775
255 0 50.0845 11.3608 569 92.7135 1192.37 444.601
256 0 52.1037 13.2812 692 91.1243 1192.75 449.322
257 0 54.0878 11.962 647 98.7991 1193.05 450.72
258 0 56.1185 13.0617 733 96.648 1193.23 449.445
259 0 57.1195 12.3776 707 97.843 1193.38 450.256
260 0 59.1404 13.5779 803 96.9552 1192.66 448.176
261 0 58.0578 12.4359 722 99.2202 1193.53 451.03
262 0 62.118 14.392 894 94.245 1193.63 448.374
263 0 64.1137 14.0532 901 95.2697 1193.19 448.084
264 0 66.128 12.128 802 99.5898 1193.11 451.615
265 0 69.1231 13.6423 943 96.86 1193.09 445.768
266 0 71.1337 14.1846 1009 95.9078 1193.2 444.11
267 0 73.1283 14.5088 1061 96.1885 1192.05 441.934
268 0 77.1612 15.6426 1207 94.3173 1192.83 442.072
269 0 77.1599 13.0379 1006 101.463 1192.98 439.715
270 0 86.101 15.8186 1362 92.2092 1192.22 435.178
271 0 83.1858 13.5961 1131 100.836 1193.19 438.569
272 0 83.1858 13.572 1129 148.166 1194.19 438.62
273 0 90.2166 13.7558 1241 99.7397 1192.13 434.808
274 0 92.2349 13.1621 1214 101.407 1193 435.464
275 0 94.1528 13.7649 1296 100.674 1192.7 437.032
276 0 98.1813 14.1677 1391 99.6499 1193.63 435.308
277 0 101.197 12.7277 1288 102.732 1192.89 435.311
278 0 103.12 14.7013 1516 99.5653 1193.18 432.346
279 0 107.231 13.0093 1395 103.285 1193 432.194
280 1 58.1233 11.8369 688 98.7791 1193.85 455.544
281 0 61.2688 13.4979 827 95.3664 1193.54 453.763
282 0 62.1319 12.7954 795 99.1082 1192.97 454.497
283 0 67.1785 13.1441 883 98.2163 1193.44 452.736
284 0 69.1487 14.3604 993 95.5901 1192.75 449.82
285 0 68.1544 12.3103 839 95.9023 1193.15 451.418
286 0 70.2733 12.4798 877 96.618 1193.73 449.985
287 0 70.1406 11.8761 833 98.0468 1193.44 450.095
288 0 74.2079 12.5324 930 96.7591 1193.97 448.739
289 0 79.0907 12.5173 990 96.7303 1193.54 445.882
290 0 82.2498 12.3648 1017 96.9204 1193.07 447.311
291 0 84.2289 12.193 1027 97.3398 1193.7 445.873
292 0 88.2122 12.0732 1065 96.9624 1193.42 444.386
293 0 90.2626 13.0065 1174 96.9625 1192.81 441.169
294 0 93.2119 12.2838 1145 98.6271 1192.61 439.031
295 0 97.3908 13.0916 1275 96.8102 1193.6 436.342
296 0 101.147 12.6054 1275 97.1365 1193.4 437.275
297 0 101.257 10.8437 1098 100.418 1193.02 433.787
298 0 107.099 12.101 1296 98.6543 1192.64 431.623
299 1 60.2427 12.1509 732 99.3279 1193.36 454.519
300 0 62.1918 11.0143 685 98.2029 1192.61 452.939
301 0 66.0967 12.8902 852 98.777 1192.58 452.63
302 0 70.1812 12.0403 845 98.1929 1192.87 450.399
303 0 70.1561 12.5577 881 98.6788 1193.22 448.305
304 0 75.2435 12.2801 924 98.2522 1193.38 448.207
305 0 74.209 11.508 854 100.596 1193.97 448.306
306 0 74.209 11.5889 860 143.009 1194.99 448.219
307 0 81.1908 11.9348 969 98.9979 1193.63 445.9
308 0 84.1385 12.7647 1074 97.8585 1193.3 442.801
309 0 87.1551 12.2425 1067 98.8847 1193.72 442.201
310 0 90.1525 12.1239 1093 99.4575 1193.33 441.443
311 0 93.3155 11.0164 1028 101.769 1193.73 439.729
312 0 96.1916 12.3296 1186 99.7175 1193.83 436.075
313 0 99.1458 11.7705 1167 100.458 1193.65 437.294
314 0 105.239 12.0868 1272 99.9819 1193.44 434.748
315 1 53.0936 10.2272 543 98.6206 1194.13 458.379
316 0 54.2681 10.8351 588 96.4541 1193.97 459.316
317 0 57.2972 12.1996 699 95.1502 1194.13 458.389
318 0 58.2506 12.4806 727 89.5433 1194.12 458.392
319 0 60.2261 12.5859 758 89.1385 1194.16 456.165
320 0 60.1984 11.1299 670 92.897 1194.94 458.363
321 0 62.197 12.8784 801 90.362 1194.28 454.941
322 0 65.1938 13.7896 899 88.5951 1194.31 455.152
323 0 68.2955 11.8749 811 92.0173 1194.36 451.859
324 0 70.1976 12.8352 901 90.5916 1194.09 451.275
325 0 72.2492 14.1732 1024 88.582 1194.71 451.207
326 0 72.2334 12.3212 890 93.8022 1193.55 451.167
327 0 72.246 12.8588 929 98.8934 1194.08 451.58
328 0 80.1821 12.2596 983 99.5819 1193.75 446.546
329 0 80.2376 12.0268 965 101.592 1194.22 444.742
330 0 83.227 11.5588 962 102.202 1193.97 444.595
331 0 86.2941 11.3333 978 100.337 1193.53 442.77
332 0 91.099 12.0638 1099 91.1365 1193.4 426.438
333 0 93.2662 11.8264 1103 93.5385 1193.23 422.199
334 0 96.1921 11.4458 1101 95.4278 1193.32 422.057
335 1 49.0903 11.9372 586 91.1246 1194.15 447.16
336 0 49.1757 10.7167 527 95.9507 1193.97 445.97
337 0 53.0431 12.5747 667 92.7361 1194.41 449.691
338 0 52.1044 11.5921 604 102.361 1194.23 454.354
339 0 54.0863 13.0347 705 100.326 1193.79 450.828
340 0 54.153 13.0925 709 100.419 1193.89 450.086
341 0 56.0942 12.1225 680 101.079 1193.51 450.376
342 1 87.0594 6.5932 574 104.395 1194.43 448.394
343 0 91.2859 9.81531 896 92.2031 1194.4 443.483
344 0 90.1919 11.6862 1054 87.5939 1193.47 443.205
345 0 87.0783 12.2419 1066 89.0572 1192.82 438.546
346 0 92.4764 15.658 1448 77.6374 1192.7 428.155
347 0 88.1768 12.4976 1102 89.6624 1193.29 434.99
348 0 87.0692 13.3457 1162 89.7358 1193.99 436.904
349 0 81.197 17.0326 1383 84.4953 1193.02 433.607
350 0 82.1927 16.9602 1394 85.1829 1194.02 430.238
351 0 84.1217 15.8699 1335 89.397 1193.24 433.522
352 0 84.093 17.5401 1475 86.2847 1192.91 429.906
353 0 84.0784 16.9128 1422 88.8706 1192.95 431.62
354 0 81.1583 13.8988 1128 98.4025 1192.02 433.058
355 0 83.2422 12.2534 1020 103.406 1192.43 434.571
356 0 83.1069 13.3322 1108 102.401 1193.43 433.546
357 0 87.1619 12.2531 1068 103.226 1193.19 432.602
358 0 89.1633 11.8771 1059 103.912 1193.14 431.52
359 0 95.1912 15.4741 1473 95.943 1192.92 428.549
360 0 97.067 13.7843 1338 101.695 1193.26 430.193
361 0 98.1533 13.4993 1325 103.012 1192.85 424.136
362 0 105.084 13.3132 1399 100.386 1192.76 422.771
363 1 57.0417 12.8502 733 93.1924 1193.6 445.296
364 0 58.0585 11.764 683 95.8053 1192.83 445.085
365 0 59.0472 12.7525 753 98.5232 1193.82 444.705
366 0 61.0963 12.7995 782 98.8453 1193.92 447.06
367 0 61.0653 11.152 681 103.802 1193.25 447.022
368 0 66.0466 12.7183 840 99.5107 1194.26 448.263
369 0 68.0855 14.379 979 97.857 1194.24 445.114
370 0 70.1211 12.9348 907 100.878 1194.42 447.499
371 0 73.1148 12.6924 928 102.151 1193.91 445.864
372 0 74.1378 14.7293 1092 99.4689 1194.64 443.136
373 0 76.0787 12.9208 983 102.365 1194.48 445.612
374 0 81.1399 14.6291 1187 98.2755 1194.69 443.66
375 0 81.104 13.8588 1124 101.172 1193.87 443.865
376 0 85.1098 15.0746 1283 98.1146 1193.62 444.157
377 0 85.1621 12.7052 1082 106.094 1193.88 438.539
378 0 90.0579 13.78 1241 102.98 1194 440.32
379 0 92.1169 12.7772 1177 105.394 1193.13 437.65
380 0 96.264 13.0786 1259 104.882 1193.21 436.102
381 0 99.1672 13.5529 1344 105.283 1193.12 434.729
382 1 56.1344 11.8822 667 103.088 1193.94 455.714
383 0 58.0415 12.4394 722 102.186 1193.97 454.759
384 0 58.0669 11.7623 683 105.266 1193.25 451.619
385 0 60.0672 12.769 767 100.746 1194.41 453.957
386 0 60.1102 12.1444 730 107.329 1192.97 454.971
387 0 63.0863 12.1738 768 107.198 1192.91 452.78
388 0 66.1354 12.3383 816 106.675 1193.4 450.949
389 0 68.2308 12.8241 875 105.021 1192.91 451.16
390 0 70.0837 11.7288 822 106.714 1193.11 449.844
391 0 74.1148 13.6545 1012 102.351 1193.69 450.584
392 0 74.2119 12.37 918 107.582 1194 448.15
393 0 77.0825 12.9472 998 106.563 1193.64 447.122
394 0 78.2804 12.979 1016 106.591 1193.13 447.406
395 0 82.0507 13.6257 1118 105.979 1192.81 442.292
396 0 85.214 12.8852 1098 107.21 1192.66 441.782
397 0 87.2649 12.3303 1076 108.091 1193.2 440.807
398 0 91.1644 12.2636 1118 107.789 1193.62 437.878
399 1 51.0679 10.8875 556 103.424 1194.05 458.482
400 0 52.0222 11.4374 595 103.202 1193.73 457.876
401 0 53.0336 12.2941 652 98.1518 1193.77 460.221
402 0 54.1209 12.6569 685 96.7022 1193.67 459.239
403 0 52.0858 11.3659 592 100.669 1193.27 459.059
404 0 53.0926 11.1127 590 100.771 1192.82 459.088
405 0 56.0886 11.0539 620 99.9726 1193.94 457.579
406 0 59.0721 13.6105 804 93.9428 1193.4 457.953
407 0 59.1404 11.9208 705 98.1972 1193.76 456.312
408 0 60.1047 11.9791 720 98.3958 1193.87 453.522
409 0 63.0845 11.9047 751 97.0839 1193.62 454.748
410 0 64.1091 11.4024 731 97.8112 1193.4 455.986
411 0 66.1741 10.2004 675 100.23 1192.94 454.043
412 0 70.0483 11.8204 828 97.6039 1192.58 452.568
413 0 70.12 11.5374 809 99.288 1192.57 449.352
414 0 74.091 12.4307 921 97.4289 1192.39 450.123
415 0 77.1829 12.1789 940 99.1745 1192.77 446.163
416 0 79.1364 11.6002 918 100.647 1192.22 444.956
417 0 82.0804 11.44 939 99.9776 1191.69 439.778
418 0 85.1335 10.8183 921 100.495 1192.66 443.619
419 0 89.1302 10.6249 947 100.565 1193.35 442.166
420 0 93.1218 11.8554 1104 96.8623 1193.09 438.656
421 1 48.0244 10.224 491 98.3299 1193.86 461.098
422 0 50.033 10.7129 536 96.3452 1193.56 459.203
423 0 51.0372 11.6778 596 94.1141 1192.79 459.681
424 0 51.0647 10.614 542 95.9834 1193.22 457.373
425 0 55.0633 11.4232 629 93.523 1192.74 457.011
426 0 54.1546 12.1319 657 92.0807 1192.51 459.959
427 0 55.1248 9.66898 533 96.8086 1193.3 458.503
428 0 59.1288 10.1304 599 94.9249 1193.98 457.99
429 0 60.1701 11.9328 718 92.0446 1193.44 454.451
430 0 62.0845 11.5327 716 92.3869 1193.52 454.479
431 0 65.067 11.2038 729 92.107 1193.03 456.85
432 0 66.1278 11.6139 768 92.5143 1193.5 452.383
433 0 71.113 11.7137 833 92.7635 1193.54 449.037
434 0 74.1784 12.3891 919 90.6366 1193.04 449.539
435 0 76.0739 11.5283 877 92.5713 1193.45 448.156
436 0 79.0997 12.5285 991 91.6852 1192.86 446.082
437 0 82.1972 12.5673 1033 91.6176 1193.47 446.775
438 0 84.0992 12.7112 1069 91.8485 1192.7 445.091
439 0 89.156 12.5847 1122 93.0071 1192.23 445.239
440 1 50.0358 12.591 630 96.5556 1192.58 461.992
441 0 51.2214 12.0458 617 98.2658 1192.62 461.272
442 0 50.0489 11.4888 575 98.8922 1193.15 460
443 0 56.2263 11.8984 669 99.0254 1193.04 459.46
444 0 56.0811 11.9113 668 99.9087 1194.07 457.728
445 0 59.1752 12.4883 739 98.3978 1192.48 457.651
446 0 60.1853 13.0098 783 98.6322 1193.01 457.415
447 0 63.1526 13.602 859 97.2631 1193.34 454.915
448 0 64.0932 12.6846 813 99.7085 1193.09 453.37
449 0 67.0524 13.7355 921 97.4365 1192.41 452.405
450 0 68.2666 11.5869 791 101.843 1192.47 452.506
451 0 72.1358 12.6428 912 100.24 1192.43 449.846
452 0 73.088 11.9582 874 102.477 1192.71 444.071
453 0 76.0724 13.29 1011 99.9159 1192.82 441.286
454 0 78.1136 13.0707 1021 100.601 1193.14 437.41
455 0 82.1524 13.548 1113 99.1357 1192.63 441.255
456 0 84.0723 13.1791 1108 101.01 1192.06 436.927
457 0 85.1306 13.168 1121 101.462 1192.18 435.924
458 0 89.0437 13.2632 1181 100.854 1191.97 434.754
459 0 92.1154 13.7002 1262 100.063 1192.21 434.178
460 0 95.0498 13.9716 1328 100.025 1192.41 433.384
461 0 100.072 14.1498 1416 99.1596 1192.23 433.033
462 0 101.129 13.3493 1350 102.13 1192.92 434.405
463 1 56.151 11.4335 642 99.419 1192.42 452.494
464 0 57.0351 12.1855 695 97.2504 1192.67 448.515
465 0 59.056 12.6998 750 95.0933 1192.61 445.916
466 0 61.1452 11.5953 709 97.2412 1192.75 447.172
467 0 63.0566 13.0676 824 98.1396 1193.06 447.267
468 0 64.1925 13.7399 882 101.629 1193.24 447.632
469 0 66.2419 13.1639 872 103.119 1193.07 445.287
470 0 70.0932 14.3095 1003 100.171 1192.53 445.127
471 0 71.0669 12.7063 903 104.217 1193.1 443.981
472 0 72.1164 12.8958 930 105.243 1193.14 443.712
473 0 74.0703 13.0147 964 104.004 1192.7 443.557
474 0 77.1102 13.2278 1020 104.319 1192.5 440.274
475 0 81.0432 13.7581 1115 102.614 1192.52 441.699
476 0 83.0782 13.6257 1132 102.438 1192.65 440.269
477 0 86.0957 13.6128 1172 101.948 1193.83 437.91
478 0 89.102 13.5014 1203 102.106 1193.67 438.771
479 1 47.0605 11.4746 540 102.146 1193.21 459.848
480 0 50.0897 11.7789 590 100.524 1193.16 459.958
481 0 52.1012 12.9364 674 98.1261 1193.63 456.702
482 0 52.2365 12.5966 658 99.0502 1192.68 458.631
483 0 56.1365 12.523 703 99.5064 1192.94 458.93
484 0 55.0787 12.4549 686 99.965 1192.54 458.08
485 0 55.078 11.7107 645 101.433 1193.39 455.922
486 0 59.0703 11.9349 705 99.6752 1193.17 455.909
487 0 63.0706 13.3977 845 95.7669 1193.71 452.664
488 0 64.0926 12.1699 780 98.1808 1192.74 452.567
489 0 67.0971 12.9812 871 95.9552 1193.07 452.121
490 0 70.0692 12.7445 893 95.6349 1192.23 451.289
491 0 72.1266 13.5318 976 95.8914 1193.2 450.956
492 0 72.061 11.2821 813 101.726 1193.13 451.418
493 0 73.0654 11.6608 852 102.112 1193 449.354
494 0 75.0389 11.4607 860 102.464 1192.99 448.433
495 0 79.136 12.0931 957 101.864 1193.26 443.949
496 0 83.0973 12.7682 1061 101.704 1193.36 439.981
497 0 85.1246 12.2761 1045 101.506 1193.38 444.118
498 0 90.0961 13.5633 1222 98.7185 1192.88 441.071
499 0 91.0823 13.0871 1192 101.248 1192.97 439.364
500 0 95.2035 13.8335 1317 100.132 1193.31 438.246
501 0 96.0654 13.1161 1260 102.98 1192.18 436.761
502 0 99.0821 12.313 1220 105.495 1192.56 436.268
503 0 105.064 14.3436 1507 101.193 1192.38 434.545
504 0 108.213 14.3605 1554 102.171 1192.15 432.755
505 1 57.1473 11.8466 677 107.236 1191.52 456.347
506 0 61.0943 13.651 834 103.537 1192.45 454.88
507 0 63.0907 12.9496 817 105.188 1192.02 452.775
508 0 64.0162 12.6999 813 107.023 1192.47 456.492
509 0 68.0587 13.5618 923 104.921 1192.96 455.009
510 0 70.0499 12.4911 875 108.265 1192.49 452.258
511 0 74.1076 13.7098 1016 104.628 1193.17 452.029
512 0 74.1026 12.5907 933 108.179 1192.74 450.414
513 0 76.0486 12.5972 958 108.442 1193.09 447.133
514 0 80.0886 13.6848 1096 106.619 1192.64 443.554
515 0 82.1442 14.0241 1152 106.018 1193 443.142
516 0 85.0924 14.2551 1213 106.138 1192.51 441.444
517 0 87.0833 14.2737 1243 105.648 1192.72 442.614
518 0 92.1476 13.6737 1260 106.967 1192.63 441.567
519 0 94.2047 13.1416 1238 110.687 1192.82 439.077
520 0 96.068 13.4904 1296 110.449 1193.29 438.558
521 0 100.117 13.674 1369 109.281 1192.43 438.365
522 0 103.127 14.1864 1463 110.617 1192.39 433.894
523 0 106.123 13.6728 1451 111.16 1192.34 433.937
524 0 110.177 14.4223 1589 110.239 1192.09 433.254
525 0 114.106 14.1447 1614 110.875 1193.29 431.947
526 0 120.128 15.2837 1836 108.222 1193.22 428.878
527 0 123.217 13.5452 1669 112.665 1193.33 428.679
528 0 128.128 14.5792 1868 111.814 1192.71 423.915
529 0 132.123 14.8574 1963 111.791 1192.81 420.496
530 1 72.0883 14.3296 1033 108.528 1192.51 449.887
531 0 74.0943 13.5908 1007 110.746 1192.56 448.842
532 0 75.1118 13.2735 997 112.911 1192.14 445.857
533 0 80.2097 14.1753 1137 109.332 1192.22 446.697
534 0 81.0868 13.726 1113 112.208 1192.89 443.89
535 0 85.0998 13.7016 1166 111.064 1192.23 444.493
536 0 87.1251 13.0502 1137 112.721 1192.21 443.132
537 0 88.115 13.8569 1221 112.401 1192.72 441.337
538 0 93.0548 13.7553 1280 111.773 1192.73 442.216
539 0 95.1533 13.4099 1276 113.806 1192.75 438.096
540 0 99.084 13.0596 1294 113.448 1193.29 437.864
541 0 101.125 14.7738 1494 110.656 1192.29 435.876
542 0 105.095 13.7589 1446 113.304 1192.08 432.589
543 0 110.203 13.3209 1468 114.352 1192.35 430.441
544 0 115.279 13.7233 1582 113.597 1192.13 428.838
545 1 60.1367 11.3408 682 110.043 1192.52 456.71
546 0 61.1505 11.7088 716 110.547 1193.58 454.163
547 0 64.0679 12.0185 770 109.545 1193.45 453.343
548 0 66.0553 11.6872 772 110.604 1193.56 450.861
549 0 68.0671 11.8706 808 109.981 1193.24 449.322
550 0 72.0736 11.0581 797 110.836 1192.69 447.767
551 0 73.1107 12.1186 886 108.217 1192.77 446.624
552 0 74.2055 12.3441 916 108.362 1192.96 444.318
553 0 79.1165 12.1719 963 107.536 1192.87 444.02
554 0 84.1117 13.1016 1102 104.335 1192.97 443.136
555 0 87.0991 13.0196 1134 101.239 1193.49 445.431
556 0 86.1143 12.1583 1047 107.237 1192.88 445.394
557 0 87.1396 12.5775 1096 109.193 1192.61 444.196
558 0 89.1127 12.9723 1156 102.924 1193.32 443.549
559 0 90.1162 12.3174 1110 107.254 1193.85 443.33
560 0 91.2136 13.0463 1190 106.589 1192.81 442.068
561 0 91.1392 11.8171 1077 110.863 1192.67 441.322
562 0 91.2607 11.8781 1084 111.559 1192.09 442.357
563 1 46.1059 11.0398 509 109.305 1192.72 465.564
564 0 47.0353 10.5453 496 111.071 1191.91 464.754
565 0 48.0736 12.0648 580 108.079 1192.78 464.824
566 0 50.0652 12.4038 621 108.636 1192.41 465.034
567 0 48.166 10.8168 521 113.298 1192.77 465.693
568 0 51.0636 12.2396 625 108.568 1193.44 465.104
569 0 52.0786 10.945 570 109.688 1193.09 464.886
570 0 56.1608 11.6451 654 106.784 1193.34 463.787
571 0 56.1713 11.5539 649 107.565 1192.9 461.67
572 0 59.233 12.7294 754 104.408 1192.38 459.464
573 0 60.1488 11.8207 711 106.726 1193.18 460.346
574 0 61.3024 11.9082 730 107.119 1193 460.015
575 0 62.2122 11.7662 732 109.333 1193.08 460.439
576 0 66.1714 12.513 828 108.167 1193.22 459.435
577 0 69.3783 13.2895 922 107.619 1192.73 457.397
578 0 69.1786 13.111 907 110.505 1192.78 455.514
579 0 71.2126 12.0906 861 114.437 1192.73 457.031
580 0 72.2869 12.1737 880 118.084 1192.35 455.24
581 0 73.2495 12.6554 927 119.811 1191.95 452.578
582 0 75.1134 11.2497 845 124.157 1191.55 449.762
583 0 80.0541 12.8788 1031 119.233 1192.54 448.227
584 0 84.1144 12.8397 1080 118.656 1192.5 447.945
585 1 45.1315 10.6577 481 116.555 1192.83 466.333
586 0 45.0588 11.4739 517 116.88 1192.6 464.05
587 0 47.1531 11.3672 536 120.657 1192.77 465.683
588 0 47.0474 11.5203 542 123.055 1192.73 464.033
589 0 49.0336 11.0333 541 125.433 1192.75 465.316
590 0 51.0874 11.3139 578 123.581 1192.46 464.261
591 0 49.0286 10.9324 536 126.269 1193.62 464.631
592 0 51.1699 11.7061 599 124.841 1192.9 462.307
593 0 52.0769 12.3663 644 122.761 1192.49 460.873
594 0 54.0717 12.0396 651 123.705 1192.34 459.089
595 0 54.0224 11.014 595 127.198 1192.05 459.146
596 0 58.041 11.4402 664 123.675 1191.72 457.41
597 0 58.0506 11.4555 665 123.359 1191.88 458.244
598 0 60.061 11.9545 718 122.17 1192.63 457.286
599 0 61.2153 11.3534 695 124.496 1192.1 455.788
600 0 63.152 12.2245 772 121.14 1191.83 451.951
601 0 64.0594 11.4113 731 123.446 1192.19 450.621
602 0 67.0963 14.9487 1003 112.96 1192.21 447.81
603 0 69.0739 11.7845 814 121.662 1191.72 448.258
604 0 70.1987 12.0942 849 121.406 1192.27 448.207
605 0 73.0382 12.4045 906 119.687 1191.92 445.599
606 0 74.2947 12.9215 960 119.943 1192.12 444.647
607 0 76.1896 13.3876 1020 117.951 1193.18 441.745
608 0 78.097 12.382 967 120.862 1192.7 441.568
609 0 80.1 13.196 1057 119.931 1192.28 438.376
610 0 83.1064 12.5622 1044 121.08 1192.69 438.812
611 0 85.1036 12.9019 1098 120.779 1192.05 437.945
612 0 90.1242 13.1041 1181 119.493 1192.02 437.517
613 0 92.07 12.7946 1178 120.593 1192.29 434.443
614 0 97.1774 13.285 1291 120.447 1192.06 435.423
615 0 101.153 14.1667 1433 119.294 1192.18 437.481
616 1 56.1272 11.2958 634 117.511 1192.59 462.11
617 0 59.2004 12.483 739 114.578 1192 459.195
618 0 57.116 11.4854 656 124.694 1191.69 458.576
619 0 62.064 12.4388 772 120.35 1191.59 457.571
620 0 63.1129 13.1986 833 118.144 1191.99 457.822
621 0 67.1459 12.3909 832 118.578 1191.94 456.072
622 0 68.1309 12.0503 821 119.244 1191.95 456.871
623 0 69.0529 11.4405 790 122.789 1190.96 452.686
624 0 74.0901 12.8222 950 116.901 1192 453.472
625 0 77.07 11.8464 913 118.382 1191.62 452.837
626 0 79.0885 14.0855 1114 113.79 1191.52 448.59
627 0 81.1209 11.8712 963 117.727 1191.68 450.439
628 0 85.0781 12.6237 1074 117.379 1191.56 446.767
629 0 87.1274 11.8447 1032 119.078 1190.96 445.229
630 1 48.0514 10.6761 513 112.14 1192.22 467.283
631 0 53.0764 11.3798 604 109.474 1191.86 466.245
632 0 50.138 11.1492 559 117.075 1192.26 464.417
633 0 50.0978 11.3977 571 110.834 1191.9 464.208
634 0 54.1463 11.1365 603 110.849 1192.13 463.032
635 0 55.0663 10.6417 586 112.625 1191.75 461.483
636 0 57.0458 9.99197 570 112.319 1192.08 463.23
637 0 60.1503 11.0224 663 109.439 1192.22 461.94
638 0 61.2205 11.3851 697 109.455 1191.81 459.149
639 0 64.0563 11.646 746 108.531 1191.66 458.749
640 0 65.0997 11.7666 766 107.561 1192.24 458.997
641 0 67.1311 10.8444 728 110.133 1191.71 458.534
642 0 69.1117 10.4179 720 112.14 1191.61 454.635
643 0 73.0929 11.6017 848 109.401 1191.72 453.291
644 0 74.1438 9.79178 726 112.405 1192.03 455.901
645 0 79.1058 11.6426 921 109.858 1191.98 451.295
646 0 80.0951 12.173 975 109.848 1192.55 449.549
647 0 81.1807 10.7907 876 114.022 1192.24 449.008
648 0 86.2205 12.3404 1064 110.527 1191.96 446.587
649 1 50.0949 10.8993 546 112.731 1192.05 463.696
650 0 53.141 12.3633 657 110.052 1193.13 460.591
651 0 53.0933 11.6964 621 109.646 1192.32 462.38
652 0 54.1139 11.3464 614 111.042 1192.4 462.86
653 0 56.1736 12.4614 700 107.861 1192.69 462.633
654 0 56.111 11.8337 664 111.062 1192.59 461.538
655 0 56.0462 10.9374 613 113.109 1191.38 462.798
656 0 57.1202 10.4691 598 117.045 1191.23 459.308
657 0 58.1119 11.9425 694 113.656 1192.04 458.543
658 0 61.0828 11.8691 725 111.869 1191.83 459.789
659 0 60.1027 11.3473 682 114.853 1192 459.399
660 0 63.1114 10.0933 637 118.319 1191.79 455.931
661 0 63.073 9.67133 610 119.167 1192.41 455.649
662 0 64.0512 11.1786 716 117.447 1192.29 450.036
663 0 67.0876 10.926 733 118.127 1192.37 450.336
664 0 71.0632 11.9471 849 115.022 1192.58 445.735
665 0 75.0389 12.6201 947 112.327 1192 446.026
666 0 73.0981 10.5201 769 120.088 1192.75 443.043
667 0 78.0725 13.0007 1015 113.763 1192.47 441.926
668 0 77.0595 11.1862 862 119.452 1193.12 439.349
669 0 83.0783 12.3979 1030 115.458 1193.02 438.722
670 0 85.1193 11.9362 1016 117.947 1192.86 436.556
671 0 88.0917 11.488 1012 119.624 1193.06 433.755
672 0 90.2523 12.4651 1125 119.061 1192.45 432.028
673 0 94.1197 11.496 1082 121.551 1192.05 433.629
674 0 99.0697 13.0009 1288 122.655 1192.09 425.516
675 1 50.1243 11.2121 562 115.801 1193.09 456.827
676 0 53.0686 12.0222 638 112 1192.54 457.712
677 0 56.1097 13.0102 730 109.912 1193.16 456.629
678 0 54.0862 11.4817 621 111.515 1193.23 456.525
679 0 58.0565 12.0055 697 108.785 1192.98 456.607
680 0 60.071 11.7694 707 107.789 1194.02 456.455
681 0 61.0744 11.838 723 107.733 1193.32 453.852
682 0 62.0895 10.2594 637 112.157 1193.99 452.89
683 0 64.1071 10.654 683 111.139 1193.3 453.243
684 0 74.0776 15.2408 1129 94.4057 1193.28 445.194
685 0 77.1744 14.681 1133 95.8632 1193.46 447.581
686 0 75.1424 13.8537 1041 100.797 1193.73 446.254
687 0 76.0504 12.3076 936 106.098 1194.14 445.956
688 0 79.1727 12.6811 1004 105.029 1194.11 449.122
689 0 79.1017 12.6546 1001 107.766 1194.01 446.549
690 0 82.1891 12.5564 1032 108.832 1194.7 445.151
691 0 86.206 13.3401 1150 109.41 1193.93 442.399
692 0 88.1329 13.1733 1161 112.706 1194.37 440.899
693 0 89.1802 12.8616 1147 116.583 1194.15 440.397
694 0 93.1229 13.0902 1219 116.842 1193.74 437.418
695 0 97.1993 13.7038 1332 116.492 1193.95 436.667
696 0 99.24 13.6739 1357 117.626 1193.27 433.379
697 0 102.041 12.7596 1302 116.886 1193.48 426.439
698 1 55.0264 10.3768 571 114.904 1194.08 444.93
699 0 57.0317 12.4317 709 116.523 1194.02 448.329
700 0 59.0725 12.2561 724 116.493 1194.47 453.486
701 0 63.2074 12.5302 792 114.903 1194.04 454.821
702 0 61.2405 11.1528 683 121.224 1194.16 453.757
703 0 66.1774 13.5545 897 113.929 1193.46 453.122
704 0 68.1141 13.2865 905 114.229 1193.82 453.799
705 0 68.1362 12.1228 826 119.058 1194.24 450.41
706 0 68.1299 11.889 810 114.611 1193.38 450.411
707 0 70.1939 12.1093 850 113.587 1193.6 451.396
708 0 73.2403 12.3156 902 113.258 1194.23 448.813
709 0 77.3679 13.5457 1048 110.609 1193.26 447.594
710 0 78.1512 12.0664 943 116.506 1193.83 447.398
711 0 81.1802 12.6139 1024 115.194 1193.78 447.397
712 0 84.1338 13.1101 1103 114.276 1193.98 445.026
713 0 86.2894 12.3422 1065 116.228 1194.8 444.216
714 0 90.1869 13.3611 1205 114.509 1194.62 442.417
715 0 91.2521 12.2299 1116 118.266 1194.42 439.318
716 0 93.2305 12.1205 1130 118.643 1193.54 439.776
717 0 96.2698 13.0363 1255 117.022 1193.54 436.951
718 0 100.205 12.7538 1278 117.557 1194.09 436.491
719 0 105.166 13.7592 1447 115.198 1194.29 433.638
720 0 109.324 13.5012 1476 115.869 1194.03 432.07
721 1 62.0909 10.0981 627 113.805 1194.69 457.228
722 0 65.1723 12.2138 796 107.226 1194.49 455.523
723 0 66.1775 11.9225 789 109.091 1194.26 451.232
724 0 69.1289 10.9506 757 109.684 1194.54 454.614
725 0 71.158 11.8047 840 108.3 1194.74 451.989
726 0 74.1755 11.4458 849 109.316 1194.66 450.444
727 0 74.1637 12.1892 904 109.323 1194.35 449.147
728 0 79.1654 12.4549 986 108.817 1193.31 447.442
729 0 81.1624 12.7029 1031 110.056 1193.63 446.91
730 0 83.2213 13.0015 1082 111.029 1193.55 445.023
731 0 85.2059 12.3231 1050 112.843 1192.98 444.849
732 0 89.1068 12.76 1137 111.678 1193.38 442.061
733 0 93.1114 12.9093 1202 110.547 1193.78 441.809
734 0 95.1855 12.0186 1144 111.726 1194.27 439.457
735 0 97.1492 12.6609 1230 113.545 1192.73 436.489
736 0 102.193 11.9773 1224 115.082 1192.9 438.129
737 0 106.162 12.9801 1378 118.017 1192.67 432.715
738 1 57.1081 10.1212 578 110.796 1192.7 459.54
739 0 61.0699 11.3149 691 105.803 1193.28 456.816
740 0 62.1855 12.0768 751 113.414 1192.4 455.981
741 0 61.1001 10.9983 672 112.647 1194.22 455.772
742 0 64.0986 11.5447 740 110.468 1193.61 455.389
743 0 67.1434 11.2744 757 112.416 1193.95 453.651
744 0 70.0715 12.6728 888 109.409 1193.72 453.374
745 0 72.1507 12.1828 879 111.42 1193.61 452.323
746 0 75.1649 11.8539 891 113.019 1193.4 452.358
747 0 77.0972 11.9849 924 114.223 1193.37 447.586
748 0 81.0707 12.853 1042 113.902 1192.93 446.677
749 0 86.1219 14.015 1207 110.253 1193.66 441.853
750 0 88.1769 13.9152 1227 112.105 1193.48 438.888
751 0 90.1041 14.6386 1319 110.782 1193.67 437.641
752 0 94.1339 14.66 1380 110.49 1193.12 436.872
753 0 95.2432 13.2293 1260 116.394 1193.51 435.314
754 0 99.261 13.1169 1302 116.992 1193.09 430.968
755 0 103.145 13.7282 1416 115.465 1193.12 427.453
756 0 106.173 13.5533 1439 116.477 1193.56 425.877
757 0 110.197 12.877 1419 118.643 1193.33 426.288
758 0 116.173 14.3666 1669 114.291 1193.33 426.012
759 1 64.0498 11.616 744 115.125 1193.24 449.206
760 0 66.1322 12.6414 836 115.203 1193.05 455.008
761 0 68.1029 12.3636 842 114.901 1193.48 456.557
762 0 70.206 12.8052 899 113.273 1194.38 455.469
763 0 71.1524 12.0727 859 117.425 1193.07 453.905
764 0 75.0996 12.4635 936 114.937 1193.59 453.563
765 0 77.1809 12.6974 980 114.855 1193.3 450.808
766 0 79.0937 12.4156 982 108.365 1192.21 450.101
767 0 80.0938 11.6613 934 111.047 1192.43 449.69
768 0 81.0494 12.3752 1003 109.855 1193.19 450.967
769 0 86.0835 11.1752 962 113.044 1193.66 450.224
770 0 87.218 11.1445 972 114.992 1192.52 447.143
771 0 92.1272 12.0703 1112 113.345 1192.38 443.624
772 0 92.1057 11.4977 1059 115.271 1192.78 442.315
773 0 98.0422 12.9536 1270 111.106 1192 440.624
774 0 99.0955 12.7856 1267 112.934 1192.44 440.449
775 0 102.122 12.7299 1300 114.252 1193.3 436.979
776 0 107.112 13.4532 1441 112.43 1192.93 433.127
777 0 108.081 12.4721 1348 114.859 1193.11 434.335
778 0 109.11 11.2547 1228 117.655 1193.16 429.327
779 0 115.173 12.2164 1407 115.348 1192.42 419.397
780 0 119.106 11.8046 1406 117.101 1191.9 425.802
781 1 70.1589 11.8588 832 112.659 1192.69 447.886
782 0 72.083 12.7908 922 104.422 1192.3 451.069
783 0 74.092 11.6882 866 111.752 1192.28 450.48
784 0 78.183 12.4452 973 110.152 1192.5 447.232
785 0 82.2476 12.049 991 109.803 1192.82 447.474
786 0 82.1426 11.0418 907 114.415 1193.11 443.218
787 0 86.0984 11.8005 1016 112.252 1192.61 442.697
788 0 91.1559 12.4073 1131 109.82 1193.23 441.872
789 0 93.1471 12.3461 1150 110.654 1192.59 438.586
790 0 99.1811 13.3897 1328 107.206 1191.87 433.394
791 0 99.3348 12.5233 1244 111.031 1191.53 439.084
792 0 102.278 12.5149 1280 112.948 1191.2 437.332
793 0 100.157 10.6532 1067 115.423 1192.74 438.168
794 1 57.0801 10.5991 605 107.653 1192.63 454.96
795 0 60.1016 11.4972 691 101.614 1192.74 445.245
796 0 63.177 11.1116 702 102.862 1192.2 447.85
797 0 64.061 11.77 754 110.81 1192.14 450.874
798 0 67.1024 11.0726 743 111.583 1193.58 454.982
799 0 68.2064 13.1366 896 108.561 1192.4 452.378
800 0 71.0855 11.7323 834 111.049 1193.47 452.372
801 0 72.1193 13.034 940 108.469 1192.92 452.183
802 0 71.1114 11.1656 794 113.251 1192.83 450.758
803 0 76.067 12.0157 914 110.202 1192.71 450.719
804 0 78.0902 12.7801 998 107.734 1192.89 445.419
805 0 83.0837 10.8204 899 110.471 1192.16 443.301
806 0 83.0585 11.6785 970 108.492 1191.99 441.616
807 0 87.0528 13.2448 1153 104.597 1192.48 442.439
808 0 87.0716 12.6562 1102 107.544 1191.66 441.289
809 0 90.1247 11.8724 1070 109.174 1192.43 437.591
810 0 96.2348 13.2696 1277 105.212 1191.86 435.099
811 0 96.208 12.8576 1237 107.715 1192.64 432.102
812 0 104.267 15.6618 1633 99.0637 1191.85 423.991
813 0 105.17 13.6541 1436 104.969 1192.11 429.14
814 0 107.144 13.9065 1490 139.759 1193.1 428.452
815 1 58.0828 11.8107 686 101.569 1191.98 451.079
816 0 61.0738 13.1153 801 100.338 1191.74 450.896
817 0 62.0392 11.6217 721 103.524 1192.07 452.662
818 0 64.1141 11.4951 737 105.612 1191.67 448.259
819 0 66.302 12.1263 804 102.882 1191.8 447.455
820 0 67.0994 12.3846 831 102.976 1191.37 443.286
821 0 72.0809 13.7346 990 98.604 1191.78 444.965
822 0 74.0994 13.4954 1000 99.794 1191.27 444.955
823 0 75.0848 13.1052 984 99.6504 1191.52 443.938
824 0 78.0571 13.1186 1024 99.5215 1192.2 441.035
825 0 81.1198 14.4971 1176 97.3231 1191.14 439.966
826 0 81.0532 12.6583 1026 101.543 1191.86 440.18
827 0 84.2669 13.1962 1112 100.946 1192.01 439.029
828 0 86.1149 12.344 1063 102.36 1191.31 438.584
829 0 90.1647 12.8986 1163 101.6 1192.11 438.516
830 0 92.0968 12.8778 1186 102.763 1192.17 435.109
831 0 95.088 13.0616 1242 102.875 1190.94 432.237
832 0 97.2008 13.3229 1295 103.073 1191.71 430.303
833 0 98.1734 13.028 1279 104.525 1191.53 431.567
834 0 102.156 12.5886 1286 106.74 1190.17 429.736
835 0 105.175 13.102 1378 106.248 1190.47 428.625
836 0 107.116 12.6592 1356 108.824 1191.9 425.866
837 0 114.274 13.5814 1552 105.96 1191.8 428.327
838 0 117.198 13.7631 1613 106.712 1192.24 423.92
839 0 120.162 13.848 1664 108.239 1192.1 420.805
840 1 68.1379 13.1351 895 106.485 1192.53 446.149
841 0 73.0551 13.6609 998 103.24 1192.53 447.332
842 0 74.0604 14.2316 1054 104.681 1192.73 445.393
843 0 75.0928 12.9307 971 108.201 1192.76 446.011
844 0 78.0236 14.3162 1117 106.384 1193 444.415
845 0 80.1511 13.749 1102 109.759 1193.63 444.553
846 0 81.0782 13.7028 1111 110.029 1193.45 443.808
847 0 84.1591 13.7953 1161 110.227 1193.74 445.129
848 0 86.1473 13.8136 1190 112.816 1193.6 441.625
849 0 90.0777 14.2211 1281 111.85 1193.32 441.358
850 0 93.1466 14.2356 1326 112.238 1193.26 438.57
851 0 93.0774 13.3974 1247 116.18 1192.49 437.245
852 0 96.0561 13.5442 1301 115.3 1192.65 436.811
853 0 98.0927 14.8839 1460 113.935 1192.73 434.329
854 0 102.111 14.827 1514 113.709 1193.17 435.203
855 0 102.121 15.1879 1551 113.462 1192.64 434.32
856 0 106.113 14.7861 1569 114.422 1192.27 432.519
857 0 108.137 15.0919 1632 113.779 1192.4 432.882
858 0 111.213 13.8833 1544 117.311 1191.98 429.313
859 0 114.175 14.2325 1625 115.096 1192.6 429.486
860 0 118.115 13.9102 1643 116.819 1191.4 426.218
861 0 120.172 14.4293 1734 115.897 1191.98 423.575
862 0 123.114 13.5566 1669 117.589 1191.81 425.721
863 0 127.215 14.6131 1859 114.958 1191.5 424.061
864 0 131.235 14.8513 1949 114.101 1191.65 421.962
865 0 135.131 15.1483 2047 113.59 1192.02 418.233
866 0 136.211 15.0575 2051 115.302 1192.05 414.883
867 0 141.207 16.1324 2278 112.405 1191.87 414.2
868 0 145.129 15.5655 2259 113.521 1191.96 416.151
869 0 149.184 15.1826 2265 115.203 1192.68 413.669
870 0 151.192 15.391 2327 116.075 1192.47 409.328
871 0 154.16 15.8731 2447 115.658 1192.2 406.969
872 0 158.147 15.0746 2384 117.654 1191.94 407.462
873 0 162.115 15.3965 2496 117.152 1192.15 407.045
874 0 166.207 15.4386 2566 117.61 1192.52 406.111
875 0 169.309 16.2484 2751 116.645 1192.1 401.76
876 0 171.192 14.954 2560 120.313 1192.21 401.656
877 0 176.329 15.8397 2793 118.762 1191.5 398.635
878 0 179.338 15.5238 2784 119.742 1191.63 398.364
879 0 183.244 17.5941 3224 114.524 1192.08 398.062
880 0 188.148 15.7217 2958 119.892 1191.68 393.496
881 0 192.165 14.9039 2864 122.23 1192.73 390.51
882 0 197.226 15.86 3128 119.574 1192.19 390.087
883 0 202.258 16.0735 3251 119.643 1191.8 384.584
884 0 207.219 16.7986 3481 118.067 1192.8 384.224
885 0 212.15 16.2291 3443 120.115 1191.86 379.796
886 0 217.269 16.2748 3536 119.701 1191.11 378.471
887 0 222.281 16.7941 3733 119.042 1191.85 374.976
888 0 226.224 16.9257 3829 119.662 1191.9 369.872
889 0 231.253 17.4484 4035 117.781 1191.7 372.524
890 0 236.339 16.3367 3861 121.132 1191.43 369.395
891 0 242.403 17.4544 4231 118.091 1191.49 368.174
892 0 247.347 17.4452 4315 118.978 1191.21 363.746
893 0 250.18 15.7087 3930 124.053 1191.3 360.709
894 0 255.482 16.3651 4181 122.119 1192.41 358.581
895 0 261.265 17.2851 4516 119.631 1192.75 355.185
896 0 270.249 16.9658 4585 119.672 1192.54 354.005
897 0 274.521 17.4632 4794 119.173 1192.05 346.181
898 0 279.344 16.5101 4612 121.936 1192.04 341.539
899 1 65.0558 12.1895 793 107.61 1192.25 454.449
900 0 65.0925 11.7832 767 110.359 1191.87 450.975
901 0 68.0369 13.3163 906 104.315 1192.71 453.251
902 0 68.035 11.8615 807 106.833 1192.79 454.621
903 0 69.0649 12.7127 878 104.737 1193.42 454.044
904 0 69.0641 11.8585 819 107.447 1193.5 452.527
905 0 70.16 12.0011 842 106.855 1193.33 452.86
906 0 71.0704 12.3539 878 106.262 1193.48 451.986
907 0 72.085 12.513 902 106.899 1193.25 449.268
908 0 73.0966 12.6408 924 106.095 1193.07 450.669
909 0 73.0351 12.5967 920 107.509 1192.74 449.037
910 0 76.0368 12.9937 988 105.391 1192.98 449.72
911 0 77.1149 13.9791 1078 103.465 1193.5 448.83
912 0 78.08 13.0891 1022 104.764 1193.71 449.018
913 0 78.0699 12.7578 996 105.479 1193.1 448.644
914 0 80.0891 13.3102 1066 104.184 1193.02 448.668
915 0 80.0368 13.2939 1064 103.681 1193.33 449.564
916 0 82.0987 13.0575 1072 104.314 1193.44 447.698
917 0 83.0841 13.2396 1100 103.987 1191.95 445.666
918 0 83.1182 14.3771 1195 102.167 1193.01 446.404
919 0 85.1713 13.1969 1124 103.858 1192.13 445.601
920 0 86.0968 14.0191 1207 102.571 1192.8 444.796
921 0 85.122 12.4292 1058 106.832 1192.33 444.905
922 0 86.1592 13.9393 1201 104.067 1192.96 443.731
923 0 86.1382 12.7121 1095 107.341 1192.92 443.311
924 0 87.1167 13.4532 1172 106.064 1193.21 443.357
925 0 89.1534 14.3124 1276 104.657 1192.98 440.881
926 0 89.1326 13.8894 1238 105.512 1193.02 442.244
927 0 88.128 13.4123 1182 106.793 1191.97 442.844
928 0 91.0775 14.7786 1346 103.445 1193.05 441.82
929 0 91.0738 14.8012 1348 130.846 1193.06 441.732
930 0 93.1917 13.6815 1275 105.515 1192.8 441.035
931 0 92.1637 13.042 1202 107.734 1193.03 441.082
932 0 94.1554 14.7947 1393 104.197 1193.24 439.904
933 0 94.2898 14.763 1392 104.42 1192.83 440.524
934 0 94.1882 14.2693 1344 106.465 1192.59 439.788
935 0 95.0934 14.2702 1357 105.888 1193.24 438.644
936 0 95.1064 13.7951 1312 106.912 1192.47 441.296
937 0 95.1135 13.6258 1296 107.884 1192.3 437.573
938 0 96.0748 14.1869 1363 106.564 1192.73 437.285
939 0 97.1337 14.5676 1415 106.225 1192.6 437.243
940 0 96.2163 14.8208 1426 106.28 1192.44 435.11
941 0 98.043 14.1774 1390 106.678 1192.56 438.537
942 0 97.1047 13.8098 1341 107.855 1193.34 437.992
943 0 98.1241 14.767 1449 105.914 1193.66 436.257
944 0 98.1428 14.3159 1405 106.663 1192.78 436.594
945 0 99.2243 14.442 1433 106.625 1192.79 437.161
946 0 99.0853 14.3109 1418 106.05 1192.55 438.751
947 0 98.1052 14.3825 1411 106.834 1192.2 435.253
948 0 101.099 15.5393 1571 103.14 1193.2 434.998
